accX,accY,accZ,gyroX,gyroY,gyroZ
-2.3851611614227295,2.51678466796875,9.553986549377441,-0.01797689124941826,-0.14077825844287872,0.2916968762874603
-2.000681161880493,2.6721012592315674,9.249664306640625,0.00593411922454834,-0.1733984649181366,0.20867156982421875
-1.9482767581939697,2.717658281326294,8.756926536560059,-0.18277087807655334,-0.47371727228164673,0.10037388652563095
-2.004990577697754,2.580958843231201,8.25727653503418,-0.44053855538368225,-0.7676481604576111,0.013875367119908333
-1.6981593370437622,2.3144171237945557,8.556235313415527,-0.6582858562469482,-0.8406552672386169,-0.06466444581747055
-0.9438325762748718,1.9860093593597412,10.117177963256836,-0.39767327904701233,-0.6017546057701111,-0.24851742386817932
-0.8180699348449707,1.6282964944839478,10.263568878173828,-0.09557422995567322,-0.5407727956771851,-0.33546972274780273
-0.6845501065254211,1.0191062688827515,11.015043258666992,0.22198842465877533,-0.6779382228851318,-0.5202128291130066
-0.3132764995098114,1.6241880655288696,10.268914222717285,0.4573984444141388,-0.5215567350387573,-0.7300712466239929
-1.3231315612792969,2.0966598987579346,9.504023551940918,0.5516811013221741,-0.4070282280445099,-0.7532491683959961
-1.6140079498291016,2.250070571899414,9.365962982177734,0.5448917746543884,-0.36646679043769836,-0.6638010740280151
-1.3232752084732056,2.2639570236206055,9.480684280395508,0.5465498566627502,-0.3156602382659912,-0.651513934135437
-1.2099432945251465,2.229241132736206,9.760729789733887,0.6223495006561279,-0.21724113821983337,-0.6902078986167908
-2.024623155593872,2.9560728073120117,9.01905345916748,0.5875999927520752,-0.41898372769355774,-0.6346540451049805
-1.8368122577667236,3.045319080352783,9.229283332824707,0.4800877273082733,-0.4194375276565552,-0.6573782563209534
-1.479750633239746,3.048546552658081,9.8264741897583,0.47567203640937805,-0.3675837814807892,-0.7389724254608154
-1.750017762184143,3.031097650527954,9.901959419250488,0.5253615379333496,-0.3447898030281067,-0.812188982963562
-2.2160634994506836,3.1583733558654785,9.995207786560059,0.49844858050346375,-0.23771384358406067,-0.8214392066001892
-2.2099056243896484,2.9536116123199463,9.962559700012207,0.5496739745140076,-0.17615607380867004,-0.7963762879371643
-1.8673144578933716,2.7821006774902344,9.408312797546387,0.6304478049278259,-0.17615607380867004,-0.7692538499832153
-1.7103984355926514,2.820580244064331,8.175087928771973,0.6522120833396912,-0.06361725181341171,-0.7643494606018066
-2.054933547973633,3.0476653575897217,8.030038833618164,0.5667258501052856,-0.05576327070593834,-0.7247130870819092
-2.2014012336730957,3.1253907680511475,8.596611022949219,0.5177170038223267,-0.24905848503112793,-0.7198784947395325
-2.487278699874878,3.384931802749634,9.058528900146484,0.42613959312438965,-0.5182406306266785,-0.6871535778045654
-2.285552740097046,3.715111255645752,8.24358081817627,0.36501815915107727,-0.5649107098579407,-0.5296027064323425
-1.781783938407898,3.5493080615997314,7.9891252517700195,0.2868448495864868,-0.45411720871925354,-0.4815188944339752
-1.3946032524108887,3.4047558307647705,8.48178482055664,0.21989403665065765,-0.4366639256477356,-0.4922526478767395
-1.1177856922149658,3.4069392681121826,8.782764434814453,0.08344419300556183,-0.4436103403568268,-0.3571641743183136
-0.6738815307617188,3.412273645401001,8.854609489440918,0.10264281183481216,-0.3459242582321167,-0.3173706829547882
-0.4852471947669983,3.4416840076446533,8.79146957397461,0.09943141043186188,-0.3076491951942444,-0.30752700567245483
-0.4992485046386719,3.539875030517578,8.571749687194824,0.07529350370168686,-0.2756572961807251,-0.27260297536849976
-0.4216955304145813,3.5868875980377197,8.483498573303223,0.036302849650382996,-0.16137313842773438,-0.24233897030353546
-0.6098031401634216,3.7283082008361816,8.643901824951172,0.03033382259309292,-0.10634291172027588,-0.2094220519065857
-0.04485776275396347,3.885444402694702,8.441036224365234,-0.14702653884887695,-0.13725268840789795,-0.19545942544937134
-0.06472005695104599,3.9453377723693848,8.46069622039795,-0.24776694178581238,-0.09347983449697495,-0.2358637899160385
-0.19781851768493652,3.9848995208740234,8.877641677856445,-0.26340508460998535,-0.08257152885198593,-0.25045475363731384
-0.6323756575584412,4.101650238037109,9.50356388092041,-0.16542230546474457,-0.15564845502376556,-0.179734006524086
-0.7180880904197693,4.12653112411499,9.40096664428711,-0.06009168550372124,-0.13290682435035706,-0.03556980937719345
-0.5227691531181335,3.9287219047546387,9.04017162322998,-0.03495894372463226,0.058835048228502274,0.07496189326047897
-0.23620235919952393,3.807786226272583,8.982824325561523,-0.0205948855727911,0.19058994948863983,0.11971213668584824
-0.23536917567253113,3.783020496368408,8.922087669372559,-0.0023911010939627886,0.23813271522521973,0.14030702412128448
-0.1489097625017166,3.8757143020629883,8.8291654586792,0.058835048228502274,0.3136356770992279,0.1682322919368744
-0.5196471214294434,4.067652702331543,8.58205509185791,0.08773770183324814,0.5780355930328369,0.24059364199638367
-0.5170804858207703,3.950777292251587,8.587140083312988,0.021013764664530754,0.5993460416793823,0.27084019780158997
-0.5241768956184387,4.110719680786133,8.712691307067871,-0.013718287460505962,0.546078622341156,0.2516590356826782
-0.49476656317710876,4.1807451248168945,8.70018482208252,-0.009773843921720982,0.5319065451622009,0.21436133980751038
-0.7445200681686401,4.049198150634766,8.6800537109375,0.020647244527935982,0.559412956237793,0.19367918372154236
-0.9022501111030579,4.026913166046143,8.616780281066895,0.04312708601355553,0.5872334837913513,0.21593213081359863
-0.8360456228256226,4.133215427398682,8.565840721130371,0.02802998758852482,0.6399598717689514,0.21615903079509735
-0.7271956205368042,4.119923114776611,8.820623397827148,-0.006440265104174614,0.7474896311759949,0.19336502254009247
-0.9869473576545715,4.00829553604126,9.509012222290039,0.0858352929353714,0.9024922847747803,0.207345113158226
-1.3636605739593506,4.349488735198975,9.208368301391602,0.3447374403476715,1.1684629917144775,0.34168311953544617
-1.3920366764068604,4.396989345550537,8.551935195922852,0.36189401149749756,1.2087801694869995,0.41519638895988464
-1.2840102910995483,4.418508529663086,8.103529930114746,0.25136232376098633,1.2112759351730347,0.38290777802467346
-1.6030137538909912,4.526257514953613,8.214725494384766,0.14337879419326782,1.180261492729187,0.34574973583221436
-2.401010751724243,4.687281608581543,8.928170204162598,0.13693852722644806,1.09243643283844,0.44081780314445496
-2.426015853881836,4.796572208404541,9.056920051574707,0.1609891653060913,1.0413157939910889,0.5130046010017395
-2.2650487422943115,4.939888954162598,8.422648429870605,0.16887806355953217,0.9635962843894958,0.5600412487983704
-2.2484233379364014,4.689311981201172,7.670073986053467,0.11873474717140198,0.9971066117286682,0.5096186995506287
-2.8961029052734375,4.773463249206543,7.680589199066162,0.04188790172338486,0.8665908575057983,0.451691210269928
-3.3783621788024902,5.085533142089844,7.897801876068115,-0.005393067374825478,0.7741757035255432,0.4701218903064728
-2.9762990474700928,5.407198905944824,8.609453201293945,-0.07360053062438965,0.5100724697113037,0.4593706429004669
-3.406632900238037,5.42596960067749,8.658543586730957,-0.1351233869791031,0.10346312075853348,0.4433136284351349
-3.696676015853882,5.610265731811523,9.270434379577637,-0.3881961405277252,-0.404916375875473,0.3401122987270355
-3.9881269931793213,4.822266578674316,9.46196174621582,-0.6193126440048218,-0.46705010533332825,0.41407936811447144
-3.4653098583221436,4.021942615509033,9.630340576171875,-0.8467115759849548,-0.43825218081474304,0.5909335613250732
-3.241701126098633,4.069951057434082,10.12657356262207,-0.9734224677085876,-0.5845282077789307,0.669927179813385
-3.297112464904785,4.362321376800537,9.726713180541992,-0.9299114346504211,-0.7619060277938843,0.8111766576766968
-2.2810516357421875,3.847740650177002,9.068939208984375,-0.787876546382904,-0.9528799653053284,0.9281311631202698
-1.4020731449127197,2.922151803970337,8.254000663757324,-0.6795613765716553,-0.8289441466331482,0.8613548874855042
0.09902417659759521,2.2287814617156982,6.793949127197266,-0.757106363773346,-0.6140417456626892,0.5984559655189514
1.2872281074523926,2.0567820072174072,7.162752151489258,-1.030424952507019,-0.5271941423416138,0.10389944911003113
-1.2080566883087158,2.6342251300811768,9.615391731262207,-0.9751154780387878,-0.5823814868927002,-0.08801695704460144
-2.442411184310913,3.224405288696289,10.503965377807617,-0.6221749782562256,-0.3009471297264099,0.09190903604030609
-2.1012470722198486,2.3962223529815674,9.790617942810059,-0.24115213751792908,-0.056094881147146225,0.33187437057495117
-1.2781301736831665,1.6201274394989014,9.854504585266113,0.05745624005794525,0.12034045159816742,0.3890862464904785
-2.287477731704712,2.3465569019317627,7.660373687744141,0.24228660762310028,0.6514266729354858,0.2267008125782013
-2.4699158668518066,2.433121681213379,8.763631820678711,0.07955210655927658,0.4466995596885681,0.27230626344680786
-2.1586599349975586,2.352111577987671,9.1298189163208,-0.009721484035253525,0.3467969298362732,0.23265238106250763
-2.2709767818450928,2.1841917037963867,9.347356796264648,-0.16009904444217682,0.06916739791631699,0.1390852928161621
-2.3515751361846924,2.043163776397705,9.037574768066406,-0.28359854221343994,-0.20725785195827484,0.08248426020145416
-2.2735912799835205,2.244611978530884,9.263970375061035,-0.2615375816822052,-0.2292838990688324,-0.07379251718521118
-2.6458418369293213,2.7854907512664795,9.506522178649902,-0.04848524555563927,-0.1907121241092682,-0.05785766616463661
-2.404745578765869,2.947099447250366,9.028132438659668,0.08234463632106781,-0.08155923336744308,-0.08607963472604752
-2.396433115005493,3.145435094833374,8.771004676818848,-0.022689281031489372,-0.023143066093325615,-0.19518016278743744
-2.3189854621887207,3.1520047187805176,8.933589935302734,-0.13952161371707916,-0.09794788062572479,-0.20584413409233093
-2.2917490005493164,3.071913957595825,9.013795852661133,-0.1779886782169342,-0.1486322432756424,-0.20725785195827484
-2.1955881118774414,2.969116449356079,9.22275161743164,-0.2025105506181717,-0.19573867321014404,-0.1946740299463272
-1.999455213546753,2.9020884037017822,9.609119415283203,-0.16336281597614288,-0.1817411333322525,-0.18275342881679535
-2.0204474925994873,2.898554563522339,9.830756187438965,-0.11571533232927322,-0.20156808197498322,-0.17924530804157257
-2.1102492809295654,2.8082644939422607,10.00064754486084,0.0010646508308127522,-0.2702467739582062,-0.16566665470600128
-1.8796206712722778,2.8119513988494873,9.817710876464844,0.10395181179046631,-0.28729864954948425,-0.15732397139072418
-1.681102991104126,2.886775016784668,9.580072402954102,0.17894861102104187,-0.32159435749053955,-0.1869596689939499
-1.592527151107788,2.9749200344085693,9.185564994812012,0.1995958536863327,-0.29473376274108887,-0.21008528769016266
-1.6120446920394897,2.9218454360961914,8.851037979125977,0.17957693338394165,-0.20615829527378082,-0.253421813249588
-2.0214436054229736,3.0034875869750977,8.90241813659668,0.07426375895738602,-0.13866640627384186,-0.27755969762802124
-1.928634762763977,3.0117907524108887,8.671655654907227,0.07468263804912567,-0.10335839539766312,-0.2609092593193054
-2.141249418258667,3.0579605102539062,8.939105987548828,0.0023911010939627886,-0.06284930557012558,-0.20263272523880005
-2.0881459712982178,3.0812129974365234,9.061881065368652,0.032131511718034744,-0.10077530890703201,-0.19481365382671356
-2.0222480297088623,3.148097276687622,9.016371726989746,0.07600908726453781,-0.06058037653565407,-0.19947367906570435
-1.6677817106246948,3.238856792449951,8.26091480255127,0.2842966914176941,0.3635695278644562,-0.19746655225753784
-1.6454581022262573,3.2679989337921143,8.342222213745117,0.2952049970626831,0.4554087519645691,-0.22242476046085358
-1.7538484334945679,3.4499967098236084,8.851889610290527,0.44308674335479736,0.70621258020401,-0.22657863795757294
-1.8790556192398071,3.6347427368164062,9.091836929321289,0.6768037676811218,0.9425301551818848,-0.20474457740783691
-1.9738564491271973,3.7436118125915527,8.813821792602539,0.872856616973877,1.0866420269012451,-0.19882790744304657
-2.000546932220459,3.5495188236236572,8.214160919189453,1.0141061544418335,1.2424999475479126,-0.27778661251068115
-2.3470165729522705,4.075189590454102,8.260110855102539,1.0835003852844238,1.1241666078567505,-0.327161967754364
-3.110996723175049,4.255320072174072,8.620543479919434,1.1565773487091064,0.998153805732727,-0.25041982531547546
-3.7879526615142822,4.398560047149658,8.910874366760254,1.2379446029663086,0.7817155122756958,-0.06447245925664902
-3.765782356262207,5.421688556671143,6.264533996582031,0.7251843214035034,0.2482556253671646,-0.12201596796512604
-3.5010793209075928,5.123486042022705,6.36599063873291,0.34688419103622437,-0.040509093552827835,-0.20874138176441193
-3.5203094482421875,4.969491004943848,7.271698951721191,0.1932428479194641,-0.19945622980594635,-0.3041061758995056
-3.921510696411133,5.25529146194458,8.008058547973633,0.26145032048225403,-0.29452431201934814,-0.3856130540370941
-3.983290672302246,5.205808162689209,7.941987991333008,0.4504520297050476,-0.23392647504806519,-0.4326845705509186
-4.262301445007324,5.167146682739258,7.891106605529785,1.042607307434082,0.2992192506790161,-0.2908940315246582
-3.894935131072998,5.7412285804748535,6.750269412994385,1.1327186822891235,0.3257133364677429,-0.2186548411846161
-3.6671411991119385,5.973925590515137,5.8754377365112305,1.0508627891540527,0.2678731381893158,-0.21839304268360138
-3.723768711090088,6.187555313110352,4.8489861488342285,0.720820963382721,0.25268876552581787,-0.2646442651748657
-4.694397449493408,6.162425994873047,5.379512310028076,0.3372674286365509,0.203365758061409,-0.37142351269721985
-6.100042819976807,6.179750442504883,7.07919454574585,-0.037140607833862305,0.04429645463824272,-0.38009780645370483
-5.976683616638184,5.666596412658691,8.608332633972168,-0.24073326587677002,-0.029530970379710197,-0.3534291684627533
-5.804952621459961,5.513846397399902,8.712998390197754,-0.23280946910381317,-0.14566518366336823,-0.3095515966415405
-5.519611358642578,4.944131851196289,9.10981273651123,-0.07787659019231796,-0.4058937728404999,-0.15920893847942352
-4.690547466278076,4.682617664337158,8.843377113342285,0.11794935166835785,-0.5136852860450745,-0.07216936349868774
-4.269167900085449,4.676555633544922,7.57278299331665,0.15905185043811798,-0.4521799087524414,-0.035412728786468506
-3.8911235332489014,4.617371082305908,6.866196632385254,0.10288716107606888,-0.5513843894004822,0.030770154669880867
-3.180351972579956,4.679610729217529,6.6685028076171875,0.013700834475457668,-0.6038839221000671,0.046705011278390884
-2.4483392238616943,4.827380657196045,6.52919864654541,-0.08653342723846436,-0.5174726843833923,0.04122467711567879
-2.1305713653564453,4.737875938415527,7.027096748352051,-0.20666444301605225,-0.4268202781677246,0.02281145378947258
-2.2163219451904297,4.755899429321289,8.672066688537598,-0.25268876552581787,-0.4645542800426483,-0.00022689280740451068
-2.18601131439209,4.736429691314697,9.2462158203125,-0.18165387213230133,-0.4280768930912018,-0.019460421055555344
-2.1451470851898193,4.658781051635742,9.44511604309082,-0.05811946466565132,-0.381965309381485,-0.054367005825042725
-2.1166083812713623,4.44016170501709,9.252650260925293,0.09105382859706879,-0.14451326429843903,-0.10149089246988297
-2.7926924228668213,4.32555627822876,9.318826675415039,0.18273596465587616,0.1005135104060173,-0.09164723753929138
-3.406853199005127,4.494854927062988,9.774011611938477,0.28094565868377686,0.13500121235847473,0.023195425048470497
-2.923492431640625,4.451931476593018,8.697464942932129,0.32414254546165466,0.2149023860692978,0.13964378833770752
-2.4711129665374756,4.06512451171875,7.468894004821777,0.2571917176246643,0.220016211271286,0.17036159336566925
-2.5831615924835205,4.22544002532959,6.8715500831604,0.17015214264392853,0.2683967351913452,0.17957693338394165
-3.0536317825317383,4.900261402130127,6.748076438903809,0.12793263792991638,0.3297450542449951,0.2198067605495453
-3.571526288986206,5.383448600769043,6.216975212097168,0.049183379858732224,0.27523842453956604,0.31665509939193726
-3.5113072395324707,5.748142719268799,7.226236820220947,-0.05351179465651512,0.015411256812512875,0.3920533061027527
-3.172642707824707,5.4025444984436035,7.604041576385498,-0.15219271183013916,-0.19319050014019012,0.3871314823627472
-2.840557336807251,5.276849269866943,7.55272912979126,-0.2503325641155243,-0.2811201810836792,0.30866149067878723
-1.9305500984191895,5.0509033203125,7.579649448394775,-0.39327505230903625,-0.2805616855621338,0.12861330807209015
-2.2054619789123535,5.180257320404053,7.846919059753418,-0.4240277409553528,-0.3146130442619324,0.1143365204334259
-2.2645795345306396,5.355637550354004,8.135364532470703,-0.40852922201156616,-0.37805578112602234,0.13486158847808838
-2.0920724868774414,5.274540901184082,7.9722700119018555,-0.36683329939842224,-0.35409238934516907,0.1578126698732376
-1.822351336479187,5.108737945556641,7.795932292938232,-0.3545985519886017,-0.25797712802886963,0.1733810007572174
-1.785097599029541,5.057760238647461,7.927911281585693,-0.3519805371761322,-0.17776177823543549,0.14297737181186676
-2.068695545196533,5.204103469848633,8.119121551513672,-0.2992192506790161,-0.09946631640195847,0.12168435752391815
-2.4257092475891113,5.343053340911865,8.01845932006836,-0.28473302721977234,-0.09965830296278,0.17585937678813934
-2.2339720726013184,5.096508026123047,7.592999458312988,-0.46153485774993896,-0.0815068781375885,0.21750293672084808
-2.2223267555236816,5.095368385314941,7.769463062286377,-0.4986231029033661,-0.06983062624931335,0.23546236753463745
-2.288119316101074,5.134288787841797,8.077930450439453,-0.4680449366569519,-0.03790855035185814,0.2566157579421997
-2.350560188293457,5.221083164215088,8.325615882873535,-0.32152456045150757,0.06859143823385239,0.3088360130786896
-2.2729687690734863,5.2646484375,8.324419021606445,-0.11583749949932098,0.24275784194469452,0.39104101061820984
-1.2491220235824585,3.6367921829223633,9.029012680053711,0.19308577477931976,0.24694663286209106,0.5849296450614929
-1.4249138832092285,3.8054685592651367,8.267302513122559,0.32128021121025085,0.4729667603969574,0.5325348377227783
-1.4398728609085083,3.9016196727752686,7.621749401092529,0.3421892523765564,0.638790488243103,0.43743187189102173
-1.659210443496704,4.0183610916137695,7.473989963531494,0.2183581441640854,0.6198013424873352,0.31269317865371704
-1.9275429248809814,4.078579902648926,7.607288360595703,0.123290054500103,0.539324164390564,0.25996679067611694
-2.343827486038208,4.085235595703125,7.83536958694458,-0.0838281661272049,0.29332002997398376,0.22029545903205872
-2.2246060371398926,3.7904903888702393,8.107093811035156,-0.24717353284358978,0.1218239814043045,0.18708184361457825
-2.282689332962036,3.4691598415374756,8.567899703979492,-0.26103144884109497,0.15990707278251648,0.14044664800167084
-2.374300956726074,3.5163064002990723,8.999641418457031,-0.18467329442501068,0.3343527317047119,0.15102334320545197
-2.5401041507720947,3.6914565563201904,8.984990119934082,-0.06033603101968765,0.4185648560523987,0.19174186885356903
-2.65773606300354,3.7301182746887207,8.615850448608398,0.025883233174681664,0.3945665955543518,0.24689427018165588
-2.458749294281006,3.9832141399383545,8.034768104553223,0.027314402163028717,0.3153635561466217,0.24949482083320618
-2.4255752563476562,4.006351470947266,8.035783767700195,-0.03677408769726753,0.3493450880050659,0.23525293171405792
-2.4134414196014404,3.9872076511383057,8.244126319885254,-0.10321877151727676,0.375036358833313,0.20176005363464355
-2.6397125720977783,4.1053853034973145,8.42325210571289,-0.12697270512580872,0.31066861748695374,0.18713420629501343
-2.5422685146331787,3.9734935760498047,8.68648910522461,-0.07440338283777237,0.28003808856010437,0.18957766890525818
-2.2657766342163086,3.835980176925659,8.875842094421387,0.05457644537091255,0.3326597511768341,0.15634658932685852
-2.325258255004883,4.036834716796875,8.435644149780273,0.15831881761550903,0.4778711497783661,0.13924236595630646
-2.43192458152771,4.0057196617126465,7.74796199798584,0.22141246497631073,0.5781228542327881,0.14468780159950256
-3.216322660446167,4.844073295593262,8.629948616027832,0.05492551252245903,0.2952573597431183,0.07094763219356537
-3.135446310043335,4.1206793785095215,8.435011863708496,-0.13114404678344727,0.2708227336406708,0.014852751977741718
-3.4049856662750244,4.0109100341796875,9.117205619812012,0.08454374969005585,0.36306339502334595,-0.034749504178762436
-3.4044015407562256,4.162712097167969,9.24462604522705,0.3511776924133301,0.5904274582862854,-0.018832102417945862
-3.0534019470214844,3.9464008808135986,8.531057357788086,0.6398726105690002,0.9533337354660034,0.0200189258903265
-3.1619837284088135,4.0600199699401855,7.783223628997803,0.8789477944374084,1.2959942817687988,0.02808234840631485
-3.629542589187622,4.548379898071289,7.222914695739746,1.0065139532089233,1.549677848815918,0.056269414722919464
-3.9585442543029785,4.8670477867126465,6.728529930114746,0.997839629650116,1.7370214462280273,0.0901462584733963
-3.8179566860198975,4.833854675292969,6.252074241638184,0.8609359860420227,1.8613587617874146,0.04047418385744095
-4.125506401062012,4.995511054992676,6.079002380371094,0.6563310623168945,1.5584219694137573,-0.08038986474275589
-4.713521957397461,5.364495754241943,6.039057731628418,0.437833309173584,0.9927956461906433,-0.14290755987167358
-6.549893856048584,5.9120306968688965,5.383084774017334,0.21118484437465668,0.4069758653640747,-0.026337018236517906
-5.925371170043945,5.864233016967773,4.6408820152282715,-0.07812093943357468,-0.22965042293071747,0.09023351967334747
-3.922870635986328,5.983339786529541,6.568865776062012,-0.3353300988674164,-0.16826719045639038,-0.2508736252784729
-4.257991790771484,5.823732376098633,6.729392051696777,-0.3640582263469696,-0.23410101234912872,-0.3416132926940918
-4.628949165344238,4.947359085083008,6.83318567276001,-0.3415260314941406,-0.4519879221916199,-0.32822662591934204
-4.452601909637451,5.2823076248168945,7.342336177825928,-0.30117401480674744,-0.6123836636543274,-0.36538466811180115
-4.756579399108887,5.312762260437012,7.894917964935303,-0.09791296720504761,-0.28359854221343994,-0.2849075496196747
-4.368086814880371,5.189097881317139,8.055693626403809,0.19216075539588928,0.058712877333164215,-0.15999433398246765
-3.446941614151001,5.143233299255371,7.523184776306152,0.4237310290336609,0.27211427688598633,-0.19805996119976044
-3.982553243637085,5.340094089508057,7.00079870223999,0.5575628876686096,0.382000207901001,-0.2252696454524994
-4.497948169708252,5.523355960845947,6.6182050704956055,0.5830970406532288,0.3891037106513977,-0.20127137005329132
-4.2879958152771,5.62692928314209,6.1243486404418945,0.5780355930328369,0.5048364996910095,-0.17580701410770416
-4.236089706420898,5.580136775970459,6.056736469268799,0.5697453022003174,0.5208760499954224,-0.23343779146671295
-4.362015247344971,5.747961044311523,5.830015182495117,0.5301437377929688,0.3001442849636078,-0.23572416603565216
-5.387240886688232,5.98397159576416,5.0926008224487305,0.4099254906177521,-0.39248964190483093,-0.2652725875377655
-6.058048248291016,6.528106689453125,7.3595170974731445,0.26220080256462097,-0.5973913073539734,-0.17057102918624878
-5.464918613433838,6.324331283569336,6.857443332672119,0.3223274052143097,-0.9696176648139954,-0.13817772269248962
-4.743076324462891,5.680511474609375,6.170441627502441,0.309324711561203,-1.178271770477295,-0.1716705858707428
-4.543294429779053,6.090054035186768,6.167990207672119,0.15681783854961395,-1.2982107400894165,-0.23172736167907715
-4.209130764007568,6.082746982574463,6.196413993835449,-0.02272418700158596,-1.2376652956008911,-0.2868448495864868
-3.9310874938964844,5.567993640899658,6.479609966278076,-0.13809044659137726,-1.1572405099868774,-0.33740705251693726
-3.696790933609009,5.540833950042725,6.980017185211182,-0.09414306282997131,-0.912021815776825,-0.41612139344215393
-4.855095863342285,6.333946704864502,7.383286952972412,0.5056393146514893,-0.7047814130783081,-0.21535617113113403
-4.470606327056885,6.438094139099121,7.017615795135498,0.49272391200065613,-0.7407701015472412,-0.18369589745998383
-3.7571918964385986,6.058900833129883,6.555400371551514,0.40137335658073425,-0.7350454330444336,-0.2537010610103607
-3.7617886066436768,5.965861797332764,6.748823165893555,0.2480287402868271,-0.8462578058242798,-0.34643039107322693
-3.8595967292785645,5.912413597106934,7.543382167816162,0.11711159348487854,-1.012378215789795,-0.40854665637016296
-4.288905620574951,5.705344200134277,8.46604061126709,0.09035569429397583,-1.0768855810165405,-0.4299967586994171
