accX,accY,accZ,gyroX,gyroY,gyroZ
-0.08236053586006165,2.0029125213623047,8.822537422180176,0.009040805511176586,0.07885397225618362,0.012252211570739746
-0.14164096117019653,2.0490822792053223,9.105551719665527,0.019687313586473465,0.11931070685386658,0.02715732343494892
-0.21299774944782257,2.0345351696014404,9.24101448059082,0.05375614017248154,0.14271557331085205,0.03141592815518379
-0.1731199324131012,2.047502040863037,8.877710342407227,0.06874851882457733,0.15973253548145294,0.021205751225352287
-0.29079973697662354,2.07637619972229,9.164985656738281,0.02258456125855446,0.15248940885066986,0.0073303827084600925
-0.34056082367897034,1.9891505241394043,9.341638565063477,0.02413790300488472,0.08548622578382492,0.01251401100307703
-0.39217978715896606,2.1082763671875,9.260810852050781,0.02595304511487484,0.10161306709051132,0.021467549726366997
-0.4000902473926544,2.112825393676758,9.144824981689453,0.04646066576242447,0.08243189752101898,0.007661995477974415
-0.41635164618492126,2.111896514892578,8.790119171142578,0.01944296807050705,0.060562923550605774,0.006073745898902416
-0.4824603497982025,2.161734104156494,8.884757995605469,-0.0016231562476605177,0.06812020391225815,0.010192723013460636
-0.5853535532951355,2.152071237564087,9.19922161102295,0.01802925020456314,0.09658651798963547,0.007382742594927549
-0.7702242136001587,2.4872593879699707,8.931894302368164,0.040858156979084015,0.11555825173854828,-0.07063347101211548
-1.039504885673523,2.5861687660217285,9.209440231323242,0.023335052654147148,0.024696409702301025,-0.09318313002586365
-1.1242403984069824,2.420499563217163,8.826013565063477,-0.027890361845493317,-0.09517280012369156,-0.06447245925664902
0.1699308454990387,1.5917227268218994,9.097458839416504,0.0832522064447403,-0.12363912165164948,-0.18095573782920837
-0.4595526456832886,1.9253307580947876,8.87187671661377,0.034836772829294205,-0.06462953984737396,-0.23631757497787476
-0.7574870586395264,2.174835205078125,8.912723541259766,0.024591689929366112,-0.058398716151714325,-0.27862435579299927
-1.2126343250274658,2.6312179565429688,9.0186128616333,-0.037000980228185654,-0.21722367405891418,-0.25413739681243896
-1.1817682981491089,2.6652731895446777,8.83565902709961,-0.07365289330482483,-0.28274333477020264,-0.2226691097021103
-1.1958941221237183,2.709623336791992,8.664875030517578,-0.07988371700048447,-0.18788468837738037,-0.1589645892381668
-1.109549641609192,2.5798096656799316,8.89419174194336,-0.09084438532590866,-0.17270033061504364,-0.10297442227602005
-0.3111504316329956,1.819344162940979,9.137652397155762,-0.19025833904743195,-0.46305331587791443,-0.14756758511066437
-0.13010092079639435,1.8437172174453735,9.383403778076172,-0.27928757667541504,-0.7340156435966492,-0.22570598125457764
0.2665129601955414,1.7067880630493164,9.372245788574219,-0.27178266644477844,-0.7266154885292053,-0.34459781646728516
-0.9318807125091553,2.5347890853881836,8.993253707885742,0.0015882495790719986,0.2134712189435959,-0.05710717290639877
-0.9997611045837402,2.3302955627441406,9.178315162658691,-0.2209412306547165,-0.2630036771297455,-0.015795229002833366
-0.4724717438220978,1.997836709022522,8.893913269042969,-0.22614231705665588,-0.22251202166080475,0.0547160729765892
-0.29942843317985535,1.6228665113449097,9.250774383544922,-0.1028347983956337,0.1676214188337326,0.055658549070358276
-1.8538686037063599,0.87236088514328,4.621901035308838,-0.17289231717586517,1.0341424942016602,0.07527604699134827
-0.08276276290416718,0.9452499747276306,9.829989433288574,-0.5902703404426575,0.2399653196334839,0.4712912440299988
0.8067118525505066,1.0442070960998535,9.235000610351562,-0.6745697259902954,-0.14842279255390167,0.24925047159194946
-0.9746794700622559,1.680336833000183,9.099834442138672,-0.32763320207595825,0.15974998474121094,-0.0449247732758522
-0.5561634302139282,1.0691355466842651,9.427178382873535,-0.15795229375362396,0.12054988741874695,-0.060964349657297134
0.3696455657482147,-0.20934899151325226,8.712892532348633,-0.3799581825733185,-0.2741912305355072,-0.2554114758968353
-0.5895577669143677,0.7857961058616638,8.593623161315918,-0.5649107098579407,-0.37885862588882446,-0.4337492287158966
-1.1685619354248047,2.672513246536255,9.00700569152832,-0.43481388688087463,-0.15198327600955963,-0.421619176864624
-1.3536049127578735,3.157808303833008,9.976523399353027,-0.23600341379642487,-0.11374310404062271,-0.18191567063331604
-0.9903950095176697,2.3634026050567627,10.13491439819336,-0.15269885957241058,-0.269025057554245,-0.03626793995499611
0.13871046900749207,1.060947299003601,8.381199836730957,0.8419643044471741,1.3688268661499023,-0.035011306405067444
-0.8677352666854858,0.9966869950294495,7.706647872924805,0.3462733328342438,0.884829580783844,-0.03508111834526062
-0.31413841247558594,1.2832633256912231,9.400152206420898,0.1088910922408104,0.19600047171115875,0.013037609867751598
-0.8206173777580261,1.4415104389190674,9.258817672729492,0.08503244072198868,0.11025244742631912,0.008377579972147942
-0.7275882959365845,1.5153859853744507,8.90294361114502,-0.038117989897727966,-0.10101965814828873,0.02785545401275158
-0.4627034068107605,1.4837825298309326,9.047430038452148,-0.01218239776790142,0.03265510872006416,0.018570303916931152
-0.6175124645233154,0.8958910703659058,9.287078857421875,-0.07686430215835571,-0.13751448690891266,0.17648769915103912
-0.5198960900306702,1.2021381855010986,9.4316987991333,-0.1442689150571823,-0.2168746143579483,0.150342658162117
-0.4372195303440094,1.5129151344299316,9.454894065856934,-0.1282118856906891,-0.21593213081359863,0.1362578570842743
-0.059893347322940826,1.4761593341827393,9.553257942199707,-0.034121185541152954,-0.09381144493818283,0.15594516694545746
-0.0014269441599026322,1.6496241092681885,9.796469688415527,0.03164282068610191,-0.10276498645544052,0.1391376405954361
-0.43175116181373596,0.9707912802696228,9.408206939697266,0.10478956997394562,-0.16430529952049255,0.0760265439748764
-0.6533010005950928,1.090712070465088,9.507835388183594,0.2039417177438736,0.15105824172496796,0.0055850534699857235
-0.7396742105484009,1.4683254957199097,9.098455429077148,0.10405652970075607,-0.14093533158302307,-0.07059856504201889
-0.8116151690483093,1.3367785215377808,8.782736778259277,-0.03454006463289261,-0.35873496532440186,-0.06627015024423599
-0.3042263984680176,0.744318962097168,9.111978530883789,-0.14638076722621918,-0.46881288290023804,-0.04283038154244423
-0.12479536235332489,1.0939586162567139,9.516158103942871,-0.16179202497005463,-0.49610984325408936,-0.07745771110057831
0.14514607191085815,1.2515449523925781,9.242259979248047,-0.09829694032669067,-0.36072465777397156,-0.041748274117708206
0.13689087331295013,1.1877347230911255,9.275970458984375,-0.008011061698198318,-0.07422885298728943,-0.016144296154379845
-0.07352114468812943,0.919354259967804,9.222350120544434,0.013648474588990211,0.06551966071128845,-0.009948376566171646
0.07978437095880508,0.8516175150871277,9.606112480163574,-0.013788101263344288,-0.12712977826595306,-0.03132865950465202
-0.13845188915729523,1.5931400060653687,9.223576545715332,-0.04213224723935127,-0.08169886469841003,-0.03459242731332779
0.0033710359130054712,1.5231910943984985,9.325550079345703,0.06319837272167206,0.16341517865657806,0.051574479788541794
0.005248089786618948,1.5078107118606567,9.055339813232422,0.10496409982442856,0.3085218369960785,0.10505136847496033
0.12544658780097961,1.601538896560669,9.359834671020508,0.058136917650699615,0.3450166881084442,0.15140731632709503
-0.058523863554000854,1.617311954498291,9.735772132873535,0.01851794309914112,0.2666339576244354,0.14350096881389618
0.041908103972673416,1.9198144674301147,9.888742446899414,-0.12578587234020233,-0.04120722413063049,0.07394959777593613
0.09419746696949005,1.2843072414398193,9.139022827148438,-0.23061035573482513,-0.286897212266922,0.03286454826593399
0.4411364197731018,0.6648219227790833,8.670198440551758,-0.12796753644943237,0.0034208453726023436,-0.0006632251315750182
0.1151706725358963,0.7821090221405029,9.516014099121094,0.01776745170354843,0.3124662935733795,-0.06613052636384964
-0.420804888010025,0.8781740069389343,9.417774200439453,0.0005061454721726477,0.13147565722465515,-0.15053464472293854
-0.4949772357940674,1.1643576622009277,9.003214836120605,-0.23116885125637054,-0.33309608697891235,-0.2352878302335739
-0.1000201627612114,0.9249662756919861,9.452614784240723,-0.19149751961231232,-0.2560048997402191,-0.19256217777729034
0.13217908143997192,0.5262838006019592,9.615018844604492,-0.09232791513204575,-0.1126086413860321,-0.1293463557958603
0.26446351408958435,0.7328555583953857,9.635148048400879,-0.10126399993896484,-0.18842574954032898,-0.10407398641109467
0.22981461882591248,1.4012782573699951,8.76321792602539,-0.06660176068544388,-0.17378243803977966,-0.2862514555454254
0.33354100584983826,0.9425205588340759,9.50115966796875,-0.10300933569669724,-0.2246587872505188,-0.37451276183128357
0.5621489882469177,1.743333101272583,9.790081977844238,0.169925257563591,0.2705085873603821,0.20212657749652863
0.957785964012146,1.5237464904785156,9.573722839355469,0.07145377993583679,0.06806784123182297,0.21090558171272278
0.5065747499465942,0.9466098546981812,9.412315368652344,0.0006632251315750182,-0.13070771098136902,0.052464596927165985
-0.03371993452310562,0.8182997703552246,8.968113899230957,0.08333947509527206,0.0037350046914070845,0.016022123396396637
-0.17429786920547485,1.1017253398895264,8.601341247558594,0.04906120523810387,0.09461429715156555,0.017784904688596725
-0.444469153881073,1.5333712100982666,8.806783676147461,0.043650683015584946,0.23095941543579102,0.11705923080444336
0.03917871415615082,0.9209440350532532,9.429381370544434,0.1301666498184204,0.41580724716186523,0.25881487131118774
0.16606181859970093,1.4341267347335815,9.981839179992676,0.11224212497472763,0.2741912305355072,0.2125461995601654
0.3196163475513458,1.2120693922042847,9.730228424072266,0.0475253164768219,-0.00038397242315113544,0.20345303416252136
0.3214071989059448,1.1209555864334106,9.4199857711792,0.022828906774520874,-0.1555611938238144,0.16486379504203796
0.3855622112751007,1.2791357040405273,9.051527976989746,0.049235738813877106,-0.08475318551063538,0.1259080469608307
0.11745952814817429,1.7472021579742432,9.245076179504395,0.12419763207435608,0.09630727022886276,0.08925613760948181
-0.6023236513137817,1.3808797597885132,8.772538185119629,0.08574802428483963,0.23062780499458313,0.16573646664619446
-0.7024874687194824,0.8860365748405457,9.3222074508667,-0.004014257341623306,0.03136356547474861,0.2016029804944992
0.21724985539913177,1.4508957862854004,9.225634574890137,-0.007382742594927549,0.23623031377792358,0.002286381321027875
0.16194379329681396,1.2803040742874146,10.198007583618164,-0.01005309633910656,-0.12592551112174988,-0.06174974888563156
0.010515333153307438,1.4070243835449219,9.270999908447266,-0.015044738538563251,-0.24385739862918854,-0.0665319487452507
0.2099619060754776,1.5643234252929688,8.933370590209961,-0.004153883550316095,-0.09512044489383698,-0.02413790300488472
0.4918552041053772,1.4977455139160156,9.2486572265625,0.007958701811730862,0.020176006481051445,-0.03591887652873993
0.01668279618024826,1.4495741128921509,9.671923637390137,0.040945425629615784,0.011676252819597721,-0.05708971992135048
-0.5060863494873047,1.3805253505706787,9.364412307739258,0.06705555319786072,-0.013299409300088882,-0.037489671260118484
-0.20966501533985138,1.5834962129592896,9.16406536102295,0.03007202222943306,-0.062430426478385925,-0.05108578875660896
-0.14745408296585083,1.7573918104171753,8.954229354858398,0.03260274976491928,0.0714363232254982,-0.06792821735143661
-0.008513781242072582,1.559104084968567,9.126514434814453,-0.025795966386795044,0.050963614135980606,-0.07696902006864548
0.08104851096868515,1.3750282526016235,9.559165954589844,-0.07380997389554977,-0.03159045800566673,-0.08000589162111282
-0.008963890373706818,1.2199127674102783,9.640857696533203,-0.031433381140232086,-0.13098695874214172,-0.08676031976938248
-0.1138586476445198,1.1704580783843994,8.926321029663086,-0.02045525796711445,-0.09749408811330795,-0.04996877536177635
-0.08643067628145218,1.3339629173278809,9.226764678955078,0.02675589732825756,0.019285887479782104,-0.02480112947523594
-0.1422826200723648,1.2310409545898438,9.394272804260254,0.13231341540813446,0.11255628615617752,-0.001029744278639555
-0.20396682620048523,1.3244627714157104,9.071821212768555,0.11906635761260986,0.033405601978302,0.019547687843441963
-0.21688593924045563,1.1925901174545288,8.991500854492188,0.02923426404595375,-0.017732545733451843,-0.07339109480381012
-0.12139559537172318,1.6060208082199097,9.158636093139648,0.00376991112716496,0.06939429044723511,-0.04221951588988304
-0.23483286798000336,1.1408370733261108,9.471691131591797,-0.0015707963611930609,-0.07627088576555252,0.02249729447066784
-0.20232918858528137,1.403854489326477,8.932948112487793,-0.03588397055864334,-0.1042834222316742,0.038117989897727966
-0.35381510853767395,1.392486810684204,9.314268112182617,0.011815878562629223,0.05527457594871521,0.05820672959089279
-0.371455579996109,1.3419021368026733,9.561139106750488,0.11910127103328705,0.2313084900379181,0.057473693042993546
-0.556077241897583,1.5830460786819458,9.033044815063477,0.17634806036949158,0.39297834038734436,0.050823986530303955
-0.6396540403366089,1.9189525842666626,8.774672508239746,0.17329373955726624,0.5516113042831421,0.06237806752324104
-1.3923527002334595,3.663827657699585,7.4801177978515625,-1.1400315761566162,1.2103508710861206,0.3237062096595764
-1.7260181903839111,3.3955907821655273,7.424715995788574,-1.4272255897521973,1.485379934310913,0.640151858329773
-2.188577890396118,2.501011610031128,8.175538063049316,-1.6632463932037354,1.5387694835662842,1.0647555589675903
-2.738487720489502,1.8847442865371704,9.52627944946289,-1.6965123414993286,0.9720087647438049,1.5372685194015503
-2.2904274463653564,1.232515811920166,9.605441093444824,-1.3126447200775146,0.45179593563079834,1.8432247638702393
-1.5243210792541504,0.8488976955413818,10.513696670532227,-0.6382145285606384,-0.30372220277786255,2.00875186920166
0.20766347646713257,-0.7470962405204773,8.84223747253418,0.17708110809326172,-0.694850504398346,1.9365301132202148
1.3385214805603027,-2.521841287612915,10.574115753173828,0.7433007955551147,-1.4743669033050537,1.4967594146728516
0.9787783622741699,-1.2411158084869385,9.439139366149902,1.31093430519104,-1.7325359582901,0.7752752304077148
0.8804724216461182,0.694950520992279,8.841432571411133,-1.1245853900909424,-1.0772695541381836,-0.3102322816848755
2.1712918281555176,0.4372961223125458,8.322944641113281,-0.47907543182373047,0.11601203680038452,-0.37885862588882446
0.3522828221321106,-0.8009466528892517,7.379695415496826,-0.5226388573646545,-0.014870204962790012,-0.3948283791542053
0.799625039100647,-2.2942771911621094,6.802770614624023,-1.0462201833724976,0.07637561112642288,-0.349694162607193
0.1508251279592514,-1.922725796699524,8.70756721496582,-1.409754753112793,0.4349011480808258,-0.7035771012306213
-1.6008301973342896,-0.4258805811405182,10.039605140686035,-1.540671944618225,0.11655309051275253,-0.774158239364624
0.7390708923339844,0.71790611743927,11.298851013183594,-0.49923399090766907,1.016532063484192,-0.8156098127365112
-0.057671528309583664,1.4315409660339355,12.00968074798584,0.06613052636384964,1.0054492950439453,-0.5899561643600464
0.7095456123352051,1.5148879289627075,11.154940605163574,0.25303784012794495,0.49415507912635803,-0.17640042304992676
1.2788676023483276,1.196162223815918,10.160120010375977,0.2453583925962448,0.2068389654159546,0.13456489145755768
0.12184570729732513,0.237926185131073,9.321701049804688,0.22338469326496124,0.4053003489971161,0.2385166883468628
-0.6574573516845703,0.24911189079284668,9.476911544799805,0.07339109480381012,0.37110936641693115,0.17488199472427368
-0.6929106712341309,0.1994561403989792,9.87036418914795,0.1039867177605629,0.022252947092056274,0.0953298807144165
-0.3317980468273163,-0.009567230008542538,9.735782623291016,0.21193532645702362,-0.1734159141778946,0.10452777147293091
0.11999738216400146,-0.17102260887622833,9.045571327209473,0.16526523232460022,-0.106011301279068,0.07646287232637405
-0.4846917390823364,-0.6070641875267029,9.297308921813965,0.06241297349333763,-0.07269296050071716,0.04022983834147453
-0.5722620487213135,0.13195881247520447,10.347825050354004,0.2865830659866333,-0.04827580600976944,0.0017104226863011718
-0.6433985829353333,0.3144448697566986,9.981897354125977,0.48024478554725647,-0.31583479046821594,0.022532200440764427
-0.25693613290786743,-0.07594407349824905,7.611157417297363,0.45352381467819214,-0.2548704445362091,0.01457349956035614
-0.7872517704963684,0.33483389019966125,8.728435516357422,0.2586577832698822,0.10248573124408722,0.06867870688438416
-0.4139478802680969,0.15774916112422943,9.903874397277832,0.2548355162143707,0.023753931745886803,0.024993114173412323
0.10244309902191162,0.8957090973854065,10.408514976501465,0.4277103841304779,-0.4283038079738617,0.0587477833032608
-0.35158371925354004,0.7731738686561584,9.487847328186035,0.5189911127090454,-0.4075692892074585,-0.022305307909846306
-0.19841226935386658,0.6400945782661438,9.202670097351074,0.4573809802532196,-0.28735101222991943,0.006928957067430019
0.08160396665334702,0.7231733798980713,9.295239448547363,0.463699072599411,-0.49871036410331726,0.014503685757517815
0.4529925286769867,0.5542768239974976,9.976618766784668,0.5722934603691101,-0.9698619842529297,0.049008846282958984
0.46884214878082275,0.21570798754692078,9.902447700500488,0.7807206511497498,-1.388182520866394,-0.0077841682359576225
0.37481704354286194,0.7865431308746338,8.693575859069824,0.7074866890907288,-1.1480252742767334,-0.045954518020153046
0.2889418303966522,1.4050036668777466,7.567707538604736,0.04239404574036598,0.09295623749494553,-0.06417575478553772
0.32047826051712036,1.2407423257827759,8.642196655273438,-0.1604655683040619,0.4159119725227356,-0.04879940673708916
0.44002553820610046,1.1847562789916992,9.770611763000488,0.009564404375851154,-0.09628981351852417,0.015358896926045418
0.7709616422653198,1.146334171295166,9.30327320098877,0.06803293526172638,-0.2595129907131195,0.009023352526128292
0.9473951458930969,1.1187242269515991,9.03180980682373,0.013753194361925125,-0.11793189495801926,-0.01235693134367466
0.9496744275093079,1.166799783706665,9.055216789245605,-0.017924530431628227,-0.021938787773251534,-0.016580628231167793
0.8296483159065247,1.2089855670928955,9.375329971313477,-0.030839968472719193,0.07942993193864822,-0.026145031675696373
0.7972403764724731,1.0797083377838135,9.617000579833984,0.02595304511487484,0.04673991724848747,-0.024207716807723045
0.81684410572052,1.3180558681488037,9.445087432861328,0.042673300951719284,-0.09899507462978363,-0.0610516183078289
0.7969339489936829,1.2099720239639282,9.016860008239746,0.03047344833612442,-0.1103048101067543,-0.06101670861244202
0.688237190246582,1.0697963237762451,8.966840744018555,-0.030839968472719193,0.08742354065179825,-0.08480554819107056
0.40457218885421753,1.0426747798919678,9.1917724609375,-0.06471680849790573,0.19565141201019287,-0.1010894700884819
-0.25631365180015564,0.9496456980705261,8.992688179016113,-0.07501424849033356,0.14856243133544922,-0.0460941456258297
0.011932700872421265,1.2200276851654053,10.481785774230957,0.08761552721261978,-0.20319123566150665,0.08335692435503006
0.384662002325058,1.1662251949310303,9.359757423400879,0.24506168067455292,-0.4067489802837372,0.15112805366516113
0.28452691435813904,1.1231870651245117,9.655489921569824,0.28492501378059387,-0.387114018201828,0.2615375816822052
1.0571740865707397,0.9051135778427124,9.448200225830078,0.33080971240997314,-0.5331282615661621,0.26539477705955505
1.2050591707229614,1.1982500553131104,8.926169395446777,0.2845759391784668,-0.5751383304595947,0.24729570746421814
0.7968381643295288,1.418717622756958,8.092305183410645,0.055658549070358276,0.1967160552740097,0.36339500546455383
0.38380008935928345,1.6010984182357788,7.294567108154297,-0.3263241946697235,1.017701506614685,0.5535835027694702
0.1211082935333252,1.5050430297851562,9.060118675231934,0.10269517451524734,-0.052377332001924515,0.12545426189899445
0.5139297246932983,1.3821533918380737,8.857972145080566,0.06839945167303085,0.032044246792793274,0.22825415432453156
0.8748029470443726,1.3147423267364502,9.288477897644043,0.026738444343209267,0.05496041849255562,0.2608918249607086
1.7324347496032715,1.6152050495147705,8.927614212036133,-0.07936011999845505,0.0768992081284523,0.2732836604118347
3.4960036277770996,0.9344568848609924,9.676712036132812,-0.030106930062174797,-0.07183775305747986,0.02042035199701786
1.2104891538619995,1.5367039442062378,9.01688003540039,-0.016982054337859154,-0.03258529677987099,-0.050073496997356415
0.7261134386062622,1.7090481519699097,8.964016914367676,-0.09147270768880844,0.1008102148771286,0.01966986060142517
1.0153043270111084,1.475632667541504,9.374975204467773,-0.05855579674243927,-0.0028972465079277754,0.003926991019397974
0.790747344493866,1.399985432624817,9.177923202514648,-0.07714354991912842,-0.09520771354436874,0.0371580608189106
1.062872290611267,1.4595818519592285,9.09544849395752,-0.057822756469249725,-0.03248057886958122,0.035988688468933105
1.0415446758270264,1.1440069675445557,9.46337890625,-0.028728120028972626,0.014276793226599693,0.0463733971118927
1.0846786499023438,1.235762357711792,9.227167129516602,0.01727875880897045,-0.051312681287527084,0.051225412636995316
1.0296216011047363,1.0649791955947876,9.490854263305664,-0.017034413293004036,0.0071907564997673035,0.0016057029133662581
1.2121938467025757,1.3505308628082275,9.349855422973633,0.009162978269159794,-0.10707595199346542,0.00823795422911644
1.3572537899017334,1.302857518196106,9.308234214782715,0.019460421055555344,-0.020717058330774307,-0.018535396084189415
1.3510096073150635,1.3973231315612793,8.93321704864502,-0.003752457909286022,-0.013875367119908333,-0.024836035445332527
1.2242223024368286,1.5121299028396606,9.04532241821289,-0.05722934752702713,0.020559977740049362,-0.03394665569067001
1.0756477117538452,1.43730628490448,9.374584197998047,-0.0653800368309021,0.01516691129654646,-0.028501227498054504
1.087886929512024,1.3492858409881592,9.43231201171875,-0.02024581842124462,-0.028623400256037712,-0.01523672416806221
1.1961047649383545,1.3185060024261475,9.164573669433594,0.005742133129388094,-0.0354301854968071,-0.013823007233440876
1.268438458442688,1.3657004833221436,9.04772663116455,0.03691371530294418,0.002373647876083851,-0.008779006078839302
1.24550199508667,1.3248075246810913,8.939785957336426,0.017505653202533722,0.02502802200615406,-0.004712388850748539
1.2780439853668213,1.3883209228515625,9.125185012817383,-0.010541788302361965,0.026633724570274353,-0.013142329640686512
1.1921687126159668,1.3443633317947388,9.238640785217285,-0.004171337001025677,0.0011868239380419254,-0.008726646192371845
1.1916228532791138,1.2894881963729858,9.102622032165527,-0.004433136433362961,-0.03200933709740639,0.005462880712002516
1.1972156763076782,1.2331287860870361,9.211873054504395,-0.02687807008624077,-0.013857914134860039,0.0008028514566831291
1.0802541971206665,1.3991714715957642,10.275023460388184,0.02869321219623089,-0.1578475832939148,-0.012007865123450756
1.4059326648712158,1.1751412153244019,9.057427406311035,0.07190756499767303,-0.08368853479623795,-0.004345869645476341
1.2114659547805786,1.3574644327163696,8.76944351196289,0.0033859387040138245,0.11302752047777176,-0.011676252819597721
1.0371202230453491,1.2581337690353394,9.321250915527344,-0.037088245153427124,0.1103048101067543,-0.0052534411661326885
1.0284532308578491,1.3103848695755005,9.412717819213867,-0.004747295752167702,-0.011536626145243645,-5.2359879191499203e-05
1.2718764543533325,1.3508659601211548,8.997639656066895,0.00094247778179124,-0.01326450239866972,0.0037350046914070845
1.3270198106765747,1.3627029657363892,9.217025756835938,-0.014503685757517815,0.010489428415894508,-0.0057246801443398
1.224270224571228,1.3450528383255005,9.394664764404297,0.02033308520913124,0.0034382985904812813,-0.011554080061614513
1.3053282499313354,1.3792228698730469,9.090180397033691,0.023020893335342407,-0.017872171476483345,-0.014713125303387642
1.280361533164978,1.4300470352172852,8.994211196899414,-0.003804817795753479,-0.003525565145537257,-0.017348572611808777
1.2160149812698364,1.423036813735962,9.21550178527832,-0.008290314115583897,0.02076941728591919,-0.016929693520069122
1.1927242279052734,1.4437227249145508,9.335853576660156,0.004642575979232788,-0.0015358896926045418,-0.004590216092765331
1.330668568611145,1.2928975820541382,9.201874732971191,0.0246265958994627,-0.0019373154500499368,-0.005078908056020737
1.3223079442977905,1.281740665435791,9.244558334350586,-0.002775073517113924,-0.008779006078839302,-0.01377064734697342
1.3048685789108276,1.3274507522583008,9.198407173156738,0.021101031452417374,-0.009721484035253525,-0.018448129296302795
1.38970947265625,1.3537677526474,8.98295783996582,0.020978856831789017,0.0007679448463022709,-0.012461651116609573
1.2263866662979126,1.3372286558151245,9.120413780212402,-0.0019024088978767395,0.014538592658936977,-0.017174039036035538
1.1237807273864746,1.4930241107940674,9.272916793823242,0.0052534411661326885,0.0009075712296180427,-0.02609267272055149
1.2105275392532349,1.4361953735351562,9.311079025268555,0.014695672318339348,0.003176499158143997,-0.03216641768813133
1.1303696632385254,1.2763584852218628,9.301129341125488,0.019373154267668724,-0.02488839440047741,-0.025010569021105766
1.4183441400527954,1.2373329401016235,9.175864219665527,-0.026773350313305855,0.02347467839717865,-0.02799508161842823
1.263927698135376,1.3129801750183105,9.445672035217285,-0.0003490658418741077,0.0319744311273098,-0.022828906774520874
1.2145113945007324,1.4297597408294678,9.365303039550781,0.033684853464365005,-0.0067369709722697735,-0.0070685832761228085
1.15109384059906,1.4121288061141968,9.045954704284668,0.013648474588990211,-0.0013264502631500363,0.004433136433362961
1.1783111095428467,1.3703356981277466,9.138687133789062,-0.00769690191373229,-0.007801621686667204,0.01432915311306715
1.381224513053894,1.344765543937683,9.152746200561523,-0.020315632224082947,-0.05066690966486931,0.028117254376411438
1.4936658143997192,1.2425235509872437,8.913775444030762,-0.0247662216424942,-0.012252211570739746,0.020717058330774307
1.2677680253982544,1.3537774085998535,9.234024047851562,-0.009564404375851154,0.021851522848010063,0.00015707963029854
1.1326967477798462,1.380678653717041,9.322782516479492,-0.0009948377264663577,0.01953023485839367,-0.0026354470755904913
1.202540397644043,1.2814149856567383,9.265609741210938,0.0015533430268988013,-0.00038397242315113544,0.0010122909443452954
1.3010761737823486,1.3127503395080566,9.171823501586914,0.012915436178445816,-0.016493361443281174,-0.0020420351065695286
1.3190135955810547,1.3213790655136108,9.075336456298828,-0.003001966280862689,-0.007208209950476885,-0.007051130291074514
1.2581721544265747,1.3394408226013184,9.281917572021484,-0.004852015525102615,0.020717058330774307,-0.007871435023844242
1.1889700889587402,1.3480792045593262,9.26207447052002,0.012164944782853127,-0.00783652812242508,-0.005393067374825478
1.2608919143676758,1.3636318445205688,9.030200958251953,0.0062831854447722435,-0.00041887903353199363,-0.0019373154500499368
1.2628167867660522,1.3286381959915161,9.097918510437012,0.030141836032271385,0.045238934457302094,-0.014294246211647987
1.2251800298690796,1.4544391632080078,8.3412446975708,0.08393288403749466,0.2338915765285492,-0.021362829953432083
1.1626529693603516,1.5650513172149658,9.683493614196777,-0.032271139323711395,0.2169095128774643,-0.006998770404607058
0.9709157943725586,1.45789635181427,10.496006965637207,-0.04361577704548836,-0.04982915148139,0.0034208453726023436
1.0914111137390137,1.2721446752548218,9.504311561584473,0.05738642439246178,-0.28073620796203613,0.009529497474431992
1.3879187107086182,1.4186410903930664,7.981004238128662,0.005829399451613426,-0.07700392603874207,0.011501720175147057
1.3061327934265137,1.411362648010254,8.19870376586914,-0.06040584668517113,0.04858996719121933,0.001658062799833715
1.1085249185562134,1.3417201042175293,9.456742286682129,-0.08084364980459213,0.027925267815589905,0.0010646508308127522
1.3422564268112183,1.3103082180023193,9.197507858276367,0.005358160939067602,0.00945968460291624,-0.0039618974551558495
1.254245638847351,1.3505786657333374,9.2251558303833,0.0007504915702156723,-0.013473941944539547,-0.007278022821992636
1.2226804494857788,1.3034799098968506,8.942593574523926,-0.015062191523611546,-0.03591887652873993,-0.008691739290952682
1.3127598762512207,1.2969294786453247,8.896929740905762,-0.03185226023197174,-0.0223227608948946,-0.00898844562470913
1.2824205160140991,1.3222122192382812,9.19723892211914,-0.045029494911432266,0.012915436178445816,-0.01940806210041046
1.1846221685409546,1.288712501525879,9.427648544311523,-0.02019345946609974,0.0025307273026555777,-0.024068091064691544
1.2057199478149414,1.338607668876648,9.193055152893066,0.0035604715812951326,-0.011833332479000092,-0.013980086892843246
1.2809935808181763,1.3809946775436401,9.032240867614746,0.006108652334660292,0.012688543647527695,-0.0009075712296180427
1.2715317010879517,1.2024446725845337,8.499483108520508,0.03467969223856926,0.0653800368309021,-0.009686577133834362
1.1110244989395142,1.486780047416687,9.482254981994629,-0.028850292786955833,0.04708898440003395,-0.00839503388851881
1.3719637393951416,1.2048771381378174,8.976723670959473,0.03134611248970032,-0.09773843735456467,0.018832102417945862
1.3836761713027954,1.2264153957366943,8.887412071228027,-0.022113321349024773,-0.004852015525102615,0.011571533046662807
1.278618574142456,1.3014496564865112,9.271890640258789,-0.022741639986634254,-0.010978121310472488,0.003228859044611454
1.195080041885376,1.3797017335891724,9.263031959533691,-0.00663225119933486,-0.028187068179249763,0.00954695139080286
1.2281967401504517,1.3393833637237549,9.292174339294434,0.006894050631672144,0.006405358202755451,0.007679448463022709
1.2460957765579224,1.2855043411254883,9.263711929321289,0.017034413293004036,-0.01045452244579792,-0.0019198621157556772
1.2759275436401367,1.2900054454803467,8.927183151245117,-0.006300638429820538,-0.012391837313771248,-0.011554080061614513
1.2455689907073975,1.2713689804077148,8.901535987854004,-0.028152160346508026,-0.00027925267932005227,-0.01771509274840355
1.2153829336166382,1.2600970268249512,9.164908409118652,-0.04836307466030121,0.018291050568223,-0.02249729447066784
1.241709589958191,1.3477535247802734,9.42844295501709,-0.025394540280103683,-0.0006632251315750182,-0.022567106410861015
1.2281583547592163,1.4423245191574097,9.210914611816406,0.01392772700637579,-0.005986479111015797,-0.018395770341157913
1.2807254791259766,1.3344800472259521,9.018010139465332,0.004188789986073971,-0.009197885170578957,-0.017680184915661812
1.3194348812103271,1.3245489597320557,8.96143913269043,-0.021851522848010063,0.009948376566171646,-0.023335052654147148
1.297025203704834,1.2154978513717651,9.08376407623291,-0.03726277872920036,0.03260274976491928,-0.029269171878695488
1.2662644386291504,1.2072330713272095,9.396742820739746,-0.02312561310827732,0.040997784584760666,-0.027663469314575195
1.2026745080947876,1.303288459777832,9.357525825500488,0.01235693134367466,0.011972958222031593,-0.021676989272236824
1.1857043504714966,1.3056730031967163,9.110445022583008,0.043737951666116714,0.024033183231949806,-0.019826939329504967
1.2153446674346924,1.3508851528167725,9.05562686920166,0.00839503388851881,0.012164944782853127,-0.008517206646502018
1.2421979904174805,1.3155659437179565,9.099278450012207,-0.020664697512984276,0.005829399451613426,-0.00017453292093705386
1.250807523727417,1.1763765811920166,9.273575782775879,-0.017592918127775192,0.02954842336475849,-0.0031590459402650595
1.1598949432373047,1.2580667734146118,9.458447456359863,0.014521139673888683,0.03900810703635216,-0.005619960371404886
1.1915079355239868,1.2017838954925537,9.243705749511719,-0.013945180922746658,-0.006405358202755451,-0.010821041651070118
1.159454345703125,1.2670785188674927,9.16942024230957,-0.009267698042094707,0.01021017599850893,-0.01581268385052681
1.195491909980774,1.3374872207641602,9.327953338623047,0.012147491797804832,0.01607448235154152,-0.00724311638623476
1.3033554553985596,1.395417332649231,9.318050384521484,0.025272367522120476,-0.0040317103266716,-0.00038397242315113544
1.30893874168396,1.4011058807373047,9.197766304016113,0.011239920742809772,-0.009669124148786068,0.00143117003608495
1.285102128982544,1.306238055229187,9.045562744140625,0.003455751808360219,0.013142329640686512,-0.004764748737215996
1.1224209070205688,1.3701536655426025,8.953041076660156,-0.006108652334660292,0.0380132719874382,-0.011013027280569077
1.233904480934143,1.3383203744888306,9.159219741821289,-0.02378883771598339,0.027296949177980423,-0.004921828396618366
1.169816493988037,1.3243381977081299,9.2828369140625,-0.0021293016616255045,0.03122393973171711,-0.01342158205807209
1.1619731187820435,1.3450433015823364,9.258742332458496,0.0005934119690209627,-0.00041887903353199363,-0.013089969754219055
1.1896883249282837,1.3578091859817505,9.105387687683105,0.005916666239500046,0.011571533046662807,-0.013840461149811745
1.2475801706314087,1.292141079902649,9.346685409545898,0.006859143730252981,0.04162610322237015,-0.008866272866725922
1.2334160804748535,1.2496678829193115,9.504875183105469,0.037978366017341614,0.04597197100520134,-0.024207716807723045
1.108362078666687,1.2557395696640015,9.029521942138672,0.0429176464676857,0.002234021434560418,-0.029426250606775284
1.0403380393981934,1.1532964706420898,8.875565528869629,0.024469515308737755,0.04225442185997963,-0.02914699912071228
1.0910472869873047,1.356248140335083,9.558476448059082,-0.024120450019836426,-0.01754055917263031,0.005288347601890564
1.3524749279022217,1.308469533920288,8.884462356567383,0.02900737151503563,-0.11704178154468536,0.02617993950843811
1.317797303199768,1.2356953620910645,8.91429328918457,-0.02413790300488472,0.02410299703478813,0.016720253974199295
1.183051586151123,1.2465362548828125,9.206280708312988,0.008011061698198318,0.010821041651070118,0.0016929693520069122
1.1681597232818604,1.3718104362487793,9.060818672180176,0.027488935738801956,0.0015882495790719986,0.0017104226863011718
1.1321126222610474,1.3930901288986206,9.033926963806152,0.00663225119933486,0.028710665181279182,-0.002007128670811653
1.1420629024505615,1.3753442764282227,9.058222770690918,0.0018151424592360854,0.04482005536556244,-0.005393067374825478
1.2140421867370605,1.4090642929077148,9.293362617492676,-0.002827433403581381,0.04942772537469864,0.0017278759041801095
1.1266347169876099,1.3988265991210938,9.446829795837402,0.03242821618914604,-0.01869247667491436,0.0027925267349928617
1.2676053047180176,1.3488452434539795,9.435644149780273,-0.01607448235154152,-0.04864232614636421,0.026284659281373024
1.3246830701828003,1.260987639427185,9.339436531066895,-0.005654866807162762,-0.08051203936338425,0.025970499962568283
1.3960973024368286,1.362865686416626,9.05797290802002,-0.014503685757517815,-0.0653974860906601,0.027139870449900627
1.3480792045593262,1.3852946758270264,8.994346618652344,-0.032218776643276215,-0.05745624005794525,0.035412728786468506
1.3065158128738403,1.3451294898986816,8.97397518157959,-0.0351334773004055,-0.03621558099985123,0.03429571911692619
1.1950609683990479,1.3887231349945068,9.224686622619629,-0.03300417587161064,0.004764748737215996,0.03171263262629509
1.104014277458191,1.409389853477478,9.4155912399292,-0.014625859446823597,-0.007609635591506958,0.030927233397960663
1.1116182804107666,1.3923239707946777,9.171765327453613,0.00874409917742014,-0.049986228346824646,0.04251622036099434
1.1934903860092163,1.2793751955032349,8.85006046295166,0.0006457717972807586,-0.0057246801443398,0.04602433368563652
1.2368062734603882,1.1755146980285645,9.063403129577637,-0.020647244527935982,0.05661848187446594,0.03303908184170723
1.3073586225509644,1.1788952350616455,9.446869850158691,-0.010088003240525723,0.02572615258395672,0.027488935738801956
1.2905991077423096,1.293884038925171,9.348142623901367,0.009529497474431992,-0.046792276203632355,0.03047344833612442
1.2785706520080566,1.2770384550094604,9.114265441894531,0.004502949304878712,-0.028361599892377853,0.02860594540834427
1.1742984056472778,1.3411359786987305,9.10518741607666,-0.009442231617867947,-0.00808087456971407,0.019198622554540634
1.1220282316207886,1.3546967506408691,9.027586936950684,-0.026337018236517906,-0.021048670634627342,0.023439772427082062
1.1443613767623901,1.3125108480453491,8.991617202758789,-0.03392919898033142,-0.017680184915661812,0.021642083302140236
1.1848329305648804,1.32970130443573,9.237893104553223,-0.03698352724313736,0.0012391837080940604,0.013823007233440876
1.201036810874939,1.239784598350525,9.451725006103516,-0.014433872886002064,-0.010821041651070118,0.007470009382814169
1.2431844472885132,1.1883572340011597,9.272217750549316,0.011920598335564137,-0.034924037754535675,-0.004153883550316095
1.273964285850525,1.2488634586334229,9.0728178024292,0.007260569836944342,-0.009616764262318611,-0.01392772700637579
1.2116671800613403,1.3492475748062134,9.111124992370605,-0.0046774824149906635,-0.016353735700249672,-0.009756390936672688
1.2801891565322876,1.4090930223464966,9.091655731201172,-0.017924530431628227,-0.024678954854607582,0.00996582955121994
1.3260141611099243,1.3145602941513062,9.238669395446777,-0.025673793628811836,-0.0131772356107831,0.017749998718500137
1.340187907218933,1.2306674718856812,9.350898742675781,-0.013526301831007004,-0.001343903481028974,0.010227628983557224
1.3328232765197754,1.244304895401001,9.292281150817871,0.002460914198309183,0.0024434609804302454,-0.0011519172694534063
1.2887316942214966,1.2713689804077148,9.06159496307373,0.008569566532969475,0.007435102481395006,-0.008813912980258465
1.2808021306991577,1.250568151473999,9.048942565917969,0.0035604715812951326,0.03415609151124954,-0.005218534264713526
1.2027989625930786,1.2855138778686523,9.16504192352295,-0.003176499158143997,0.03857177495956421,-0.013753194361925125
1.0951173305511475,1.410357117652893,8.872623443603516,-0.027698375284671783,0.1992816925048828,-0.01377064734697342
1.0115022659301758,1.4043333530426025,10.14510440826416,-0.01633628085255623,-0.00094247778179124,0.0028797932900488377
1.2942478656768799,1.1970816850662231,9.034865379333496,0.06860889494419098,-0.14480996131896973,0.01895427517592907
1.431349515914917,1.205901861190796,8.527360916137695,-0.007347836159169674,-0.00724311638623476,0.01492256484925747
1.3346620798110962,1.2308685779571533,9.313166618347168,-0.029077185317873955,0.019320795312523842,0.013037609867751598
1.3145028352737427,1.1857905387878418,9.263415336608887,0.012636183761060238,-0.06199409440159798,0.016982054337859154
1.382660984992981,1.1760892868041992,8.77125358581543,0.003525565145537257,-0.02839650772511959,0.011152653954923153
1.3617165088653564,1.1859054565429688,9.083284378051758,-0.01975712738931179,0.05510004609823227,-0.005340707488358021
1.2606046199798584,1.207951307296753,9.340279579162598,-0.013997540809214115,0.04646066576242447,-0.016702800989151
1.1572134494781494,1.2248448133468628,9.362784385681152,0.01392772700637579,-0.005689773242920637,-0.0270700566470623
1.1955111026763916,1.2413456439971924,9.219850540161133,0.01171115878969431,-0.011728612706065178,-0.023753931745886803
1.18576180934906,1.3265122175216675,9.260763168334961,0.0008726646192371845,-0.02192133478820324,-0.01860520988702774
1.2323817014694214,1.361314296722412,9.211146354675293,-0.007627088576555252,-0.03358013555407524,-0.015341443940997124
1.2309069633483887,1.3417967557907104,9.141090393066406,-0.014556045643985271,-0.028099801391363144,-0.011379546485841274
1.243883490562439,1.325803518295288,9.145964622497559,-0.014364060014486313,-0.010489428415894508,-0.0075747291557490826
1.2172982692718506,1.2844316959381104,9.264315605163574,-0.008464846760034561,0.011780972592532635,-0.012740903533995152
1.1962676048278809,1.3253246545791626,9.370349884033203,0.004398229531943798,-0.004921828396618366,-0.0126710906624794
1.1795082092285156,1.340532660484314,9.195371627807617,0.007749261800199747,-0.03675663471221924,-0.007801621686667204
1.2519567012786865,1.2960962057113647,9.062945365905762,-0.000715585018042475,-0.025446901097893715,0.0013962633674964309
1.3112850189208984,1.2752379179000854,9.112771987915039,-0.009180432185530663,0.001343903481028974,0.00427605677396059
1.3607971668243408,1.2686970233917236,9.23247241973877,0.0,-0.005061454605311155,-0.001658062799833715
1.3902649879455566,1.2746825218200684,9.214190483093262,0.00830776710063219,-0.00040142572834156454,-0.006981316953897476
1.2431365251541138,1.3014975786209106,9.182347297668457,0.012845623306930065,0.0027576202992349863,-0.014468779787421227
1.2205352783203125,1.300041913986206,9.168087005615234,0.013526301831007004,0.016720253974199295,-0.01603957638144493
1.196047306060791,1.313803791999817,9.074398040771484,0.007871435023844242,0.0005759586347267032,-0.012950343079864979
1.2144731283187866,1.2906757593154907,9.025603294372559,-0.00019198621157556772,-0.016545720398426056,-0.005323254037648439
1.2888658046722412,1.2468619346618652,9.131599426269531,-0.007487462367862463,0.007749261800199747,-0.0052534411661326885
1.2900054454803467,1.2523877620697021,9.270243644714355,0.009407324716448784,0.011501720175147057,-0.012496557086706161
1.3379948139190674,1.255030870437622,9.211441993713379,0.02387610450387001,0.0067544239573180676,-0.01242674421519041
1.384279489517212,1.2738301753997803,9.021217346191406,0.026022858917713165,0.01630137488245964,-0.0142593402415514
1.3451677560806274,1.2825738191604614,9.249691009521484,0.06270968168973923,0.03246312215924263,-0.019984019920229912
1.2444772720336914,1.2899575233459473,9.702607154846191,0.03242821618914604,-0.06991788744926453,0.0016929693520069122
1.4136706590652466,1.3069180250167847,8.652233123779297,0.01473057921975851,-0.0780511274933815,0.02125811018049717
1.459505319595337,1.2032970190048218,8.958374977111816,-0.06246533244848251,0.025569073855876923,0.033737216144800186
1.4218589067459106,1.2032108306884766,9.213682174682617,-0.016947146505117416,-0.003089232835918665,0.035098571330308914
1.2722883224487305,1.3736684322357178,8.97500991821289,-0.006649704650044441,-0.07227408140897751,0.029077185317873955
1.4132109880447388,1.2667816877365112,9.095476150512695,-0.03605850040912628,-0.04757767543196678,0.0368788056075573
1.46933114528656,1.1514098644256592,9.347692489624023,-0.02857103943824768,0.0014660765882581472,0.012042772024869919
1.167441487312317,1.1206490993499756,9.335433006286621,0.008813912980258465,0.07328637689352036,-0.0452214814722538
1.1638405323028564,1.3934158086776733,9.347269058227539,0.03885103017091751,-0.060039326548576355,-0.023404864594340324
1.235111117362976,1.3059028387069702,9.090315818786621,-0.016912240535020828,0.0005759586347267032,-0.04731587693095207
1.289679765701294,1.2794804573059082,9.290671348571777,0.00020943951676599681,-0.01860520988702774,-0.026249751448631287
1.3691960573196411,1.2824876308441162,9.233833312988281,0.007417649496346712,-0.0253421813249588,-0.028291787952184677
1.2446401119232178,1.2448028326034546,9.119197845458984,0.00020943951676599681,-0.02295107953250408,-0.007923794910311699
1.4343757629394531,1.2449464797973633,9.122702598571777,-0.008639379404485226,-0.046705011278390884,0.021694442257285118
1.4718785285949707,1.2544370889663696,9.320943832397461,-0.010035643354058266,-0.007400196045637131,0.010646508075296879
1.424674391746521,1.2902352809906006,9.335289001464844,0.005218534264713526,-0.006579891312867403,0.0034382985904812813
1.4078000783920288,1.219826579093933,9.220232963562012,0.014608405530452728,-0.009250245057046413,0.00045378561480902135
1.3272017240524292,1.2094069719314575,9.143935203552246,0.026738444343209267,0.013491394929587841,-0.011379546485841274
1.2993332147598267,1.2484228610992432,9.098743438720703,0.024748768657445908,0.003403391921892762,-0.01567305624485016
1.2625294923782349,1.3155372142791748,9.045475959777832,0.016947146505117416,-0.022305307909846306,-0.010681414976716042
1.2514779567718506,1.3083641529083252,9.07646656036377,0.006352998316287994,-0.01904154196381569,-0.009983283467590809
1.2875441312789917,1.4052814245224,9.787917137145996,0.08595746755599976,-0.2295282483100891,-0.005881759338080883
1.5093717575073242,1.1957600116729736,9.14803409576416,0.13463470339775085,-0.2146056890487671,0.0057072266936302185
1.5046311616897583,1.4227590560913086,8.611225128173828,0.01837831735610962,0.07272786647081375,0.005061454605311155
1.37844717502594,1.412636399269104,8.972480773925781,-0.08257152885198593,0.1851794272661209,-0.0009773843921720982
1.3155850172042847,1.3093409538269043,9.609723091125488,-0.0200189258903265,0.04417428374290466,-0.005846852902323008
1.2391046285629272,1.3131142854690552,9.527753829956055,0.029862582683563232,-0.08054694533348083,0.00427605677396059
1.4462988376617432,1.3218770027160645,9.09886646270752,0.0019198621157556772,-0.015027284622192383,-0.010402162559330463
1.4022072553634644,1.2400718927383423,8.9895658493042,-0.014346606098115444,-0.00038397242315113544,-0.012758356519043446
1.3994300365447998,1.225476861000061,9.438488960266113,0.04815363511443138,-0.14107497036457062,-0.005864306353032589
1.5042386054992676,1.3381959199905396,8.938264846801758,0.01811651699244976,0.055920347571372986,0.00038397242315113544
1.4559714794158936,1.3210054636001587,8.986989974975586,-0.02214822731912136,0.15601497888565063,0.007522369269281626
1.4263408184051514,1.3222601413726807,9.015576362609863,0.006510077975690365,-0.029443703591823578,0.016982054337859154
1.6302980184555054,1.3056730031967163,8.743365287780762,-0.030194196850061417,0.04248131439089775,0.0057246801443398
1.4682297706604004,1.3096857070922852,9.330280303955078,-0.0279427208006382,0.06195918843150139,-0.0018151424592360854
1.3087950944900513,1.2624624967575073,9.282109260559082,0.0019896754529327154,0.0014660765882581472,0.00017453292093705386
1.2915281057357788,1.2027894258499146,9.144011497497559,0.0005410520825535059,-0.007679448463022709,0.00472984230145812
1.3715710639953613,1.2489591836929321,9.224618911743164,0.0074525559321045876,0.014590952545404434,-0.002321287989616394
1.3809659481048584,1.294621467590332,9.191100120544434,0.021956242620944977,0.004328416660428047,-0.008412486873567104
1.2729490995407104,1.354610562324524,9.270857810974121,-0.008726646192371845,-0.0008726646192371845,-0.002286381321027875
1.3322486877441406,1.2903692722320557,9.218414306640625,0.00027925267932005227,-0.006230825558304787,0.00010471975838299841
1.2914611101150513,1.2909822463989258,9.203339576721191,0.0009075712296180427,0.008464846760034561,-0.007801621686667204
1.2899192571640015,1.3686213493347168,9.216526985168457,0.004398229531943798,-0.004485496319830418,-0.008255407214164734
1.2644544839859009,1.3831493854522705,9.108327865600586,0.002548180753365159,-0.021589722484350204,-0.004398229531943798
1.3481653928756714,1.2568984031677246,9.092565536499023,0.0060388389974832535,-0.054593898355960846,0.0032114058267325163
1.4784865379333496,1.278733491897583,8.779192924499512,-0.004834562074393034,-0.04712389037013054,0.00808087456971407
1.432565689086914,1.2500510215759277,9.265847206115723,-0.03637266159057617,0.10060077905654907,-0.0076445420272648335
1.325181007385254,1.3121660947799683,9.581768035888672,0.029164452105760574,-0.0003490658418741077,-0.011658798903226852
1.3274410963058472,1.3406858444213867,8.851822853088379,0.03981095924973488,-0.06780604273080826,-0.004939281847327948
1.3492666482925415,1.3547542095184326,8.755777359008789,-0.027471482753753662,0.015184364281594753,-0.0070685832761228085
1.4565460681915283,1.2779673337936401,9.073057174682617,-0.003089232835918665,-0.018622662872076035,0.006719517521560192
1.3699909448623657,1.268208622932434,9.125298500061035,-0.01492256484925747,-0.0027576202992349863,-0.00047123889089562
1.3516992330551147,1.2993332147598267,9.181926727294922,-0.014433872886002064,-0.016371188685297966,0.0024085543118417263
1.4689959287643433,1.3330243825912476,9.11385440826416,-0.018901916220784187,-0.021240657195448875,-0.00019198621157556772
1.356430172920227,1.3098772764205933,8.903182983398438,-0.012374384328722954,-0.00724311638623476,-0.005462880712002516
1.3629423379898071,1.2260706424713135,9.125059127807617,-0.024155355989933014,0.015707964077591896,-0.0052534411661326885
1.3456945419311523,1.268984317779541,9.273269653320312,0.0017104226863011718,-0.001029744278639555,-0.009773843921720982
1.3866162300109863,1.256333351135254,9.138150215148926,0.02267182618379593,-0.00041887903353199363,-0.01722639985382557
1.310758352279663,1.4021977186203003,8.917299270629883,0.035988688468933105,0.04473278671503067,-0.01624901592731476
1.3487974405288696,1.4527536630630493,9.415514945983887,-0.014503685757517815,0.05347688868641853,0.0010821041651070118
1.4682297706604004,1.5148879289627075,9.682840347290039,-0.0005410520825535059,-0.021554816514253616,0.0190066359937191
1.4292808771133423,1.3807169198989868,9.161413192749023,0.03223622962832451,-0.07840018719434738,0.011344640515744686
1.40053129196167,1.3674051761627197,8.68773365020752,-0.00094247778179124,-0.0036651913542300463,0.014137166552245617
1.4338873624801636,1.1821227073669434,9.249202728271484,-0.0656592845916748,0.03174753859639168,0.017086774110794067
1.259350061416626,1.368889570236206,9.188257217407227,0.013962633907794952,-0.020472712814807892,0.017959438264369965
1.3151158094406128,1.39120352268219,8.807071685791016,-0.000715585018042475,-0.02272418700158596,0.016772614791989326
1.2528282403945923,1.3119171857833862,8.938216209411621,-0.032707471400499344,0.02422516979277134,0.01638864167034626
1.2303898334503174,1.212050199508667,9.217599868774414,-0.03529055789113045,0.019146261736750603,0.004590216092765331
1.3013252019882202,1.2449464797973633,9.267973899841309,0.0037350046914070845,0.024783674627542496,-0.012950343079864979
1.356477975845337,1.2847285270690918,9.368712425231934,0.030543262138962746,0.01624901592731476,-0.01171115878969431
1.447831153869629,1.2144635915756226,9.180757522583008,0.02975786291062832,-0.02165953628718853,-0.009337511844933033
1.2038620710372925,1.3263589143753052,7.8928985595703125,-0.02701769582927227,0.06564183533191681,-0.00783652812242508
1.2254385948181152,1.2609301805496216,9.910356521606445,-0.07304202765226364,0.06443755328655243,-0.005951572675257921
1.2140421867370605,1.2023872137069702,9.734613418579102,0.0316777266561985,-0.12292353808879852,0.006928957067430019
1.2834452390670776,1.242801308631897,9.023822784423828,0.05117305368185043,-0.1048244759440422,0.005794493015855551
1.3222217559814453,1.3019477128982544,8.739813804626465,-0.013700834475457668,0.028291787952184677,0.009913469664752483
1.3535953760147095,1.2959717512130737,9.521471977233887,-0.01665044017136097,0.0060388389974832535,0.016283921897411346
1.3912705183029175,1.3420937061309814,9.273393630981445,0.020036378875374794,-0.07712610065937042,0.024521876126527786
1.4117361307144165,1.3722989559173584,8.746343612670898,0.0018500490114092827,-0.04623377323150635,0.02099631167948246
1.3815979957580566,1.2928593158721924,8.957962989807129,-0.035325463861227036,0.0070685832761228085,0.013159782625734806
1.3362709283828735,1.2626540660858154,9.220396041870117,-0.02949606440961361,0.0015707963611930609,0.008848818950355053
1.4354004859924316,1.2143869400024414,9.241790771484375,-0.007173303049057722,0.0018500490114092827,0.002827433403581381
1.3875930309295654,1.2623283863067627,9.254154205322266,0.0071907564997673035,-0.0018500490114092827,0.003001966280862689
1.292581558227539,1.2757264375686646,9.169610023498535,0.0062831854447722435,-0.004520402755588293,0.0010995573829859495
1.252971887588501,1.2949470281600952,9.114543914794922,-0.0080634206533432,0.005445427261292934,-0.004171337001025677
1.2444580793380737,1.2783504724502563,9.093791007995605,-0.021135937422513962,-0.0038920841179788113,-0.0009075712296180427
1.273734450340271,1.3125300407409668,9.320281982421875,-0.011170106939971447,-0.0014660765882581472,0.008813912980258465
1.2725181579589844,1.3224612474441528,9.192000389099121,-0.007435102481395006,-0.034348078072071075,0.005166174378246069
1.3514502048492432,1.2606046199798584,9.040495872497559,-0.026982789859175682,-0.033859387040138245,0.007592182140797377
1.3885507583618164,1.1994374990463257,9.179292678833008,-0.03839724510908127,-0.014870204962790012,0.010262535884976387
1.3280445337295532,1.219749927520752,9.227607727050781,-0.029949849471449852,-0.012845623306930065,0.011187560856342316
1.2924761772155762,1.2408380508422852,9.192767143249512,-0.01984439417719841,-0.0142593402415514,0.016231561079621315
1.3832165002822876,1.2145975828170776,9.178401947021484,-0.017924530431628227,-0.016807520762085915,0.016318827867507935
1.408307671546936,1.2289724349975586,9.243207931518555,-0.011815878562629223,-0.018395770341157913,0.010035643354058266
1.3746452331542969,1.2693578004837036,9.206212997436523,-0.004468042869120836,-0.025481807067990303,0.006230825558304787
1.3675678968429565,1.2566876411437988,8.963421821594238,-0.016022123396396637,-0.037891097366809845,0.007923794910311699
1.4591892957687378,1.1586594581604004,9.058577537536621,-0.027349309995770454,-0.0037350046914070845,0.012915436178445816
1.4504648447036743,1.1774587631225586,9.325559616088867,-0.01621410809457302,0.01211258489638567,0.007592182140797377
1.4890785217285156,1.2327073812484741,9.293907165527344,0.006510077975690365,-0.006021386012434959,0.004136430099606514
1.4029638767242432,1.3498508930206299,9.05688190460205,0.004136430099606514,-0.031206486746668816,0.001972222002223134
1.3989607095718384,1.319779634475708,8.95185375213623,-0.01785471849143505,-0.0154810706153512,0.003630284918472171
1.3937031030654907,1.239851713180542,9.183832168579102,-0.043214350938797,-0.0031415927223861217,0.006928957067430019
1.529741644859314,1.11581289768219,9.238945960998535,-0.0397411473095417,-0.022602014243602753,0.005270894151180983
1.5351428985595703,1.06562077999115,9.153655052185059,-0.029914943501353264,0.0061610122211277485,-0.0042236968874931335
1.2929550409317017,1.1433749198913574,9.223326683044434,-0.016091935336589813,0.040055304765701294,-0.00251327408477664
1.3132866621017456,1.1705347299575806,9.23296070098877,-0.004433136433362961,0.04096287861466408,0.0142593402415514
1.339565396308899,1.0638682842254639,9.003480911254883,-0.08936085551977158,-0.04415683075785637,0.00921533815562725
1.394756555557251,1.0258387327194214,9.489351272583008,-0.066252700984478,0.008168140426278114,-0.005393067374825478
1.3948427438735962,1.1648939847946167,9.24496078491211,-0.009320057928562164,0.0391826406121254,-0.021554816514253616
1.3530590534210205,1.0630829334259033,9.215407371520996,-0.026110125705599785,0.013980086892843246,-0.0322536826133728
1.2941616773605347,1.193442463874817,9.395307540893555,0.01127482671290636,0.005846852902323008,-0.039706241339445114
1.3701633214950562,1.2044270038604736,8.997390747070312,0.01647590845823288,-0.036826446652412415,-0.023457225412130356
1.3465181589126587,1.080847978591919,8.700614929199219,-0.008936085738241673,0.04398229718208313,-0.023195425048470497
1.3453401327133179,1.2436057329177856,9.182195663452148,-0.05523966997861862,0.08422958850860596,-0.019477874040603638
1.3054815530776978,1.0241341590881348,9.483720779418945,-0.0224623866379261,0.048293258994817734,-0.010332348756492138
1.3445453643798828,1.1844594478607178,9.377283096313477,0.02949606440961361,0.020751964300870895,-0.003577925032004714
1.361544132232666,1.132792592048645,9.144336700439453,0.04871213808655739,0.06372196972370148,-0.01523672416806221
1.228072166442871,0.8518856763839722,8.97211742401123,0.044802602380514145,0.05682792142033577,-0.021764256060123444
1.2594075202941895,1.5806039571762085,9.164133071899414,0.07147122919559479,-0.13664183020591736,-0.020053833723068237
1.5676178932189941,0.9398007392883301,9.076332092285156,-0.09574875980615616,0.02502802200615406,0.019216075539588928
1.3554916381835938,1.1439303159713745,9.681069374084473,-0.038990654051303864,0.03850196301937103,-0.00027925267932005227
1.3331010341644287,1.326148271560669,9.323070526123047,0.03136356547474861,-0.09023351967334747,0.01940806210041046
1.3747026920318604,1.2372084856033325,9.048369407653809,-0.02241002768278122,-0.058974675834178925,0.04221951588988304
1.3807073831558228,1.0446093082427979,8.940648078918457,-0.012653636746108532,-0.021188296377658844,0.035849060863256454
1.4448719024658203,1.206648826599121,9.128229141235352,-0.0023387412074953318,0.0008901178953237832,0.026162484660744667
1.4551095962524414,1.1163970232009888,9.21513843536377,-0.0270700566470623,-1.7453292457503267e-05,0.010471975430846214
1.3967293500900269,1.1228421926498413,9.213759422302246,-0.019722219556570053,-0.012060225009918213,-0.005532693583518267
1.3614674806594849,1.2024351358413696,9.295555114746094,-0.006352998316287994,0.02502802200615406,-0.022165682166814804
1.274749517440796,1.2325350046157837,9.341724395751953,0.0184306763112545,0.01377064734697342,-0.018744835630059242
1.3819140195846558,1.1855703592300415,9.133591651916504,0.020298179239034653,-0.017034413293004036,-0.008325220085680485
1.4186698198318481,1.1621358394622803,8.99371337890625,-0.00019198621157556772,-0.021694442257285118,-0.0015533430268988013
1.4486452341079712,1.1390941143035889,9.113834381103516,-0.022305307909846306,-0.004345869645476341,-0.001518436474725604
1.4113435745239258,1.155001163482666,9.296685218811035,-0.009826203808188438,0.018989183008670807,-0.006248278543353081
1.2896894216537476,1.1287894248962402,9.309288024902344,0.017610372975468636,-0.002740166848525405,-0.008569566532969475
1.3418062925338745,1.051188588142395,9.083581924438477,0.00830776710063219,0.006440265104174614,-0.003490658476948738
1.38319730758667,1.0760691165924072,9.1062593460083,-0.002146754879504442,-0.025394540280103683,-0.0027925267349928617
1.3894413709640503,1.1231486797332764,9.552616119384766,0.0213104709982872,-0.10203194618225098,-0.0009773843921720982
1.5121873617172241,0.9775142073631287,9.2162504196167,0.048973940312862396,-0.14337879419326782,-0.0038920841179788113
1.4654046297073364,1.0715584754943848,9.201080322265625,0.05921902135014534,-0.10416124761104584,-0.005166174378246069
1.2901490926742554,1.298653244972229,9.951480865478516,0.028675759211182594,-0.08161159604787827,-0.0033335788175463676
1.5755761861801147,1.2081141471862793,8.799351692199707,0.011484266258776188,-0.06649704277515411,0.006073745898902416
1.458863615989685,1.0926274061203003,9.08562183380127,-0.05174901336431503,0.08904670178890228,-0.009930923581123352
1.285418152809143,1.1299290657043457,9.467046737670898,-0.004834562074393034,0.009075712412595749,-0.01722639985382557
1.3349109888076782,1.1967847347259521,8.995503425598145,0.01432915311306715,-0.06386159360408783,-0.00970403105020523
1.3857064247131348,1.2204203605651855,8.82540225982666,-0.025307273492217064,0.02183406800031662,-0.009407324716448784
1.4707388877868652,1.0108222961425781,9.356252670288086,-0.026860617101192474,0.034400440752506256,-0.006143558770418167
1.4096101522445679,1.13033127784729,9.510716438293457,-0.010262535884976387,-0.004380776546895504,-0.009494591504335403
1.372796893119812,1.1946587562561035,9.139701843261719,0.0004886921960860491,-0.05576327070593834,-0.009407324716448784
1.375928521156311,1.1986138820648193,9.024521827697754,-0.011082841083407402,-0.0012740903766825795,-0.015114551410079002
1.3677594661712646,1.0837880373001099,9.166287422180176,-0.028379052877426147,0.022532200440764427,-0.015515976585447788
1.4396430253982544,0.9476824402809143,9.247278213500977,-0.039671335369348526,-0.01160643994808197,-0.013369222171604633
1.3627220392227173,0.9311816096305847,9.471738815307617,-0.02050761878490448,0.03389429301023483,-0.021031217649579048
1.2461819648742676,1.1810308694839478,9.40429973602295,0.03752457723021507,-0.00188495556358248,-0.02528982050716877
1.3117448091506958,1.1383662223815918,9.043895721435547,0.03604104742407799,-0.04016002640128136,-0.01891936920583248
1.3839826583862305,1.0822557210922241,8.920230865478516,-0.02410299703478813,0.016999507322907448,-0.012793263420462608
1.3217428922653198,1.002021312713623,9.254863739013672,-0.020298179239034653,0.04132939502596855,-0.0066147977486252785
1.4240998029708862,0.9379715919494629,9.225174903869629,0.007435102481395006,-0.0026529005263000727,-0.00609119888395071
1.3441717624664307,1.0837688446044922,9.03792953491211,0.006911503616720438,-0.0016755161341279745,-0.007435102481395006
1.324711799621582,1.176558494567871,9.194586753845215,0.02249729447066784,0.0247662216424942,-0.006597344763576984
1.412100076675415,1.1629881858825684,8.97970199584961,-0.003455751808360219,0.016196655109524727,-0.0007504915702156723
1.4311771392822266,1.0752837657928467,9.349788665771484,-0.029792770743370056,0.03033382259309292,-0.0020769417751580477
1.4109508991241455,1.0762702226638794,9.56635856628418,0.01624901592731476,0.018832102417945862,-0.007749261800199747
1.3941627740859985,1.2233604192733765,9.322063446044922,0.03356268256902695,-0.011344640515744686,-0.010105456225574017
1.2723265886306763,1.3310133218765259,9.0958890914917,0.005829399451613426,-0.012985249981284142,-0.01616174913942814
1.390561819076538,1.1149221658706665,9.213203430175781,-0.003857177682220936,0.04876450076699257,-0.016982054337859154
1.22060227394104,0.9655048847198486,9.51973819732666,0.18341664969921112,0.03623303398489952,-0.0426209419965744
1.3025702238082886,1.4736311435699463,9.43901538848877,0.23436281085014343,-0.21404717862606049,-0.018675023689866066
1.563633918762207,1.278963327407837,8.40820598602295,-0.11869984120130539,0.048694685101509094,0.012705996632575989
1.3314920663833618,1.1546659469604492,9.430386543273926,-0.1480213701725006,0.0682772770524025,-0.010227628983557224
1.356133222579956,1.0933648347854614,9.45734691619873,0.012339477427303791,-0.08047713339328766,0.005602506920695305
1.3729310035705566,1.1715881824493408,9.11777114868164,0.02972295694053173,-0.08621926605701447,0.016772614791989326
1.364675760269165,1.1290289163589478,8.78242015838623,-0.007173303049057722,0.0009250245057046413,0.021135937422513962
1.3637754917144775,1.0603727102279663,9.162657737731934,-0.009721484035253525,0.05539675056934357,0.0074525559321045876
1.3281785249710083,1.0666742324829102,9.381622314453125,0.014590952545404434,0.037768926471471786,-0.010437068529427052
1.3810234069824219,1.0891414880752563,9.15669059753418,0.018046705052256584,-0.014154620468616486,-0.012217304669320583
1.3775086402893066,1.0619912147521973,9.013623237609863,0.004084070213139057,-0.024609142914414406,-0.013456488028168678
1.3442004919052124,1.0657931566238403,9.027959823608398,-0.017086774110794067,0.017261305823922157,-0.01665044017136097
1.3052325248718262,1.1217217445373535,9.335087776184082,-0.015603243373334408,0.028553586453199387,-0.012932890094816685
1.3653749227523804,1.1057955026626587,9.375876426696777,0.013875367119908333,0.01286307629197836,-0.011309733614325523
1.3744823932647705,1.1982691287994385,9.195409774780273,0.027576202526688576,0.01679006777703762,-0.018500490114092827
1.2995151281356812,1.2506159543991089,9.188888549804688,0.00012217304902151227,0.0521329827606678,-0.015114551410079002
1.4757379293441772,1.5272516012191772,8.69743537902832,0.0780685767531395,-0.08976228535175323,0.021764256060123444
1.3241370916366577,1.1434515714645386,8.919004440307617,-0.176836758852005,0.2534741759300232,0.007435102481395006
1.1314518451690674,1.3001185655593872,9.848481178283691,-0.038379788398742676,0.011815878562629223,0.025813419371843338
1.4507712125778198,1.238702416419983,9.149603843688965,0.04187044873833656,-0.20561723411083221,0.04220206290483475
1.591684341430664,1.1088504791259766,8.515447616577148,-0.030089477077126503,-0.020437804982066154,0.0345749706029892
1.349199652671814,1.1735897064208984,9.134347915649414,-0.025743605569005013,0.07646287232637405,0.0071907564997673035
1.1943809986114502,1.2753241062164307,9.501724243164062,0.006597344763576984,0.00830776710063219,0.0012391837080940604
1.291183352470398,1.252119541168213,9.24278736114502,0.010786134749650955,-0.04499458894133568,0.0013788101496174932
1.4013453722000122,1.169395089149475,9.020814895629883,-0.012653636746108532,-0.03640756756067276,0.006318091880530119
1.5123884677886963,1.099455714225769,9.185354232788086,-0.018448129296302795,-0.0003665191470645368,0.009983283467590809
1.4668123722076416,1.1021084785461426,9.292978286743164,-0.015428710728883743,0.0008203047327697277,0.005846852902323008
1.3863576650619507,1.088672161102295,9.270780563354492,-0.004084070213139057,-0.0068765971809625626,0.002740166848525405
1.4248181581497192,1.1699506044387817,9.144499778747559,0.0011693706037476659,0.008970992639660835,-0.00022689280740451068
1.4208054542541504,1.2184858322143555,9.103769302368164,-0.0007679448463022709,-0.011082841083407402,-0.005742133129388094
1.399324655532837,1.2119927406311035,9.036617279052734,-0.02981022372841835,-0.013700834475457668,-0.010716321878135204
1.4291276931762695,1.0463522672653198,9.23448371887207,-0.0394618958234787,-0.015865042805671692,-0.01877974346280098
1.4484823942184448,1.0764234066009521,9.187366485595703,-0.01736602559685707,-0.015306537039577961,-0.014556045643985271
1.3750569820404053,0.9930286407470703,9.21611499786377,0.0004886921960860491,0.014346606098115444,0.0006632251315750182
1.3410305976867676,1.054550051689148,9.278796195983887,0.009791296906769276,0.016702800989151,-0.007941247895359993
1.2508649826049805,1.1898128986358643,9.155848503112793,0.009948376566171646,-0.01441641990095377,-0.003455751808360219
1.3686310052871704,1.1283010244369507,8.994872093200684,-0.003944444004446268,-0.034121185541152954,0.011763518676161766
1.4001290798187256,1.0738760232925415,9.093408584594727,-0.015201817266643047,0.0016929693520069122,0.014433872886002064
1.4363198280334473,0.9781941771507263,9.225702285766602,-0.009843656793236732,0.0091455252841115,0.00996582955121994
1.5138919353485107,0.9855108261108398,9.302862167358398,-0.00188495556358248,0.00874409917742014,0.0063355453312397
1.4032032489776611,1.124671459197998,9.434696197509766,0.006492624990642071,0.011327186599373817,0.010262535884976387
1.4621772766113281,1.136278510093689,9.231486320495605,0.030264008790254593,-0.01869247667491436,0.005061454605311155
1.403002142906189,1.1412584781646729,9.044249534606934,0.022183135151863098,-0.006667157635092735,-8.726646046852693e-05
1.3829100131988525,1.1463245153427124,8.997725486755371,0.008831365965306759,0.01748819835484028,-0.006667157635092735
1.395417332649231,1.1089558601379395,9.090842247009277,0.010873401537537575,0.03499384969472885,-0.008185594342648983
1.328389286994934,1.1106797456741333,9.203062057495117,0.01377064734697342,0.030752701684832573,-0.01219985168427229
1.2336362600326538,1.1297279596328735,9.30911636352539,0.07902850955724716,0.047455500811338425,-0.0240506362169981
1.3451677560806274,1.3424959182739258,9.647071838378906,-0.043563418090343475,0.04619886353611946,-0.003036872949451208
1.3166576623916626,1.3134493827819824,9.679059028625488,-0.050474923104047775,-0.005794493015855551,0.0015009831404313445
1.4480897188186646,1.0961133241653442,9.113537788391113,0.03321361541748047,-0.10107201337814331,-0.0005585053586401045
1.3440855741500854,1.2343162298202515,8.536650657653809,0.010873401537537575,0.008621926419436932,0.013805554248392582
1.4220408201217651,1.0562260150909424,9.252229690551758,-0.04743804782629013,0.03928736224770546,0.03230604529380798
1.4905916452407837,0.9972328543663025,9.411032676696777,-0.004206243436783552,-0.008342674002051353,0.024260075762867928
1.3285616636276245,1.1228134632110596,9.073307037353516,0.026476643979549408,0.00040142572834156454,0.012496557086706161
1.2721542119979858,1.0895532369613647,9.005674362182617,0.0009599310578778386,0.025534166023135185,0.00015707963029854
1.2668678760528564,1.0333470106124878,9.34732723236084,0.004345869645476341,-0.0027925267349928617,-0.010873401537537575
1.4267334938049316,1.0629489421844482,9.20788860321045,0.015934856608510017,-0.0077841682359576225,0.002722713630646467
1.4468543529510498,1.107347011566162,9.263280868530273,0.015515976585447788,0.024486970156431198,0.001343903481028974
1.3605960607528687,1.1883859634399414,9.252957344055176,0.007801621686667204,0.007225662935525179,-0.004625122528523207
1.3238115310668945,1.1932700872421265,9.046356201171875,-0.0007330382941290736,0.002251474652439356,-0.0016231562476605177
1.4090068340301514,1.11233651638031,9.148560523986816,-0.015411256812512875,0.006684611085802317,-0.0003490658418741077
1.3907151222229004,1.080665946006775,9.35289192199707,-0.0005235987482592463,0.019390607252717018,-0.003577925032004714
1.3290021419525146,1.160115122795105,9.288881301879883,0.021938787773251534,-0.00823795422911644,0.005567600484937429
1.3615249395370483,1.187140941619873,9.041808128356934,0.018325956538319588,-0.013805554248392582,0.009756390936672688
1.2928783893585205,1.1685523986816406,9.028553009033203,0.005078908056020737,-0.0012915435945615172,0.005375613924115896
1.3795390129089355,1.1288851499557495,9.256826400756836,0.014364060014486313,-0.06473426520824432,0.01984439417719841
1.5016720294952393,1.1184943914413452,8.991414070129395,-0.01326450239866972,0.039793506264686584,0.005235987715423107
1.3631818294525146,1.1086111068725586,9.358829498291016,-0.009023352526128292,0.026598818600177765,0.003455751808360219
1.3170119524002075,1.1352442502975464,9.272388458251953,0.008796459063887596,-0.0495324432849884,0.016999507322907448
1.4531750679016113,1.0611101388931274,9.11105728149414,-0.005148721393197775,-0.018099064007401466,0.008639379404485226
1.4479748010635376,1.0501543283462524,9.246617317199707,-0.0066147977486252785,0.016231561079621315,-0.008325220085680485
1.3754496574401855,1.15457022190094,9.167847633361816,0.004049163777381182,-0.036582101136446,-0.004049163777381182
1.3883112668991089,1.1657750606536865,9.21460247039795,0.0119555052369833,0.007819075137376785,-0.006265731994062662
1.4328818321228027,1.0786548852920532,9.143705368041992,0.0025307273026555777,0.01740093342959881,-0.0021816615480929613
1.4623017311096191,1.081384301185608,9.30061149597168,0.00125663704238832,0.022514747455716133,-0.0060388389974832535
1.3431566953659058,1.1531240940093994,9.333077430725098,0.021816615015268326,0.0019896754529327154,-0.010506882332265377
1.3441334962844849,1.1971104145050049,9.007475852966309,0.013543754816055298,-0.02701769582927227,-0.009407324716448784
1.3626550436019897,1.1656793355941772,8.902924537658691,-0.015044738538563251,0.01335176918655634,-0.005969026125967503
1.3106529712677002,1.1499446630477905,9.275520324707031,-0.024207716807723045,0.048171088099479675,-0.009407324716448784
1.3618793487548828,1.143738865852356,9.483299255371094,0.01647590845823288,0.0119555052369833,-0.009930923581123352
1.4806700944900513,1.51288640499115,9.180681228637695,0.05354670062661171,-0.1483529806137085,0.015306537039577961
1.5508967638015747,1.1579029560089111,9.03682804107666,-0.18020524084568024,0.1555437445640564,0.02082177810370922
1.3097048997879028,1.2036992311477661,9.779882431030273,-0.025900686159729958,0.04288274049758911,-6.981316983001307e-05
1.371829628944397,1.2914706468582153,9.21688175201416,0.06808529049158096,-0.09508553892374039,0.028239427134394646
1.4378234148025513,1.116061806678772,8.712786674499512,-0.008726646192371845,-0.049933869391679764,0.033510319888591766
1.3767329454421997,1.057681679725647,9.195314407348633,-0.034260813146829605,0.05651376023888588,0.004241149872541428
1.288377285003662,1.0458543300628662,9.556629180908203,0.00041887903353199363,0.020961403846740723,-0.014643312431871891
1.3445453643798828,1.1338938474655151,8.96252155303955,0.024434609338641167,-0.035901423543691635,-0.017872171476483345
1.411669135093689,1.17665433883667,9.027710914611816,0.0005410520825535059,0.009913469664752483,-0.016667895019054413
1.311227560043335,1.2093878984451294,9.260926246643066,-0.002478367416188121,0.025795966386795044,-0.015411256812512875
1.4167065620422363,1.1640703678131104,9.228842735290527,-0.007365289609879255,0.018308503553271294,0.0020420351065695286
1.4688905477523804,1.162164568901062,9.420034408569336,0.019652407616376877,0.023771384730935097,-0.0013788101496174932
1.4050995111465454,1.2312612533569336,9.334820747375488,0.049933869391679764,-0.008045967668294907,-0.003089232835918665
1.389029622077942,1.2214738130569458,8.969751358032227,0.022881265729665756,-0.006806783843785524,-0.004310963209718466
1.3805253505706787,1.1463149785995483,9.208099365234375,-0.00823795422911644,0.03157300502061844,-0.01448623277246952
1.3423810005187988,1.1739153861999512,9.226266860961914,0.005148721393197775,0.016283921897411346,-0.014817845076322556
1.3437217473983765,1.1775354146957397,9.211556434631348,0.015742870047688484,0.027872908860445023,-0.017505653202533722
1.2933764457702637,1.2032873630523682,9.237566947937012,0.02125811018049717,0.02445206232368946,-0.018011797219514847
1.3366444110870361,1.1609961986541748,9.14377212524414,0.012409291230142117,0.02117084339261055,-0.01811651699244976
1.3553767204284668,1.1340471506118774,9.058116912841797,0.009424777701497078,0.03790855035185814,-0.020315632224082947
1.2190508842468262,1.2694822549819946,9.018411636352539,0.022130774334073067,0.06548475474119186,-0.0263544712215662
1.1771619319915771,1.371293306350708,9.888263702392578,0.0213104709982872,-0.09098401665687561,0.03661700710654259
1.5123980045318604,1.2743185758590698,8.97877311706543,0.03862413763999939,-0.16550956666469574,0.06051056459546089
1.5604735612869263,1.0920336246490479,8.53974437713623,-0.023893557488918304,0.018814649432897568,0.053389620035886765
1.3238115310668945,1.1054699420928955,9.078975677490234,-0.012915436178445816,0.12175416946411133,0.031782444566488266
1.196114420890808,1.209043025970459,9.479822158813477,0.01595230959355831,0.058538343757390976,0.006684611085802317
1.181107521057129,1.287821888923645,9.320953369140625,0.017348572611808777,-0.04303981736302376,0.0008726646192371845
1.3984243869781494,1.1577783823013306,9.033188819885254,-0.012810716405510902,-0.03813544288277626,0.006422811653465033
1.3224420547485352,1.1232540607452393,9.18908977508545,-0.021101031452417374,0.028413960710167885,-0.005881759338080883
1.2296619415283203,1.1767884492874146,9.358819007873535,0.00331612559966743,0.011676252819597721,-0.011484266258776188
1.399516224861145,1.1655547618865967,9.060129165649414,-0.008028514683246613,-0.01719149388372898,0.0057246801443398
1.4091312885284424,1.194716215133667,9.218969345092773,-0.017575465142726898,0.029792770743370056,-0.002687806962057948
1.2623380422592163,1.1951758861541748,9.365676879882812,0.000715585018042475,0.004939281847327948,-0.008272860199213028
1.2969294786453247,1.2105562686920166,9.060225486755371,0.010471975430846214,0.014590952545404434,-0.006771877408027649
1.3329765796661377,1.290761947631836,9.211833953857422,0.021694442257285118,0.015830136835575104,-0.0017802357906475663
1.32688570022583,1.3440090417861938,9.145485877990723,0.0131772356107831,-0.009634217247366905,0.0045378562062978745
1.4036821126937866,1.2655366659164429,9.055330276489258,-0.012322024442255497,0.00094247778179124,0.006457718089222908
1.324759602546692,1.1345833539962769,9.115952491760254,0.05487314984202385,0.05811946466565132,-0.009808750823140144
1.168849229812622,1.0906450748443604,9.696995735168457,-0.03206169977784157,-0.025795966386795044,-0.003577925032004714
1.3826992511749268,1.258622169494629,8.93931770324707,0.06707300245761871,-0.09896016865968704,0.005218534264713526
1.3767999410629272,1.21193528175354,8.791278839111328,-0.034086279571056366,0.006126105785369873,0.015585790388286114
1.3003771305084229,1.108228087425232,9.357075691223145,-0.046355944126844406,0.033405601978302,0.012444197200238705
1.2770097255706787,1.2155840396881104,9.270492553710938,0.007714355364441872,-0.02281145378947258,0.01785471849143505
1.3795006275177002,1.2209757566452026,9.0988187789917,0.003857177682220936,-0.0269304309040308,0.021938787773251534
1.394038200378418,1.1688684225082397,9.090641021728516,-0.00890117883682251,-0.002809980185702443,0.01286307629197836
1.277660846710205,1.1734460592269897,9.210579872131348,-0.013002702966332436,0.020612338557839394,-0.0010646508308127522
1.1984319686889648,1.157816767692566,9.188458442687988,-0.0027052604127675295,-0.0012391837080940604,0.0
1.2699803113937378,1.1660048961639404,9.034089088439941,-0.004293509759008884,-0.014957471750676632,0.004450589418411255
1.4082597494125366,1.169931411743164,9.132673263549805,-0.02045525796711445,0.012060225009918213,0.0009599310578778386
1.3455126285552979,1.208075761795044,9.300381660461426,-0.0005759586347267032,0.00376991112716496,0.004450589418411255
1.3468246459960938,1.205547571182251,9.132433891296387,0.010105456225574017,-0.0142593402415514,0.00874409917742014
1.386328935623169,1.1746528148651123,9.058155059814453,-0.004625122528523207,0.02382374368607998,0.003455751808360219
1.320191502571106,1.1973497867584229,9.252535820007324,-0.006510077975690365,0.01630137488245964,-0.005864306353032589
1.4034043550491333,1.1507490873336792,9.204355239868164,-0.003508111694827676,0.009756390936672688,0.003804817795753479
1.3521684408187866,1.1780812740325928,9.242911338806152,0.012147491797804832,0.00010471975838299841,0.004520402755588293
1.341385006904602,1.220171332359314,9.011161804199219,0.0060388389974832535,-0.015271631069481373,0.004712388850748539
1.3118022680282593,1.2162065505981445,9.012100219726562,-0.022514747455716133,0.002914699725806713,-0.0005410520825535059
1.2937020063400269,1.1868727207183838,9.251443862915039,-0.02963569015264511,0.007941247895359993,-0.003909537568688393
1.4094185829162598,1.0953088998794556,9.353630065917969,-0.005462880712002516,-8.726646046852693e-05,-0.003857177682220936
1.3920941352844238,1.1191743612289429,9.132635116577148,0.021816615015268326,0.003089232835918665,-0.006318091880530119
1.2586413621902466,1.1202278137207031,9.039834976196289,0.013491394929587841,0.04982915148139,-0.017784904688596725
1.1194711923599243,1.1751315593719482,9.30034351348877,-0.02151990868151188,0.17420130968093872,-0.03361504152417183
1.1024627685546875,1.4724915027618408,10.460582733154297,-0.03848451003432274,-0.0988030880689621,0.003804817795753479
1.4937710762023926,1.1553651094436646,8.913163185119629,0.07239625602960587,-0.2365095615386963,0.01953023485839367
1.4572930335998535,1.2606333494186401,8.101738929748535,-0.017959438264369965,0.025272367522120476,0.012583823874592781
1.3602800369262695,1.2143007516860962,8.587149620056152,-0.07016223669052124,0.12171926349401474,0.011013027280569077
1.2545042037963867,1.1256099939346313,9.704474449157715,-0.039968039840459824,0.0368788056075573,0.025167647749185562
1.3173184394836426,1.1491305828094482,9.470465660095215,0.012322024442255497,-0.07124433666467667,0.014957471750676632
1.3506361246109009,1.2045994997024536,9.110790252685547,0.021450096741318703,0.003752457909286022,0.0019373154500499368
1.2743664979934692,1.1471960544586182,9.372467041015625,-0.00930260494351387,0.01392772700637579,-0.015655603259801865
1.2504914999008179,1.2064573764801025,9.382331848144531,0.017348572611808777,0.0014660765882581472,-0.013526301831007004
1.301784873008728,1.1967560052871704,9.223126411437988,0.02675589732825756,-0.006946410518139601,-0.0060388389974832535
1.3019477128982544,1.2308015823364258,8.980793952941895,0.009564404375851154,-0.01918116770684719,-0.00029670598451048136
1.3248745203018188,1.2022148370742798,9.011448860168457,-0.024068091064691544,0.004450589418411255,0.00045378561480902135
1.299074649810791,1.1668189764022827,9.31559944152832,-0.021903881803154945,-0.007103490177541971,-0.000715585018042475
1.393808364868164,1.1101434230804443,9.158156394958496,-0.0034732052590698004,-0.035011306405067444,0.0006108652451075613
1.385361671447754,1.1460756063461304,9.096769332885742,-0.005427973810583353,-0.00823795422911644,-0.0010471974965184927
1.3334075212478638,1.170592188835144,9.288956642150879,-0.0031939526088535786,0.01211258489638567,-0.003717551240697503
1.3387513160705566,1.1655356884002686,9.3628511428833,0.009616764262318611,0.003036872949451208,-0.0035953782498836517
1.2396888732910156,1.2278136014938354,9.158270835876465,-0.0119555052369833,0.008028514683246613,-0.007470009382814169
1.3313771486282349,1.1733311414718628,9.286964416503906,-0.002007128670811653,-0.005532693583518267,-0.003403391921892762
1.4093228578567505,1.1294406652450562,9.293725967407227,0.0017104226863011718,-0.015446163713932037,-0.00040142572834156454
1.3879857063293457,1.138031005859375,9.151289939880371,0.010227628983557224,-0.015568336471915245,0.0011693706037476659
1.4234198331832886,1.1907322406768799,9.086780548095703,0.0013788101496174932,-0.0074525559321045876,0.003752457909286022
1.3677020072937012,1.1646736860275269,9.218969345092773,-0.011536626145243645,0.006527531426399946,0.0019198621157556772
1.3884549140930176,1.0968124866485596,9.357295989990234,-0.001745329238474369,0.026476643979549408,-0.005777040030807257
1.3350738286972046,1.1450986862182617,9.23208999633789,0.027977628633379936,-0.005044001620262861,-0.006492624990642071
1.3701058626174927,1.1852926015853882,8.906861305236816,0.01401499379426241,-0.00143117003608495,0.002478367416188121
1.3358782529830933,1.1627775430679321,9.036886215209961,-0.014957471750676632,0.03267256170511246,-0.00027925267932005227
1.2737247943878174,1.2017742395401,9.312055587768555,-0.00783652812242508,0.01904154196381569,-0.0036826448049396276
1.2998982667922974,1.1966698169708252,9.088016510009766,-0.004258603323251009,0.013910274021327496,0.005427973810583353
1.3105188608169556,1.1812607049942017,9.219687461853027,-0.0030717793852090836,0.00830776710063219,0.0020420351065695286
1.3270580768585205,1.1773630380630493,9.190056800842285,-0.005689773242920637,-0.010890854522585869,0.003263765713199973
1.3214077949523926,1.2134675979614258,9.133419036865234,-0.018709929659962654,0.0007679448463022709,0.007679448463022709
1.3775852918624878,1.0545979738235474,9.201127052307129,-0.01788962446153164,0.014817845076322556,0.003089232835918665
1.3518141508102417,1.1335874795913696,9.353523254394531,0.0038222710136324167,0.035465091466903687,-0.0028623400721699
