accX,accY,accZ,gyroX,gyroY,gyroZ
-1.0300500392913818,5.3359503746032715,9.006000518798828,-0.368087500333786,0.08057499676942825,0.006462499964982271
-1.2360000610351562,5.389050483703613,8.920050621032715,-0.3363249897956848,0.22591249644756317,0.050324998795986176
-1.6950000524520874,5.554050445556641,8.97705078125,-0.34498751163482666,0.15015000104904175,0.18232500553131104
-1.912950038909912,5.590050220489502,9.4350004196167,-0.3913249969482422,-0.12223749607801437,0.36918750405311584
-2.11395001411438,5.487000465393066,10.381050109863281,-0.33880001306533813,-0.33233749866485596,0.5391374826431274
-1.3750500679016113,5.029950141906738,10.225050926208496,-0.23375000059604645,-0.5730999708175659,0.6404749751091003
-0.6679500341415405,4.8259501457214355,10.021050453186035,-0.22769999504089355,-0.5143874883651733,0.567187488079071
-0.14595000445842743,4.60605001449585,10.28700065612793,-0.19346250593662262,-0.20528750121593475,0.3521375060081482
-0.012000000104308128,4.012050151824951,10.474050521850586,-0.15070000290870667,-0.18328750133514404,0.038224998861551285
-0.38805001974105835,3.787050247192383,10.894950866699219,-0.1494625061750412,-0.40933749079704285,-0.2708750069141388
-1.3840500116348267,3.9210002422332764,11.152050971984863,-0.1592250019311905,-0.8149625062942505,-0.421162486076355
-2.325000047683716,4.189050197601318,11.00100040435791,-0.08717499673366547,-1.0532499551773071,-0.28558748960494995
-2.2290000915527344,4.045950412750244,9.646050453186035,0.08139999955892563,-0.9530124664306641,0.0882750004529953
-0.2569500207901001,2.745000123977661,8.002950668334961,0.08387500047683716,-0.7136250138282776,0.39861249923706055
0.9610500335693359,2.0869500637054443,7.131000518798828,-0.2092749923467636,-0.5058624744415283,0.41690000891685486
0.9900000691413879,2.287950038909912,7.801950454711914,-0.5501375198364258,-0.3312374949455261,0.2849000096321106
0.753000020980835,2.499000072479248,8.128050804138184,-0.6528499722480774,-0.24199999868869781,0.2153249979019165
0.42705002427101135,2.6230502128601074,8.182950019836426,-0.6771875023841858,0.06462500244379044,0.10051249712705612
0.04200000315904617,2.737950086593628,7.9860005378723145,-0.5806624889373779,0.5190625190734863,0.005224999971687794
-0.5560500025749207,2.9010000228881836,8.80305004119873,-0.45003750920295715,0.8551124930381775,-0.07177499681711197
-0.6400500535964966,2.628000020980835,9.99000072479248,-0.28380000591278076,0.5607249736785889,-0.11824999749660492
-0.5080500245094299,2.5129501819610596,10.15095043182373,-0.17998750507831573,0.1648624986410141,-0.13653749227523804
-0.12000000476837158,2.4649500846862793,9.420000076293945,0.03863750025629997,-0.5559124946594238,-0.2147749960422516
-0.13905000686645508,2.6040000915527344,9.079950332641602,0.14135000109672546,-0.6928625106811523,-0.27211248874664307
-0.6160500049591064,2.899050235748291,9.16200065612793,0.33797499537467957,-0.5315750241279602,-0.3601124882698059
-0.9199500679969788,2.9110500812530518,9.507000923156738,0.5677375197410583,-0.3152875006198883,-0.34911251068115234
-0.6660000085830688,2.9610002040863037,9.1360502243042,0.8035500049591064,-0.21518750488758087,-0.25987499952316284
-0.28005000948905945,3.1720502376556396,7.869000434875488,0.9721249938011169,0.10862500220537186,-0.16101250052452087
-0.7980000376701355,3.957000255584717,7.1170501708984375,1.0111750364303589,0.8098750114440918,-0.09501250088214874
-1.4419500827789307,4.824000358581543,7.7560505867004395,0.9451749920845032,1.3315500020980835,-0.04853750020265579
-1.2090001106262207,5.128050327301025,8.080050468444824,0.8046500086784363,1.0835000276565552,-0.04124999791383743
-0.7930500507354736,4.942950248718262,7.07895040512085,0.5700749754905701,0.4665375053882599,-0.14630000293254852
-0.9799500703811646,4.8070502281188965,6.79395055770874,0.27568748593330383,0.07081250101327896,-0.34911251068115234
-1.8199501037597656,5.034000396728516,7.452000141143799,-0.0016499999910593033,-0.2578125,-0.4676375091075897
-2.0590500831604004,5.152050018310547,7.483050346374512,-0.20198750495910645,-0.5645750164985657,-0.3858250081539154
-1.225950002670288,4.7659502029418945,7.147950172424316,-0.3657499849796295,-0.5413374900817871,-0.28187498450279236
-0.5629500150680542,4.504950046539307,7.450050354003906,-0.5293750166893005,-0.32147499918937683,-0.32106250524520874
-1.1830500364303589,4.816050052642822,8.953950881958008,-0.5978500247001648,-0.45704999566078186,-0.4199250042438507
-1.4419500827789307,4.764000415802002,9.091950416564941,-0.5148000121116638,-0.8552500009536743,-0.40287500619888306
-1.0369499921798706,4.4569501876831055,8.917950630187988,-0.39627498388290405,-1.0202499628067017,-0.3441624939441681
-0.9960000514984131,4.5360002517700195,8.956050872802734,-0.3339875042438507,-0.9384375214576721,-0.2782999873161316
-0.8119500279426575,4.567049980163574,9.065999984741211,-0.26551249623298645,-0.5559124946594238,-0.22687499225139618
-0.4240500330924988,4.528950214385986,9.514050483703613,-0.1531749963760376,-0.2615250051021576,-0.2110625058412552
-0.283050000667572,4.732950210571289,9.310050010681152,-0.023649999871850014,-0.23223750293254852,-0.23787499964237213
-0.32100000977516174,4.98900032043457,9.12600040435791,0.07782500237226486,-0.3067624866962433,-0.2868250012397766
-0.4240500330924988,5.10105037689209,8.86500072479248,0.11192499846220016,-0.4288625121116638,-0.3405874967575073
-0.30705001950263977,5.041950225830078,8.902950286865234,0.08016250282526016,-0.5339124798774719,-0.3783999979496002
-0.2179500162601471,4.986000061035156,8.800050735473633,0.011824999935925007,-0.5400999784469604,-0.40892499685287476
-0.12495000660419464,4.915050029754639,8.836050033569336,-0.040699999779462814,-0.39352500438690186,-0.42239999771118164
-0.19200000166893005,4.873950004577637,9.045000076293945,0.06187500059604645,-0.26881250739097595,-0.49445000290870667
0.037050001323223114,4.555950164794922,9.049050331115723,0.12787500023841858,-0.34952500462532043,-0.5799750089645386
0.0970500037074089,4.206000328063965,9.202950477600098,0.15839999914169312,-0.4778124988079071,-0.6984999775886536
0.07800000160932541,3.8869502544403076,9.253050804138184,0.11563749611377716,-0.6366249918937683,-0.7742624878883362
0.739050030708313,3.1210501194000244,9.316950798034668,-0.2545124888420105,-0.305525004863739,-0.5164499878883362
0.76500004529953,3.1210501194000244,9.334050178527832,-0.12993749976158142,-0.08195000141859055,-0.3918749988079071
0.9760500192642212,3.0610501766204834,9.1399507522583,0.09116250276565552,0.09886249899864197,-0.26963749527931213
1.4299501180648804,3.00600004196167,8.575050354003906,0.3465000092983246,0.2919124960899353,-0.2073500007390976
1.3200000524520874,3.2220001220703125,7.890000343322754,0.5359749794006348,0.5325375199317932,-0.21834999322891235
0.20205001533031464,3.967050075531006,9.178950309753418,0.6300249695777893,0.7133499979972839,-0.23787499964237213
0.043950002640485764,4.125,9.993000030517578,0.7008374929428101,0.32848748564720154,-0.24158750474452972
0.7980000376701355,3.658050060272217,8.760000228881836,0.6617875099182129,-0.1344749927520752,-0.33687499165534973
1.2529500722885132,3.4450502395629883,7.840050220489502,0.4577375054359436,-0.2675749957561493,-0.5249750018119812
1.0669500827789307,3.66195011138916,7.539000511169434,0.09363749623298645,-0.1601874977350235,-0.67044997215271
0.5850000381469727,3.913950204849243,7.25100040435791,-0.29727500677108765,0.1868624985218048,-0.6399250030517578
0.21705001592636108,4.045950412750244,7.603050231933594,-0.5794249773025513,0.721875011920929,-0.4736874997615814
-0.022050000727176666,4.134000301361084,8.367000579833984,-0.7284749746322632,0.975974977016449,-0.30882498621940613
0.30000001192092896,4.126950263977051,8.881950378417969,-0.7138999700546265,0.9466875195503235,-0.21230000257492065
0.5059500336647034,4.05495023727417,9.946950912475586,-0.3730374872684479,0.9198749661445618,-0.33082500100135803
-0.6970500349998474,4.4569501876831055,9.982950210571289,0.03753750026226044,0.4482499957084656,-0.5311625003814697
-1.1640000343322754,4.339950084686279,8.64900016784668,0.2928749918937683,-0.0672374963760376,-0.5116375088691711
-0.48405003547668457,4.134000301361084,7.7659502029418945,0.2391124963760376,-0.2872374951839447,-0.38458749651908875
0.3049500286579132,4.339950084686279,7.785000324249268,0.019112499430775642,-0.1344749927520752,-0.3881624937057495
0.47505003213882446,4.1579999923706055,7.941000461578369,-0.1592250019311905,0.18809999525547028,-0.6191624999046326
-0.16995000839233398,4.33305025100708,8.179950714111328,-0.23127499222755432,0.345674991607666,-0.7595499753952026
-1.4659500122070312,4.612950325012207,8.946000099182129,-0.28132501244544983,0.5007749795913696,-0.8328375220298767
-1.9039500951766968,4.371000289916992,9.564000129699707,-0.16417500376701355,0.48977500200271606,-0.67044997215271
-1.9420500993728638,4.371000289916992,9.439949989318848,0.05939999967813492,0.4470124840736389,-0.43463748693466187
-1.818000078201294,4.551000118255615,8.503050804138184,0.20116250216960907,0.4067249894142151,-0.22811250388622284
-1.755000114440918,4.903050422668457,8.116050720214844,0.15592500567436218,0.34072500467300415,-0.12058749794960022
-1.321950078010559,4.869000434875488,8.214000701904297,0.09239999949932098,0.370012491941452,-0.1340624988079071
-1.9800001382827759,5.254950046539307,8.713950157165527,0.06929999589920044,0.43601250648498535,-0.16706250607967377
-2.044950008392334,4.891050338745117,8.970000267028809,0.1681624948978424,0.4054875075817108,-0.12182500213384628
-1.7070001363754272,4.69005012512207,8.03700065612793,0.17916250228881836,0.2381500005722046,-0.08524999767541885
-1.8799500465393066,4.965000152587891,7.846950531005859,0.1083500012755394,0.13186250627040863,-0.07301250100135803
-2.54295015335083,5.271000385284424,8.922000885009766,-0.025987500324845314,-0.08813749998807907,-0.020487500354647636
-2.3400001525878906,4.969950199127197,9.73905086517334,0.09982500225305557,-0.18342499434947968,0.055275000631809235
-2.196000099182129,4.783050060272217,9.646050453186035,0.18411250412464142,-0.23828749358654022,0.08579999953508377
-1.8199501037597656,4.717950344085693,9.339000701904297,0.21463750302791595,-0.40328750014305115,0.13956250250339508
-1.8799500465393066,4.840050220489502,9.447000503540039,0.14739999175071716,-0.39957499504089355,0.13832500576972961
-1.6600500345230103,4.5769500732421875,9.396000862121582,0.13887499272823334,-0.305525004863739,0.10175000131130219
-1.8250501155853271,4.465050220489502,8.946000099182129,0.15963749587535858,-0.19676250219345093,0.11151249706745148
-1.8510000705718994,4.5199503898620605,8.344950675964355,0.08758749812841415,-0.20652499794960022,0.18479999899864197
-1.8750001192092896,4.736999988555908,8.182950019836426,-0.012649999931454659,-0.2554749846458435,0.20679999887943268
-1.9440001249313354,4.981950283050537,8.878950119018555,-0.23127499222755432,-0.3605250120162964,0.21779999136924744
-1.2430500984191895,4.498050212860107,9.772050857543945,-0.2862749993801117,-0.4595249891281128,0.2055625021457672
-0.8670000433921814,4.195950031280518,10.078950881958008,-0.2765125036239624,-0.6744375228881836,0.11756250262260437
-0.43095001578330994,3.733950138092041,10.306050300598145,-0.16417500376701355,-0.7074375152587891,-0.030249999836087227
-0.9720000624656677,3.4110002517700195,10.273050308227539,-0.011412499472498894,-0.5058624744415283,-0.1695374995470047
-1.6140000820159912,3.346050262451172,9.756000518798828,0.14258749783039093,-0.32752498984336853,-0.22577500343322754
-1.9590001106262207,3.346050262451172,9.046950340270996,0.2293500006198883,-0.22728750109672546,-0.18906250596046448
-2.143050193786621,3.4450502395629883,8.938950538635254,0.24639999866485596,-0.20528750121593475,-0.0668250024318695
-2.31600022315979,3.5520002841949463,8.57295036315918,0.21216249465942383,-0.26028749346733093,0.07356250286102295
-1.9920001029968262,3.4399502277374268,8.282999992370605,0.11082500219345093,-0.20418749749660492,0.16279999911785126
-1.4149500131607056,3.3420002460479736,8.319000244140625,0.030112499371170998,-0.00494999997317791,0.1518000066280365
-1.207050085067749,3.487950086593628,8.338050842285156,-0.043175000697374344,0.19043749570846558,0.06751249730587006
-1.4730000495910645,3.66195011138916,8.805000305175781,-0.0859375,0.20391249656677246,-0.0424874983727932
-1.5610500574111938,3.6600000858306885,8.664000511169434,-0.06998749822378159,0.06462500244379044,-0.147537499666214
-1.912950038909912,3.4710001945495605,8.439000129699707,-0.02969999983906746,0.07933750003576279,-0.2110625058412552
-2.1190500259399414,3.3199501037597656,7.771050453186035,0.028875000774860382,0.1868624985218048,-0.2050125002861023
-2.577000141143799,3.8080501556396484,8.728050231933594,0.09611249715089798,0.16967499256134033,-0.11824999749660492
-1.8030000925064087,4.2970499992370605,8.163000106811523,0.1083500012755394,-0.21147499978542328,-0.0009624999947845936
-0.814050018787384,4.25100040435791,7.933950424194336,0.06187500059604645,-0.3018124997615814,-0.007012499962002039
-0.9150000214576721,4.113000392913818,8.119950294494629,0.025299999862909317,-0.29452499747276306,-0.19030000269412994
-1.7860500812530518,4.503000259399414,8.074950218200684,-0.0004124999977648258,-0.3115749955177307,-0.341825008392334
-1.798050045967102,4.34505033493042,8.199000358581543,-0.04193750023841858,-0.24447499215602875,-0.3258749842643738
-1.855950117111206,4.560000419616699,8.723999977111816,-0.09941250085830688,-0.29823750257492065,-0.24158750474452972
-1.1970000267028809,4.394999980926514,9.07800006866455,-0.11275000125169754,-0.28600001335144043,-0.25987499952316284
-1.377000093460083,4.480950355529785,9.013050079345703,-0.07975000143051147,-0.23704999685287476,-0.38087499141693115
-1.7070001363754272,4.567049980163574,8.914950370788574,-0.030937500298023224,-0.1662375032901764,-0.40892499685287476
-1.8750001192092896,4.527000427246094,8.85105037689209,-0.0016499999910593033,-0.1467124968767166,-0.3918749988079071
-1.912950038909912,4.39995002746582,8.604000091552734,0.05335000157356262,-0.15771250426769257,-0.33082500100135803
-1.9230000972747803,4.44795036315918,8.464950561523438,0.04839999973773956,-0.2480500042438507,-0.27211248874664307
-1.8799500465393066,4.52400016784668,8.52495002746582,0.025299999862909317,-0.3128125071525574,-0.2525874972343445
-1.7310000658035278,4.492950439453125,8.520000457763672,-0.012649999931454659,-0.33976250886917114,-0.2330625057220459
-1.6260000467300415,4.488000392913818,8.716950416564941,-0.03946249932050705,-0.2529999911785126,-0.2367749959230423
-1.6210501194000244,4.468950271606445,8.700000762939453,-0.0004124999977648258,-0.13942499458789825,-0.22811250388622284
-1.6279500722885132,4.419000148773193,8.664000511169434,0.03258749842643738,-0.11976250261068344,-0.219587504863739
-1.7430000305175781,4.587000370025635,8.57295036315918,0.06558749824762344,-0.2162874937057495,-0.19634999334812164
-1.8300000429153442,4.768950462341309,8.628000259399414,0.08387500047683716,-0.32023748755455017,-0.1438249945640564
-1.7860500812530518,4.78095006942749,8.638050079345703,0.12787500023841858,-0.41552498936653137,-0.09377499669790268
-1.4970000982284546,4.764000415802002,8.215950012207031,0.15716250240802765,-0.4118124842643738,-0.07548750191926956
-1.051050066947937,4.668000221252441,7.954950332641602,0.11082500219345093,-0.27252501249313354,-0.09253749996423721
-1.1329500675201416,4.849950313568115,8.269050598144531,-0.018699999898672104,-0.19318750500679016,-0.14135000109672546
-1.336050033569336,5.032050132751465,8.946000099182129,-0.07741250097751617,-0.2237125039100647,-0.16101250052452087
-1.3320000171661377,4.9770002365112305,9.42495059967041,0.009349999949336052,-0.33233749866485596,-0.15729999542236328
-1.0249500274658203,5.110950469970703,9.18600082397461,0.16568750143051147,-0.37152498960494995,-0.1340624988079071
-0.7879500389099121,5.26200008392334,8.797950744628906,0.2611125111579895,-0.3018124997615814,-0.11824999749660492
-0.7879500389099121,5.491950035095215,8.470050811767578,0.27197501063346863,-0.23828749358654022,-0.1340624988079071
-0.8119500279426575,5.496000289916992,8.447999954223633,0.2586374878883362,-0.2237125039100647,-0.17077499628067017
-0.6420000195503235,5.271000385284424,8.488950729370117,0.23416249454021454,-0.31776249408721924,-0.24529999494552612
-0.49800002574920654,5.128050327301025,8.587050437927246,0.17063750326633453,-0.4288625121116638,-0.3686375021934509
-0.24495001137256622,4.735050201416016,8.980050086975098,0.04235000163316727,-0.5400999784469604,-0.5139750242233276
-0.13395000994205475,4.246950149536133,9.407999992370605,-0.07975000143051147,-0.5218124985694885,-0.6289250254631042
-0.29205000400543213,3.9379501342773438,9.751049995422363,-0.12251249700784683,-0.3630000054836273,-0.6606875061988831
-0.5149500370025635,3.8520002365112305,9.600000381469727,-0.07741250097751617,-0.14918750524520874,-0.6007375121116638
-0.5269500017166138,3.876000165939331,9.468000411987305,-0.045649997889995575,-0.05389999970793724,-0.5457375049591064
-0.5629500150680542,3.9210002422332764,9.298050880432129,0.014299999922513962,0.0170499999076128,-0.4236375093460083
-0.5080500245094299,3.9760501384735107,9.289050102233887,0.1143999993801117,-0.09047500044107437,-0.30758750438690186
-0.21105000376701355,3.9310503005981445,8.808000564575195,0.27445000410079956,-0.2480500042438507,-0.2232999950647354
0.18105000257492065,3.9379501342773438,8.29995059967041,0.39297500252723694,-0.29081249237060547,-0.20253749191761017
0.33900001645088196,3.9499502182006836,7.990950584411621,0.4124999940395355,-0.29823750257492065,-0.21834999322891235
0.40800002217292786,3.9619503021240234,7.600950241088867,0.3502124845981598,-0.26881250739097595,-0.3026374876499176
-0.09405000507831573,4.05495023727417,7.885950565338135,0.19139999151229858,-0.2578125,-0.39434999227523804
-0.040950000286102295,3.913950204849243,8.344950675964355,0.06435000151395798,-0.3310999870300293,-0.405349999666214
0.556950032711029,3.844050168991089,8.503050804138184,0.006874999962747097,-0.3372874855995178,-0.3796375095844269
0.9709500670433044,3.957000255584717,8.57295036315918,-0.03464999794960022,-0.24447499215602875,-0.41263750195503235
0.612000048160553,4.122000217437744,8.85105037689209,-0.10793749988079071,-0.17971250414848328,-0.5152124762535095
0.07304999977350235,4.07895040512085,8.937000274658203,-0.16651250422000885,-0.2162874937057495,-0.5897374749183655
-0.24000000953674316,4.065000057220459,8.953950881958008,-0.1909874975681305,-0.2139499932527542,-0.5654000043869019
-0.3829500079154968,4.165050029754639,8.688000679016113,-0.17393749952316284,-0.16499999165534973,-0.45045000314712524
-0.364050030708313,4.242000102996826,8.506050109863281,-0.13722500205039978,-0.08799999952316284,-0.3148750066757202
-0.5440500378608704,4.369050025939941,8.439000129699707,-0.1396999955177307,-0.1564749926328659,-0.18782499432563782
-0.44805002212524414,4.3969502449035645,8.569950103759766,-0.1592250019311905,-0.2457125037908554,-0.12306249886751175
0.28395000100135803,4.303950309753418,8.539050102233887,-0.1775124967098236,-0.41552498936653137,-0.009487500414252281
0.7219500541687012,4.122000217437744,8.52495002746582,-0.16651250422000885,-0.4338124990463257,0.028462499380111694
1.2769500017166138,3.696000099182129,8.341050148010254,-0.12498749792575836,-0.31404998898506165,0.047987498342990875
1.2510000467300415,3.9090001583099365,8.692950248718262,-0.013887500390410423,0.2186249941587448,0.03203750029206276
0.6790500283241272,4.657950401306152,9.082950592041016,0.21587499976158142,0.9149249792098999,0.06875000149011612
-0.016950000077486038,5.07705020904541,9.106950759887695,0.4797374904155731,1.2509750127792358,0.1335124969482422
-0.30000001192092896,5.185050010681152,8.60205078125,0.6373124718666077,0.9113500118255615,0.1555124968290329
0.08700000494718552,5.218950271606445,7.213050365447998,0.55673748254776,0.2601499855518341,0.09556250274181366
0.32895001769065857,5.194950103759766,6.741000175476074,0.4479750096797943,0.08910000324249268,0.02722499892115593
0.2050500065088272,5.17995023727417,6.552000522613525,0.15468749403953552,0.09281250089406967,-0.14630000293254852
-0.817050039768219,5.19195032119751,7.6080002784729,-0.2287999987602234,0.26138749718666077,-0.31363749504089355
-0.7380000352859497,5.233050346374512,8.032050132751465,-0.2484624981880188,0.16362500190734863,-0.20253749191761017
-0.5410500168800354,5.389050483703613,8.371950149536133,-0.19346250593662262,0.07081250101327896,-0.09006249904632568
-0.5580000281333923,5.473050117492676,8.629950523376465,-0.09446249902248383,0.006049999967217445,-0.04001250118017197
-0.7780500650405884,5.4559502601623535,8.511000633239746,-0.005224999971687794,-0.05871250107884407,-0.03272499889135361
-0.6109500527381897,5.323950290679932,7.957950592041016,-0.015124999918043613,-0.03189999982714653,-0.01924999989569187
-0.6130500435829163,5.263950347900391,8.158950805664062,-0.13474999368190765,0.08538749814033508,0.060224998742341995
-0.5320500135421753,5.281050205230713,9.052050590515137,-0.17998750507831573,0.16609999537467957,0.17256249487400055
-0.35895001888275146,5.26200008392334,9.507000923156738,-0.04922499880194664,0.2759625017642975,0.22756250202655792
-0.37605002522468567,5.218950271606445,9.286050796508789,0.1461624950170517,0.45196250081062317,0.24461250007152557
-0.34995001554489136,5.383950233459473,9.065999984741211,0.24021250009536743,0.49101248383522034,0.26179999113082886
-0.8719500303268433,5.026950359344482,6.9810004234313965,0.2134000062942505,0.682824969291687,0.23003749549388885
-1.8870000839233398,5.583000183105469,7.312950134277344,-0.035887498408555984,0.5937250256538391,0.2690874934196472
-1.3870500326156616,5.4370503425598145,8.592000007629395,-0.29727500677108765,0.345674991607666,0.403425008058548
-0.8740500211715698,5.389050483703613,10.158000946044922,-0.2947999835014343,-0.006187499966472387,0.3423750102519989
-0.5749500393867493,4.761000156402588,10.870950698852539,-0.06146249920129776,-0.2737624943256378,0.11151249706745148
-1.3819500207901,4.642050266265869,10.23900032043457,0.09116250276565552,-0.4118124842643738,-0.07548750191926956
-1.7050501108169556,4.122000217437744,9.042000770568848,0.04839999973773956,-0.16128750145435333,-0.04977500066161156
-2.2320001125335693,3.885000228881836,9.640950202941895,-0.11646249890327454,0.08538749814033508,0.08208750188350677
-2.0280001163482666,3.9400501251220703,9.643050193786621,-0.10298749804496765,0.34072500467300415,0.26785001158714294
-1.4700000286102295,3.832050085067749,9.631050109863281,0.13763749599456787,0.5533000230789185,0.35708749294281006
-1.2649500370025635,3.9760501384735107,8.721000671386719,0.4002625048160553,0.48496249318122864,0.2923249900341034
-1.7190001010894775,4.201050281524658,7.8160505294799805,0.4772624969482422,0.2626250088214874,0.14932499825954437
-3.2130000591278076,3.8779501914978027,8.098950386047363,-0.03341250121593475,-0.7123875021934509,-0.6729249954223633
-2.2699501514434814,3.3700501918792725,8.575050354003906,0.03629999980330467,-0.3335750102996826,-0.5763999819755554
-1.6279500722885132,3.576000213623047,8.769000053405762,0.43092501163482666,-0.21752500534057617,-0.5556374788284302
-2.335050106048584,4.915050029754639,8.41200065612793,0.7167875170707703,-0.02213750034570694,-0.33563750982284546
-2.6959500312805176,4.692000389099121,8.725950241088867,0.9426999688148499,0.032862499356269836,-0.008249999955296516
-2.1670501232147217,4.51200008392334,7.704000473022461,0.9976999759674072,-0.18095000088214874,0.13227500021457672
-1.1929500102996826,5.061000347137451,6.892050266265869,0.8133124709129333,-0.040424998849630356,0.23485000431537628
-0.5410500168800354,5.4559502601623535,6.070950508117676,0.4064500033855438,0.39201250672340393,0.27156248688697815
-1.4800500869750977,5.596950054168701,6.1620001792907715,-0.21051250398159027,0.7195374965667725,0.1555124968290329
-1.971000075340271,5.359950065612793,7.294050216674805,-0.6418499946594238,0.8098750114440918,-0.0742499977350235
-1.9800001382827759,5.443950176239014,7.6870503425598145,-0.7211874723434448,0.8111125230789185,-0.16101250052452087
-2.1859500408172607,5.676000118255615,8.587050437927246,-0.6919000148773193,0.8478249907493591,-0.22082500159740448
-2.395050048828125,5.571000099182129,9.181050300598145,-0.43656250834465027,0.6975374817848206,-0.22687499225139618
-2.83305025100708,5.710050106048584,8.57295036315918,-0.10917499661445618,0.2881999909877777,-0.18782499432563782
-2.4810001850128174,5.592000484466553,8.098950386047363,0.030112499371170998,-0.3152875006198883,-0.04372499883174896
-1.7790000438690186,5.664000034332275,7.998000144958496,0.03135000169277191,-0.6304374933242798,0.043037500232458115
-1.6050000190734863,5.563050270080566,8.082000732421875,0.022824998944997787,-0.4008125066757202,-0.03396249935030937
-1.9230000972747803,5.401050090789795,7.582050323486328,0.0056374999694526196,-0.11495000123977661,-0.22082500159740448
-1.758000135421753,5.235000133514404,7.2460503578186035,-0.113987497985363,0.013337500393390656,-0.29411250352859497
-1.9230000972747803,5.383950233459473,7.998000144958496,-0.2825624942779541,0.32243749499320984,-0.18658749759197235
-2.703000068664551,5.3580002784729,9.298050880432129,-0.18851250410079956,0.5387250185012817,-0.11701250076293945
-3.450000047683716,5.692950248718262,8.697000503540039,0.1143999993801117,0.39448750019073486,-0.04853750020265579
-2.746950149536133,5.45805025100708,7.033050537109375,0.24639999866485596,0.234437495470047,0.04427500069141388
-1.5949500799179077,5.635050296783447,6.298050403594971,0.05211250111460686,0.2283875048160553,0.04179999977350235
-0.5560500025749207,5.722050189971924,7.009050369262695,-0.17627499997615814,0.3273875117301941,-0.1438249945640564
-0.7620000243186951,5.728950500488281,8.142000198364258,-0.17270000278949738,0.23691250383853912,-0.4431625008583069
-2.7970502376556396,5.841000080108643,8.745000839233398,0.05458749830722809,-0.3507624864578247,-0.5776374936103821
-3.871950149536133,5.887050151824951,8.07194995880127,0.22068749368190765,-1.240112543106079,-0.35887500643730164
-2.11395001411438,5.334000110626221,6.925950527191162,0.23045000433921814,-1.240112543106079,-0.11701250076293945
-0.027000000700354576,5.575050354003906,6.190950393676758,-0.12622499465942383,-0.7709624767303467,-0.341825008392334
0.29100000858306885,5.2069501876831055,8.398050308227539,-0.5526124835014343,-0.3848625123500824,-0.8867374658584595
-1.3410000801086426,4.963050365447998,10.26300048828125,-0.6503750085830688,-0.5620999932289124,-1.3582249879837036
-2.7490501403808594,4.338000297546387,11.005050659179688,-0.5648499727249146,-0.966487467288971,-1.435225009918213
-2.9569501876831055,3.7920002937316895,11.344950675964355,-0.3877499997615814,-1.185112476348877,-1.1615999937057495
-2.4619500637054443,3.7510502338409424,10.986000061035156,-0.13598750531673431,-1.0861124992370605,-0.7547374963760376
-1.068000078201294,3.7729501724243164,10.426050186157227,0.08016250282526016,-0.9260625243186951,-0.42858749628067017
-0.13199999928474426,3.90405011177063,9.415950775146484,0.23292499780654907,-0.7599624991416931,-0.3796375095844269
-0.25394999980926514,4.122000217437744,8.67300033569336,0.2769249975681305,-0.5961999893188477,-0.5054500102996826
-0.6589500308036804,3.7819502353668213,8.383950233459473,0.3172124922275543,-0.4655750095844269,-0.54339998960495
-0.8959500193595886,3.763050079345703,8.122950553894043,0.32573750615119934,-0.46915000677108765,-0.5201625227928162
-1.0390501022338867,3.8869502544403076,7.821000576019287,0.26468750834465027,-0.5106750130653381,-0.44068750739097595
-0.1870500147342682,3.741000175476074,7.900050163269043,0.16568750143051147,-0.5168625116348267,-0.40411248803138733
0.15000000596046448,3.741000175476074,8.235000610351562,0.0826374962925911,-0.5571500062942505,-0.521399974822998
-0.08895000070333481,3.796950101852417,8.460000038146973,0.0056374999694526196,-0.6231499910354614,-0.6936874985694885
-0.5059500336647034,3.564000129699707,8.872050285339355,-0.07122500240802765,-0.6732000112533569,-0.7485499978065491
-0.8220000267028809,3.5809502601623535,9.082950592041016,-0.1457500010728836,-0.6231499910354614,-0.6899750232696533
-0.7570500373840332,3.8230502605438232,9.27405071258545,-0.18617500364780426,-0.3726249933242798,-0.5531625151634216
-0.4120500087738037,3.9310503005981445,9.25005054473877,-0.14822499454021454,-0.11247500032186508,-0.45416250824928284
-0.6079500317573547,4.255949974060059,8.980050086975098,-0.09817499667406082,-0.04647500067949295,-0.4175874888896942
-1.0750499963760376,4.584000110626221,9.349050521850586,-0.045649997889995575,-0.2102375030517578,-0.3320625126361847
-0.8100000619888306,4.522050380706787,9.43695068359375,0.024062499403953552,-0.3568125069141388,-0.2611125111579895
-0.13199999928474426,4.350000381469727,8.913000106811523,0.18768750131130219,-0.607200026512146,-0.17682500183582306
0.24000000953674316,4.480950355529785,8.326050758361816,0.23539999127388,-0.6121500134468079,-0.17201249301433563
0.6810000538825989,4.453050136566162,7.912050247192383,0.1779250055551529,-0.42528748512268066,-0.2623499929904938
0.5730000138282776,4.479000091552734,7.9770002365112305,0.05211250111460686,-0.24323749542236328,-0.4516874849796295
-0.06705000251531601,4.491000175476074,8.482049942016602,-0.052937500178813934,-0.21147499978542328,-0.5861625075340271
-0.34005001187324524,4.342050075531006,8.85300064086914,-0.06146249920129776,-0.27252501249313354,-0.5677375197410583
-0.37905001640319824,4.414050102233887,8.755050659179688,-0.038224998861551285,-0.26881250739097595,-0.46392500400543213
-0.2160000056028366,4.527000427246094,8.737950325012207,-0.02722499892115593,-0.1662375032901764,-0.40039998292922974
-0.2779500186443329,4.615050315856934,8.64900016784668,-0.005224999971687794,-0.12594999372959137,-0.38940000534057617
-0.2880000174045563,4.749000072479248,8.455950736999512,0.009349999949336052,-0.13571250438690186,-0.3796375095844269
-0.2970000207424164,4.773000240325928,8.226000785827637,-0.0016499999910593033,-0.10518749803304672,-0.37111249566078186
-0.3859500288963318,4.884000301361084,8.13705062866211,-0.035887498408555984,-0.054999999701976776,-0.34306249022483826
-0.43605002760887146,5.013000011444092,8.239950180053711,-0.057887498289346695,-0.03423750028014183,-0.3198249936103821
-0.3910500109195709,5.118000030517578,8.6089506149292,-0.050462499260902405,0.0085249999538064,-0.2611125111579895
-0.2160000056028366,5.16795015335083,8.87505054473877,0.019112499430775642,0.0010999999940395355,-0.23553749918937683
-0.3949500322341919,5.215950012207031,8.917950630187988,0.13158750534057617,-0.04647500067949295,-0.23787499964237213
-0.4819500148296356,5.143950462341309,8.37405014038086,0.22439999878406525,-0.025712499395012856,-0.2232999950647354
-0.4650000333786011,5.17995023727417,8.142000198364258,0.22921249270439148,0.013337500393390656,-0.2073500007390976
-0.30900001525878906,5.245050430297852,7.945950508117676,0.15358750522136688,0.07438749819993973,-0.19634999334812164
-0.3450000286102295,5.298000335693359,8.12505054473877,0.09487500041723251,0.1013374999165535,-0.2050125002861023
-0.30705001950263977,5.238000392913818,8.84595012664795,0.0411125011742115,0.10615000128746033,-0.22453749179840088
-0.22800001502037048,5.005950450897217,8.784000396728516,0.09487500041723251,0.14409999549388885,-0.2428250014781952
-0.51705002784729,5.245050430297852,8.54699993133545,0.11811249703168869,0.17833749949932098,-0.2428250014781952
-0.6780000329017639,5.377050399780273,8.53695011138916,0.10339999943971634,0.17943750321865082,-0.21834999322891235
-0.8380500674247742,5.620950222015381,9.049050331115723,0.08882500231266022,0.17215000092983246,-0.14024999737739563
-0.8070000410079956,5.578050136566162,9.241050720214844,0.12058749794960022,0.1551000028848648,-0.10353749990463257
-0.6400500535964966,5.319000244140625,9.217050552368164,0.19634999334812164,0.09033749997615814,-0.08030000329017639
-0.6490500569343567,5.26200008392334,8.644950866699219,0.19016249477863312,0.13186250627040863,-0.09253749996423721
-0.8070000410079956,5.178000450134277,8.640000343322754,0.1046374961733818,0.23938749730587006,-0.09501250088214874
-0.8959500193595886,5.176050186157227,8.776050567626953,0.06558749824762344,0.27486249804496765,-0.08277499675750732
-1.0060499906539917,4.9360504150390625,9.432000160217285,0.06187500059604645,0.18438750505447388,-0.04001250118017197
-1.0249500274658203,4.465050220489502,9.427950859069824,0.19016249477863312,-0.18700000643730164,-0.04729999974370003
-0.9799500703811646,4.07895040512085,9.045000076293945,0.2316875010728836,-0.24928750097751617,-0.13048750162124634
-1.2049500942230225,3.835050106048584,8.733000755310059,0.18645000457763672,-0.18095000088214874,-0.23553749918937683
-1.7839500904083252,3.703050136566162,8.725950241088867,0.09982500225305557,-0.04166249930858612,-0.2550624907016754
-2.30400013923645,3.7770001888275146,8.98905086517334,0.06558749824762344,0.02433750033378601,-0.16335000097751617
-2.40405011177063,3.744000196456909,9.028050422668457,0.14258749783039093,0.032862499356269836,-0.022962499409914017
-2.086050033569336,3.6700501441955566,8.707050323486328,0.2891624867916107,-0.054999999701976776,0.09679999947547913
-1.7670000791549683,3.925950288772583,8.191950798034668,0.35516250133514404,-0.17476250231266022,0.1480875015258789
-1.4700000286102295,4.006950378417969,8.080050468444824,0.30744999647140503,-0.1845249980688095,0.12484999746084213
-1.6500000953674316,4.062000274658203,8.143950462341309,0.254925012588501,-0.08799999952316284,0.055275000631809235
-2.014050006866455,4.25100040435791,8.098950386047363,0.24021250009536743,-0.020899999886751175,0.011274999938905239
-1.8220500946044922,4.195950031280518,7.771050453186035,0.20363749563694,-0.002474999986588955,-0.0009624999947845936
-1.6789500713348389,4.1509504318237305,7.759050369262695,0.15358750522136688,-0.01223750039935112,-0.013199999928474426
-1.7340000867843628,4.279950141906738,8.202000617980957,0.03629999980330467,0.002337499987334013,-0.03753750026226044
-2.0500500202178955,4.630050182342529,8.731050491333008,0.030112499371170998,0.09157499670982361,-0.05224999785423279
-1.64805006980896,4.510050296783447,8.508000373840332,0.1363999992609024,0.2124374955892563,-0.13282500207424164
-1.7239500284194946,4.723050117492676,8.070000648498535,0.15234999358654022,0.2186249941587448,-0.26606249809265137
-1.9800001382827759,4.764000415802002,8.092050552368164,0.10106249898672104,0.11962500214576721,-0.31130000948905945
-1.9969501495361328,4.654050350189209,8.173049926757812,0.10216250270605087,0.08538749814033508,-0.29906249046325684
-2.064000129699707,4.692000389099121,8.26395034790039,0.17916250228881836,0.04028749838471413,-0.24158750474452972
-2.196000099182129,5.013000011444092,8.104050636291504,0.2829749882221222,-0.07466249912977219,-0.15358750522136688
-1.9560000896453857,4.903050422668457,8.005050659179688,0.3502124845981598,-0.15152500569820404,-0.08648750185966492
-1.4730000495910645,4.828050136566162,7.833000183105469,0.35997501015663147,-0.11123749613761902,-0.12430000305175781
-1.2139500379562378,4.78095006942749,7.680000305175781,0.34168750047683716,-0.02694999985396862,-0.18301250040531158
-1.4110500812530518,5.233050346374512,7.3660502433776855,0.2574000060558319,0.15015000104904175,-0.34306249022483826
-2.111999988555908,5.620950222015381,7.5169501304626465,0.1363999992609024,0.22714999318122864,-0.43834999203681946
-2.445000171661377,5.431950092315674,7.954950332641602,0.05829999968409538,0.09515000134706497,-0.4151124954223633
-2.4660000801086426,5.391000270843506,8.257050514221191,0.06435000151395798,0.028049999848008156,-0.37716248631477356
-2.2800002098083496,5.464950084686279,8.36205005645752,0.1438249945640564,-0.029424998909235,-0.31130000948905945
-2.1289501190185547,5.494050025939941,8.08395004272461,0.22811250388622284,-0.00989999994635582,-0.29906249046325684
-2.335050106048584,5.5320000648498535,7.5360002517700195,0.2488749921321869,-0.040424998849630356,-0.3258749842643738
-2.5789501667022705,5.619000434875488,7.102950572967529,0.16940000653266907,-0.1722874939441681,-0.31363749504089355
-2.3560500144958496,5.749950408935547,7.371000289916992,0.08016250282526016,-0.2358125001192093,-0.24529999494552612
-1.7100000381469727,5.688000202178955,8.002950668334961,0.10339999943971634,-0.17352500557899475,-0.23430000245571136
-1.477950096130371,5.242950439453125,7.323000431060791,0.19016249477863312,-0.06971249729394913,-0.3503499925136566
-2.6050500869750977,5.9659504890441895,6.708000183105469,0.05335000157356262,-0.14300000667572021,-0.4296875
-2.4660000801086426,6.133050441741943,7.254000186920166,-0.1457500010728836,-0.30057498812675476,-0.3796375095844269
-1.588050127029419,5.8720502853393555,8.155950546264648,-0.13241249322891235,-0.39476248621940613,-0.3735874891281128
-2.044950008392334,6.117000102996826,8.12505054473877,-0.05169999971985817,-0.5400999784469604,-0.5006374716758728
-2.674950122833252,6.049950122833252,8.03700065612793,-0.05664999783039093,-0.7551500201225281,-0.5116375088691711
-1.4299501180648804,6.22005033493042,7.582050323486328,0.08387500047683716,-0.5131499767303467,-0.3686375021934509
-1.7269500494003296,6.0520501136779785,8.010000228881836,0.05939999967813492,-0.5743374824523926,-0.4334000051021576
-1.8919501304626465,5.877000331878662,8.005050659179688,0.11935000121593475,-0.6500999927520752,-0.4101625084877014
-1.8060001134872437,5.877000331878662,7.761000156402588,0.171875,-0.6829624772071838,-0.33934998512268066
-1.6930500268936157,5.937000274658203,7.672950267791748,0.18287499248981476,-0.690387487411499,-0.3051125109195709
-1.221000075340271,5.949000358581543,7.653000354766846,0.19511249661445618,-0.7123875021934509,-0.2563000023365021
-1.0180500745773315,5.439000129699707,7.941000461578369,0.027637500315904617,-0.7917249798774719,-0.5299249887466431
-0.690000057220459,5.070000171661377,7.957950592041016,-0.06517499685287476,-0.6879125237464905,-0.5666375160217285
-0.4600500166416168,4.741950035095215,8.214000701904297,-0.1714625060558319,-0.6610999703407288,-0.6117374897003174
-0.7450500130653381,4.843050003051758,8.341050148010254,-0.2569875121116638,-0.7673875093460083,-0.6619250178337097
-0.7210500240325928,4.7659502029418945,8.379000663757324,-0.29356250166893005,-0.781962513923645,-0.6447374820709229
-0.6829500198364258,4.642050266265869,8.443950653076172,-0.30951249599456787,-0.781962513923645,-0.6215000152587891
-0.30705001950263977,4.23900032043457,8.842950820922852,-0.34127500653266907,-0.8430125117301941,-0.5543999671936035
-0.06705000251531601,4.0410003662109375,9.109050750732422,-0.32298749685287476,-0.8394374847412109,-0.5311625003814697
-0.35895001888275146,4.648950099945068,9.370050430297852,-0.1909874975681305,-0.7464874982833862,-0.521399974822998
-0.29205000400543213,4.857000350952148,9.154950141906738,-0.013887500390410423,-0.5876749753952026,-0.468874990940094
-0.034050002694129944,4.60605001449585,8.956050872802734,0.05335000157356262,-0.5413374900817871,-0.46268749237060547
0.18105000257492065,4.51200008392334,8.23799991607666,0.09611249715089798,-0.5461499691009521,-0.5128750205039978
0.4249500334262848,4.603050231933594,7.821000576019287,-0.008937500417232513,-0.524150013923645,-0.6093999743461609
0.8100000619888306,4.408950328826904,7.864050388336182,-0.1714625060558319,-0.5938624739646912,-0.7645000219345093
0.5400000214576721,4.414050102233887,8.290050506591797,-0.296037495136261,-0.7001500129699707,-0.9343125224113464
0.4440000355243683,4.420950412750244,8.86500072479248,-0.34251248836517334,-0.7721999883651733,-1.045549988746643
0.8269500136375427,4.1579999923706055,8.910000801086426,-0.3217499852180481,-0.6329125165939331,-1.1493624448776245
0.9400500655174255,4.113000392913818,8.913000106811523,-0.3082749843597412,-0.47657498717308044,-1.2141250371932983
0.6790500283241272,4.045950412750244,8.756999969482422,-0.3119874894618988,-0.18947499990463257,-1.3362250328063965
0.2670000195503235,4.0980000495910645,8.784000396728516,-0.3315125107765198,-0.15895000100135803,-1.377750039100647
-0.43095001578330994,4.282950401306152,9.283950805664062,-0.37427499890327454,-0.432574987411499,-1.3679875135421753
-0.00795000046491623,3.885000228881836,9.577950477600098,-0.4585624933242798,-1.0115875005722046,-1.3106499910354614
0.3079500198364258,3.9280502796173096,8.79104995727539,-0.6124249696731567,-1.3391125202178955,-1.339937448501587
1.3870500326156616,3.7890002727508545,8.404950141906738,-0.8359999656677246,-1.2621124982833862,-1.4254624843597412
0.8130000233650208,3.844050168991089,8.52495002746582,-0.864187479019165,-0.7306749820709229,-1.4474624395370483
0.5250000357627869,3.8830502033233643,9.154950141906738,-0.7884249687194824,-0.4618625044822693,-1.3729374408721924
0.3150000274181366,4.026000022888184,9.693000793457031,-0.4927999973297119,-0.2102375030517578,-1.0796500444412231
0.10200000554323196,4.230000019073486,9.291000366210938,-0.1775124967098236,-0.11123749613761902,-0.7290250062942505
-0.24195000529289246,4.441050052642822,9.325050354003906,0.0668250024318695,-0.035475000739097595,-0.46639999747276306
-0.2569500207901001,4.41195011138916,9.507000923156738,0.16335000097751617,-0.05871250107884407,-0.3858250081539154
0.35100001096725464,4.138950347900391,9.091950416564941,0.29397499561309814,-0.18700000643730164,-0.3515875041484833
0.7579500079154968,4.072050094604492,8.755050659179688,0.3147374987602234,-0.21752500534057617,-0.405349999666214
0.999000072479248,4.0219502449035645,8.230050086975098,0.30140000581741333,-0.19923749566078186,-0.5934500098228455
0.3550500273704529,4.170000076293945,8.6850004196167,0.29768750071525574,-0.2102375030517578,-0.7412624955177307
0.006000000052154064,4.254000186920166,8.836050033569336,0.31597501039505005,-0.2810499966144562,-0.7645000219345093
0.2670000195503235,4.479000091552734,7.522050380706787,0.3086875081062317,-0.07823749631643295,-0.548212468624115
-0.12000000476837158,4.587000370025635,8.271000862121582,0.17916250228881836,-0.01223750039935112,-0.49445000290870667
-0.3360000252723694,4.873950004577637,8.781000137329102,0.08635000139474869,-0.24928750097751617,-0.3821125030517578
-0.13005000352859497,4.900050163269043,8.632950782775879,0.05706249922513962,-0.34209999442100525,-0.3161124885082245
0.2880000174045563,4.660950183868408,7.8070502281188965,0.006874999962747097,-0.2297624945640564,-0.2232999950647354
0.1969500035047531,4.387950420379639,7.840050220489502,-0.07369999587535858,0.1391499936580658,-0.22811250388622284
-0.13905000686645508,4.612950325012207,8.56095027923584,-0.19470000267028809,0.28338751196861267,-0.2171124964952469
-0.12195000797510147,5.053950309753418,9.006000518798828,-0.2947999835014343,0.2063875049352646,-0.1060125008225441
0.034950003027915955,4.711050033569336,7.146000385284424,-0.2899875044822693,0.4250124990940094,0.018562499433755875
-0.7260000109672546,4.723050117492676,11.0149507522583,-0.07741250097751617,1.1054999828338623,0.0919874981045723
-1.0009500980377197,4.741950035095215,11.319000244140625,0.2609750032424927,0.2441999912261963,0.11756250262260437
-0.6280500292778015,5.07705020904541,10.45995044708252,0.5273125171661377,-0.41786250472068787,0.13708749413490295
0.23805001378059387,4.672950267791748,9.478050231933594,0.6837875247001648,-0.6206749677658081,0.0845625028014183
0.21900001168251038,4.720950126647949,8.40000057220459,0.6422625184059143,-0.5571500062942505,-0.09624999761581421
0.05895000323653221,4.852050304412842,8.138999938964844,0.5407875180244446,-0.45704999566078186,-0.18782499432563782
-0.16305001080036163,4.6780500411987305,8.391000747680664,0.2134000062942505,-0.09047500044107437,-0.33687499165534973
-1.339050054550171,4.543950080871582,9.021000862121582,-0.4230875074863434,-0.062424998730421066,-0.32106250524520874
-1.3170000314712524,4.144050121307373,9.502050399780273,-0.5196124911308289,0.07081250101327896,-0.147537499666214
-1.1830500364303589,3.655050277709961,9.708000183105469,-0.44756248593330383,-0.01223750039935112,-0.07672499865293503
-1.1329500675201416,3.475950241088867,9.375,-0.26551249623298645,-0.08195000141859055,-0.09982500225305557
-1.1179500818252563,3.3820502758026123,8.961000442504883,-0.035887498408555984,-0.002474999986588955,-0.15234999358654022
-1.3699500560760498,3.706050157546997,8.410050392150879,0.0411125011742115,-0.41786250472068787,-0.5359749794006348
-1.6840500831604004,3.5089502334594727,8.890950202941895,-0.17270000278949738,-0.3385249972343445,-0.595924973487854
-1.915950059890747,3.5310001373291016,9.163949966430664,-0.2765125036239624,-0.2554749846458435,-0.56045001745224
-1.8460501432418823,3.7320001125335693,9.331950187683105,-0.2508000135421753,-0.14176249504089355,-0.4529249966144562
-1.7890501022338867,3.8590502738952637,9.334050178527832,-0.2032250016927719,-0.10147500038146973,-0.4016374945640564
-1.606950044631958,4.04295015335083,9.306000709533691,-0.07493750005960464,-0.07095000147819519,-0.3503499925136566
-1.4250000715255737,4.108050346374512,9.118950843811035,0.0826374962925911,-0.0929500013589859,-0.37482500076293945
-1.3030500411987305,4.122000217437744,8.884050369262695,0.2316875010728836,-0.13571250438690186,-0.43834999203681946
-1.2790501117706299,4.282950401306152,8.797950744628906,0.32573750615119934,-0.22247499227523804,-0.5128750205039978
-1.339050054550171,4.3470001220703125,8.79104995727539,0.3465000092983246,-0.2810499966144562,-0.54339998960495
-1.4010000228881836,4.432950019836426,8.60205078125,0.3306874930858612,-0.3885749876499176,-0.5751624703407288
-1.3960500955581665,4.426050186157227,8.427000045776367,0.2891624867916107,-0.4118124842643738,-0.5763999819755554
-1.360050082206726,4.462050437927246,8.226000785827637,0.15468749403953552,-0.35804998874664307,-0.5543999671936035
-1.228950023651123,4.534049987792969,8.308950424194336,0.021587500348687172,-0.24447499215602875,-0.521399974822998
-1.1779500246047974,4.563000202178955,8.506050109863281,-0.057887498289346695,-0.20899999141693115,-0.5299249887466431
-1.2910500764846802,4.567049980163574,8.414999961853027,-0.07493750005960464,-0.2517625093460083,-0.5654000043869019
-1.4130001068115234,4.507950305938721,8.503050804138184,-0.03341250121593475,-0.2993375062942505,-0.5934500098228455
-1.3720500469207764,4.468950271606445,8.55405044555664,0.0032999999821186066,-0.33605000376701355,-0.6056874990463257
-1.3099501132965088,4.492950439453125,8.40000057220459,0.06311249732971191,-0.3848625123500824,-0.6324999928474426
-1.297950029373169,4.491000175476074,8.32395076751709,0.07782500237226486,-0.36781248450279236,-0.6422625184059143
-1.276050090789795,4.363950252532959,8.202000617980957,0.07906249910593033,-0.296999990940094,-0.6582124829292297
-1.3440001010894775,4.335000038146973,8.116050720214844,0.06063750013709068,-0.2700499892234802,-0.6642624735832214
-1.5709500312805176,4.369050025939941,8.14905071258545,-0.0004124999977648258,-0.2517625093460083,-0.6532624959945679
-1.6279500722885132,4.363950252532959,8.419950485229492,-0.06517499685287476,-0.31033748388290405,-0.6104999780654907
-1.3270500898361206,4.213050365447998,7.945950508117676,-0.09569999575614929,-0.037950001657009125,-0.5286874771118164
-1.602000117301941,4.335000038146973,7.833000183105469,-0.04688749834895134,0.08057499676942825,-0.49568748474121094
-1.9350000619888306,4.801950454711914,8.458050727844238,0.022824998944997787,0.10615000128746033,-0.45416250824928284
-1.7700001001358032,4.924050331115723,8.616000175476074,0.11082500219345093,-0.04647500067949295,-0.4236375093460083
-1.6260000467300415,4.843050003051758,8.26395034790039,0.1938749998807907,-0.15895000100135803,-0.4395875036716461
-1.76295006275177,4.7659502029418945,8.25195026397705,0.26963749527931213,-0.20776249468326569,-0.4713499844074249
-1.8370500802993774,4.821000099182129,8.167950630187988,0.3209249973297119,-0.30799999833106995,-0.46392500400543213
-1.9060500860214233,4.965000152587891,8.187000274658203,0.3147374987602234,-0.35557499527931213,-0.45787498354911804
-1.9440001249313354,5.227950096130371,8.245050430297852,0.2488749921321869,-0.4582875072956085,-0.44068750739097595
-1.7770501375198364,5.16795015335083,8.068050384521484,0.13763749599456787,-0.510812520980835,-0.42611250281333923
-1.8610501289367676,5.149050235748291,8.410050392150879,0.027637500315904617,-0.507099986076355,-0.4175874888896942
-1.8510000705718994,5.085000038146973,8.09595012664795,-0.030937500298023224,-0.36781248450279236,-0.37482500076293945
-1.5229500532150269,5.401050090789795,8.733000755310059,0.006874999962747097,-0.09171249717473984,-0.1438249945640564
-1.6090500354766846,5.539950370788574,8.604000091552734,0.0728750005364418,-0.03671250119805336,-0.1377750039100647
-2.0239500999450684,5.508000373840332,8.676000595092773,0.15111249685287476,0.13433749973773956,-0.12553749978542328
-1.9210500717163086,5.271000385284424,8.860050201416016,0.2316875010728836,0.059812501072883606,-0.0742499977350235
-1.7839500904083252,5.242950439453125,8.986950874328613,0.2586374878883362,-0.052662499248981476,-0.05224999785423279
-1.453950047492981,5.295000076293945,9.207000732421875,0.2927374839782715,-0.3067624866962433,-0.05101250112056732
-1.2090001106262207,5.161050319671631,8.808000564575195,0.3049750030040741,-0.38981249928474426,-0.1023000031709671
-0.9150000214576721,4.741950035095215,8.644950866699219,0.30016249418258667,-0.24323749542236328,-0.2232999950647354
-0.9799500703811646,4.62000036239624,8.338050842285156,0.2414499968290329,-0.14794999361038208,-0.3723500072956085
-1.0200001001358032,4.600950241088867,8.105999946594238,0.11687500029802322,-0.04895000159740448,-0.45663750171661377
-1.2330000400543213,4.339950084686279,8.08395004272461,-0.018699999898672104,0.06462500244379044,-0.4969249963760376
-1.746000051498413,4.338000297546387,8.57805061340332,-0.06888750195503235,0.04633750021457672,-0.44440001249313354
-1.9560000896453857,4.354050159454346,8.949000358581543,0.03629999980330467,-0.05142499879002571,-0.2586374878883362
-1.702950119972229,4.198950290679932,9.289050102233887,0.25987499952316284,-0.10766249895095825,-0.04729999974370003
-1.4179500341415405,3.9979500770568848,7.941000461578369,0.43326249718666077,-0.13199999928474426,0.038224998861551285
-1.5180001258850098,4.2370500564575195,8.02500057220459,0.40892499685287476,-0.22247499227523804,0.040562499314546585
-1.0800000429153442,4.330049991607666,7.9860005378723145,0.2609750032424927,-0.5205749869346619,-0.0057749999687075615
-0.10605000704526901,4.0410003662109375,7.912050247192383,0.2171124964952469,-0.4496249854564667,-0.12306249886751175
0.14205001294612885,4.156050205230713,7.471050262451172,0.07535000145435333,-0.33605000376701355,-0.3003000020980835
-0.2970000207424164,4.052999973297119,7.840050220489502,-0.1775124967098236,-0.2162874937057495,-0.46268749237060547
-0.7309500575065613,4.182000160217285,8.515049934387207,-0.3535124957561493,-0.0611874982714653,-0.5128750205039978
-0.7810500264167786,4.318050384521484,8.701950073242188,-0.4010874927043915,0.025575000792741776,-0.49939998984336853
-0.7549500465393066,4.483950138092041,9.076050758361816,-0.431612491607666,0.202674999833107,-0.4529249966144562
-0.3859500288963318,4.275000095367432,9.337050437927246,-0.37427499890327454,0.22110000252723694,-0.4419249892234802
-0.26805001497268677,4.186950206756592,8.941950798034668,-0.296037495136261,0.16967499256134033,-0.5152124762535095
-1.1950500011444092,4.402050018310547,8.79104995727539,-0.23746250569820404,0.210099995136261,-0.49568748474121094
-1.4730000495910645,4.350000381469727,8.599050521850586,-0.2190375030040741,0.2956250011920929,-0.29411250352859497
-1.3000500202178955,4.488000392913818,8.85300064086914,-0.22398750483989716,0.45801249146461487,-0.04606249928474426
-0.8620500564575195,4.642050266265869,9.235950469970703,-0.11041250079870224,0.5240125060081482,0.11756250262260437
-0.46695002913475037,4.564949989318848,8.005050659179688,0.16458749771118164,0.057337500154972076,-0.09982500225305557
-0.9460500478744507,4.611000061035156,8.131950378417969,0.10106249898672104,0.03904999792575836,-0.16224999725818634
-1.228950023651123,4.62000036239624,8.604000091552734,0.03506249934434891,0.13791249692440033,-0.14506250619888306
-1.1569499969482422,4.564949989318848,8.83905029296875,0.03258749842643738,0.1905750036239624,-0.1377750039100647
-0.7399500608444214,4.579050064086914,8.463000297546387,0.026537500321865082,0.23086249828338623,-0.1732500046491623
-0.814050018787384,4.711050033569336,8.211000442504883,-0.052937500178813934,0.2441999912261963,-0.258774995803833
-0.9940500259399414,4.6369500160217285,8.447999954223633,-0.089649997651577,0.21133749186992645,-0.283112496137619
-1.5139501094818115,4.594050407409668,8.683050155639648,-0.07617499679327011,0.09404999762773514,-0.24529999494552612
-1.8060001134872437,4.5960001945495605,8.769000053405762,0.004537499975413084,0.13186250627040863,-0.08882500231266022
-1.5019500255584717,4.612950325012207,8.968050003051758,0.04963750019669533,0.16362500190734863,-0.014299999922513962
-0.46995002031326294,4.768950462341309,8.776050567626953,0.17916250228881836,0.3969624936580658,0.013749999925494194
-0.09600000083446503,4.8070502281188965,8.26395034790039,0.22687499225139618,0.5460125207901001,-0.04977500066161156
-1.2550500631332397,5.3959503173828125,7.692000389099121,0.15358750522136688,0.49101248383522034,-0.23058749735355377
-2.1070501804351807,5.590050220489502,8.118000030517578,0.10106249898672104,0.32243749499320984,-0.24158750474452972
-2.2890000343322754,4.972050189971924,8.317049980163574,0.10106249898672104,-0.054999999701976776,-0.09253749996423721
-1.76295006275177,4.836000442504883,8.82194995880127,0.04606249928474426,0.05362499877810478,0.0943249985575676
-0.9079500436782837,4.813950061798096,8.994000434875488,0.04839999973773956,0.8758749961853027,0.11756250262260437
-0.7780500650405884,5.527950286865234,8.403000831604004,0.026537500321865082,1.5465999841690063,-0.05596249923110008
-1.6120500564575195,6.11400032043457,8.403000831604004,-0.010174999944865704,1.4122624397277832,-0.267300009727478
-3.0990002155303955,5.571000099182129,9.331950187683105,0.07782500237226486,0.7781124711036682,-0.23787499964237213
-3.7669501304626465,4.965000152587891,9.234000205993652,0.30744999647140503,0.22714999318122864,0.021037500351667404
-4.128000259399414,5.092050075531006,7.360950469970703,0.2927374839782715,0.023099999874830246,0.3338499963283539
-3.271050214767456,5.305050373077393,8.155950546264648,0.07039999961853027,-0.3848625123500824,0.466949999332428
-2.1739501953125,4.986000061035156,9.43695068359375,-0.007699999958276749,-0.25657498836517334,0.2886124849319458
-4.11899995803833,5.025000095367432,10.147950172424316,0.07039999961853027,-0.14176249504089355,0.03932499885559082
-4.521000385284424,4.35705041885376,9.420000076293945,0.13392500579357147,-0.24323749542236328,0.02227500081062317
-5.929050445556641,4.491000175476074,8.377050399780273,0.05335000157356262,-0.6084374785423279,0.3363249897956848
-4.204950332641602,4.584000110626221,9.183000564575195,0.0056374999694526196,-0.8822000026702881,0.8420500159263611
-1.5810000896453857,4.813950061798096,9.121050834655762,0.25011250376701355,-1.0605374574661255,0.8615750074386597
-0.9100500345230103,4.624950408935547,7.4760003089904785,0.41868749260902405,-1.1435874700546265,0.4241875112056732
-1.8630000352859497,4.768950462341309,7.086000442504883,0.2866874933242798,-1.1583000421524048,-0.0057749999687075615
-2.623950242996216,4.174950122833252,6.994950294494629,0.09487500041723251,-0.7489625215530396,-0.15729999542236328
-2.9260501861572266,4.141050338745117,7.06695032119751,-0.02488750033080578,-0.4961000084877014,-0.1755875051021576
-3.022050142288208,4.186950206756592,7.6080002784729,-0.17270000278949738,0.0010999999940395355,-0.12182500213384628
-2.7199501991271973,4.231950283050537,7.966950416564941,-0.23251250386238098,0.1929125040769577,-0.09129999577999115
-2.754000186920166,4.5960001945495605,8.403000831604004,-0.22027499973773956,-0.030662499368190765,-0.1097249984741211
-2.950050115585327,4.666050434112549,8.56095027923584,-0.12251249700784683,-0.4582875072956085,-0.18658749759197235
-2.9359500408172607,4.41195011138916,8.427000045776367,-0.015124999918043613,-0.8845375180244446,-0.18535000085830688
-2.731950044631958,4.282950401306152,7.753950595855713,0.0411125011742115,-0.7966749668121338,-0.09129999577999115
-2.353950023651123,4.426050186157227,7.483050346374512,-0.03341250121593475,-0.3848625123500824,0.03203750029206276
-2.0310001373291016,5.025000095367432,8.25,-0.23622499406337738,-0.2517625093460083,-0.11701250076293945
-1.954050064086914,4.986000061035156,8.383950233459473,-0.13598750531673431,-0.39476248621940613,-0.15729999542236328
-1.9180500507354736,4.966950416564941,8.086950302124023,-0.03341250121593475,-0.4923875033855438,-0.20611250400543213
-2.044950008392334,4.8949503898620605,7.452000141143799,-0.028462499380111694,-0.4265249967575073,-0.2465374916791916
-2.1220500469207764,4.90500020980835,7.237050533294678,-0.17627499997615814,-0.15399999916553497,-0.22453749179840088
-1.9330500364303589,4.942950248718262,7.893000602722168,-0.29122498631477356,0.057337500154972076,-0.15358750522136688
-1.801050066947937,5.032050132751465,8.427000045776367,-0.26551249623298645,0.0340999998152256,-0.15729999542236328
-1.702950119972229,5.049000263214111,8.452950477600098,-0.18369999527931213,-0.21147499978542328,-0.18658749759197235
-1.7119500637054443,4.990950107574463,8.347949981689453,-0.12870000302791595,-0.3445749878883362,-0.19401249289512634
-1.8750001192092896,4.9270501136779785,8.29800033569336,-0.18246249854564667,-0.2297624945640564,-0.03148749843239784
-1.4080500602722168,5.098950386047363,8.407950401306152,-0.16417500376701355,-0.38981249928474426,0.03698749840259552
-1.2720000743865967,5.254950046539307,8.491050720214844,-0.1311749964952469,-0.4716250002384186,0.035750001668930054
-1.1350500583648682,5.338050365447998,8.26200008392334,-0.052937500178813934,-0.5253875255584717,-0.018012499436736107
-1.225950002670288,5.221050262451172,7.9960503578186035,-0.043175000697374344,-0.4703874886035919,-0.08030000329017639
-1.7430000305175781,5.209050178527832,7.869000434875488,-0.09446249902248383,-0.3788124918937683,-0.09253749996423721
-1.7389501333236694,5.133000373840332,8.04900074005127,-0.16775000095367432,-0.2895750105381012,0.035750001668930054
-1.5229500532150269,5.551950454711914,8.779050827026367,-0.1555124968290329,-0.2139499932527542,0.19827499985694885
-0.8839500546455383,5.305050373077393,9.18600082397461,0.025299999862909317,-0.48510000109672546,0.16032500565052032
-0.5290500521659851,5.295000076293945,8.761950492858887,0.18039999902248383,-0.7159624695777893,-0.007012499962002039
-0.22305001318454742,5.094000339508057,7.657950401306152,0.13282500207424164,-0.6573874950408936,-0.18658749759197235
-1.237950086593628,5.029950141906738,8.628000259399414,-0.16169999539852142,-0.32023748755455017,-0.3405874967575073
-1.4149500131607056,4.981950283050537,9.207000732421875,-0.11522500216960907,-0.20295000076293945,-0.18906250596046448
-1.1710500717163086,4.966950416564941,9.583050727844238,0.06311249732971191,-0.1381874978542328,0.028462499380111694
-0.7860000133514404,5.11305046081543,9.27405071258545,0.26221248507499695,-0.2578125,0.1480875015258789
-0.09600000083446503,5.149050235748291,8.458050727844238,0.33550000190734863,-0.4045250117778778,0.08703749626874924
0.5779500007629395,4.978950023651123,7.897950172424316,0.20487499237060547,-0.45938751101493835,-0.1695374995470047
0.4030500054359436,4.515000343322754,8.020050048828125,-0.06517499685287476,-0.44728749990463257,-0.49445000290870667
-0.5820000171661377,4.361999988555908,9.271950721740723,-0.35227498412132263,-0.47286251187324524,-0.6619250178337097
-0.9799500703811646,4.183950424194336,10.479000091552734,-0.5013250112533569,-0.44481250643730164,-0.5787374973297119
-0.7860000133514404,4.033950328826904,10.84695053100586,-0.4927999973297119,-0.32628750801086426,-0.47244998812675476
-0.15405000746250153,3.706050157546997,10.753950119018555,-0.3143250048160553,0.11481250077486038,-0.283112496137619
0.3940500319004059,3.579000234603882,9.628950119018555,-0.07864999771118164,0.5447750091552734,-0.2488749921321869
0.031950000673532486,3.7129502296447754,8.968050003051758,0.028875000774860382,0.6877750158309937,-0.3381125032901764
-0.7860000133514404,3.7990500926971436,8.500950813293457,0.16087499260902405,0.04262499883770943,-0.34306249022483826
-0.856950044631958,3.8610002994537354,8.593950271606445,0.2194499969482422,-0.26276248693466187,-0.30882498621940613
-0.4620000123977661,3.7699501514434814,8.010000228881836,0.19634999334812164,-0.38733750581741333,-0.322299987077713
0.18495000898838043,3.3610501289367676,8.42400074005127,0.23045000433921814,0.007287499960511923,-0.2965874969959259
0.8629500269889832,3.0400500297546387,8.320950508117676,0.17311249673366547,0.020762499421834946,-0.32339999079704285
0.9760500192642212,3.295950174331665,7.873950481414795,0.05211250111460686,0.018287500366568565,-0.36506250500679016
0.5710500478744507,3.8490002155303955,8.59695053100586,-0.25575000047683716,0.057337500154972076,-0.3955875039100647
0.0799500048160553,3.378000259399414,9.334050178527832,-0.17393749952316284,-0.062424998730421066,-0.20982499420642853
-0.39795002341270447,3.4999501705169678,9.352950096130371,0.0411125011742115,0.29067498445510864,-0.12553749978542328
-0.520050048828125,3.925950288772583,9.15195083618164,0.26468750834465027,0.33467498421669006,0.007562499959021807
0.05595000088214874,4.230000019073486,8.203949928283691,0.4137375056743622,0.21615000069141388,0.17008750140666962
0.3460500240325928,4.4569501876831055,8.104050636291504,0.4137375056743622,0.08538749814033508,0.20061250030994415
0.05595000088214874,4.258950233459473,7.3470001220703125,0.013062499463558197,0.11604999750852585,-0.14024999737739563
-0.28005000948905945,4.318050384521484,7.411950588226318,-0.1237500011920929,0.23086249828338623,-0.15248750150203705
-0.6919500231742859,4.510050296783447,8.062950134277344,-0.33880001306533813,0.31267499923706055,-0.06077500060200691
-0.703950047492981,4.515000343322754,8.446050643920898,-0.38403749465942383,0.2662000060081482,0.01251249946653843
-0.4740000367164612,4.648950099945068,9.073050498962402,-0.3400374948978424,0.1073874980211258,0.1297999918460846
-0.14400000870227814,4.756950378417969,9.195000648498535,-0.1751749962568283,0.05362499877810478,0.1358499974012375
0.039000000804662704,4.503000259399414,9.190950393676758,-0.006462499964982271,0.0340999998152256,0.03203750029206276
-0.05295000225305557,4.462050437927246,8.443950653076172,0.07163749635219574,0.0340999998152256,-0.06806249916553497
-0.3829500079154968,4.681950092315674,8.050950050354004,0.030112499371170998,0.1391499936580658,-0.0705375000834465
-0.6180000305175781,5.050950050354004,8.211000442504883,-0.06764999777078629,0.2223374992609024,0.03698749840259552
-0.43800002336502075,5.080050468444824,8.467950820922852,-0.12017499655485153,0.3359124958515167,0.1555124968290329
-0.17505000531673431,4.857000350952148,8.97705078125,-0.07246249914169312,0.45801249146461487,0.17132499814033508
-0.08400000631809235,4.71405029296875,9.079950332641602,-0.018699999898672104,0.49101248383522034,0.14451250433921814
-0.29205000400543213,4.6180500984191895,8.908050537109375,0.07039999961853027,0.5302000045776367,0.06132499873638153
-0.775950014591217,4.725000381469727,8.6850004196167,0.1266375035047531,0.5447750091552734,0.06627500057220459
-1.446000099182129,5.025000095367432,9.17400074005127,0.15358750522136688,0.47891250252723694,0.20184999704360962
-1.4850000143051147,5.15595006942749,9.26205062866211,0.17916250228881836,0.404387503862381,0.30332499742507935
-0.775950014591217,4.986000061035156,8.736000061035156,0.26840001344680786,0.44591251015663147,0.46818751096725464
0.10905000567436218,4.603050231933594,7.773000240325928,0.3392125070095062,0.6682500243186951,0.4278999865055084
-1.1160000562667847,5.3359503746032715,7.974000453948975,0.2134000062942505,0.4800125062465668,0.24089999496936798
-1.9519500732421875,5.860050201416016,8.446050643920898,-0.030937500298023224,-0.05871250107884407,0.16032500565052032
-1.6789500713348389,5.281050205230713,9.298050880432129,-0.0798875018954277,-0.02447500079870224,0.23856249451637268
-1.1830500364303589,4.852050304412842,9.507000923156738,-0.02488750033080578,0.11357499659061432,0.27390000224113464
-1.3120501041412354,4.639050006866455,9.279000282287598,-0.06393750011920929,0.11357499659061432,0.21037499606609344
-1.8370500802993774,4.723050117492676,9.71505069732666,-0.2227499932050705,-0.1344749927520752,0.13708749413490295
-2.16195011138916,4.660950183868408,9.850950241088867,-0.35708749294281006,-0.3190000057220459,0.10532499849796295
-2.433000087738037,4.390050411224365,9.937950134277344,-0.4683249890804291,-0.515625,0.11756250262260437
-2.2270500659942627,4.0570502281188965,10.00005054473877,-0.47932499647140503,-0.6219124794006348,0.19085000455379486
-1.8769501447677612,3.595050096511841,10.01400089263916,-0.3632749915122986,-0.559624969959259,0.2531374990940094
-1.606950044631958,3.106950044631958,9.550050735473633,-0.15674999356269836,-0.3482874929904938,0.28366249799728394
-1.5040500164031982,2.8219501972198486,9.054000854492188,0.0448249988257885,-0.018424998968839645,0.2849000096321106
-1.5780000686645508,2.9730000495910645,8.764050483703613,0.18892499804496765,0.234437495470047,0.2433750033378601
-1.6549500226974487,3.0640501976013184,8.604000091552734,0.2316875010728836,0.3078624904155731,0.20432500541210175
-1.8510000705718994,3.5590500831604004,8.776050567626953,0.2732124924659729,0.2881999909877777,0.15303750336170197
-2.0160000324249268,4.060050010681152,8.692950248718262,0.32573750615119934,0.09404999762773514,0.17008750140666962
-2.104950189590454,4.085999965667725,8.61405086517334,0.4039750099182129,-0.00494999997317791,0.21408750116825104
-1.7959500551223755,3.753000259399414,8.5489501953125,0.4809750020503998,-0.11742500215768814,0.23361249268054962
-1.4970000982284546,3.6739501953125,8.302050590515137,0.46626248955726624,-0.2675749957561493,0.19085000455379486
-1.1830500364303589,3.95205020904541,7.740000247955322,0.32339999079704285,-0.36410000920295715,0.10284999758005142
-1.284000039100647,4.165050029754639,7.957950592041016,0.04729999974370003,-0.37152498960494995,-0.01677500084042549
-1.741050124168396,4.285050392150879,8.245050430297852,-0.22151249647140503,-0.35186249017715454,-0.02419999986886978
-2.1190500259399414,4.361999988555908,8.487000465393066,-0.34251248836517334,-0.201712504029274,0.13227500021457672
-1.9330500364303589,4.194000244140625,8.494050025939941,-0.3082749843597412,0.08786249905824661,0.35942500829696655
-1.3650000095367432,3.9589502811431885,8.367000579833984,-0.2410375028848648,0.3591499924659729,0.5048999786376953
-1.1160000562667847,4.180050373077393,8.506050109863281,-0.20446249842643738,0.45801249146461487,0.510949969291687
-1.1929500102996826,4.375950336456299,8.725950241088867,-0.18603749573230743,0.4409624934196472,0.4889499843120575
-1.228950023651123,4.657950401306152,9.057000160217285,-0.11769999563694,0.3273875117301941,0.44261249899864197
-0.9799500703811646,4.546050071716309,8.64900016784668,-0.04193750023841858,0.20143750309944153,0.3973749876022339
-0.859950065612793,4.5360002517700195,8.178000450134277,-0.0004124999977648258,0.17338749766349792,0.3521375060081482
-0.9799500703811646,4.79295015335083,8.138999938964844,0.0448249988257885,0.1966249942779541,0.320374995470047
-1.1400001049041748,5.025000095367432,8.616000175476074,0.0765874981880188,0.11962500214576721,0.2886124849319458
-1.1539500951766968,5.068050384521484,8.6089506149292,0.07906249910593033,0.01209999993443489,0.2751374840736389
-0.8719500303268433,4.948050022125244,8.105999946594238,0.022824998944997787,-0.18947499990463257,0.21285000443458557
-0.8550000190734863,4.788000106811523,7.606050491333008,-0.082225002348423,-0.22247499227523804,0.1297999918460846
-1.0320000648498535,4.819050312042236,7.689000129699707,-0.12622499465942383,-0.1845249980688095,0.11151249706745148
-1.225950002670288,4.8670501708984375,8.07194995880127,-0.16046249866485596,-0.13695000112056732,0.1518000066280365
-1.054050087928772,4.753950119018555,8.557950019836426,-0.15798750519752502,-0.2040500044822693,0.2287999987602234
-0.5680500268936157,4.666050434112549,8.6089506149292,-0.11893749982118607,-0.32999998331069946,0.28613749146461487
-0.1870500147342682,4.52400016784668,8.161050796508789,-0.08717499673366547,-0.3287625014781952,0.2470874935388565
-0.18900001049041748,4.5960001945495605,7.870950222015381,-0.10917499661445618,-0.21504999697208405,0.14561249315738678
-0.4240500330924988,4.703999996185303,8.206950187683105,-0.15798750519752502,-0.17352500557899475,0.0845625028014183
-0.51705002784729,4.888050079345703,8.869950294494629,-0.16046249866485596,-0.2957625091075897,0.10298749804496765
-0.24195000529289246,4.8070502281188965,8.896050453186035,-0.10422500222921371,-0.47533750534057617,0.14685000479221344
0.12105000764131546,4.539000034332275,8.532000541687012,-0.05664999783039093,-0.47052499651908875,0.1335124969482422
0.030000001192092896,4.624950408935547,8.419950485229492,-0.047987498342990875,-0.27871251106262207,0.07975000143051147
-0.07500000298023224,4.921950340270996,8.749950408935547,-0.025987500324845314,-0.04895000159740448,0.04179999977350235
-0.4740000367164612,5.128050327301025,9.052050590515137,0.0448249988257885,0.0340999998152256,0.052799999713897705
-0.6160500049591064,5.239950180053711,9.214950561523438,0.09982500225305557,0.02186249941587448,0.08098749816417694
-0.4429500102996826,5.202000141143799,8.812050819396973,0.19016249477863312,-0.0611874982714653,0.1358499974012375
-0.19395001232624054,5.161050319671631,8.57805061340332,0.19511249661445618,-0.08799999952316284,0.13103750348091125
0.3820500075817108,5.242950439453125,8.470050811767578,0.12540000677108765,-0.11123749613761902,0.055275000631809235
0.08205000311136246,5.212050437927246,8.52495002746582,0.0008249999955296516,-0.0966624990105629,-0.07672499865293503
-0.3379500210285187,4.768950462341309,9.307950019836426,-0.07246249914169312,-0.10518749803304672,-0.17806249856948853
-0.325950026512146,4.498050212860107,9.657000541687012,-0.08470000326633453,-0.18576249480247498,-0.19882500171661377
0.208950012922287,3.885000228881836,9.514050483703613,-0.1396999955177307,-0.4375250041484833,-0.20858749747276306
0.17595000565052032,3.475950241088867,9.19800090789795,-0.22769999504089355,-0.3445749878883362,-0.18177500367164612
0.0010500000789761543,3.718050241470337,10.618050575256348,-0.18851250410079956,-0.1625249981880188,-0.03506249934434891
0.4129500091075897,3.6940500736236572,10.309050559997559,-0.04193750023841858,-0.27623748779296875,0.1297999918460846
1.0780500173568726,3.412950277328491,9.154950141906738,0.1120624989271164,-0.38499999046325684,0.15056249499320984
1.0930500030517578,3.3630001544952393,8.28600025177002,0.17434999346733093,-0.3910500109195709,0.03946249932050705
0.8220000267028809,3.5430002212524414,8.458050727844238,0.20116250216960907,-0.22605000436306,-0.07548750191926956
0.6480000019073486,3.715050220489502,8.61405086517334,0.2451625019311905,-0.08318749815225601,-0.11577499657869339
0.7770000100135803,3.66195011138916,8.138999938964844,0.28187498450279236,0.05609999969601631,-0.11948750168085098
0.9949500560760498,3.7009501457214355,7.98900032043457,0.2574000060558319,0.15867500007152557,-0.15606249868869781
0.9180000424385071,4.180050373077393,8.182950019836426,0.07411249727010727,0.1551000028848648,-0.2550624907016754
0.8770500421524048,4.0570502281188965,8.332950592041016,-0.10793749988079071,0.11233749985694885,-0.2868250012397766
0.4939500093460083,4.006950378417969,8.59695053100586,-0.3375625014305115,0.0719124972820282,-0.23787499964237213
0.08205000311136246,4.090950012207031,9.265050888061523,-0.4816625118255615,0.07273750007152557,-0.06077500060200691
0.26205000281333923,3.9810001850128174,9.769950866699219,-0.4474250078201294,0.05678749829530716,0.1639000028371811
0.7890000343322754,3.895050287246704,9.519000053405762,-0.2825624942779541,0.03244999796152115,0.30566251277923584
1.2250500917434692,4.05495023727417,8.800050735473633,-0.08951249718666077,0.09597499668598175,0.32284998893737793
1.2820500135421753,4.122000217437744,8.539050102233887,-0.002749999985098839,0.17173749208450317,0.28984999656677246
1.3039500713348389,4.159950256347656,8.170949935913086,0.14135000109672546,0.31088748574256897,0.2055625021457672
1.1340000629425049,4.132050037384033,7.993050575256348,0.21353749930858612,0.34759998321533203,0.12732499837875366
0.9109500646591187,4.294950008392334,8.038949966430664,0.23182499408721924,0.2938374876976013,0.07603749632835388
0.8629500269889832,4.504950046539307,8.074950218200684,0.20253749191761017,0.19978749752044678,0.047849997878074646
0.6550500392913818,4.594050407409668,7.960050582885742,0.11453749984502792,0.148499995470047,0.038087498396635056
0.6450000405311584,4.474050045013428,8.04900074005127,-0.006462499964982271,0.16431249678134918,0.055275000631809235
0.7600500583648682,4.326000213623047,8.211000442504883,-0.17008750140666962,0.13750000298023224,0.09184999763965607
0.7840500473976135,4.350000381469727,8.416950225830078,-0.3301374912261963,0.10449999570846558,0.14079999923706055
0.7840500473976135,4.44795036315918,8.587050437927246,-0.3863750100135803,0.12031249701976776,0.1639000028371811
0.7500000596046448,4.495950222015381,8.83395004272461,-0.4193750023841858,0.20583750307559967,0.19456249475479126
0.6210000514984131,4.330049991607666,9.097050666809082,-0.34732499718666077,0.2913624942302704,0.21408750116825104
0.5179499983787537,4.3090500831604,9.171000480651855,-0.19827499985694885,0.27678748965263367,0.272662490606308
0.5760000348091125,4.515000343322754,8.88705062866211,-0.028462499380111694,0.2572624981403351,0.34595000743865967
0.7579500079154968,4.63200044631958,8.740050315856934,0.04853750020265579,0.27059999108314514,0.36918750405311584
1.0330500602722168,4.777950286865234,8.599050521850586,0.16458749771118164,0.30236250162124634,0.3619000017642975
1.0230000019073486,4.723050117492676,8.57295036315918,0.21587499976158142,0.3170749843120575,0.2983750104904175
0.9490500688552856,4.728000164031982,8.587050437927246,0.22206249833106995,0.3255999982357025,0.2176624983549118
0.8800500631332397,4.736999988555908,8.51294994354248,0.2073500007390976,0.34154999256134033,0.18713749945163727
0.8179500102996826,4.776000022888184,8.479050636291504,0.1755875051021576,0.3683624863624573,0.16513749957084656
0.6240000128746033,4.884000301361084,8.475000381469727,0.06572499871253967,0.4221250116825104,0.15908749401569366
0.40995001792907715,4.4760003089904785,8.934000015258789,-0.06132499873638153,0.4501749873161316,0.22261250019073486
-0.19395001232624054,4.809000015258789,9.604950904846191,0.029012499377131462,0.44907498359680176,0.2714250087738037
-0.25394999980926514,4.699050426483154,9.052050590515137,0.15234999358654022,0.5394124984741211,0.31185001134872437
-0.13199999928474426,4.642050266265869,8.647050857543945,0.2232999950647354,0.6762250065803528,0.3398999869823456
-0.1660500019788742,4.776000022888184,8.809950828552246,0.22811250388622284,0.7006999850273132,0.34595000743865967
-0.6280500292778015,5.173050403594971,9.543000221252441,0.20253749191761017,0.6396499872207642,0.31790000200271606
-1.152000069618225,4.9770002365112305,10.177050590515137,0.15482500195503235,0.40988749265670776,0.2751374840736389
-1.585050106048584,4.531949996948242,10.153050422668457,0.08648750185966492,0.14354999363422394,0.2751374840736389
-1.5780000686645508,4.323000431060791,9.751049995422363,0.05706249922513962,0.06778749823570251,0.2983750104904175
-1.53000009059906,4.1170501708984375,9.241050720214844,-0.023512499406933784,0.10078749805688858,0.3521375060081482
-1.3870500326156616,4.13700008392334,9.472949981689453,-0.09075000137090683,0.2046000063419342,0.41318750381469727
-1.2859500646591187,3.736950159072876,9.118950843811035,-0.06379999965429306,0.2998875081539154,0.4596624970436096
-1.4059500694274902,3.3610501289367676,8.664000511169434,0.08882500231266022,0.43683749437332153,0.48276248574256897
-1.4899500608444214,3.0259501934051514,6.234000205993652,0.29163751006126404,0.7519875168800354,0.5011875033378601
-1.6330500841140747,3.5089502334594727,8.182950019836426,0.4273499846458435,1.0683749914169312,0.5475249886512756
-2.0209500789642334,4.01894998550415,7.689000129699707,0.46268749237060547,0.48069998621940613,0.593999981880188
-2.284050226211548,4.294950008392334,8.599050521850586,0.3698749840259552,-0.20954999327659607,0.611050009727478
-1.7820000648498535,4.266000270843506,8.506050109863281,0.27582499384880066,-0.97308748960495,0.5255249738693237
-0.7380000352859497,3.985950231552124,7.857000350952148,0.13158750534057617,-1.0951875448226929,0.28366249799728394
-0.5370000004768372,3.8419501781463623,7.7659502029418945,-0.10408750176429749,-0.705512523651123,0.03451250120997429
-0.8050500154495239,3.9499502182006836,8.058000564575195,-0.23361249268054962,-0.4269374907016754,-0.04867500066757202
-1.6360501050949097,4.462050437927246,9.38895034790039,-0.4241875112056732,0.012787500396370888,-0.08401250094175339
-1.7890501022338867,4.363950252532959,9.624000549316406,-0.510949969291687,0.1825999915599823,0.002749999985098839
-1.4440500736236572,4.186950206756592,8.689949989318848,-0.523187518119812,0.358599990606308,0.10408750176429749
-1.224000096321106,4.303950309753418,8.308950424194336,-0.45842498540878296,0.6237000226974487,0.13337500393390656
-1.4130001068115234,4.591050148010254,8.59695053100586,-0.31790000200271606,0.696987509727478,0.09184999763965607
-1.699950098991394,4.800000190734863,8.980050086975098,-0.1335124969482422,0.47341248393058777,0.040562499314546585
-1.7190001010894775,4.6780500411987305,8.836050033569336,0.013199999928474426,0.09955000132322311,0.0015124999918043613
-1.7430000305175781,4.611000061035156,8.31195068359375,0.05348749831318855,-0.11783749610185623,0.02474999986588955
-1.5730500221252441,4.71405029296875,8.422050476074219,-0.08951249718666077,0.05197500064969063,0.21656249463558197
-1.3120501041412354,4.7059502601623535,8.688000679016113,-0.14327499270439148,0.0873124971985817,0.27761250734329224
-1.207050085067749,4.885950088500977,8.760000228881836,-0.20803749561309814,-0.13007499277591705,0.25561249256134033
-1.0470000505447388,4.884000301361084,8.79104995727539,-0.20308749377727509,-0.17407499253749847,0.2751374840736389
-0.7810500264167786,4.788000106811523,8.902950286865234,-0.19456249475479126,-0.21078750491142273,0.2824249863624573
-0.5410500168800354,4.7659502029418945,8.796000480651855,-0.18479999899864197,-0.19607499241828918,0.23842500150203705
-0.6469500064849854,4.852050304412842,8.752050399780273,-0.15056249499320984,-0.07273750007152557,0.17256249487400055
-0.8340000510215759,4.963050365447998,9.17400074005127,-0.06875000149011612,0.043449997901916504,0.11756250262260437
-0.7860000133514404,4.711050033569336,9.207000732421875,0.04606249928474426,0.012787500396370888,0.06984999775886536
-0.7500000596046448,4.627050399780273,9.079950332641602,0.09501250088214874,-0.04097500070929527,0.050324998795986176
-0.8190000653266907,4.699050426483154,8.893950462341309,0.1755875051021576,-0.13007499277591705,0.02956249937415123
-0.9169500470161438,4.89300012588501,8.974950790405273,0.22687499225139618,-0.16307500004768372,0.04661250114440918
-0.8839500546455383,4.915050029754639,8.944050788879395,0.2513499855995178,-0.1765500009059906,0.06627500057220459
-0.5149500370025635,4.924050331115723,8.805000305175781,0.28558748960494995,-0.17407499253749847,0.08703749626874924
-0.31200000643730164,5.032050132751465,8.295000076293945,0.2685374915599823,-0.06778749823570251,0.06132499873638153
-0.3430500030517578,4.957950115203857,8.11305046081543,0.21834999322891235,0.09955000132322311,0.07356250286102295
-0.34800001978874207,5.00100040435791,7.8070502281188965,0.17434999346733093,0.2670249938964844,0.14079999923706055
-0.5890500545501709,5.608950138092041,8.161050796508789,0.17434999346733093,0.671412467956543,0.19085000455379486
-0.6040500402450562,5.659050464630127,8.869950294494629,0.2330625057220459,0.9145125150680542,0.21408750116825104
0.06795000284910202,4.879050254821777,9.339000701904297,0.46268749237060547,1.257712483406067,0.23966249823570251
-0.039000000804662704,4.05495023727417,10.084050178527832,0.696025013923645,1.4935250282287598,0.18713749945163727
-0.3570000231266022,3.80400013923645,11.146950721740723,0.8207374811172485,1.4679499864578247,0.1443749964237213
-0.7500000596046448,3.246000051498413,11.02695083618164,0.9403625130653381,0.6199874877929688,-0.01924999989569187
-0.7980000376701355,3.6600000858306885,8.02500057220459,0.7840250134468079,-0.10807500034570694,-0.20748749375343323
-0.8530500531196594,4.2270002365112305,6.526050090789795,0.44811248779296875,0.10807500034570694,-0.2232999950647354
-1.4440500736236572,4.144050121307373,7.633950233459473,-0.2470874935388565,0.7959874868392944,-0.09377499669790268
-2.067000150680542,4.2270002365112305,8.902950286865234,-0.13832500576972961,0.40617498755455017,0.04908749833703041
-1.968000054359436,4.339950084686279,9.207000732421875,0.06696250289678574,-0.0494999997317791,0.18479999899864197
-1.602000117301941,4.243950366973877,9.073050498962402,0.15234999358654022,-0.22055000066757202,0.2250874936580658
-0.9360000491142273,4.102950096130371,8.326050758361816,0.19277499616146088,-0.3268375098705292,0.17737500369548798
-0.6160500049591064,4.138950347900391,7.809000492095947,0.0009624999947845936,-0.23883749544620514,0.05403750017285347
-0.5730000138282776,4.261050224304199,8.392950057983398,-0.2971374988555908,-0.0849749967455864,-0.06201250106096268
-0.89805006980896,4.2270002365112305,9.403950691223145,-0.4218499958515167,0.11178749799728394,-0.15729999542236328
-1.420050024986267,4.182000160217285,9.6739501953125,-0.33742499351501465,0.2681249976158142,-0.16706250607967377
-1.7509500980377197,4.375950336456299,9.054000854492188,-0.19208750128746033,0.32807499170303345,-0.014437500387430191
-1.6399500370025635,4.453050136566162,8.410050392150879,-0.11384999752044678,0.3451249897480011,0.23732499778270721
-1.0470000505447388,4.584000110626221,8.254050254821777,-0.060224998742341995,0.4269374907016754,0.49018749594688416
-0.36900001764297485,4.752000331878662,8.218950271606445,0.008249999955296516,0.5649874806404114,0.5879499912261963
0.034950003027915955,4.872000217437744,7.890000343322754,0.03519999980926514,0.6102250218391418,0.4474250078201294
-0.15600000321865082,4.975050449371338,7.8259501457214355,0.013199999928474426,0.5834124684333801,0.32394999265670776
-1.055999994277954,5.032050132751465,7.8949503898620605,-0.06751249730587006,0.42336249351501465,0.1260875016450882
-1.2529500722885132,4.819050312042236,8.166000366210938,-0.13956250250339508,0.18507499992847443,0.09679999947547913
-1.1400001049041748,4.588950157165527,8.380949974060059,-0.1555124968290329,0.0017874999903142452,0.13103750348091125
-1.0420500040054321,4.6080002784729,8.329050064086914,-0.1358499974012375,-0.022549999877810478,0.1676124930381775
-1.4560500383377075,4.912050247192383,8.269050598144531,-0.1200374960899353,0.058024998754262924,0.1993750035762787
-1.3410000801086426,5.0970001220703125,8.326050758361816,-0.12732499837875366,0.016499999910593033,0.20913749933242798
-0.6559500098228455,4.69005012512207,8.08395004272461,-0.17256249487400055,0.1264999955892563,0.16032500565052032
-0.9130500555038452,5.044050216674805,8.166000366210938,-0.25561249256134033,0.16554999351501465,0.10037499666213989
-1.1350500583648682,5.194950103759766,8.25195026397705,-0.2763749957084656,0.1667875051498413,0.0943249985575676
-1.3890000581741333,5.233050346374512,8.451000213623047,-0.2849000096321106,0.141075000166893,0.11756250262260437
-1.4440500736236572,5.0560503005981445,8.752050399780273,-0.23732499778270721,0.148499995470047,0.20184999704360962
-1.3669500350952148,5.017950057983398,8.769000053405762,-0.11384999752044678,0.31831249594688416,0.35694998502731323
-0.9940500259399414,5.391000270843506,8.472000122070312,0.06077500060200691,0.6297500133514404,0.5879499912261963
-0.9130500555038452,5.158950328826904,8.66100025177002,0.10848750174045563,0.552887499332428,0.4889499843120575
-0.9390000700950623,4.773000240325928,8.380949974060059,0.14135000109672546,0.6945124864578247,0.44247499108314514
-2.713050127029419,5.785950183868408,8.319000244140625,0.29163751006126404,1.117324948310852,0.3764750063419342
-3.2950501441955566,5.511000156402588,8.122950553894043,0.27953749895095825,0.9168499708175659,0.5059999823570251
-3.121950149536133,5.311950206756592,8.191950798034668,0.14135000109672546,0.6604124903678894,0.6342874765396118
-3.0270001888275146,5.413050174713135,8.508000373840332,0.05224999785423279,0.5931749939918518,0.6734749674797058
-2.193000078201294,5.259000301361084,9.532950401306152,0.07301250100135803,0.7189875245094299,0.5781875252723694
-2.3680500984191895,4.966950416564941,8.407950401306152,0.20253749191761017,0.688462495803833,0.34966251254081726
-3.0270001888275146,4.98900032043457,7.561950206756592,0.1377750039100647,0.6334624886512756,0.20061250030994415
-3.9750001430511475,4.981950283050537,7.9860005378723145,0.04124999791383743,0.6909375190734863,0.16513749957084656
-4.3560004234313965,4.611000061035156,7.783050537109375,0.03148749843239784,0.4758875072002411,0.28613749146461487
-3.76200008392334,4.648950099945068,7.222050189971924,-0.03203750029206276,0.20707499980926514,0.46447500586509705
-2.7709500789642334,4.479000091552734,7.789950370788574,-0.060224998742341995,0.12402500212192535,0.4694249927997589
-2.8969502449035645,4.531949996948242,7.752000331878662,0.0387750007212162,0.043449997901916504,0.29589998722076416
-3.841050148010254,4.579050064086914,7.383000373840332,0.09624999761581421,-0.05555000156164169,0.2176624983549118
-4.138050079345703,4.681950092315674,7.120050430297852,0.0742499977350235,-0.12759999930858612,0.31542500853538513
-3.6949501037597656,4.768950462341309,6.993000507354736,0.014299999922513962,-0.2815999984741211,0.4156624972820282
-3.3600001335144043,4.89300012588501,7.26300048828125,-0.05403750017285347,-0.5149375200271606,0.40094998478889465
-3.010050058364868,4.828050136566162,7.503000259399414,-0.07232499867677689,-0.632224977016449,0.3031874895095825
-2.5570502281188965,4.725000381469727,7.404000282287598,-0.0625625029206276,-0.48922500014305115,0.15661250054836273
-2.524050235748291,4.753950119018555,7.123950481414795,-0.07232499867677689,-0.34636250138282776,0.06751249730587006
-2.8849501609802246,4.948050022125244,6.544950485229492,-0.18108749389648438,-0.014024999924004078,-0.07301250100135803
-3.561000108718872,5.149050235748291,6.7819504737854,-0.320374995470047,0.19483749568462372,-0.09377499669790268
-3.859950065612793,5.2759504318237305,7.390050411224365,-0.34732499718666077,0.12155000120401382,0.013749999925494194
-3.44100022315979,5.338050365447998,7.618050575256348,-0.2593249976634979,-0.11426249891519547,0.13708749413490295
-2.791950225830078,5.389050483703613,7.222050189971924,-0.14685000479221344,-0.2583625018596649,0.13337500393390656
-2.7660000324249268,5.422050476074219,6.681000232696533,-0.1676124930381775,-0.3291749954223633,-0.0009624999947845936
-3.0430500507354736,5.452950477600098,6.7510504722595215,-0.2947999835014343,-0.33412501215934753,-0.08153750002384186
-3.192000150680542,5.461050033569336,7.285050392150879,-0.3998500108718872,-0.29864999651908875,-0.05348749831318855
-3.2179501056671143,5.419950485229492,7.680000305175781,-0.4499000012874603,-0.25712499022483826,0.0002749999985098839
-3.3000001907348633,5.449050426483154,7.8670501708984375,-0.4609000086784363,-0.2681249976158142,0.03932499885559082
-3.0460500717163086,5.566050052642822,8.017050743103027,-0.47437500953674316,-0.4221250116825104,0.13461250066757202
-2.701050043106079,5.652000427246094,8.491050720214844,-0.48647499084472656,-0.5649874806404114,0.1896124929189682
-1.8820500373840332,5.020050048828125,8.953950881958008,-0.26413750648498535,-0.6126999855041504,0.1297999918460846
-1.9039500951766968,5.00100040435791,8.496000289916992,-0.20679999887943268,-0.4464625120162964,0.09184999763965607
-1.831950068473816,5.1469502449035645,7.819050312042236,-0.2250874936580658,0.03726249933242798,0.0943249985575676
-1.91100013256073,5.221050262451172,7.98900032043457,-0.3436124920845032,0.4269374907016754,0.07356250286102295
-2.1739501953125,5.247000217437744,9.298050880432129,-0.29961249232292175,0.566224992275238,0.06503749638795853
-2.281949996948242,5.110950469970703,9.480000495910645,-0.010037500411272049,0.557699978351593,0.09679999947547913
-2.0160000324249268,5.238000392913818,8.593950271606445,0.25987499952316284,0.6689375042915344,0.18479999899864197
-2.205000162124634,5.170950412750244,8.203949928283691,0.3638249933719635,0.9107999801635742,0.1835625022649765
-2.823000192642212,5.254950046539307,7.9770002365112305,0.39063748717308044,1.191849946975708,0.17132499814033508
-2.623950242996216,5.2860002517700195,6.922950267791748,0.31363749504089355,1.375,0.28008750081062317
-2.5600500106811523,5.998950481414795,6.499050140380859,0.09982500225305557,1.4141875505447388,0.31542500853538513
-2.6770501136779785,6.046950340270996,7.285050392150879,-0.01251249946653843,1.4092375040054321,0.21037499606609344
-3.1150500774383545,5.982000350952148,7.126950263977051,-0.03451250120997429,1.3371875286102295,0.14079999923706055
-3.67995023727417,5.724000453948975,6.906000137329102,-0.12251249700784683,1.0940874814987183,0.16032500565052032
-3.7789502143859863,6.013950347900391,7.7659502029418945,-0.2153249979019165,0.6749874949455261,0.31913748383522034
-2.9170501232147217,5.914950370788574,8.890950202941895,-0.07603749632835388,0.13007499277591705,0.3546124994754791
-2.9290502071380615,5.760000228881836,7.25100040435791,0.14135000109672546,0.028737500309944153,0.19813749194145203
-3.5410501956939697,5.592000484466553,6.516000270843506,0.007012499962002039,0.6126999855041504,0.11756250262260437
-3.321000099182129,5.3620500564575195,7.024050235748291,-0.1335124969482422,0.7727500200271606,0.0882750004529953
-2.743950128555298,5.45805025100708,8.317049980163574,-0.2703250050544739,0.8020374774932861,-0.07548750191926956
-3.3160500526428223,5.343000411987305,8.80305004119873,-0.20803749561309814,-0.39765000343322754,-0.2722499966621399
-4.4730000495910645,5.110950469970703,10.030950546264648,0.09377499669790268,-0.7397499680519104,-0.18782499432563782
-4.558950424194336,4.930950164794922,8.487000465393066,0.357637494802475,-0.3866499960422516,-0.04124999791383743
-4.180950164794922,4.600950241088867,7.531050205230713,0.2685374915599823,-0.0812624990940094,0.07108750194311142
-3.220950126647949,4.915050029754639,7.63200044631958,0.08153750002384186,0.08621250092983246,0.050324998795986176
-3.3139500617980957,5.134950160980225,8.407950401306152,0.04729999974370003,-0.4111250042915344,-0.09377499669790268
-3.532050132751465,4.69005012512207,8.884050369262695,0.24529999494552612,-1.2809499502182007,-0.16830000281333923
-3.538950204849243,4.6369500160217285,7.7470502853393555,0.4736874997615814,-1.8466249704360962,-0.13529999554157257
-2.2080001831054688,4.029000282287598,6.808050155639648,0.477400004863739,-1.7085750102996826,-0.05101250112056732
-2.562000036239624,4.195950031280518,6.3409504890441895,0.22453749179840088,-1.4947625398635864,-0.03519999980926514
-2.164950132369995,4.2709503173828125,7.069050312042236,-0.07122500240802765,-1.3114750385284424,-0.09253749996423721
-2.236950159072876,4.206000328063965,8.223000526428223,-0.2153249979019165,-0.8435624837875366,-0.03396249935030937
-1.8990000486373901,4.170000076293945,8.830950736999512,-0.2433750033378601,-0.3731749951839447,0.08208750188350677
-2.7270002365112305,4.6870503425598145,8.511000633239746,-0.002749999985098839,0.17173749208450317,0.21889999508857727
-2.49495005607605,4.4239501953125,7.788000583648682,0.0742499977350235,0.2046000063419342,0.36918750405311584
-2.572050094604492,4.534049987792969,7.651050567626953,0.05101250112056732,0.18507499992847443,0.4620000123977661
-2.410950183868408,4.5169501304626465,8.138999938964844,0.011962499469518661,0.1350249946117401,0.6978124976158142
-1.6980000734329224,4.692000389099121,7.383000373840332,0.14135000109672546,0.2670249938964844,0.9250999689102173
-0.9250500202178955,5.176050186157227,7.206000328063965,0.147537499666214,0.7984625101089478,1.039912462234497
-0.8190000653266907,5.3620500564575195,7.324950218200684,0.07177499681711197,0.8447999954223633,0.8970500230789185
-0.9559500217437744,5.058000087738037,7.6870503425598145,0.09253749996423721,0.6432250142097473,0.6514750123023987
-1.6669501066207886,5.134950160980225,6.744000434875488,0.05829999968409538,0.42941248416900635,0.5072374939918518
-1.9440001249313354,5.784000396728516,6.115950107574463,-0.304562509059906,0.5626500248908997,0.5255249738693237
-1.9999500513076782,5.797950267791748,8.797950744628906,-0.6124249696731567,0.40988749265670776,0.5170000195503235
-1.1470500230789185,5.212050437927246,9.789000511169434,-0.26179999113082886,0.3305499851703644,0.4950000047683716
