accX,accY,accZ,gyroX,gyroY,gyroZ
-0.9497702121734619,6.815747261047363,6.463166236877441,-0.21355848014354706,0.4636816084384918,0.0867079570889473
-0.9017329216003418,6.889200210571289,7.037670612335205,0.012566370889544487,-0.04858996719121933,-0.02555162087082863
-1.0444273948669434,6.926425457000732,7.010136127471924,-0.005759586580097675,-0.04248131439089775,-0.0035604715812951326
-0.9256270527839661,6.925256729125977,7.088771343231201,-0.008517206646502018,-0.023352505639195442,0.019512781873345375
-0.7856141328811646,6.924376010894775,7.117080211639404,0.00376991112716496,0.011135200969874859,0.0279427208006382
-0.6848661303520203,6.846545219421387,7.090025901794434,0.00954695139080286,0.0478220209479332,0.021589722484350204
-0.6994612216949463,6.806035041809082,7.097715854644775,0.0024085543118417263,0.07511897385120392,0.02843141369521618
-0.7133667469024658,6.786594390869141,7.150225639343262,-0.0009250245057046413,0.07126179337501526,0.028955012559890747
-0.733276903629303,6.823330879211426,7.120433330535889,-0.003909537568688393,0.03251548483967781,0.0256388857960701
-0.7985045313835144,6.861226558685303,7.072768211364746,-0.030717793852090836,-0.00427605677396059,0.027663469314575195
-0.8209142684936523,6.858334064483643,7.106756687164307,-0.05881759524345398,-0.030089477077126503,0.03366740047931671
-0.8857300877571106,6.871779918670654,7.223899841308594,-0.05770058557391167,-0.04654793068766594,0.030141836032271385
-1.1175175905227661,6.958641529083252,7.037276744842529,-0.05808455869555473,-0.056635934859514236,0.043650683015584946
-1.4092557430267334,7.059590816497803,6.7126898765563965,-0.12510520219802856,-0.12278391420841217,0.09539970010519028
-1.5499390363693237,7.111209869384766,6.378344535827637,-0.27668705582618713,-0.2698802649974823,0.18542377650737762
-1.2810415029525757,7.051365375518799,6.430997848510742,-0.4665963351726532,-0.40570178627967834,0.2637541592121124
-1.0240000486373901,6.885934352874756,6.79491662979126,-0.5756794214248657,-0.46300095319747925,0.2900388240814209
-0.8987354040145874,6.732590675354004,7.111698150634766,-0.6178116202354431,-0.44053855538368225,0.31412434577941895
-0.7081090807914734,6.527924537658691,7.383507251739502,-0.5904274582862854,-0.36449456214904785,0.3525041341781616
-0.1698063611984253,6.333199501037598,7.6713666915893555,-0.5318018198013306,-0.3133913278579712,0.3620336353778839
0.25967511534690857,6.229885101318359,7.828598499298096,-0.4461585283279419,-0.25967007875442505,0.3240727484226227
0.3504728078842163,6.107550621032715,7.788184642791748,-0.3707253932952881,-0.1857903003692627,0.2733010947704315
0.3828328251838684,5.97530460357666,7.799609661102295,-0.37610098719596863,-0.17968164384365082,0.27783897519111633
0.5119856595993042,5.8444952964782715,7.912232875823975,-0.4000469148159027,-0.20587903261184692,0.26333528757095337
0.6257389783859253,5.7910661697387695,8.099248886108398,-0.4055446982383728,-0.2445555329322815,0.21725858747959137
0.6121877431869507,5.798880577087402,8.203493118286133,-0.37856191396713257,-0.27953192591667175,0.17277014255523682
0.5435603857040405,5.774651527404785,8.197125434875488,-0.35758304595947266,-0.31559044122695923,0.1356469839811325
0.5602431893348694,5.692923069000244,8.495135307312012,-0.2751336991786957,-0.2419549971818924,0.08557349443435669
0.5809386372566223,5.657201290130615,8.560832023620605,-0.13899801671504974,-0.1267632693052292,0.08532914519309998
0.6785742044448853,5.685232639312744,8.46377182006836,-0.005078908056020737,0.02701769582927227,0.08485791087150574
0.6903344988822937,5.712545871734619,8.142622947692871,0.0858352929353714,0.15334463119506836,0.0792204961180687
0.6669479608535767,5.731086730957031,7.722439765930176,0.0636521577835083,0.16062265634536743,0.07562511414289474
0.7776175141334534,5.670925140380859,7.709376811981201,-0.010995574295520782,0.09913469851016998,0.047193702310323715
0.9237117171287537,5.60699987411499,7.868687152862549,-0.038728855550289154,0.1344950646162033,-0.018971728160977364
0.6742646098136902,5.588008880615234,7.978906631469727,-0.020036378875374794,0.25788983702659607,-0.0806516632437706
0.45892056822776794,5.64570951461792,8.095552444458008,-0.0036651913542300463,0.305380254983902,-0.07817329466342926
0.20536503195762634,5.8437957763671875,8.191645622253418,0.049357909709215164,0.34864696860313416,-0.05078908056020737
-0.07778282463550568,5.769211769104004,7.983034133911133,0.08087855577468872,0.3058514893054962,0.01104793418198824
0.24506090581417084,5.9046759605407715,7.8834452629089355,0.03712315484881401,0.23834216594696045,0.011397000402212143
0.21064186096191406,5.836364269256592,7.993320941925049,-0.020717058330774307,0.19458675384521484,-0.04120722413063049
0.1418037712574005,5.843834400177002,8.22706127166748,-0.0394618958234787,0.2142915278673172,-0.08489281684160233
-0.1319683939218521,5.814750671386719,8.516108512878418,0.008482299745082855,0.2350260317325592,-0.0754505842924118
0.09203311055898666,5.990455150604248,6.80794095993042,-0.07265805453062057,0.011222466826438904,0.0696909949183464
0.33635658025741577,6.270758628845215,7.29927921295166,-0.20010200142860413,0.11105529963970184,0.07278022915124893
-0.0020398597698658705,5.896583557128906,8.547395706176758,-0.2546435296535492,0.15491542220115662,0.0653800368309021
-0.13851892948150635,5.7725443840026855,8.685493469238281,-0.21790435910224915,0.10492919385433197,0.06272713094949722
-0.19852720201015472,5.561347484588623,8.753622055053711,-0.08112290501594543,-0.08241444826126099,0.045151665806770325
0.07214207947254181,5.701417446136475,8.398476600646973,-0.015027284622192383,-0.1299048513174057,0.0016231562476605177
-0.03688028082251549,5.799503326416016,8.168144226074219,-0.008517206646502018,-0.13116149604320526,-0.017662731930613518
-0.07025545090436935,5.803928852081299,8.02761459350586,-0.008412486873567104,-0.17793631553649902,-0.007365289609879255
0.04135264828801155,5.780014514923096,7.926732063293457,-0.03853686898946762,-0.19195130467414856,0.023090705275535583
0.21611979603767395,5.769901275634766,7.990858554840088,-0.0607723630964756,-0.1814793348312378,0.033719759434461594
0.25571030378341675,5.688948631286621,8.091961860656738,-0.05146975815296173,-0.16058774292469025,0.03363249450922012
0.2518700063228607,5.68644905090332,8.071525573730469,-0.031730085611343384,-0.14021974802017212,0.03516838327050209
0.34224632382392883,5.716701984405518,8.000014305114746,-0.03113667294383049,-0.1627170443534851,0.029775317758321762
0.3478296101093292,5.62675666809082,8.199719429016113,-0.11236429959535599,-0.22425734996795654,0.00593411922454834
0.5088348984718323,5.560494899749756,8.404587745666504,-0.07843509316444397,-0.2125810980796814,-0.0034732052590698004
0.5802395343780518,5.587702751159668,8.355916976928711,-0.011082841083407402,-0.1440420299768448,-0.019949113950133324
0.5200493335723877,5.647529125213623,8.013421058654785,0.047682393342256546,0.0126710906624794,0.017069319263100624
0.5446329712867737,5.682790756225586,8.000664710998535,0.02528982050716877,-0.02684316411614418,-0.012531463988125324
0.35964739322662354,5.6947712898254395,8.059802055358887,0.0012740903766825795,-0.07274532318115234,-0.027785642072558403
0.339526504278183,5.705650329589844,8.145830154418945,-0.007819075137376785,-0.09539970010519028,-0.027262043207883835
0.39423879981040955,5.708754539489746,8.123861312866211,0.007051130291074514,-0.06257005035877228,-0.020298179239034653
0.3633727729320526,5.717726707458496,8.142354965209961,0.020385446026921272,-0.03556980937719345,-0.0161268413066864
0.3911646604537964,5.728653907775879,8.055607795715332,0.04270820692181587,0.00040142572834156454,-0.0013264502631500363
0.4238790273666382,5.718167304992676,8.016026496887207,0.0403171069920063,0.006649704650044441,0.010035643354058266
0.48502692580223083,5.676220893859863,8.005204200744629,0.004171337001025677,-0.027314402163028717,0.010332348756492138
0.5324704647064209,5.690500259399414,8.194625854492188,-0.0016057029133662581,-0.029880037531256676,0.002827433403581381
0.5277681946754456,5.66475772857666,8.285690307617188,0.02307325229048729,-0.0354301854968071,-0.0040317103266716
0.5689101815223694,5.651800155639648,8.238113403320312,0.041399210691452026,-0.04122467711567879,-0.018570303916931152
0.5365980267524719,5.64184045791626,8.179435729980469,0.04375540465116501,-0.0446455217897892,-0.029251718893647194
0.463469535112381,5.715179443359375,8.088129997253418,0.03216641768813133,-0.06716027110815048,-0.028379052877426147
0.29471662640571594,6.152063846588135,8.06255054473877,0.12377875298261642,-0.09773843735456467,-0.0564439482986927
-0.02248634211719036,5.693459510803223,7.658102989196777,0.21867230534553528,0.05619960278272629,-0.034487705677747726
0.6598419547080994,6.288734436035156,7.160693168640137,0.08365362882614136,0.29845130443573,0.09005898982286453
0.45050254464149475,6.133388996124268,7.347871780395508,-0.013037609867751598,0.19202111661434174,0.05969025939702988
0.5229319334030151,5.610677242279053,8.738224029541016,-0.207345113158226,-0.40627774596214294,-0.051574479788541794
0.5788317322731018,5.613760948181152,8.767155647277832,-0.08396779000759125,-0.27434831857681274,-0.03277728334069252
0.6439923644065857,5.601694107055664,8.515323638916016,0.038327429443597794,-0.1149299293756485,0.003089232835918665
0.7274637818336487,5.6343607902526855,8.087077140808105,0.09204866737127304,-0.027977628633379936,0.044488441199064255
0.8801276683807373,5.573683261871338,7.791460037231445,0.04340633749961853,-0.04331907257437706,0.04438372328877449
0.9296588897705078,5.569429874420166,7.8932037353515625,-0.018291050568223,-0.09594074636697769,0.014817845076322556
0.9544819593429565,5.5456318855285645,8.07652473449707,-0.025848325341939926,-0.11454595625400543,-0.012391837313771248
0.9007081985473633,5.6071624755859375,8.114054679870605,0.0035604715812951326,-0.06862634420394897,-0.030403634533286095
0.7270041108131409,5.6878662109375,7.97791051864624,0.008726646192371845,-0.029530970379710197,-0.038467057049274445
0.6112300753593445,5.695479869842529,7.940360069274902,-0.018622662872076035,-0.06314601004123688,-0.03366740047931671
0.5580021739006042,5.683796405792236,7.982890605926514,-0.03783873841166496,-0.08737118542194366,-0.028797931969165802
0.6099372506141663,5.659356117248535,8.145753860473633,-0.0584685280919075,-0.11704178154468536,-0.016458455473184586
0.5789753794670105,5.8921685218811035,8.531095504760742,0.021676989272236824,0.009634217247366905,-0.031031953170895576
0.3615627586841583,5.537568092346191,7.913947105407715,0.23460716009140015,0.4121944010257721,0.07901105284690857
0.8290449976921082,5.944572925567627,7.64057731628418,0.14898130297660828,0.28180086612701416,0.07555530220270157
0.7567209601402283,5.732656955718994,7.5487260818481445,-0.07361798733472824,-0.0685390830039978,0.0377340167760849
0.9068182110786438,5.6253204345703125,8.197229385375977,-0.16695819795131683,-0.19135789573192596,-0.03256784379482269
0.8555152416229248,5.586371421813965,8.393563270568848,-0.0961850956082344,-0.1270425170660019,-0.036163222044706345
0.788793683052063,5.545085906982422,8.473241806030273,-0.04518657550215721,-0.062029000371694565,-0.030019663274288177
0.7670926451683044,5.62024450302124,8.322331428527832,0.04476769641041756,0.06953391432762146,-0.010873401537537575
0.7968860864639282,5.592835903167725,8.050474166870117,0.05504768341779709,0.09136798232793808,0.007661995477974415
0.7796478271484375,5.607717990875244,8.27843189239502,-0.049183379858732224,-0.1114567220211029,-0.05464625731110573
0.6283630132675171,5.643535614013672,8.408330917358398,-0.019250981509685516,-0.12512265145778656,-0.07166321575641632
0.5455906391143799,5.649559020996094,8.393027305603027,-0.0026703537441790104,-0.10868164896965027,-0.06302383542060852
0.06111918017268181,5.8340373039245605,8.064743995666504,0.2165604531764984,0.24551546573638916,-0.019338248297572136
0.7740358114242554,6.1025614738464355,7.411854267120361,0.18615682423114777,0.44282492995262146,0.10548769682645798
0.4469878673553467,6.018064975738525,7.256336688995361,0.08775515109300613,0.24869196116924286,0.05215043947100639
0.585296094417572,5.815793514251709,7.6064453125,-0.2249729335308075,-0.26628488302230835,0.004904375411570072
0.6409756541252136,5.6339874267578125,8.790129661560059,-0.29166197776794434,-0.4142015278339386,-0.06763150542974472
0.5831891894340515,5.598227500915527,8.865642547607422,-0.09466665983200073,-0.2393544465303421,-0.034487705677747726
0.6641515493392944,5.638833045959473,8.626127243041992,0.056496307253837585,-0.03497639670968056,0.0269304309040308
0.7546715140342712,5.662009239196777,8.392059326171875,0.10726793855428696,0.033108897507190704,0.05441936478018761
0.883738100528717,5.635433197021484,7.840406894683838,0.12231267243623734,0.05810201168060303,0.0645073652267456
0.9232615828514099,5.638105392456055,7.685492515563965,0.07923794537782669,0.027349309995770454,0.06014404445886612
0.8503342270851135,5.605639934539795,7.685616970062256,-0.043476153165102005,-0.10712830722332001,0.04312708601355553
0.9771311283111572,5.565723896026611,7.982210636138916,-0.1259080469608307,-0.22795745730400085,0.013788101263344288
1.0827441215515137,5.5313720703125,8.259928703308105,-0.1223999410867691,-0.2324429452419281,-0.00296705961227417
0.966663658618927,5.648716449737549,8.467822074890137,0.029199358075857162,0.08485791087150574,-0.019338248297572136
0.7636258006095886,5.637549877166748,7.829652309417725,0.19512781500816345,0.32447415590286255,0.040334559977054596
0.8303378224372864,5.710391044616699,7.391924858093262,0.04246386140584946,0.07468263804912567,0.03246312215924263
0.9117023944854736,5.625253200531006,7.810287952423096,-0.1428377479314804,-0.08742354065179825,-0.030805060639977455
0.6777505874633789,5.603878021240234,8.456357955932617,-0.13311626017093658,-0.09299114346504211,-0.018797196447849274
0.6915603280067444,5.5669403076171875,8.607269287109375,-0.051801372319459915,-0.011431906372308731,0.019250981509685516
0.7548822164535522,5.592893123626709,8.558419227600098,0.026459190994501114,0.06557202339172363,0.0397411473095417
0.8325883746147156,5.612372398376465,8.236685752868652,0.046966809779405594,0.018325956538319588,0.03839724510908127
0.8591831922531128,5.6060709953308105,8.045475959777832,0.00029670598451048136,-0.0725707933306694,0.022287854924798012
0.9599215984344482,5.63946533203125,7.5060133934021,0.043161991983652115,0.11529645323753357,0.03977605327963829
0.9211355447769165,5.581017971038818,8.081071853637695,-0.10655234754085541,-0.09700539708137512,-0.05389576777815819
0.7841297388076782,5.600094795227051,8.5715970993042,-0.07091272622346878,-0.09759881347417831,-0.07110471278429031
0.5723865628242493,5.73404598236084,8.337855339050293,0.049811698496341705,0.010018189437687397,-0.020472712814807892
0.6496043801307678,5.774881362915039,8.037592887878418,0.055518921464681625,0.030054569244384766,0.02143264375627041
0.6635099053382874,5.732906341552734,8.411079406738281,0.017837265506386757,0.041573744267225266,0.0026179938577115536
0.48909708857536316,5.156430244445801,7.64329719543457,0.3470936417579651,0.7364242076873779,0.10402162373065948
0.7977192401885986,5.778127670288086,7.73787784576416,0.3580368459224701,0.7264932990074158,0.13432054221630096
0.2563902735710144,5.870572566986084,6.887688159942627,0.09581857919692993,0.2108357697725296,0.12679816782474518
0.8427014946937561,5.7542243003845215,7.554520130157471,-0.33594098687171936,-0.39444440603256226,-0.004014257341623306
0.8819089531898499,5.569975852966309,8.631538391113281,-0.4118976891040802,-0.5803917646408081,-0.10044369846582413
0.8035514950752258,5.519458293914795,9.035869598388672,-0.26429522037506104,-0.5052728056907654,-0.1321912407875061
0.6738145351409912,5.55715274810791,9.04052448272705,-0.050823986530303955,-0.20556487143039703,-0.09354964643716812
0.587039053440094,5.612621307373047,8.935400009155273,0.06229080259799957,-0.04335397854447365,-0.051487211138010025
0.5820782780647278,5.733394622802734,8.213653564453125,0.19570377469062805,0.1223999410867691,0.04656538367271423
0.8404030799865723,5.70370626449585,7.610161304473877,0.13374458253383636,0.0809483677148819,0.07073819637298584
1.0145764350891113,5.550142288208008,7.188379764556885,-0.21741566061973572,-0.25874507427215576,0.016859879717230797
0.9804255366325378,5.5262770652771,8.404844284057617,-0.3165852725505829,-0.36962583661079407,-0.11248646676540375
0.7356423735618591,5.582396984100342,8.64477252960205,-0.1218414381146431,-0.17919296026229858,-0.08892452716827393
0.6991068720817566,5.624985218048096,8.659866333007812,0.01926843449473381,0.086411252617836,-0.023317597806453705
0.768787682056427,5.693784713745117,8.23781681060791,0.12831661105155945,0.18387043476104736,0.013718287460505962
0.8124771118164062,5.6578145027160645,7.93452787399292,0.10765190422534943,0.1639038622379303,0.001518436474725604
0.8084548711776733,5.623950958251953,7.89890193939209,0.05117305368185043,0.07930775731801987,-0.03544763848185539
0.7460140585899353,5.658905982971191,7.98288106918335,0.005602506920695305,0.011885692365467548,-0.07162830978631973
0.6901046633720398,5.687780380249023,8.114457130432129,0.02143264375627041,0.06227334588766098,-0.07625343650579453
0.614084005355835,5.692750453948975,8.24586009979248,0.06920230388641357,0.19980528950691223,-0.05717698484659195
0.5661233067512512,5.705190658569336,8.212553024291992,0.09531243145465851,0.26373669505119324,-0.0434936061501503
0.450847327709198,5.753304958343506,7.989383697509766,0.10833258926868439,0.3836582601070404,-0.016598081216216087
0.42476966977119446,5.727112293243408,7.9365386962890625,0.1022588387131691,0.4239055812358856,-0.007365289609879255
0.3023110330104828,5.761109828948975,8.287251472473145,0.025569073855876923,0.2036450207233429,-0.027872908860445023
0.2561221122741699,5.820342540740967,8.238438606262207,0.07391469180583954,0.26715755462646484,-0.024434609338641167
0.21564094722270966,5.845855236053467,8.155081748962402,0.12367402762174606,0.3159918487071991,-0.021676989272236824
0.17894262075424194,5.887437343597412,7.891634464263916,0.14149384200572968,0.29626962542533875,-0.021537363529205322
0.0701596811413765,5.9441609382629395,7.667057037353516,0.08316493779420853,0.21010273694992065,-0.019058994948863983
-0.027150245383381844,5.864951133728027,7.712154388427734,-0.013631021603941917,0.1575683206319809,0.005672320257872343
0.0698915347456932,5.806925296783447,8.154508590698242,-0.03651228919625282,0.17257815599441528,0.029164452105760574
0.16281528770923615,5.785588264465332,8.293590545654297,-0.0057246801443398,0.20292943716049194,0.033423054963350296
0.27100446820259094,5.764959812164307,8.260656356811523,0.08244935423135757,0.2790955901145935,0.014765485189855099
0.14376701414585114,5.781288146972656,7.980841159820557,0.11281808465719223,0.3061830997467041,-0.012950343079864979
0.006617573089897633,5.854167461395264,7.764702320098877,0.06604325771331787,0.26546457409858704,-0.018709929659962654
-0.09554779529571533,5.8402910232543945,7.848901748657227,-0.00518362782895565,0.18011797964572906,-0.008656833320856094
-0.09518387913703918,5.81547737121582,7.957243919372559,-0.024504423141479492,0.13067279756069183,-0.011798425577580929
-0.08917921781539917,5.825715065002441,8.184022903442383,-0.013142329640686512,0.02139773592352867,-0.04571017250418663
-0.4240897297859192,6.04295539855957,7.908813953399658,0.1454557329416275,-0.3814242482185364,-0.13226105272769928
0.04342123866081238,6.000635147094727,7.057014465332031,-0.07936011999845505,-0.01219985168427229,-0.02117084339261055
-0.18171031773090363,5.9812421798706055,8.231169700622559,-0.17386969923973083,0.13803808391094208,-0.016912240535020828
-0.2950422465801239,5.816166877746582,8.441936492919922,-0.02782054804265499,-0.20415116846561432,-0.05274384841322899
-0.1995231807231903,5.855307102203369,8.28599739074707,-0.011030481196939945,-0.285797655582428,-0.06761405616998672
-0.16251841187477112,5.850107192993164,8.145841598510742,0.004974188283085823,-0.3225717544555664,-0.0691150352358818
-0.05202121287584305,5.828846454620361,7.931951522827148,-0.0008552113431505859,-0.2517288327217102,-0.03344050794839859
0.12053368240594864,5.835052490234375,7.864693641662598,-0.004363323096185923,-0.1809208244085312,0.0007504915702156723
0.2565913796424866,5.805431365966797,7.799600124359131,-0.01357866171747446,-0.1247037723660469,0.006195918656885624
0.28650930523872375,5.731096267700195,7.765209674835205,-0.03366740047931671,-0.10517354309558868,0.003996803890913725
0.38679763674736023,5.722744941711426,7.8428778648376465,-0.05487314984202385,-0.11849040538072586,-0.010262535884976387
0.3958956003189087,5.709902763366699,8.019004821777344,-0.0659385398030281,-0.11313223838806152,-0.03467969223856926
0.3634302318096161,5.73220682144165,8.152715682983398,-0.05319763720035553,-0.11217231303453445,-0.05778785049915314
0.2626343369483948,5.726738929748535,8.191446304321289,-0.03502875939011574,-0.10739010572433472,-0.06927211582660675
0.21240398287773132,5.700777053833008,8.151930809020996,-0.011484266258776188,-0.08269369602203369,-0.063372902572155
0.14380532503128052,5.710036754608154,8.145638465881348,-0.0037873645778745413,-0.060528017580509186,-0.06218608096241951
0.11414595693349838,5.780091285705566,8.06686019897461,-0.009773843921720982,-0.11739084869623184,-0.06489133834838867
0.044800300151109695,5.761147975921631,8.079962730407715,-0.0411897711455822,-0.15449655055999756,-0.06529276818037033
0.09144892543554306,5.778367042541504,8.231304168701172,-0.04611159861087799,-0.18969982862472534,-0.06696828454732895
0.053496040403842926,5.803190231323242,8.269543647766113,-0.021502455696463585,-0.17032667994499207,-0.05403539165854454
-0.13770489394664764,5.686631202697754,7.770478248596191,0.11241665482521057,-0.05867796763777733,-0.03769911080598831
-0.05906016379594803,5.9594645500183105,7.6563215255737305,-0.0223227608948946,0.08806931227445602,1.7453292457503267e-05
-0.14481088519096375,5.853794097900391,8.065174102783203,-0.10557496547698975,-0.11362093687057495,0.03879866749048233
0.024851812049746513,5.871540069580078,8.26803207397461,-0.10618583112955093,-0.11639600992202759,0.04288274049758911
0.12099337577819824,5.799177646636963,8.37391185760498,-0.06129596382379532,-0.07607889920473099,0.06813765317201614
0.3341347873210907,5.759194374084473,8.317007064819336,-0.009686577133834362,-0.06065019220113754,0.057875119149684906
0.30442753434181213,5.717297077178955,8.187335968017578,0.005288347601890564,-0.06246533244848251,0.04384266957640648
0.49696922302246094,5.695096969604492,8.037220001220703,-0.021101031452417374,-0.11990411579608917,0.04441862925887108
0.4942876994609833,5.6521830558776855,8.033092498779297,-0.03488913178443909,-0.12978267669677734,0.035988688468933105
0.5400744080543518,5.657431125640869,8.080248832702637,-0.05204571783542633,-0.1780061274766922,0.015620696358382702
0.5428325533866882,5.67175817489624,8.03785228729248,-0.07365289330482483,-0.25733134150505066,-0.007976154796779156
0.5655965805053711,5.63951301574707,8.138744354248047,-0.09581857919692993,-0.2932327687740326,-0.026075219735503197
0.6020363569259644,5.661348342895508,8.185909271240234,-0.08433430641889572,-0.2768441140651703,-0.04022983834147453
0.5270020961761475,5.656224727630615,8.216765403747559,-0.07042403519153595,-0.25389304757118225,-0.03986331820487976
0.5014990568161011,5.6895904541015625,8.116189956665039,-0.03982841223478317,-0.1970476657152176,-0.019111355766654015
0.5473431944847107,5.690921306610107,8.048396110534668,-0.02609267272055149,-0.16325809061527252,-0.0119555052369833
0.5701168775558472,5.687751293182373,8.034279823303223,-0.02918190509080887,-0.16081464290618896,0.0
0.6694092154502869,5.633326530456543,8.04548454284668,-0.03769911080598831,-0.14179055392742157,0.007609635591506958
0.7643249034881592,5.638267993927002,8.179071426391602,-0.013683381490409374,-0.11760028451681137,0.004956734832376242
0.7673894762992859,5.612496852874756,8.148253440856934,0.002024581888690591,-0.10218902677297592,0.00010471975838299841
0.8380280137062073,5.619440078735352,8.09443187713623,0.009861109778285027,-0.08511970937252045,-0.007487462367862463
0.8160396814346313,5.605860233306885,8.09989070892334,-0.004904375411570072,-0.0944746732711792,-0.023806290701031685
0.22270862758159637,5.796630382537842,8.346972465515137,0.2088460922241211,0.44509387016296387,-0.022863812744617462
0.7771961688995361,5.901630401611328,7.862232685089111,0.32562607526779175,0.501834511756897,0.053267449140548706
0.3047339916229248,5.863332748413086,6.990886688232422,0.08653342723846436,0.07066838443279266,0.048607420176267624
0.7310838103294373,5.720580577850342,7.680570125579834,-0.22907446324825287,-0.2656390964984894,-0.04098033159971237
0.7376247644424438,5.655036926269531,8.607203483581543,-0.19778071343898773,-0.27516859769821167,-0.06754424422979355
0.7640184760093689,5.544511318206787,8.690330505371094,-0.03159045800566673,-0.1054178848862648,-0.04977678880095482
0.7591630220413208,5.700900554656982,7.788567543029785,0.003979350905865431,0.07396705448627472,-0.040456730872392654
0.6981779336929321,5.669459819793701,8.091721534729004,-0.03188716620206833,-0.014276793226599693,-0.09545205533504486
0.5283141136169434,5.692338943481445,8.204048156738281,-0.0013264502631500363,0.028204521164298058,-0.09627236425876617
0.39469850063323975,5.704922676086426,8.088973045349121,0.021380282938480377,0.07023204863071442,-0.08304276317358017
0.3742615878582001,5.740184307098389,8.07860279083252,0.01891936920583248,0.08473573625087738,-0.07990117371082306
0.37127363681793213,5.753122806549072,8.134856224060059,0.02134537696838379,0.07442083954811096,-0.08375835418701172
0.3155270516872406,5.803793907165527,8.166956901550293,0.03569198399782181,0.07412413507699966,-0.07942993193864822
0.23279300332069397,5.807068824768066,8.144452095031738,0.04260348528623581,0.08161159604787827,-0.07302457839250565
0.17539921402931213,5.800451278686523,8.126083374023438,0.047909289598464966,0.07611380517482758,-0.05555383116006851
0.26384100317955017,5.791755676269531,8.21696662902832,0.06237806752324104,0.10238101333379745,-0.03663446009159088
0.38957491517066956,5.843527793884277,8.243341445922852,0.10655234754085541,0.15592771768569946,-0.028937559574842453
0.3197503983974457,5.846707344055176,8.063518524169922,0.14220942556858063,0.20352284610271454,-0.02206096239387989
0.27296772599220276,5.855412483215332,7.889355182647705,0.13496631383895874,0.21259856224060059,-0.012409291230142117
0.20660044252872467,5.878866195678711,7.878177642822266,0.11863002926111221,0.20062559843063354,-0.009075712412595749
0.2283206433057785,5.883386611938477,7.951269149780273,0.08815658092498779,0.16653931140899658,-0.005166174378246069
-0.42272982001304626,6.2027058601379395,6.2000627517700195,-0.03721041977405548,0.043912485241889954,0.0039618974551558495
0.667024552822113,6.0340776443481445,7.453724384307861,-0.28909632563591003,0.1062730997800827,0.04070107638835907
0.3412982225418091,5.963400840759277,9.277206420898438,-0.08691739290952682,0.09669124335050583,-0.052063170820474625
-0.24486936628818512,5.687090873718262,8.667278289794922,0.031101766973733902,0.03963642567396164,-0.0042236968874931335
-0.1495322585105896,5.729640483856201,8.315369606018066,-0.02946115843951702,0.05665338784456253,0.018570303916931152
-0.0325898714363575,5.765496253967285,8.389952659606934,-0.05094616115093231,-0.030857421457767487,0.03192207217216492
0.11199117451906204,5.804741859436035,8.331342697143555,-0.041695915162563324,-0.07534586638212204,0.025272367522120476
0.2174222320318222,5.834218978881836,8.177081108093262,-0.01532399095594883,-0.08609709143638611,-0.00013962633966002613
0.18749471008777618,5.837752819061279,7.99857759475708,0.011397000402212143,-0.04265584796667099,0.010402162559330463
0.21664650738239288,5.78702449798584,7.853546142578125,0.01661553420126438,0.011082841083407402,0.04043927788734436
0.20724208652973175,5.767000675201416,8.123602867126465,-0.021327923983335495,-0.037367500364780426,0.007661995477974415
0.22030486166477203,5.764011859893799,8.190908432006836,-0.016772614791989326,-0.031154127791523933,0.0103672556579113
0.32645416259765625,5.742617130279541,8.233946800231934,0.0091455252841115,-0.007801621686667204,0.018011797219514847
0.41303807497024536,5.753304958343506,8.191770553588867,0.026982789859175682,0.006946410518139601,0.014887658879160881
0.40182363986968994,5.734218120574951,7.979711055755615,0.039793506264686584,0.019914206117391586,0.001972222002223134
0.32157957553863525,5.782849311828613,7.83321475982666,0.016057029366493225,0.009093165397644043,0.00020943951676599681
0.2763100266456604,5.813284397125244,7.832448482513428,-0.019739674404263496,-0.012060225009918213,0.002146754879504442
0.2524924874305725,5.794427394866943,7.904695987701416,-0.04913101717829704,-0.017470745369791985,0.010925761424005032
0.2207358181476593,5.778204441070557,8.012588500976562,-0.06354743987321854,-0.009861109778285027,0.01202531810849905
-0.16194379329681396,5.889305114746094,8.029903411865234,-0.10868164896965027,-0.08288568258285522,0.037227872759103775
-0.19556796550750732,5.854215621948242,8.050992965698242,-0.14077825844287872,-0.09747663885354996,0.07073819637298584
-0.09978074580430984,5.822525978088379,8.070691108703613,-0.15920893847942352,-0.11384782940149307,0.10154325515031815
-0.08621998876333237,5.7283477783203125,8.111296653747559,-0.1616000384092331,-0.12433725595474243,0.12884020805358887
0.40249401330947876,5.652288436889648,8.317370414733887,-0.10458012670278549,-0.11053170263767242,0.16338026523590088
0.8397135138511658,5.435498237609863,8.331727027893066,0.02188642881810665,-0.039618972688913345,-0.026720991358160973
0.724399209022522,5.494692802429199,8.152572631835938,0.04584980010986328,-0.02094395086169243,-0.043161991983652115
0.5083369016647339,5.609623908996582,8.024032592773438,0.0016406094655394554,-0.010786134749650955,-0.05654866620898247
0.47704946994781494,5.6466383934021,7.989412307739258,-0.004625122528523207,0.0015533430268988013,-0.04881685972213745
0.38053441047668457,5.679773807525635,7.956334114074707,-0.02750638872385025,-0.003490658476948738,-0.03389429301023483
0.3106237053871155,5.666788101196289,8.009150505065918,-0.07147122919559479,-0.01944296807050705,-0.001343903481028974
0.4225095510482788,5.62790584564209,8.273737907409668,-0.09571385383605957,-0.042097341269254684,0.016022123396396637
0.6060490608215332,5.509881496429443,8.606809616088867,-0.2031039595603943,-0.15226252377033234,0.029269171878695488
0.6442126035690308,5.444261074066162,8.952667236328125,-0.08040732145309448,-0.06916739791631699,0.0018325956771150231
0.6211037635803223,5.4450273513793945,8.704791069030762,0.06492624431848526,0.07620107382535934,0.008779006078839302
0.5345103144645691,5.499825954437256,8.196511268615723,0.11295770853757858,0.1534842550754547,0.012548916973173618
0.5593908429145813,5.528383731842041,8.008901596069336,-0.04110250249505043,0.03569198399782181,-0.012164944782853127
0.3240695595741272,5.560475826263428,8.123929023742676,0.01448623277246952,0.03330088034272194,-0.019687313586473465
0.3699711859226227,5.564459800720215,8.188044548034668,-0.0010821041651070118,-0.00296705961227417,-0.023579398170113564
0.4277001619338989,5.564708709716797,8.22047233581543,0.005864306353032589,0.005235987715423107,-0.022689281031489372
0.4744541347026825,5.573835372924805,8.153338432312012,0.017924530431628227,0.027000242844223976,-0.02471386268734932
0.4591791331768036,5.583546161651611,8.09269905090332,0.002827433403581381,0.021502455696463585,-0.02525491453707218
0.424003541469574,5.566624164581299,8.154775619506836,-0.020978856831789017,0.0021816615480929613,-0.024347342550754547
0.38702747225761414,5.555467128753662,8.271966934204102,-0.025848325341939926,-0.008831365965306759,-0.024015730246901512
0.3488064408302307,5.565361022949219,8.359393119812012,-0.018291050568223,-0.03520328924059868,-0.028640853241086006
0.11828313767910004,5.5830864906311035,8.600029945373535,0.28183576464653015,-0.273074209690094,-0.0852418839931488
0.23325270414352417,5.5260186195373535,7.310627460479736,0.22631683945655823,-0.03202679008245468,-0.026302112266421318
0.19857507944107056,5.960748195648193,7.169618606567383,-0.1382998824119568,0.2670528292655945,0.042935099452733994
0.36852508783340454,5.480432987213135,9.211604118347168,-0.16554448008537292,-0.3047693967819214,-0.018273597583174706
0.32131144404411316,5.494472503662109,8.764626502990723,-0.05504768341779709,-0.27351054549217224,-0.044052109122276306
0.10886913537979126,5.568893909454346,8.283401489257812,-0.036686819046735764,-0.2669481039047241,-0.046530477702617645
0.09453265368938446,5.605084419250488,8.068679809570312,-0.07840018719434738,-0.26776841282844543,0.033370696008205414
0.389584481716156,5.575808048248291,8.04944896697998,-0.10951940715312958,-0.2725506126880646,0.08686503767967224
0.7027843594551086,5.479503631591797,8.008355140686035,-0.12227776646614075,-0.2721666395664215,0.08477064222097397
0.8393017649650574,5.414783954620361,8.005492210388184,-0.13315117359161377,-0.269094854593277,0.06209881603717804
0.9221506714820862,5.361507892608643,8.128362655639648,-0.14302973449230194,-0.2581341862678528,0.03661700710654259
0.9011200070381165,5.356883525848389,8.191896438598633,-0.13288937509059906,-0.24534092843532562,0.0348542258143425
0.9153990149497986,5.328314781188965,8.169964790344238,-0.13212142884731293,-0.235619455575943,0.0411897711455822
1.0352048873901367,5.251662254333496,8.242776870727539,-0.1368338167667389,-0.18966493010520935,0.05555383116006851
1.1122406721115112,5.248788833618164,8.331830978393555,-0.11400490999221802,-0.1604306697845459,0.05141739919781685
1.2357431650161743,5.171274185180664,8.477744102478027,-0.07621853053569794,-0.09351474046707153,0.01794198527932167
1.1820173263549805,5.164082050323486,8.486822128295898,-0.02808234840631485,-0.05665338784456253,-0.009110618382692337
1.0966018438339233,5.207427024841309,8.365570068359375,-0.011431906372308731,-0.025324726477265358,-0.019495327025651932
1.035904049873352,5.216333389282227,8.32425594329834,-0.020123645663261414,-0.02197369560599327,-0.020210912451148033
0.9862195253372192,5.219292640686035,8.35194206237793,-0.039357174187898636,-0.04846779257059097,-0.018273597583174706
1.0069628953933716,5.218832969665527,8.389139175415039,-0.04885176569223404,-0.07044149190187454,-0.023596851155161858
0.9751391410827637,5.212655544281006,8.45461654663086,-0.05347688868641853,-0.09836675971746445,-0.03890338912606239
0.8298685550689697,5.312800407409668,8.334512710571289,0.0060388389974832535,-0.0159872155636549,0.003996803890913725
0.8742570877075195,5.307638645172119,8.312629699707031,-0.0029845130629837513,-0.04677482321858406,0.00040142572834156454
0.8759234547615051,5.31040620803833,8.286046028137207,-0.012217304669320583,-0.0699876993894577,-0.00029670598451048136
0.9137518405914307,5.08608865737915,9.16944694519043,0.35262632369995117,0.27008968591690063,-0.00041887903353199363
0.847355842590332,5.593276500701904,7.223823547363281,0.29159215092658997,0.5267054438591003,0.09702285379171371
0.7341292500495911,5.453761577606201,7.273393154144287,-0.05052728205919266,0.23883084952831268,0.12822933495044708
1.197560429573059,5.337039470672607,8.177118301391602,-0.24754004180431366,-0.1912880837917328,0.04314453899860382
1.2167619466781616,5.167529582977295,8.925143241882324,-0.2007303237915039,-0.24500931799411774,-0.0475253164768219
1.0119811296463013,5.07188606262207,8.950350761413574,-0.057648226618766785,-0.12166690081357956,-0.05712462589144707
0.8850118517875671,5.164503574371338,8.762289047241211,0.052953287959098816,0.044802602380514145,-0.013613567687571049
0.9316125512123108,5.232748031616211,8.381497383117676,0.08541641384363174,0.08112290501594543,0.022881265729665756
1.0396102666854858,5.230564117431641,8.202889442443848,0.03047344833612442,0.011938052251935005,0.00205948855727911
0.9346292614936829,5.607363700866699,9.37275505065918,0.09484118968248367,0.016144296154379845,-0.06600835174322128
0.5219359397888184,5.112827301025391,7.623377323150635,0.4011639356613159,0.5291664004325867,0.07183775305747986
0.591789186000824,5.624908447265625,7.074195384979248,0.09368927031755447,0.3940255343914032,0.11552334576845169
1.1981542110443115,5.377769470214844,8.438556671142578,-0.24933773279190063,-0.255202054977417,-0.018343409523367882
0.9990620017051697,5.237086296081543,9.01038646697998,-0.17439329624176025,-0.2635272741317749,-0.08826129883527756
0.7506684064865112,5.175382614135742,9.013614654541016,-0.03162536770105362,-0.1327672004699707,-0.06930702179670334
0.733698308467865,5.25818395614624,8.792743682861328,0.09969320893287659,0.056810468435287476,-0.0073303827084600925
0.867926836013794,5.297113418579102,8.28571891784668,0.15315264463424683,0.1287354826927185,0.03436553105711937
1.0054688453674316,5.420836448669434,8.346829414367676,0.1495223492383957,0.16798794269561768,0.027384215965867043
0.5359372496604919,4.9805426597595215,7.7955780029296875,0.41804125905036926,0.6972590088844299,0.09684831649065018
0.7114322185516357,5.7921576499938965,7.292718887329102,0.27005478739738464,0.658407986164093,0.13987068831920624
0.7268604636192322,5.53379487991333,7.382089614868164,-0.0789237916469574,0.1123119369149208,0.12915436923503876
1.0809245109558105,5.438811779022217,7.810144424438477,-0.2088111937046051,-0.10257299989461899,0.062168627977371216
1.120687484741211,5.187593460083008,8.781452178955078,-0.2315702885389328,-0.1901361644268036,-0.06347762793302536
0.9068756699562073,5.185266017913818,8.961650848388672,-0.0659734457731247,-0.03640756756067276,-0.08689994364976883
0.7560122609138489,5.283418655395508,8.720879554748535,0.09066985547542572,0.19696040451526642,-0.0576133169233799
0.6755096316337585,5.366555213928223,8.245534896850586,0.16004669666290283,0.32388076186180115,-0.03246312215924263
0.5561347007751465,5.431084632873535,8.037430763244629,0.1258556991815567,0.3110700249671936,-0.018221236765384674
0.5920286178588867,5.438247203826904,8.087480545043945,0.06752678751945496,0.2333156168460846,-0.0205948855727911
0.5041996836662292,5.393082618713379,8.166641235351562,0.005113814491778612,0.11482521146535873,-0.06555456668138504
0.3825168013572693,5.420797824859619,8.418723106384277,-0.010890854522585869,0.035726889967918396,-0.09597565233707428
0.2883289158344269,5.443437576293945,8.499013900756836,0.027646014466881752,0.07264060527086258,-0.10375982522964478
0.129736989736557,5.528249740600586,8.405793190002441,0.06600835174322128,0.16116370260715485,-0.07522369176149368
0.08106766641139984,5.612545013427734,8.149490356445312,0.08628907799720764,0.18277087807655334,-0.02600540593266487
0.09108500927686691,5.648409843444824,7.703372478485107,0.12203341722488403,0.019984019920229912,-0.028902651742100716
0.13410401344299316,5.47696590423584,7.476421356201172,0.34110715985298157,0.03972369432449341,-0.0126710906624794
0.2905603051185608,5.923465251922607,6.905183792114258,-0.010646508075296879,0.46558403968811035,0.0460941456258297
0.2480967491865158,5.445180416107178,8.88829231262207,-0.17763960361480713,0.07035422325134277,0.09526006877422333
0.5986748933792114,5.3773193359375,9.116065979003906,-0.061103977262973785,-0.04721115529537201,0.017575465142726898
0.488359659910202,5.342679977416992,8.837727546691895,0.04775220900774002,-0.015655603259801865,-0.0460766926407814
0.2089850753545761,5.395410060882568,8.467362403869629,0.09972811490297318,0.015009831637144089,-0.057735491544008255
0.14973336458206177,5.461461067199707,8.121562957763672,0.08389797806739807,0.019146261736750603,-0.03721041977405548
0.07808928191661835,5.586668491363525,8.219581604003906,-0.0017802357906475663,-0.07052875310182571,-0.04363323003053665
0.022649146616458893,5.931308746337891,7.591946125030518,0.06808529049158096,-0.22923153638839722,-0.04305727407336235
-0.11869493871927261,5.337355136871338,7.054697036743164,0.10779153555631638,-0.09817477315664291,0.04769985005259514
0.17292839288711548,5.540996551513672,9.01896858215332,-0.1180715262889862,-0.26248008012771606,-0.021293016150593758
0.19618088006973267,5.507554531097412,8.71623420715332,-0.04977678880095482,-0.25478315353393555,-0.030717793852090836
0.1279844343662262,5.489176273345947,8.479390144348145,-0.018535396084189415,-0.23659683763980865,-0.014765485189855099
0.4051276445388794,5.477655410766602,8.213509559631348,0.0011344640515744686,-0.1624552458524704,0.03804817795753479
0.5427271723747253,5.470587730407715,8.10074234008789,0.005148721393197775,-0.12863077223300934,0.03680899366736412
0.5899312496185303,5.475854873657227,7.971254825592041,-0.01581268385052681,-0.15116296708583832,0.01705186627805233
0.5565369725227356,5.4629645347595215,7.937831878662109,-0.06204645335674286,-0.19158479571342468,0.009738937020301819
0.6416556239128113,5.427022933959961,8.12109375,-0.10096729546785355,-0.2090729922056198,-3.490658491500653e-05
0.7144871950149536,5.390497207641602,8.252324104309082,-0.09386380761861801,-0.17688912153244019,0.00015707963029854
0.7639897465705872,5.37587308883667,8.341063499450684,-0.05771803855895996,-0.1154884397983551,0.004607669077813625
0.7567975521087646,5.3175506591796875,8.332597732543945,-0.02724459022283554,-0.06333799660205841,0.005672320257872343
0.7572284936904907,5.315002918243408,8.234999656677246,-0.03614576905965805,-0.060178954154253006,-0.01226966455578804
0.7122558355331421,5.292603015899658,8.288286209106445,-0.07066838443279266,-0.1132020577788353,-0.02666863054037094
0.7929883003234863,5.3004560470581055,8.474132537841797,-0.08414231985807419,-0.17029178142547607,-0.05688028037548065
0.3412599265575409,5.255061626434326,8.842888832092285,0.2759016454219818,0.35555848479270935,-0.07342600077390671
0.21253806352615356,5.761071681976318,7.346598148345947,0.2514146864414215,0.4496491849422455,0.048659779131412506
0.3468048870563507,5.568539619445801,7.433201313018799,-0.10257299989461899,-0.00593411922454834,0.09810495376586914
0.9447423815727234,5.307667255401611,8.745281219482422,-0.22704988718032837,-0.21757274866104126,-0.017086774110794067
0.7522389888763428,5.246854305267334,9.184818267822266,-0.04872959107160568,-0.11534880846738815,-0.06522295624017715
0.672339677810669,5.304727077484131,8.773063659667969,0.11728612333536148,0.0610690712928772,-0.03893829509615898
0.7143627405166626,5.387461185455322,8.243370056152344,0.165911003947258,0.15001104772090912,-0.02755874954164028
0.6598036289215088,5.423565864562988,8.058212280273438,0.1393819898366928,0.1500808596611023,-0.025499260053038597
0.7191798686981201,5.467130661010742,8.054553985595703,0.11220721900463104,0.13706070184707642,-0.030752701684832573
0.592430830001831,5.506012439727783,8.02095890045166,0.048572514206171036,0.020751964300870895,-0.0878424197435379
0.47832316160202026,5.451309680938721,8.109602928161621,0.008569566532969475,-0.0025307273026555777,-0.10477211326360703
0.2138979732990265,5.562936782836914,8.306941032409668,0.034784410148859024,0.06520549952983856,-0.060615286231040955
0.21758504211902618,5.57255220413208,8.346321105957031,0.0627969428896904,0.10182251036167145,-0.03876376152038574
0.17043842375278473,5.568558692932129,8.337759971618652,0.08981464058160782,0.15779522061347961,-0.018273597583174706
0.18144217133522034,5.637655258178711,8.354269981384277,0.1295906901359558,0.19256217777729034,-0.00031415926059708
0.17366580665111542,5.640556812286377,8.293179512023926,0.1437627673149109,0.21036453545093536,0.0077841682359576225
0.1575097292661667,5.673252105712891,8.251233100891113,0.15285593271255493,0.21350613236427307,0.013631021603941917
0.13348153233528137,5.677370071411133,8.145763397216797,0.13088223338127136,0.15315264463424683,0.015585790388286114
0.17445111274719238,5.715725421905518,8.067837715148926,0.07583455741405487,0.0388859361410141,0.004345869645476341
0.19607552886009216,5.673501014709473,8.058795928955078,0.016458455473184586,-0.07124433666467667,-0.009843656793236732
-0.24635377526283264,5.701906204223633,7.167626857757568,0.037000980228185654,0.1647590845823288,0.08377580344676971
0.5902951955795288,5.660792827606201,8.06980037689209,-0.009686577133834362,0.08625417202711105,0.024696409702301025
0.43166497349739075,5.609872817993164,8.191713333129883,-0.08930850028991699,-0.11815878748893738,-0.03654719516634941
