accX,accY,accZ,gyroX,gyroY,gyroZ
-0.22851218283176422,0.12049537897109985,9.718783378601074,-0.03467969223856926,-0.09642943739891052,-0.026145031675696373
-0.2028750628232956,0.13214077055454254,9.758766174316406,0.0026529005263000727,0.011623892933130264,0.00062831852119416
-0.20573852956295013,0.12034215033054352,9.821532249450684,-0.0016231562476605177,-0.009756390936672688,-0.00012217304902151227
-0.1834341436624527,0.1105642318725586,9.82406997680664,0.0008901178953237832,0.006352998316287994,0.00024434609804302454
-0.1895824521780014,0.09069235622882843,9.787409782409668,-0.000715585018042475,-0.000715585018042475,0.00041887903353199363
-0.19521361589431763,0.1040232703089714,9.829577445983887,-0.00010471975838299841,0.000715585018042475,-6.981316983001307e-05
-0.1980196237564087,0.10266336798667908,9.778120040893555,0.00013962633966002613,0.002600540639832616,3.490658491500653e-05
-0.19060717523097992,0.12524546682834625,9.817510604858398,-0.00015707963029854,-0.00038397242315113544,-0.0005934119690209627
-0.1905018389225006,0.1072314977645874,9.792485237121582,-0.0005235987482592463,0.0010122909443452954,5.2359879191499203e-05
-0.1906263381242752,0.10657069832086563,9.807100296020508,-0.00029670598451048136,-5.2359879191499203e-05,0.00038397242315113544
-0.2039380967617035,0.11153148859739304,9.800886154174805,0.00031415926059708,-0.0010821041651070118,-0.00017453292093705386
-0.2071271687746048,0.10239521414041519,9.796259880065918,0.00041887903353199363,0.0005061454721726477,-3.490658491500653e-05
-0.18250520527362823,0.10923305153846741,9.812865257263184,0.00022689280740451068,-0.00019198621157556772,0.00024434609804302454
-0.19184258580207825,0.12022722512483597,9.792801856994629,-0.0007504915702156723,0.0006108652451075613,0.0005585053586401045
-0.1876862496137619,0.11428960412740707,9.802359580993652,-0.00019198621157556772,-0.00019198621157556772,-3.490658491500653e-05
-0.19771316647529602,0.10383173823356628,9.816400527954102,0.00045378561480902135,0.0010471974965184927,0.00029670598451048136
-0.19429424405097961,0.11859916895627975,9.798768997192383,-0.0005759586347267032,-8.726646046852693e-05,0.00015707963029854
-0.19347064197063446,0.10081504285335541,9.822059631347656,-0.0009773843921720982,0.0006981316837482154,0.0009948377264663577
-0.19928376376628876,0.10779653489589691,9.800415992736816,-8.726646046852693e-05,-0.0004886921960860491,0.0005759586347267032
-0.1925608515739441,0.10791145265102386,9.784911155700684,0.0008901178953237832,-0.0008377580670639873,0.00010471975838299841
-0.19056886434555054,0.11631988734006882,9.802925109863281,0.0006632251315750182,0.0020420351065695286,-0.0006457717972807586
-0.1839800328016281,0.09188945591449738,9.806784629821777,0.00012217304902151227,-0.0007679448463022709,-0.0003665191470645368
-0.1914786696434021,0.10472238063812256,9.814416885375977,0.00012217304902151227,0.00017453292093705386,-5.2359879191499203e-05
-0.20941603183746338,0.11697111278772354,9.817605972290039,-0.00022689280740451068,-0.0005235987482592463,0.00020943951676599681
-0.18785864114761353,0.08799169957637787,9.785331726074219,8.726646046852693e-05,-0.00045378561480902135,-8.726646046852693e-05
-0.1851866990327835,0.11393526941537857,9.811131477355957,5.2359879191499203e-05,0.001658062799833715,6.981316983001307e-05
-0.21430976688861847,0.10685800760984421,9.605001449584961,0.001518436474725604,-0.009756390936672688,0.0005061454721726477
-0.19015707075595856,0.13531069457530975,9.463790893554688,-0.12978267669677734,-0.6419146656990051,0.010698867961764336
0.3264829218387604,0.031909920275211334,11.182369232177734,-0.03179989755153656,-0.08183848857879639,0.0033684854861348867
0.054252609610557556,0.07312849164009094,10.569049835205078,0.18455111980438232,0.8403411507606506,-0.013665927574038506
-0.6602728962898254,0.17280389368534088,7.3138933181762695,0.009599311277270317,0.08070402592420578,-0.00047123889089562
-0.3949762284755707,0.11447156965732574,9.152555465698242,-0.08559094369411469,-0.41174063086509705,0.006859143730252981
0.041908103972673416,0.06254611909389496,10.739545822143555,-0.020402899011969566,-0.09028588235378265,0.0013264502631500363
-0.3169060945510864,0.12234370410442352,9.34460735321045,-0.02572615258395672,-0.12348204106092453,0.002251474652439356
-0.0874553993344307,0.09369947016239166,10.247068405151367,-0.009110618382692337,-0.042586032301187515,0.0008028514566831291
-0.19980090856552124,0.10851479321718216,9.711706161499023,0.021118484437465668,0.10018189996480942,-0.0011868239380419254
-0.21736477315425873,0.11747868359088898,9.657502174377441,-0.012880530208349228,-0.06072000414133072,0.0010122909443452954
-0.14050132036209106,0.09874644875526428,9.999191284179688,0.0025656339712440968,0.00708603672683239,0.00040142572834156454
-0.1777072250843048,0.10621635615825653,9.870240211486816,0.008936085738241673,0.04735078290104866,0.0005759586347267032
-0.22283312678337097,0.10942459106445312,9.71058464050293,-0.0036826448049396276,-0.015411256812512875,0.0005759586347267032
-0.17729541659355164,0.11189540475606918,9.911469459533691,-0.0009250245057046413,-0.00724311638623476,-0.00010471975838299841
-0.19288645684719086,0.10940543562173843,9.768697738647461,0.0021293016616255045,0.014398965984582901,0.0005061454721726477
-0.18638381361961365,0.10967358946800232,9.809197425842285,-0.0020420351065695286,-0.012461651116609573,-0.00027925267932005227
-0.17369453608989716,0.11431834101676941,9.843214988708496,0.0007679448463022709,0.006719517521560192,0.00029670598451048136
-0.19473478198051453,0.11822567880153656,9.763754844665527,-0.00019198621157556772,-0.001343903481028974,-0.00062831852119416
-0.19163189828395844,0.10704953968524933,9.82948112487793,-0.0002617993741296232,0.00040142572834156454,3.490658491500653e-05
-0.18989849090576172,0.1062738224864006,9.799007415771484,0.0006806784076616168,0.003001966280862689,0.00038397242315113544
-0.20161092281341553,0.11549628525972366,9.817347526550293,-0.00031415926059708,-0.0025307273026555777,-3.490658491500653e-05
-0.19902518391609192,0.11923123896121979,9.820402145385742,0.0013089969288557768,0.003036872949451208,0.00038397242315113544
-0.18123148381710052,0.10312305390834808,9.820651054382324,0.00029670598451048136,0.000715585018042475,0.0005410520825535059
-0.17984284460544586,0.10699208080768585,9.805241584777832,0.00012217304902151227,-0.0006108652451075613,0.00017453292093705386
-0.1958361119031906,0.10395622998476028,9.818649291992188,-0.00015707963029854,0.00062831852119416,-0.0015009831404313445
-0.07257303595542908,0.09625647962093353,10.644888877868652,0.05726425349712372,0.2508910894393921,-0.004468042869120836
-0.4268191158771515,0.13511915504932404,8.922212600708008,0.0007504915702156723,0.00874409917742014,0.00020943951676599681
-0.16379211843013763,0.11047803610563278,10.025019645690918,-0.03263765573501587,-0.13329079747200012,0.0024260077625513077
-0.19869957864284515,0.09893798828125,9.757951736450195,-0.014154620468616486,-0.05794493108987808,0.0005759586347267032
-0.17280389368534088,0.09970413148403168,9.961305618286133,-0.0026179938577115536,-0.008220500312745571,-0.0008377580670639873
-0.18602946400642395,0.12324392050504684,9.648488998413086,0.002321287989616394,0.017261305823922157,-0.00022689280740451068
-0.1903964877128601,0.1000201627612114,9.777833938598633,-0.0045553091913461685,-0.01869247667491436,0.0005061454721726477
-0.19382499158382416,0.11407891660928726,9.863938331604004,0.0010646508308127522,0.00905825849622488,0.00024434609804302454
-0.2136298269033432,0.11546755582094193,9.773456573486328,-0.0003490658418741077,-0.00040142572834156454,0.00038397242315113544
-0.002288856776431203,0.06298665702342987,10.645866394042969,0.04450589418411255,0.17563247680664062,-0.00251327408477664
-0.4744158387184143,0.1453855037689209,8.782535552978516,0.011798425577580929,0.06728244572877884,-0.0007504915702156723
-0.19719602167606354,0.10685800760984421,9.925077438354492,-0.04660028964281082,-0.20577432215213776,0.002146754879504442
-0.15837164223194122,0.11062169075012207,10.040718078613281,-0.012845623306930065,-0.05630432069301605,0.0019373154500499368
-0.13098198175430298,0.10976935178041458,10.045841217041016,0.006579891312867403,0.027209682390093803,-8.726646046852693e-05
-0.24282950162887573,0.1122114434838295,9.638365745544434,0.0021642083302140236,0.011885692365467548,0.0003490658418741077
-0.1896016150712967,0.09771215915679932,9.88072681427002,-0.007906341925263405,-0.030264008790254593,0.0007504915702156723
-0.1969374418258667,0.09830591827630997,9.809677124023438,0.0028448866214603186,0.024242622777819633,-0.0002617993741296232
-0.21305520832538605,0.1087733656167984,9.748068809509277,-0.00205948855727911,-0.013596114702522755,-0.00012217304902151227
-0.20681113004684448,0.10910855233669281,9.847860336303711,0.00041887903353199363,0.002460914198309183,0.00015707963029854
-0.20695479214191437,0.11720095574855804,9.745444297790527,0.00029670598451048136,0.002827433403581381,0.0004886921960860491
-0.190377339720726,0.10791145265102386,9.8331298828125,-0.0007853981805965304,-0.005148721393197775,0.00010471975838299841
-0.015619771555066109,0.07545565813779831,10.557021141052246,0.03392919898033142,0.1627344936132431,-0.0023561944253742695
-0.46442723274230957,0.1490917205810547,8.964982986450195,0.056409042328596115,0.29731684923171997,-0.003525565145537257
-0.2742222845554352,0.123943030834198,9.830190658569336,-0.03070034086704254,-0.14540338516235352,0.0016929693520069122
-0.23355916142463684,0.11187624931335449,10.039051055908203,-0.018011797219514847,-0.07663740962743759,0.00062831852119416
-0.2789148986339569,0.1297561526298523,9.603650093078613,-0.026947883889079094,-0.1302190124988556,0.0016406094655394554
-0.1945432424545288,0.11045888811349869,9.934375762939453,-0.03090978041291237,-0.14779448509216309,0.0017976891249418259
-0.1548282355070114,0.13030202686786652,10.079916000366211,0.005044001620262861,0.02609267272055149,-0.00027925267932005227
-0.22668300569057465,0.1279844343662262,9.385481834411621,0.0016406094655394554,0.014748032204806805,0.00010471975838299841
-0.24318385124206543,0.11337023228406906,9.701065063476562,-0.00890117883682251,-0.041608650237321854,0.0005759586347267032
-0.1810782551765442,0.10590989887714386,9.948760986328125,0.000715585018042475,0.0032463124953210354,-0.0003665191470645368
-0.237926185131073,0.10314220190048218,9.701343536376953,0.0010646508308127522,0.009738937020301819,-0.0003665191470645368
-0.2104024440050125,0.11337023228406906,9.834175109863281,-0.003490658476948738,-0.015707964077591896,0.0005585053586401045
-0.21132181584835052,0.08961975574493408,9.835399627685547,0.0018325956771150231,0.011658798903226852,0.0005410520825535059
-0.2208986133337021,0.11859916895627975,9.777728080749512,-0.0020420351065695286,-0.006440265104174614,0.0007504915702156723
-0.21241356432437897,0.10364977270364761,9.836280822753906,0.00010471975838299841,0.00022689280740451068,1.7453292457503267e-05
-0.21094831824302673,0.11036311835050583,9.785313606262207,0.00015707963029854,0.001117010717280209,0.0005235987482592463
-0.05906016379594803,0.08758947253227234,10.522199630737305,0.038781214505434036,0.1751263439655304,-0.002600540639832616
-0.42547836899757385,0.14118127524852753,9.039922714233398,0.024207716807723045,0.12913690507411957,-0.0013788101496174932
-0.2214636504650116,0.12344503402709961,9.897217750549316,-0.035761795938014984,-0.16465435922145844,0.0026703537441790104
-0.16496048867702484,0.10419565439224243,9.98825454711914,0.005323254037648439,0.02024581842124462,0.0005061454721726477
-0.25735750794410706,0.109357550740242,9.86420726776123,0.00043633230961859226,0.0049916417337954044,-0.00045378561480902135
-0.20183119177818298,0.12007399648427963,9.884930610656738,-0.0038920841179788113,-0.020559977740049362,0.0002617993741296232
-0.21189641952514648,0.09968497604131699,9.803470611572266,0.0026703537441790104,0.01877974346280098,0.0008377580670639873
-0.1435084491968155,0.09236829727888107,10.004134178161621,0.00954695139080286,0.04305727407336235,0.0002617993741296232
-0.2996678352355957,0.12055283784866333,9.555900573730469,0.04450589418411255,0.21327923238277435,-0.0036477381363511086
-0.3128646910190582,0.1343434453010559,9.542895317077637,-0.04450589418411255,-0.20631536841392517,0.0029321531765162945
-0.15847699344158173,0.10100657492876053,10.043111801147461,-0.024905849248170853,-0.11149163544178009,0.002600540639832616
-0.18631677329540253,0.10964486002922058,9.950101852416992,0.01286307629197836,0.06778858602046967,-0.00017453292093705386
-0.19755993783473969,0.11744038015604019,9.491898536682129,-0.006684611085802317,-0.0253421813249588,0.00022689280740451068
-0.16082331538200378,0.10448295623064041,9.960894584655762,0.0047996556386351585,0.027314402163028717,5.2359879191499203e-05
-0.20909999310970306,0.11357134580612183,9.972606658935547,0.0486772321164608,0.22193606197834015,-0.002478367416188121
-0.36067211627960205,0.1414685845375061,9.202391624450684,-0.04007275775074959,-0.176854208111763,0.0019024088978767395
-0.1193365827202797,0.09869856387376785,10.165971755981445,-0.0286583062261343,-0.12238248437643051,0.0014660765882581472
-0.08587522059679031,0.07289864867925644,10.280203819274902,0.006719517521560192,0.03769911080598831,-0.00020943951676599681
-0.1917468160390854,0.10890743881464005,9.905588150024414,0.00921533815562725,0.04858996719121933,8.726646046852693e-05
-0.2646167278289795,0.1180245652794838,9.554616928100586,-0.012758356519043446,-0.055920347571372986,0.0005759586347267032
-0.15131354331970215,0.10998962074518204,10.059516906738281,-0.00013962633966002613,-0.004136430099606514,0.0008726646192371845
-0.2293836623430252,0.09831549227237701,9.676970481872559,0.005742133129388094,0.029880037531256676,0.00045378561480902135
-0.20316237211227417,0.1052107959985733,9.801172256469727,-0.007714355364441872,-0.033021628856658936,0.00013962633966002613
-0.196956604719162,0.10249098390340805,9.853825569152832,0.0031066860537976027,0.021711895242333412,6.981316983001307e-05
-0.2236279994249344,0.11023861914873123,9.748269081115723,-0.0010122909443452954,-0.007941247895359993,0.0005410520825535059
-0.16913597285747528,0.10904151946306229,9.86064338684082,-5.2359879191499203e-05,-0.001343903481028974,-0.00047123889089562
-0.2045414298772812,0.10097784548997879,9.778120040893555,0.0010471974965184927,0.004293509759008884,-0.0004886921960860491
-0.1983165144920349,0.11030565947294235,9.818601608276367,-0.0023038345389068127,-0.006213372107595205,-0.00020943951676599681
-0.20530757308006287,0.10975977778434753,9.797015190124512,0.00031415926059708,0.003944444004446268,0.00020943951676599681
-0.2084391862154007,0.10411904007196426,9.776655197143555,0.00031415926059708,-0.002914699725806713,5.2359879191499203e-05
-0.22874201834201813,0.12095506489276886,9.8341064453125,0.00031415926059708,0.0013264502631500363,0.00043633230961859226
-0.20772093534469604,0.1100853905081749,9.799237251281738,-0.00031415926059708,-0.0013264502631500363,0.0005585053586401045
-0.39875906705856323,0.13051271438598633,8.705317497253418,-0.026825711131095886,-0.23668409883975983,0.002914699725806713
-0.25012701749801636,0.11121544986963272,9.574325561523438,-0.09051277488470078,-0.4533841907978058,0.007103490177541971
0.15718412399291992,0.056771308183670044,10.936598777770996,0.017505653202533722,0.11918853223323822,-0.0014137167017906904
0.02513911761343479,0.06066906824707985,10.603363037109375,0.0990648865699768,0.4671722650527954,-0.007120943162590265
-0.22099438309669495,0.10832325369119644,9.60582447052002,0.09950122237205505,0.500700056552887,-0.006562437862157822
-0.13389332592487335,0.1140023022890091,10.097468376159668,-0.05258677154779434,-0.24160592257976532,0.0033684854861348867
-0.08757031708955765,0.08961975574493408,10.30236530303955,0.0302465558052063,0.14065608382225037,-0.0017104226863011718
-0.3253624141216278,0.10645578056573868,9.306032180786133,0.007714355364441872,0.036564648151397705,0.00024434609804302454
-0.17020857334136963,0.10742303729057312,9.948013305664062,-0.020804325118660927,-0.09787806123495102,0.0019896754529327154
-0.14259864389896393,0.09584467858076096,9.949288368225098,0.015934856608510017,0.0740368664264679,-0.0016057029133662581
-0.2501557469367981,0.1116081029176712,9.571855545043945,-0.004834562074393034,-0.01953023485839367,0.00045378561480902135
-0.15395674109458923,0.11650185286998749,9.933658599853516,-0.0030717793852090836,-0.018395770341157913,0.00022689280740451068
-0.20069155097007751,0.0920809954404831,9.75522232055664,0.004974188283085823,0.031381018459796906,0.00031415926059708
-0.2112547755241394,0.12039003521203995,9.752684593200684,-0.004241149872541428,-0.02010619267821312,0.0005585053586401045
-0.1908753216266632,0.1104205772280693,9.86971378326416,0.0015358896926045418,0.009128072299063206,0.0005235987482592463
-0.20276972651481628,0.10046070069074631,9.7667818069458,0.00019198621157556772,0.0016929693520069122,0.0005934119690209627
-0.19242677092552185,0.10162907093763351,9.807138442993164,-0.0008028514566831291,-0.005550147034227848,0.00022689280740451068
-0.20597794651985168,0.1048564538359642,9.805778503417969,-0.00041887903353199363,0.005969026125967503,0.0005235987482592463
-0.2096937596797943,0.1014183834195137,9.786683082580566,0.0002617993741296232,0.00012217304902151227,0.00047123889089562
-0.19937953352928162,0.120859295129776,9.817376136779785,-0.00043633230961859226,-0.00251327408477664,0.00019198621157556772
-0.20028932392597198,0.11511321365833282,9.789623260498047,0.00043633230961859226,0.003403391921892762,-0.0003665191470645368
-0.1918521672487259,0.1154005154967308,9.796029090881348,-0.0012391837080940604,-0.002722713630646467,-3.490658491500653e-05
-0.19769401848316193,0.09706093370914459,9.822500228881836,0.0006108652451075613,0.0011868239380419254,-0.0006632251315750182
-0.1929151862859726,0.11508448421955109,9.787994384765625,0.00029670598451048136,-0.0021118484437465668,0.0003490658418741077
-0.4477444291114807,0.15171577036380768,8.936445236206055,0.01802925020456314,0.09791296720504761,-0.00031415926059708
-0.22840683162212372,0.1143566444516182,9.866438865661621,-0.049672070890665054,-0.23165754973888397,0.004834562074393034
-0.11262324452400208,0.10551725327968597,10.156777381896973,-0.008639379404485226,-0.03883357718586922,0.0012915435945615172
-0.13464032113552094,0.10583328455686569,10.081915855407715,0.01408480666577816,0.07267551124095917,-0.0006806784076616168
-0.2699510157108307,0.12084972113370895,9.34453010559082,-0.001658062799833715,-0.0034382985904812813,0.0005061454721726477
-0.17144398391246796,0.09484869241714478,9.903136253356934,-0.008813912980258465,-0.03632030263543129,0.0011519172694534063
-0.18701587617397308,0.10862971842288971,9.808469772338867,0.007958701811730862,0.039618972688913345,6.981316983001307e-05
-0.22533267736434937,0.10729853808879852,9.744104385375977,-0.005375613924115896,-0.02480112947523594,6.981316983001307e-05
-0.1905018389225006,0.1010640412569046,9.844535827636719,-0.002914699725806713,-0.01958259381353855,0.00015707963029854
-0.2055661529302597,0.11283393204212189,9.826207160949707,0.0029321531765162945,0.019634954631328583,0.00094247778179124
-0.20888930559158325,0.12102210521697998,9.762598037719727,-0.003525565145537257,-0.012793263420462608,5.2359879191499203e-05
-0.2007298618555069,0.10425311326980591,9.821627616882324,-0.0026529005263000727,-0.008203047327697277,0.00022689280740451068
-0.20026059448719025,0.1071070060133934,9.80668830871582,0.0016406094655394554,0.007749261800199747,-0.0003316125657875091
-0.2125859558582306,0.11465352773666382,9.776415824890137,-0.00022689280740451068,-0.0077841682359576225,-0.0005585053586401045
-0.19634369015693665,0.11177090555429459,9.807944297790527,0.0005410520825535059,0.004171337001025677,0.0006981316837482154
-0.20711758732795715,0.11175175756216049,9.773514747619629,0.00013962633966002613,-5.2359879191499203e-05,0.00012217304902151227
-0.2115899622440338,0.10081504285335541,9.64832592010498,0.011100294068455696,-0.0027576202992349863,0.0002617993741296232
-0.1596166342496872,0.11080364882946014,10.017626762390137,0.0012391837080940604,-0.018448129296302795,-0.0006457717972807586
-0.280849426984787,0.1193174347281456,9.375090599060059,-0.015847589820623398,-0.06553710997104645,0.0005585053586401045
-0.13124056160449982,0.09545203298330307,10.102055549621582,-0.005044001620262861,-0.02295107953250408,0.00038397242315113544
-0.2848333716392517,0.11087068915367126,10.025030136108398,0.012601276859641075,0.05878268927335739,-0.0003490658418741077
-0.2070218175649643,0.09736739099025726,9.785897254943848,-0.010541788302361965,-0.04801400750875473,0.0008028514566831291
-0.19096152484416962,0.09306740760803223,9.896461486816406,0.004188789986073971,0.023230332881212234,0.0002617993741296232
-0.22359926998615265,0.10837113857269287,9.704474449157715,-0.0005934119690209627,-0.001029744278639555,0.0006806784076616168
-0.19072209298610687,0.11249874532222748,9.865729331970215,-0.0016057029133662581,-0.01080358773469925,0.00062831852119416
-0.21676144003868103,0.12363657355308533,9.805376052856445,0.002373647876083851,0.013299409300088882,0.0005410520825535059
-0.19177554547786713,0.10127472877502441,9.795100212097168,-0.0020420351065695286,-0.010978121310472488,0.0005410520825535059
-0.18923769891262054,0.10797849297523499,9.83210563659668,0.0003665191470645368,0.006510077975690365,0.00029670598451048136
-0.20455101132392883,0.1076049953699112,9.782315254211426,-0.0005410520825535059,-0.00094247778179124,0.00020943951676599681
-0.20385190844535828,0.12241073697805405,9.82339096069336,0.00012217304902151227,0.0032114058267325163,0.0003665191470645368
-0.14211022853851318,0.116109199821949,10.157975196838379,0.04155628755688667,0.18591247498989105,-0.0036128314677625895
-0.3610551655292511,0.1332133710384369,9.21998405456543,-0.003263765713199973,-0.0023561944253742695,0.0006457717972807586
-0.27419355511665344,0.12935392558574677,9.613112449645996,-0.02569124661386013,-0.110008105635643,0.002460914198309183
-0.2068973183631897,0.11223059147596359,9.841365814208984,-0.015498523600399494,-0.07321656495332718,0.0005759586347267032
-0.17517894506454468,0.11841721087694168,9.938436508178711,0.0066147977486252785,0.03206169977784157,-0.00024434609804302454
-0.2178819179534912,0.12517844140529633,9.705270767211914,-0.002024581888690591,-0.007731808349490166,0.00017453292093705386
-0.1697680503129959,0.10777737945318222,9.906420707702637,-0.0017802357906475663,-0.008848818950355053,0.0005759586347267032
-0.19852720201015472,0.11822567880153656,9.80820083618164,0.00012217304902151227,-0.002548180753365159,-3.490658491500653e-05
-0.2040434330701828,0.12659581005573273,9.802475929260254,0.0005410520825535059,0.003752457909286022,0.00022689280740451068
-0.1940835565328598,0.10289321094751358,9.805960655212402,-0.00062831852119416,-0.0020769417751580477,0.00022689280740451068
-0.1941889077425003,0.11948023736476898,9.80561637878418,0.00012217304902151227,0.0024085543118417263,-0.00062831852119416
-0.20776881277561188,0.0824754536151886,9.800942420959473,-0.00024434609804302454,-0.00041887903353199363,0.0002617993741296232
-0.1978759765625,0.1164635419845581,9.81361198425293,5.2359879191499203e-05,0.0005934119690209627,-0.00038397242315113544
-0.21499930322170258,0.10242394357919693,9.813315391540527,0.00015707963029854,0.000715585018042475,0.00020943951676599681
-0.19875703752040863,0.1099608913064003,9.788483619689941,-0.0003490658418741077,-0.0012740903766825795,0.0005759586347267032
-0.21401289105415344,0.10998004674911499,9.805041313171387,-3.490658491500653e-05,0.002460914198309183,-0.0008028514566831291
-0.19235016405582428,0.12567642331123352,9.804840087890625,-0.00013962633966002613,0.00013962633966002613,6.981316983001307e-05
-0.20069155097007751,0.10993216186761856,9.79419994354248,-8.726646046852693e-05,-0.0003316125657875091,0.00038397242315113544
-0.2016875445842743,0.1098555475473404,9.79552173614502,0.00020943951676599681,0.00010471975838299841,0.00040142572834156454
-0.200959712266922,0.09207141399383545,9.813642501831055,0.00013962633966002613,0.0005410520825535059,-8.726646046852693e-05
-0.21266256272792816,0.11744038015604019,9.800836563110352,-0.00015707963029854,-0.0006457717972807586,8.726646046852693e-05
-0.20194610953330994,0.10704953968524933,9.807138442993164,-0.0003665191470645368,-0.0005585053586401045,0.00040142572834156454
-0.18850985169410706,0.09809523075819016,9.791614532470703,0.0,-0.00015707963029854,-0.0005410520825535059
-0.21482692658901215,0.11133994907140732,9.793692588806152,-0.0003490658418741077,-0.0006457717972807586,0.0005061454721726477
-0.20872649550437927,0.09820057451725006,9.81197452545166,-0.00031415926059708,-0.00019198621157556772,0.0005410520825535059
-0.1994561403989792,0.10950120538473129,9.824654579162598,0.0010646508308127522,-0.0006457717972807586,-0.00020943951676599681
-0.21305520832538605,0.10828495025634766,9.816170692443848,0.0003490658418741077,-0.00027925267932005227,0.0007330382941290736
-0.19688956439495087,0.09459969401359558,9.800206184387207,-0.0004886921960860491,-0.0006981316837482154,0.0008203047327697277
-0.3382336497306824,0.12337799370288849,9.391888618469238,-0.02555162087082863,-0.11067132651805878,0.0005759586347267032
-0.2152099907398224,0.1163581982254982,9.540701866149902,-0.05089380219578743,-0.24982643127441406,0.004153883550316095
0.0326952189207077,0.07602068781852722,10.699438095092773,0.009424777701497078,0.05441936478018761,-0.00027925267932005227
-0.05769068002700806,0.09682150930166245,10.337616920471191,0.001972222002223134,0.01408480666577816,-0.00047123889089562
-0.2664267420768738,0.12427821755409241,9.490882873535156,0.021153390407562256,0.10402162373065948,-0.0005235987482592463
-0.2143385112285614,0.11605174094438553,9.805347442626953,-0.020315632224082947,-0.09581857919692993,0.001483529806137085
-0.1548282355070114,0.09445603936910629,10.009812355041504,0.008621926419436932,0.04092797264456749,0.0003316125657875091
-0.21184852719306946,0.10995131731033325,9.774385452270508,-0.0026354470755904913,-0.015254177153110504,8.726646046852693e-05
-0.19258958101272583,0.1129201278090477,9.837306022644043,-0.0022165682166814804,-0.014992378652095795,-0.00024434609804302454
-0.20231004059314728,0.11787133663892746,9.800348281860352,0.0024085543118417263,0.014451325871050358,0.00062831852119416
-0.2053554654121399,0.11721053719520569,9.790771484375,-0.0008377580670639873,-0.0045553091913461685,0.00045378561480902135
-0.19990625977516174,0.10136091709136963,9.844143867492676,0.0004886921960860491,0.00045378561480902135,-0.0008377580670639873
-0.20040425658226013,0.12781205773353577,9.790292739868164,0.00031415926059708,0.0019373154500499368,-0.00029670598451048136
-0.20178331434726715,0.10336247086524963,9.80118179321289,-0.00043633230961859226,-0.0028972465079277754,0.00012217304902151227
-0.20146727561950684,0.110439732670784,9.809292793273926,0.00015707963029854,-0.0005585053586401045,5.2359879191499203e-05
-0.21830330789089203,0.10254844278097153,9.829566955566406,0.00013962633966002613,-0.00031415926059708,-0.0005235987482592463
-0.21143673360347748,0.09777919203042984,9.807494163513184,1.7453292457503267e-05,-0.0009948377264663577,-0.00019198621157556772
-0.18094417452812195,0.11058337986469269,9.81796932220459,0.0008203047327697277,0.00020943951676599681,0.0005585053586401045
-0.2040625959634781,0.10466491430997849,9.810988426208496,0.00013962633966002613,0.00041887903353199363,0.0005410520825535059
-0.20407216250896454,0.11403103172779083,9.818764686584473,0.0006108652451075613,0.0006981316837482154,0.00012217304902151227
-0.2053554654121399,0.09978074580430984,9.813228607177734,0.00010471975838299841,-0.00062831852119416,5.2359879191499203e-05
-0.21316055953502655,0.10204087197780609,9.809782981872559,0.0016929693520069122,0.0006981316837482154,0.0009773843921720982
-0.19642987847328186,0.1065228208899498,9.8207368850708,0.00013962633966002613,-0.0004886921960860491,0.0
-0.19088490307331085,0.09258856624364853,9.806957244873047,-0.0007679448463022709,-0.0003665191470645368,-0.0003490658418741077
-0.18500474095344543,0.09910079091787338,9.802359580993652,-0.0005759586347267032,0.00010471975838299841,0.00094247778179124
-0.19334614276885986,0.0988326445221901,9.8153076171875,0.0007853981805965304,-0.0006457717972807586,-0.00015707963029854
-0.20183119177818298,0.11796709895133972,9.824922561645508,0.00015707963029854,0.0016057029133662581,0.0005759586347267032
-0.2048766165971756,0.10686758160591125,9.808259010314941,0.00012217304902151227,0.00027925267932005227,0.0006806784076616168
-0.2075868546962738,0.10178229957818985,9.824807167053223,0.00040142572834156454,0.0,0.0002617993741296232
-0.19640114903450012,0.11181879043579102,9.792131423950195,-0.0007330382941290736,-0.00017453292093705386,0.0008377580670639873
-0.25437912344932556,0.12238200753927231,9.702042579650879,-0.03296926990151405,-0.16346754133701324,0.002548180753365159
-0.06070737540721893,0.10684842616319656,10.38892936706543,0.018413223326206207,0.08161159604787827,-1.7453292457503267e-05
-0.2693859934806824,0.111981600522995,9.376383781433105,0.026389379054307938,0.13206906616687775,-0.0017976891249418259
-0.22905805706977844,0.09948386251926422,9.76771068572998,-0.02537708729505539,-0.11576768755912781,0.0013264502631500363
-0.2639272212982178,0.10329543054103851,9.559367179870605,0.0027925267349928617,0.0119555052369833,0.0007679448463022709
-0.190329447388649,0.09758765995502472,9.9126558303833,-0.006981316953897476,-0.034435346722602844,0.0012042771559208632
-0.19594146311283112,0.09826760739088058,9.842276573181152,0.006422811653465033,0.034260813146829605,0.00019198621157556772
-0.22792799770832062,0.11484505981206894,9.736988067626953,-0.0036128314677625895,-0.016720253974199295,0.00038397242315113544
-0.20347841084003448,0.10857225209474564,9.882192611694336,0.00125663704238832,0.0019896754529327154,-0.0005934119690209627
-0.2091287225484848,0.11199117451906204,9.779145240783691,0.0005410520825535059,0.005445427261292934,0.00038397242315113544
-0.19630537927150726,0.1007288470864296,9.829873085021973,-0.0018325956771150231,-0.007382742594927549,0.0005759586347267032
-0.19532854855060577,0.10352528095245361,9.826224327087402,0.0010821041651070118,0.007906341925263405,-0.00027925267932005227
-0.19815370440483093,0.1051054522395134,9.789105415344238,-0.00038397242315113544,-0.0019024088978767395,-0.0003316125657875091
-0.19297264516353607,0.11017157882452011,9.810423851013184,0.00010471975838299841,0.0013613568153232336,0.0005759586347267032
-0.20570021867752075,0.1184842512011528,9.839488983154297,3.490658491500653e-05,0.003926991019397974,-0.0006108652451075613
-0.1854165494441986,0.11416511237621307,9.826197624206543,-0.00015707963029854,-0.0007853981805965304,-0.00031415926059708
-0.189706951379776,0.08836518973112106,9.811199188232422,-0.00031415926059708,0.0008552113431505859,-6.981316983001307e-05
-0.1907508373260498,0.100604347884655,9.81277847290039,5.2359879191499203e-05,-0.00020943951676599681,-0.00047123889089562
-0.19267576932907104,0.09142976999282837,9.80620002746582,0.00010471975838299841,0.00038397242315113544,0.0005235987482592463
-0.19806751608848572,0.10978850722312927,9.808402061462402,8.726646046852693e-05,0.00019198621157556772,0.0005759586347267032
-0.19488801062107086,0.1074804961681366,9.830562591552734,0.00045378561480902135,0.00125663704238832,0.0005061454721726477
-0.2003755271434784,0.10135134309530258,9.823744773864746,-0.00029670598451048136,0.0004886921960860491,-0.0007853981805965304
-0.20066282153129578,0.11088026314973831,9.826311111450195,0.0005934119690209627,0.0008028514566831291,0.00017453292093705386
-0.1959989219903946,0.08853757381439209,9.805721282958984,-0.00029670598451048136,-0.0005061454721726477,-8.726646046852693e-05
-0.19653521478176117,0.10176314413547516,9.813584327697754,0.0005410520825535059,-0.00024434609804302454,0.0002617993741296232
-0.20395724475383759,0.10398496687412262,9.808899879455566,-0.00031415926059708,-6.981316983001307e-05,0.0008028514566831291
-0.19123925268650055,0.09795157611370087,9.811602592468262,-0.00012217304902151227,0.00043633230961859226,0.0005759586347267032
-0.20387105643749237,0.10718362033367157,9.821292877197266,-0.0002617993741296232,-0.00010471975838299841,0.00027925267932005227
-0.20811358094215393,0.1112729161977768,9.813535690307617,0.00019198621157556772,0.001029744278639555,0.0005759586347267032
-0.18907488882541656,0.11744038015604019,9.819501876831055,8.726646046852693e-05,3.490658491500653e-05,0.0
-0.20918618142604828,0.10380300134420395,9.820526123046875,0.0007504915702156723,-0.0005934119690209627,-0.00020943951676599681
-0.19724389910697937,0.1010640412569046,9.806371688842773,-0.00047123889089562,0.00013962633966002613,-0.00017453292093705386
-0.20563319325447083,0.11171344667673111,9.816637992858887,-0.00017453292093705386,-0.0005585053586401045,-0.0009773843921720982
-0.20073944330215454,0.11224974691867828,9.814493179321289,-8.726646046852693e-05,0.0004886921960860491,0.00022689280740451068
-0.203669935464859,0.09818141907453537,9.816112518310547,0.00017453292093705386,0.0008552113431505859,0.00013962633966002613
-0.1984793096780777,0.11049719154834747,9.825209617614746,0.00013962633966002613,0.0005934119690209627,0.0012217304902151227
-0.2052501142024994,0.09726204723119736,9.826014518737793,0.00013962633966002613,-8.726646046852693e-05,0.0005759586347267032
-0.19163189828395844,0.10792103409767151,9.807520866394043,0.00019198621157556772,0.0010646508308127522,0.0005410520825535059
-0.20030848681926727,0.10695377737283707,9.814244270324707,0.0012391837080940604,-0.00040142572834156454,0.00012217304902151227
-0.19960936903953552,0.10373596847057343,9.806400299072266,0.00045378561480902135,-0.00012217304902151227,0.0005585053586401045
-0.19746416807174683,0.10022127628326416,9.818525314331055,6.981316983001307e-05,0.0006632251315750182,0.00041887903353199363
-0.19825904071331024,0.11242213100194931,9.810403823852539,-0.00015707963029854,-0.0002617993741296232,0.0005061454721726477
-0.21391712129116058,0.11411722749471664,9.824118614196777,0.0008901178953237832,0.0012391837080940604,-0.0006806784076616168
-0.20387105643749237,0.11656888574361801,9.80805778503418,0.0009599310578778386,-0.0005934119690209627,0.00041887903353199363
-0.19157443940639496,0.11480675637722015,9.805596351623535,-0.0003490658418741077,-0.00013962633966002613,0.00043633230961859226
-0.18823212385177612,0.10952993482351303,9.800847053527832,-0.0003490658418741077,0.0005585053586401045,-0.0006457717972807586
-0.20128531754016876,0.1050862967967987,9.813755989074707,-0.00015707963029854,0.00012217304902151227,-0.00041887903353199363
-0.290646493434906,0.12309069186449051,9.205591201782227,-0.007138396613299847,-0.04773475602269173,0.00040142572834156454
-0.26448267698287964,0.12695014476776123,9.661216735839844,-0.04476769641041756,-0.22423990070819855,0.0034732052590698004
0.029630638659000397,0.06999687850475311,10.710116386413574,0.005811946466565132,0.03406882658600807,0.00017453292093705386
-0.2247772216796875,0.12409625947475433,9.528319358825684,0.06265731900930405,0.3079284429550171,-0.003351032268255949
-0.43306317925453186,0.14689862728118896,8.849189758300781,0.00411897711455822,0.03249803185462952,-0.00012217304902151227
-0.12495817244052887,0.09613198041915894,10.159163475036621,-0.032445669174194336,-0.15491542220115662,0.0025656339712440968
-0.13774320483207703,0.09766427427530289,10.050389289855957,0.02670353837311268,0.12980014085769653,-0.0008726646192371845
-0.29753223061561584,0.11313081532716751,9.452021598815918,-0.008290314115583897,-0.029530970379710197,0.0005410520825535059
-0.1343434453010559,0.10722192376852036,10.023564338684082,-0.0071907564997673035,-0.03574434295296669,0.00094247778179124
-0.20741447806358337,0.10847648978233337,9.797926902770996,0.011187560856342316,0.054593898355960846,0.0
-0.2079220414161682,0.11608047038316727,9.739372253417969,-0.007661995477974415,-0.035726889967918396,0.0007679448463022709
-0.19311630725860596,0.09925401955842972,9.922922134399414,0.0008552113431505859,0.01029744278639555,-6.981316983001307e-05
-0.2135244756937027,0.11702857166528702,9.780208587646484,0.00047123889089562,0.007400196045637131,-0.00022689280740451068
-0.18997511267662048,0.10584286600351334,9.84953498840332,-0.0019547687843441963,-0.012880530208349228,0.00012217304902151227
-0.19434213638305664,0.1104205772280693,9.838310241699219,0.0016755161341279745,0.011693705804646015,0.0005585053586401045
-0.21851399540901184,0.11359050124883652,9.79623031616211,-0.0018151424592360854,-0.005427973810583353,0.0004886921960860491
-0.19088490307331085,0.10069054365158081,9.849104881286621,-3.490658491500653e-05,0.0013788101496174932,0.00027925267932005227
-0.19984880089759827,0.1143374890089035,9.803077697753906,0.0006457717972807586,0.0020769417751580477,-0.0005061454721726477
-0.18005353212356567,0.12155840545892715,9.826043128967285,5.2359879191499203e-05,-0.001029744278639555,0.00022689280740451068
-0.20124700665473938,0.10537359863519669,9.823179244995117,0.0005585053586401045,0.0033335788175463676,0.0004886921960860491
-0.2022334188222885,0.1012938842177391,9.822345733642578,-0.00047123889089562,-0.00027925267932005227,-0.0003316125657875091
-0.20598752796649933,0.10228028893470764,9.821025848388672,-0.00020943951676599681,-0.00045378561480902135,0.00043633230961859226
-0.20644721388816833,0.10949162393808365,9.817682266235352,0.0005759586347267032,0.0017802357906475663,0.0005585053586401045
-0.1913733184337616,0.09882306307554245,9.815537452697754,0.0005061454721726477,-0.00125663704238832,1.7453292457503267e-05
-0.1896016150712967,0.10192595422267914,9.835810661315918,-1.7453292457503267e-05,0.00029670598451048136,5.2359879191499203e-05
-0.19490715861320496,0.11508448421955109,9.82241439819336,0.00094247778179124,0.0002617993741296232,0.0005759586347267032
-0.19578823447227478,0.10027874261140823,9.810029983520508,0.00013962633966002613,-0.0008901178953237832,0.0004886921960860491
-0.19369091093540192,0.10749007761478424,9.804696083068848,0.00013962633966002613,-0.0013962633674964309,0.0005235987482592463
-0.19455282390117645,0.1054406389594078,9.819330215454102,0.00012217304902151227,0.0009948377264663577,-0.00019198621157556772
-0.2002510279417038,0.10182060301303864,9.827058792114258,5.2359879191499203e-05,-0.0003665191470645368,3.490658491500653e-05
-0.21274875104427338,0.10030747205018997,9.813546180725098,-0.00062831852119416,-0.00062831852119416,-0.0006632251315750182
-0.19597019255161285,0.0950210765004158,9.833255767822266,0.00013962633966002613,0.0016406094655394554,-0.00041887903353199363
-0.20453184843063354,0.09912952035665512,9.804619789123535,0.00017453292093705386,-0.0005585053586401045,-0.00017453292093705386
-0.20432116091251373,0.11129206418991089,9.815604209899902,0.00013962633966002613,-0.0005235987482592463,-0.00031415926059708
-0.21036413311958313,0.12216174602508545,9.80455207824707,0.0,0.0006108652451075613,-0.00017453292093705386
-0.20362205803394318,0.1034390851855278,9.81738567352295,-0.00062831852119416,0.00020943951676599681,6.981316983001307e-05
-0.20405301451683044,0.10626424103975296,9.81006908416748,-0.00015707963029854,-0.0005934119690209627,0.0004886921960860491
-0.19710025191307068,0.10822749137878418,9.834050178527832,-0.00019198621157556772,0.0017976891249418259,-0.00015707963029854
-0.18599115312099457,0.10916601866483688,9.817414283752441,-0.00020943951676599681,-0.00029670598451048136,-3.490658491500653e-05
-0.19480182230472565,0.09685024619102478,9.80433177947998,0.0005235987482592463,-0.0004886921960860491,0.0002617993741296232
-0.20091181993484497,0.09974244236946106,9.827298164367676,0.00010471975838299841,0.0010471974965184927,0.00017453292093705386
-0.21197302639484406,0.12258312106132507,9.81982707977295,0.0007679448463022709,0.0,6.981316983001307e-05
-0.20543207228183746,0.10807426273822784,9.802685737609863,-0.0010995573829859495,-0.00062831852119416,0.0004886921960860491
-0.18432478606700897,0.1088787093758583,9.806794166564941,0.00027925267932005227,0.0006981316837482154,0.0005585053586401045
-0.2029995620250702,0.09698431938886642,9.806937217712402,-0.00017453292093705386,-0.0004886921960860491,-0.0011868239380419254
-0.19253212213516235,0.11315954476594925,9.823592185974121,0.00013962633966002613,-0.0006108652451075613,6.981316983001307e-05
-0.20100758969783783,0.11278604716062546,9.838848114013672,0.00062831852119416,-0.00015707963029854,0.0010122909443452954
-0.20233877003192902,0.10977893322706223,9.823429107666016,0.0002617993741296232,0.00013962633966002613,0.0005061454721726477
-0.20257818698883057,0.10865844786167145,9.829626083374023,-0.00029670598451048136,0.00012217304902151227,-0.00019198621157556772
-0.1990826576948166,0.09983820468187332,9.845235824584961,-0.00010471975838299841,-0.0003316125657875091,0.00022689280740451068
-0.19428467750549316,0.09424535185098648,9.80215835571289,-0.0010122909443452954,0.0002617993741296232,-0.00010471975838299841
-0.18978357315063477,0.10774865001440048,9.82152271270752,0.00012217304902151227,-0.0010646508308127522,0.0005061454721726477
-0.19894857704639435,0.10859140753746033,9.819741249084473,0.0,0.00017453292093705386,-0.0006806784076616168
-0.20090223848819733,0.10884997993707657,9.810653686523438,-0.00022689280740451068,-0.00031415926059708,0.0009075712296180427
-0.1895633041858673,0.09884221851825714,9.818670272827148,8.726646046852693e-05,0.0007504915702156723,0.00017453292093705386
-0.1980196237564087,0.11225932836532593,9.812942504882812,0.0004886921960860491,-0.0005934119690209627,0.00019198621157556772
-0.19507955014705658,0.11803413927555084,9.819770812988281,-0.00017453292093705386,-0.0008203047327697277,-0.00013962633966002613
-0.1849377155303955,0.10701123625040054,9.815701484680176,-0.0006108652451075613,6.981316983001307e-05,0.0007679448463022709
-0.20328687131404877,0.12425906211137772,9.818582534790039,-0.0003490658418741077,0.00029670598451048136,0.0006981316837482154
-0.19429424405097961,0.10040324181318283,9.828906059265137,-0.00020943951676599681,-0.0004886921960860491,0.00045378561480902135
-0.1939399093389511,0.10190679877996445,9.814196586608887,0.00013962633966002613,-0.0005759586347267032,0.0002617993741296232
-0.19841226935386658,0.1064174696803093,9.827461242675781,0.00040142572834156454,-0.00012217304902151227,-0.0005235987482592463
-0.1983165144920349,0.09636182337999344,9.804150581359863,0.00010471975838299841,0.0008552113431505859,-0.0008028514566831291
-0.1882895976305008,0.11096645891666412,9.828437805175781,0.0003316125657875091,-0.00013962633966002613,0.00040142572834156454
-0.21915563941001892,0.11679872870445251,9.811773300170898,-0.00015707963029854,0.00041887903353199363,8.726646046852693e-05
-0.20574811100959778,0.10903193801641464,9.822221755981445,0.00012217304902151227,0.0014486232539638877,0.0005759586347267032
-0.21211668848991394,0.11168471723794937,9.822470664978027,0.00013962633966002613,-0.0014660765882581472,-0.00031415926059708
-0.19713856279850006,0.10721234977245331,9.81820011138916,0.0007853981805965304,-0.0006632251315750182,0.00040142572834156454
-0.20586302876472473,0.10052773356437683,9.814810752868652,-0.00015707963029854,0.0019024088978767395,0.0005585053586401045
-0.20267395675182343,0.10442549735307693,9.81318187713623,-0.00125663704238832,0.0010122909443452954,8.726646046852693e-05
-0.20570021867752075,0.11106222122907639,9.824357032775879,0.00015707963029854,0.0006632251315750182,0.00043633230961859226
-0.20274099707603455,0.11188583076000214,9.820795059204102,0.0006806784076616168,-0.00024434609804302454,0.0002617993741296232
-0.1853111982345581,0.11987288296222687,9.817777633666992,-0.00029670598451048136,0.0004886921960860491,-0.00017453292093705386
-0.2049628049135208,0.10554598271846771,9.819540977478027,6.981316983001307e-05,0.0006108652451075613,-0.0003490658418741077
-0.20467551052570343,0.11272858828306198,9.82038402557373,0.00024434609804302454,-0.0009599310578778386,-0.0007853981805965304
-0.19652564823627472,0.11654973030090332,9.838656425476074,-3.490658491500653e-05,0.0018325956771150231,-1.7453292457503267e-05
-0.21618682146072388,0.10898406058549881,9.821714401245117,-0.00041887903353199363,-0.00015707963029854,6.981316983001307e-05
-0.18576131761074066,0.10682927817106247,9.831990242004395,-3.490658491500653e-05,-0.0011519172694534063,0.0003665191470645368
-0.1913733184337616,0.10304643958806992,9.836817741394043,0.00038397242315113544,0.0,0.0
-0.1999158263206482,0.12296619266271591,9.838626861572266,-0.00031415926059708,-0.00043633230961859226,0.00019198621157556772
-0.20966501533985138,0.11834059655666351,9.830706596374512,-0.00024434609804302454,0.00024434609804302454,0.0005410520825535059
-0.19855593144893646,0.11049719154834747,9.806784629821777,-0.00013962633966002613,-0.0007679448463022709,-0.00017453292093705386
0.13001471757888794,0.03654509410262108,11.296821594238281,0.06887069344520569,0.24692918360233307,-0.00411897711455822
-0.7029184103012085,0.17151102423667908,7.310005187988281,0.05895722284913063,0.3006678819656372,-0.0020420351065695286
-0.1931450366973877,0.12939223647117615,10.489189147949219,-0.06845181435346603,-0.302465558052063,0.005113814491778612
-0.2589472830295563,0.12510181963443756,9.724520683288574,-0.016807520762085915,-0.07663740962743759,0.0009250245057046413
-0.210459902882576,0.10530656576156616,9.866006851196289,-0.03473205119371414,-0.15830136835575104,0.0027576202992349863
-0.147406205534935,0.11426087468862534,10.139196395874023,0.0026179938577115536,0.018081611022353172,-0.00041887903353199363
-0.20278887450695038,0.12740983068943024,9.341849327087402,0.00548033369705081,0.02361430414021015,0.0
-0.2131509780883789,0.13077129423618317,9.8727388381958,-0.010646508075296879,-0.04593706503510475,0.0012740903766825795
-0.21119731664657593,0.0934792086482048,9.875967025756836,0.0063355453312397,0.031066861003637314,5.2359879191499203e-05
-0.26208844780921936,0.11111010611057281,9.742600440979004,-0.003543018363416195,-0.016842426732182503,0.00029670598451048136
-0.2020418792963028,0.1131691187620163,9.89189338684082,0.00022689280740451068,-0.0016755161341279745,-0.0003490658418741077
-0.2253614068031311,0.1071261540055275,9.77579402923584,0.0017278759041801095,0.008133234456181526,0.0010646508308127522
-0.2211093008518219,0.09974244236946106,9.850569725036621,-0.003351032268255949,-0.01218239776790142,0.00024434609804302454
-0.20385190844535828,0.11195286363363266,9.831233024597168,0.0010821041651070118,0.006318091880530119,-0.000715585018042475
0.013484143652021885,0.06673118472099304,10.714234352111816,0.053441982716321945,0.1713913381099701,-0.002809980185702443
-0.6250781416893005,0.1661384403705597,7.963554859161377,0.014067353680729866,0.09374163299798965,-0.0017976891249418259
-0.14422670006752014,0.10420522838830948,10.36723804473877,-0.04253367334604263,-0.18125243484973907,0.001745329238474369
-0.2733699381351471,0.12691183388233185,9.562029838562012,-0.01679006777703762,-0.06473426520824432,0.0006632251315750182
-0.17389565706253052,0.11222101747989655,10.096511840820312,-0.01302015595138073,-0.06068509817123413,0.0007853981805965304
-0.162911057472229,0.11620496958494186,9.653115272521973,0.01235693134367466,0.05777039751410484,-0.0002617993741296232
-0.24233150482177734,0.12650960683822632,9.739765167236328,-0.007906341925263405,-0.03851941600441933,0.00094247778179124
-0.19505082070827484,0.1188385933637619,9.953558921813965,0.0013962633674964309,0.008185594342648983,0.0005585053586401045
-0.22557209432125092,0.12564769387245178,9.712413787841797,0.0022165682166814804,0.007260569836944342,0.001029744278639555
-0.22082200646400452,0.10160034149885178,9.85282039642334,-0.001745329238474369,-0.014433872886002064,0.0005759586347267032
-0.21220287680625916,0.11276689171791077,9.825190544128418,0.0027576202992349863,0.012688543647527695,0.00038397242315113544
-0.2268170863389969,0.10913728922605515,9.802035331726074,-0.0010995573829859495,-0.0080634206533432,0.00027925267932005227
-0.20919576287269592,0.10372638702392578,9.841577529907227,-0.00038397242315113544,0.0017976891249418259,0.0003316125657875091
-0.23070526123046875,0.09493488073348999,9.790849685668945,0.00020943951676599681,0.0005585053586401045,-0.00022689280740451068
-0.20832426846027374,0.11271901428699493,9.837238311767578,3.490658491500653e-05,-0.002722713630646467,0.0005410520825535059
-0.21989305317401886,0.10480856895446777,9.810029983520508,0.00013962633966002613,0.0015009831404313445,-0.0005235987482592463
-0.21797768771648407,0.11347557604312897,9.823688507080078,0.00045378561480902135,-0.00251327408477664,0.0005759586347267032
-0.20339220762252808,0.12276507914066315,9.831750869750977,6.981316983001307e-05,0.00047123889089562,1.7453292457503267e-05
-0.21809260547161102,0.10557471215724945,9.805118560791016,0.00013962633966002613,-0.0008552113431505859,0.0005759586347267032
-0.20443609356880188,0.11935573816299438,9.816025733947754,0.00012217304902151227,0.00041887903353199363,-3.490658491500653e-05
-0.210919588804245,0.1200452670454979,9.823898315429688,5.2359879191499203e-05,0.00017453292093705386,-0.00019198621157556772
-0.23247697949409485,0.1010831892490387,9.813209533691406,0.00013962633966002613,-0.00012217304902151227,8.726646046852693e-05
-0.2109387367963791,0.11468225717544556,9.816217422485352,0.0005934119690209627,-0.0005585053586401045,0.00041887903353199363
-0.20600667595863342,0.11420341581106186,9.84028434753418,0.00012217304902151227,-0.00020943951676599681,0.0003665191470645368
-0.2144629955291748,0.13112562894821167,9.822345733642578,-0.00022689280740451068,0.00043633230961859226,0.0005759586347267032
-0.2431551218032837,0.09019435942173004,9.630666732788086,0.03324852138757706,-0.02802998758852482,-0.0006806784076616168
-0.1570308953523636,0.10056604444980621,10.118729591369629,-0.0119555052369833,-0.03586651757359505,0.0006108652451075613
-0.2292783260345459,0.10870633274316788,9.746708869934082,0.013631021603941917,0.11976449191570282,-0.0013089969288557768
-0.24890120327472687,0.11105264723300934,9.614089012145996,-0.027314402163028717,-0.10623819380998611,0.0005759586347267032
-0.1314225196838379,0.10292194038629532,10.124197959899902,0.005410520825535059,0.028955012559890747,0.001029744278639555
-0.2675759792327881,0.1067526638507843,9.792505264282227,0.0037873645778745413,0.023439772427082062,0.00031415926059708
-0.1947730928659439,0.11767979711294174,9.932653427124023,-0.008290314115583897,-0.0380132719874382,0.00062831852119416
-0.2007298618555069,0.11360007524490356,9.844114303588867,0.004712388850748539,0.031782444566488266,0.0005759586347267032
-0.2188587635755539,0.11586020141839981,9.74587631225586,-0.00376991112716496,-0.01710422709584236,0.0008901178953237832
-0.19081786274909973,0.11687534302473068,9.888982772827148,0.00038397242315113544,0.005358160939067602,-0.00029670598451048136
-0.2071080207824707,0.1122114434838295,9.830717086791992,0.00047123889089562,0.0011693706037476659,-0.00027925267932005227
-0.22403980791568756,0.11197201907634735,9.82117748260498,6.981316983001307e-05,-0.00027925267932005227,6.981316983001307e-05
-0.20552784204483032,0.11365754157304764,9.833464622497559,-0.00027925267932005227,0.00022689280740451068,0.00047123889089562
-0.20247283577919006,0.10301771014928818,9.823179244995117,0.0006806784076616168,0.0016231562476605177,0.00020943951676599681
-0.20919576287269592,0.1034390851855278,9.828983306884766,-8.726646046852693e-05,-0.0008028514566831291,0.0005759586347267032
-0.1966884434223175,0.10950120538473129,9.819942474365234,0.00045378561480902135,0.0,-0.0003490658418741077
-0.21360109746456146,0.12776418030261993,9.81049919128418,0.0006108652451075613,0.00024434609804302454,0.0005759586347267032
-0.2087743729352951,0.11154106259346008,9.814512252807617,-0.00062831852119416,0.0009250245057046413,0.0005061454721726477
-0.20872649550437927,0.11094730347394943,9.818572998046875,0.00020943951676599681,0.0005585053586401045,0.00029670598451048136
-0.21191556751728058,0.10399454087018967,9.810154914855957,0.0,-0.0010471974965184927,0.00019198621157556772
-0.19698533415794373,0.10931924730539322,9.840503692626953,0.00013962633966002613,0.0006457717972807586,-3.490658491500653e-05
-0.19796216487884521,0.11107180267572403,9.817835807800293,-0.0006632251315750182,-0.0005759586347267032,0.0
-0.2015247344970703,0.11697111278772354,9.822690963745117,0.00038397242315113544,0.0003316125657875091,-0.00062831852119416
-0.21064186096191406,0.11917378008365631,9.816161155700684,-0.0009773843921720982,-0.0005934119690209627,0.00012217304902151227
-0.22193291783332825,0.10839029401540756,9.806947708129883,0.0007679448463022709,0.0,0.0
-0.20219510793685913,0.11786175519227982,9.817174911499023,0.002740166848525405,0.004066617228090763,-0.00062831852119416
-0.07339664548635483,0.1039179265499115,10.460104942321777,0.04813618212938309,0.15769049525260925,-0.0015882495790719986
-0.4211496412754059,0.14256033301353455,9.039653778076172,-0.009861109778285027,-0.025621432811021805,0.00024434609804302454
-0.17612704634666443,0.11111010611057281,9.9150972366333,-0.050300389528274536,-0.19277161359786987,0.0034732052590698004
-0.12019849568605423,0.10538318008184433,10.218204498291016,0.016632987186312675,0.08630653470754623,-0.0010471974965184927
-0.2385103702545166,0.12897084653377533,9.209890365600586,-0.001117010717280209,0.0011519172694534063,0.00012217304902151227
-0.2437009960412979,0.09730035066604614,9.666014671325684,-0.015865042805671692,-0.07583455741405487,0.0015358896926045418
-0.15750016272068024,0.09635224938392639,10.024876594543457,0.005270894151180983,0.028047440573573112,0.0005759586347267032
-0.2601635158061981,0.10608228296041489,9.626423835754395,0.0015882495790719986,0.006265731994062662,0.0005061454721726477
-0.20731870830059052,0.10975977778434753,9.91380500793457,-0.004136430099606514,-0.020612338557839394,0.0005061454721726477
-0.2115899622440338,0.11271901428699493,9.801948547363281,0.003979350905865431,0.023177972063422203,-0.0002617993741296232
-0.2196536362171173,0.11985373497009277,9.769989967346191,-0.002722713630646467,-0.01516691129654646,0.0005759586347267032
-0.20777839422225952,0.1101907342672348,9.850790023803711,0.0013962633674964309,0.007295476272702217,-0.00024434609804302454
-0.21831287443637848,0.12066776305437088,9.769099235534668,-0.0002617993741296232,-0.00019198621157556772,1.7453292457503267e-05
-0.1946485936641693,0.11247001588344574,9.847504615783691,5.2359879191499203e-05,-0.002199114765971899,-0.0003490658418741077
-0.21665608882904053,0.1184842512011528,9.80673599243164,0.0,0.0032463124953210354,-0.00045378561480902135
-0.21747969090938568,0.10862013697624207,9.810930252075195,-0.0005759586347267032,-0.003228859044611454,0.00062831852119416
-0.22222979366779327,0.1085243672132492,9.827718734741211,0.00013962633966002613,0.0019547687843441963,0.00024434609804302454
-0.2169433981180191,0.10731769353151321,9.813851356506348,0.00017453292093705386,-0.0012391837080940604,0.0005759586347267032
-0.20941603183746338,0.12130940705537796,9.82287311553955,-0.00022689280740451068,0.00024434609804302454,3.490658491500653e-05
-0.20326772332191467,0.12178824841976166,9.810308456420898,1.7453292457503267e-05,-0.00041887903353199363,0.0005410520825535059
-0.4122527837753296,0.1764526516199112,8.768381118774414,-0.06435029208660126,-0.3779335916042328,0.005550147034227848
0.15944424271583557,0.05701072886586189,10.959907531738281,0.1276184767484665,0.6062750220298767,-0.008325220085680485
-0.14962802827358246,0.09999143332242966,9.93392562866211,0.14871950447559357,0.7347137928009033,-0.013037609867751598
-0.5491628050804138,0.14496411383152008,8.16847038269043,-0.059917151927948,-0.2615375816822052,0.002199114765971899
-0.049397166818380356,0.08684247732162476,10.941625595092773,-0.038117989897727966,-0.16866861283779144,0.0038746309000998735
-0.13543519377708435,0.09832507371902466,10.071965217590332,0.057560957968235016,0.2580294609069824,-0.0035604715812951326
-0.3614286780357361,0.13853807747364044,9.212207794189453,-0.018727382645010948,-0.08227481693029404,0.0019896754529327154
-0.11227847635746002,0.09207141399383545,10.157965660095215,-0.01441641990095377,-0.06328564137220383,0.000715585018042475
-0.21670398116111755,0.10946289449930191,9.820402145385742,0.021851522848010063,0.10157816112041473,-0.0025307273026555777
-0.2543503940105438,0.12093590945005417,9.618111610412598,-0.011763518676161766,-0.05539675056934357,0.0010821041651070118
-0.15670529007911682,0.10822749137878418,10.011987686157227,0.0008726646192371845,0.00427605677396059,0.00062831852119416
-0.21776700019836426,0.11126333475112915,9.742658615112305,0.006021386012434959,0.027872908860445023,0.00047123889089562
-0.21615809202194214,0.11794795095920563,9.760805130004883,0.004066617228090763,0.015376350842416286,0.00047123889089562
-0.2086881846189499,0.11045888811349869,9.818266868591309,-0.0014486232539638877,-0.012322024442255497,0.0004886921960860491
-0.18371187150478363,0.10718362033367157,9.848999977111816,0.0010122909443452954,0.007627088576555252,0.0005585053586401045
-0.21026836335659027,0.10447338223457336,9.771809577941895,0.00024434609804302454,-0.0019024088978767395,-0.0005061454721726477
-0.19271408021450043,0.11415553092956543,9.8009033203125,-0.0034382985904812813,-0.00663225119933486,0.0006806784076616168
-0.20352628827095032,0.11734461039304733,9.825841903686523,8.726646046852693e-05,0.003630284918472171,0.00038397242315113544
-0.20362205803394318,0.09326852113008499,9.80053997039795,-0.00031415926059708,-0.0008028514566831291,6.981316983001307e-05
-0.19005171954631805,0.10161948949098587,9.84223747253418,0.00045378561480902135,0.00024434609804302454,6.981316983001307e-05
-0.07271669059991837,0.08514738827943802,10.317708015441895,0.028413960710167885,0.10252063721418381,-0.0009599310578778386
-0.5690059661865234,0.17427872121334076,8.296627044677734,0.06604325771331787,0.3511078953742981,-0.0038222710136324167
-0.22418345510959625,0.11166556179523468,9.492932319641113,0.014974924735724926,0.07552039623260498,-0.0008552113431505859
-0.22042934596538544,0.11063126474618912,9.762740135192871,-0.01621410809457302,-0.07435102760791779,0.0005759586347267032
-0.1696626991033554,0.11692322790622711,10.020298957824707,-0.007731808349490166,-0.031031953170895576,0.0010471974965184927
-0.20584388077259064,0.12743856012821198,9.775716781616211,0.008115780539810658,0.03933972120285034,-0.0010122909443452954
-0.22389616072177887,0.11937489360570908,9.764589309692383,-0.004869468510150909,-0.027401668950915337,0.00012217304902151227
-0.18467913568019867,0.11247958987951279,9.910730361938477,0.0014486232539638877,0.012339477427303791,0.0005061454721726477
-0.20443609356880188,0.1168370395898819,9.799400329589844,-0.001483529806137085,-0.012601276859641075,0.00047123889089562
-0.19603723287582397,0.12352164834737778,9.592857360839844,0.006719517521560192,0.01745329238474369,0.0008377580670639873
-0.24579831957817078,0.07811801135540009,10.513121604919434,0.018884463235735893,0.06841690838336945,-0.001658062799833715
-0.16058388352394104,0.11214440315961838,10.271411895751953,0.012688543647527695,0.05682792142033577,-0.00020943951676599681
-0.337026983499527,0.12703633308410645,9.127826690673828,-0.0073129297234117985,-0.01820378378033638,0.0004886921960860491
-0.15760549902915955,0.11768937110900879,9.99625301361084,-0.0371580608189106,-0.16751670837402344,0.002146754879504442
