accX,accY,accZ,gyroX,gyroY,gyroZ
-0.42900002002716064,4.065000057220459,8.836050033569336,-0.37290000915527344,-0.08291249722242355,1.0865249633789062
-0.06300000101327896,3.835050106048584,8.359950065612793,-0.3068999946117401,-0.11467500030994415,1.004712462425232
-0.208950012922287,4.624950408935547,7.881000518798828,-0.2751374840736389,0.28366249799728394,0.8764249682426453
-0.37905001640319824,4.720950126647949,8.87700080871582,-0.3251875042915344,0.2824249863624573,0.9057124853134155
0.13500000536441803,4.5169501304626465,9.337050437927246,-0.30937498807907104,0.1956624984741211,0.8727124929428101
-0.3430500030517578,4.540950298309326,9.652950286865234,-0.2531374990940094,0.04413750022649765,0.794612467288971
0.15900000929832458,4.552950382232666,8.617950439453125,-0.25066250562667847,-0.14643749594688416,0.7211874723434448
0.05400000140070915,4.7470502853393555,8.356950759887695,-0.2591874897480011,-0.03891250118613243,0.6028000116348267
-0.20400001108646393,4.942950248718262,7.452000141143799,-0.21518750488758087,0.24818749725818634,0.5000874996185303
-0.5560500025749207,5.122950077056885,8.28600025177002,-0.1480875015258789,0.6513375043869019,0.45374998450279236
-0.9460500478744507,5.224050045013428,8.365050315856934,0.009487500414252281,0.9409124851226807,0.47079998254776
-1.3699500560760498,5.0370001792907715,7.3999505043029785,0.07315000146627426,1.2084875106811523,0.4890874922275543
-1.7890501022338867,5.359950065612793,7.2900004386901855,-0.11137499660253525,1.2817749977111816,0.4390375018119812
-2.332050085067749,5.688000202178955,7.584000587463379,-0.31542500853538513,0.9861499667167664,0.3852750062942505
-2.0119500160217285,5.2669501304626465,7.627050399780273,-0.43642500042915344,0.7870500087738037,0.4170374870300293
-2.3080501556396484,5.845950126647949,8.050950050354004,-0.5695250034332275,0.3166624903678894,0.4427500069141388
-2.1379501819610596,6.1050004959106445,8.677950859069824,-0.7821000218391418,-0.17820000648498535,0.5318499803543091
-1.225950002670288,5.439000129699707,8.949000358581543,-0.9054374694824219,-0.6546375155448914,0.6173750162124634
0.15195000171661377,4.4670000076293945,8.707050323486328,-0.8810999989509583,-0.8989750146865845,0.6296125054359436
0.5209500193595886,4.275000095367432,8.830950736999512,-0.8321499824523926,-0.909974992275238,0.6028000116348267
0.8250000476837158,4.218000411987305,9.1399507522583,-0.6610999703407288,-0.8036875128746033,0.49527499079704285
1.071000099182129,4.278000354766846,8.913000106811523,-0.4339500069618225,-0.4591124951839447,0.38651248812675476
1.0780500173568726,4.183950424194336,8.700000762939453,-0.1578499972820282,0.07590000331401825,0.27527499198913574
1.324950098991394,3.982950210571289,9.26205062866211,0.17572499811649323,0.6428124904632568,0.16046249866485596
1.215000033378601,3.8869502544403076,9.688950538635254,0.42858749628067017,1.1265374422073364,-0.03382499888539314
0.013050000183284283,4.4760003089904785,8.848050117492676,0.5641624927520752,1.2647249698638916,-0.20363749563694
-0.8119500279426575,5.379000186920166,8.166000366210938,0.36258751153945923,1.4210624694824219,-0.1999250054359436
-1.7389501333236694,4.9960503578186035,8.81505012512207,0.2087250053882599,1.2340625524520874,-0.13516250252723694
-2.0880000591278076,5.377050399780273,10.090950012207031,0.1317249983549118,0.9983875155448914,-0.04235000163316727
-1.91100013256073,4.5769500732421875,9.925950050354004,0.11096250265836716,0.694100022315979,0.08112499862909317
-2.6269500255584717,5.508000373840332,10.069050788879395,-0.07713750004768372,0.5230500102043152,0.008937500417232513
-2.980950117111206,4.88100004196167,11.391000747680664,-0.2994749844074249,0.023375000804662704,-0.05816249921917915
-2.1289501190185547,3.741000175476074,10.254000663757324,-0.30195000767707825,-0.6351125240325928,-0.12787500023841858
-1.8850500583648682,3.655050277709961,8.793000221252441,-0.19208750128746033,-0.7841625213623047,-0.24639999866485596
-2.0500500202178955,3.6289501190185547,8.464950561523438,0.05596249923110008,-0.7121124863624573,-0.2829749882221222
-1.894050121307373,3.327000141143799,8.11305046081543,0.36629998683929443,-0.42858749628067017,-0.259737491607666
-1.7740501165390015,3.3319501876831055,7.4599504470825195,0.6643999814987183,-0.195250004529953,-0.23539999127388
-1.8030000925064087,3.412950277328491,6.2820000648498535,0.7511624693870544,0.29823750257492065,-0.2451625019311905
-2.146050214767456,3.5520002841949463,5.920050144195557,0.7022125124931335,0.5609999895095825,-0.25244998931884766
-4.06095027923584,4.009950160980225,3.5400002002716064,0.4811125099658966,1.1779625415802002,-0.20473749935626984
-3.949050188064575,4.60605001449585,9.190950393676758,0.03148749843239784,1.263487458229065,-0.04235000163316727
-4.53000020980835,4.282950401306152,10.900050163269043,-0.12484999746084213,0.895675003528595,-0.04468749836087227
-5.57895040512085,3.8490002155303955,9.982950210571289,0.1451999992132187,0.42899999022483826,-0.010587500408291817
-5.064000129699707,3.6910502910614014,9.787050247192383,0.4433000087738037,0.46447500586509705,0.023649999871850014
-5.158050060272217,4.012050151824951,10.267950057983398,0.5751624703407288,0.018562499433755875,-0.09844999760389328
-5.28000020980835,4.13700008392334,10.191000938415527,0.5630624890327454,-0.37248748540878296,-0.17668749392032623
-5.272950172424316,4.660950183868408,8.965950012207031,0.3492499887943268,-1.2313125133514404,-0.2634499967098236
-4.699950218200684,4.60605001449585,6.994950294494629,-0.02461249940097332,-2.0376124382019043,-0.2316875010728836
-3.015000104904175,3.5280001163482666,4.351950168609619,-0.4437125027179718,-2.3504250049591064,-0.24392500519752502
-2.2800002098083496,3.1690502166748047,4.105050086975098,-0.8383374810218811,-2.0107998847961426,-0.3562625050544739
-2.11395001411438,3.337050199508667,5.731050491333008,-0.995912492275238,-1.4206500053405762,-0.445499986410141
-2.671950101852417,3.741000175476074,8.994000434875488,-0.8138625025749207,-1.1175999641418457,-0.521262526512146
-2.4760501384735107,3.9760501384735107,8.733000755310059,-0.47795000672340393,-0.9979749917984009,-0.5407875180244446
-1.8750001192092896,3.564000129699707,7.215000152587891,-0.2433750033378601,-0.30524998903274536,-0.49802500009536743
-2.1379501819610596,3.4680001735687256,8.40000057220459,-0.0966624990105629,0.5207124948501587,-0.5028374791145325
-3.970050096511841,4.394999980926514,9.034950256347656,0.037675000727176666,0.729574978351593,-0.33192500472068787
-3.970050096511841,4.381050109863281,8.116050720214844,0.05115000158548355,0.7723374962806702,-0.16568750143051147
-4.223999977111816,4.716000080108643,8.302050590515137,0.08291249722242355,0.9176750183105469,-0.0728750005364418
-4.734000205993652,5.050950050354004,8.925000190734863,0.09501250088214874,0.829675018787384,0.060362499207258224
-4.198050022125244,5.014950275421143,8.950950622558594,-0.005087499972432852,0.41442498564720154,0.19841249287128448
-3.44100022315979,4.540950298309326,8.317049980163574,-0.1639000028371811,-0.022962499409914017,0.24598750472068787
-2.743950128555298,3.6529502868652344,8.958000183105469,-0.22618749737739563,-0.16843749582767487,0.23498749732971191
-3.015000104904175,3.8080501556396484,9.327000617980957,-0.16637499630451202,-0.227012500166893,0.20446249842643738
-3.510000228881836,4.432950019836426,8.59005069732666,0.049912501126527786,-0.23925000429153442,0.2204124927520752
-3.091050148010254,4.01894998550415,7.819050312042236,0.17943750321865082,-0.13791249692440033,0.27898749709129333
-2.3899500370025635,3.8080501556396484,7.717950344085693,0.19648750126361847,-0.10848750174045563,0.25093749165534973
-2.8470001220703125,4.552950382232666,8.443950653076172,0.17943750321865082,-0.1732500046491623,0.1909874975681305
-3.1660501956939697,5.331000328063965,8.191950798034668,0.10243749618530273,-0.44206249713897705,0.2619374990463257
-3.0270001888275146,5.383950233459473,7.500000476837158,0.03396249935030937,-0.5605875253677368,0.30346250534057617
-3.3550500869750977,5.314050197601318,7.012050151824951,-0.1163249984383583,-0.6058250069618225,0.3535124957561493
-2.8999500274658203,5.353050231933594,7.888050556182861,-0.23594999313354492,-0.7584499716758728,0.3497999906539917
-2.6890501976013184,5.722050189971924,8.788050651550293,-0.3386625051498413,-1.106737494468689,0.335224986076355
-2.533050060272217,5.63100004196167,8.527050018310547,-0.41676250100135803,-1.456125020980835,0.34127500653266907
-2.9740500450134277,5.353050231933594,7.668000221252441,-0.4937624931335449,-1.523224949836731,0.3022249937057495
-3.0840001106262207,5.542050361633301,8.35004997253418,-0.5022875070571899,-1.4231250286102295,0.29493749141693115
-2.682000160217285,5.650050163269043,8.343000411987305,-0.4449499845504761,-1.3729374408721924,0.31322500109672546
-2.524050235748291,7.062000274658203,8.446050643920898,-0.21642500162124634,-1.040737509727478,0.4890874922275543
-2.3419501781463623,6.892050266265869,8.070000648498535,-0.12361250072717667,-0.9037874937057495,0.6565625071525574
-0.8809500336647034,4.941000461578369,8.105999946594238,0.08648750185966492,-0.4811125099658966,0.9729499816894531
-0.010050000622868538,3.744000196456909,8.767050743103027,0.11701250076293945,-0.37482500076293945,0.9447624683380127
1.8300000429153442,2.202000141143799,10.22700023651123,-0.01484999991953373,-0.7132124900817871,0.6223250031471252
2.4600000381469727,1.6200001239776611,10.648950576782227,-0.10766249895095825,-1.0760749578475952,0.38046249747276306
1.8300000429153442,1.8259501457214355,10.479000091552734,-0.3104749917984009,-1.2666499614715576,-0.18768750131130219
1.2439500093460083,4.716000080108643,8.245050430297852,-0.09913749992847443,-1.2826000452041626,-0.3746874928474426
-0.13905000686645508,4.471950054168701,8.932050704956055,0.37482500076293945,-0.4848249852657318,-0.27568748593330383
0.06599999964237213,3.9379501342773438,8.824049949645996,0.525112509727478,-0.3712500035762787,-0.20239999890327454
0.9250500202178955,3.1810500621795654,7.900050163269043,0.525112509727478,-0.32477501034736633,-0.20473749935626984
0.7240500450134277,3.567000150680542,7.195950508117676,0.04372499883174896,-0.306487500667572,-0.28421249985694885
0.7600500583648682,3.664950132369995,7.402050495147705,-0.28737500309944153,-0.28325000405311584,-0.24268749356269836
0.9199500679969788,3.547950267791748,8.57805061340332,-0.5915250182151794,-0.21972499787807465,-0.19139999151229858
0.38895002007484436,4.174950122833252,12.945000648498535,-0.7601000070571899,-0.18672500550746918,-0.010587500408291817
1.0380001068115234,2.590050220489502,13.4170503616333,-0.4717625081539154,-0.29782500863075256,0.06517499685287476
1.0090500116348267,2.073000192642212,11.647050857543945,-0.36918750405311584,-0.6534000039100647,-0.10092499852180481
1.8330000638961792,2.401050090789795,9.073050498962402,-0.10161250084638596,-0.5935875177383423,-0.227974995970726
2.199000120162964,2.665950059890747,8.29995059967041,0.12925000488758087,-0.2722499966621399,-0.27568748593330383
1.864050030708313,2.82705020904541,7.4160003662109375,0.6056874990463257,0.5744749903678894,-0.2891624867916107
1.228950023651123,2.7120001316070557,7.195950508117676,0.7731624841690063,1.0704375505447388,-0.24639999866485596
1.3200000524520874,2.449050188064575,6.475050449371338,0.3797749876976013,0.9849125146865845,-0.2574000060558319
0.8059500455856323,3.892050266265869,7.254000186920166,-0.3764750063419342,0.408237487077713,-0.1999250054359436
1.6939500570297241,3.547950267791748,7.725000381469727,-0.619575023651123,0.25189998745918274,-0.11935000121593475
1.4710500240325928,2.089050054550171,9.10004997253418,-0.9201499819755554,0.27390000224113464,-0.1999250054359436
-0.5130000114440918,3.4039502143859863,10.75200080871582,-0.9714375138282776,0.2666124999523163,-0.25850000977516174
0.10200000554323196,3.5239500999450684,10.563000679016113,-0.7943375110626221,-0.03148749843239784,0.02736249938607216
1.5019500255584717,2.845950126647949,10.01400089263916,-0.5022875070571899,-0.14024999737739563,0.08470000326633453
-0.15105000138282776,2.1949501037597656,9.772050857543945,0.7499250173568726,0.8285750150680542,-0.1046374961733818
1.6960500478744507,3.175950050354004,8.082000732421875,0.9954999685287476,0.8003875017166138,-0.15468749403953552
0.24795001745224,4.948050022125244,6.757950305938721,1.0505000352859497,1.109487533569336,-0.2609750032424927
-1.546950101852417,4.831050395965576,5.845950126647949,0.9735000133514404,1.5859249830245972,0.09569999575614929
-1.1350500583648682,4.096050262451172,6.7510504722595215,0.6424000263214111,2.299412488937378,0.9252374768257141
-0.11805000901222229,3.7849502563476562,5.707050323486328,0.08291249722242355,2.063737392425537,1.4738625288009644
0.13500000536441803,3.90405011177063,8.235000610351562,-0.5084750056266785,1.4357750415802002,1.2953875064849854
-1.9300501346588135,5.367000102996826,9.555000305175781,-0.5964750051498413,0.9446250200271606,0.32670000195503235
-1.7290500402450562,4.074000358581543,9.648000717163086,-0.26413750648498535,0.5304750204086304,0.09446249902248383
-2.1289501190185547,3.5380501747131348,9.406050682067871,-0.03437500074505806,0.3679499924182892,0.35475000739097595
-2.056950092315674,4.4239501953125,10.195950508117676,0.015675000846385956,0.002612499985843897,0.6663249731063843
-1.7149500846862793,4.170000076293945,10.677000045776367,0.3198249936103821,-0.09748750180006027,0.6418499946594238
-1.3789501190185547,4.342050075531006,8.27400016784668,0.4652999937534332,0.2274249941110611,0.6956124901771545
-2.572050094604492,4.699050426483154,7.845000267028809,0.32106250524520874,1.1279125213623047,0.6296125054359436
-3.4429502487182617,5.287950038909912,8.331000328063965,0.2685374915599823,1.2280124425888062,0.5587999820709229
-3.0769500732421875,5.233050346374512,7.890000343322754,0.15001249313354492,0.4449499845504761,0.74566251039505
-1.492050051689148,4.033950328826904,8.06505012512207,0.03519999980926514,-0.3260124921798706,1.096287488937378
-0.8100000619888306,5.010000228881836,8.599050521850586,-0.01979999989271164,-0.10491249710321426,1.0449999570846558
-0.4429500102996826,5.0370001792907715,8.934000015258789,0.004674999974668026,0.3619000017642975,0.9069499969482422
-0.8460000157356262,4.44795036315918,7.9170002937316895,0.013199999928474426,1.3220624923706055,0.5208500027656555
-2.263050079345703,4.759050369262695,7.771050453186035,-0.21518750488758087,1.0631500482559204,0.4988499879837036
-2.4310500621795654,4.615050315856934,7.432950496673584,-0.5524749755859375,0.5842375159263611,0.6137999892234802
-1.5949500799179077,4.669950008392334,9.526050567626953,-0.9079124927520752,1.0459624528884888,0.6663249731063843
-0.7930500507354736,4.627050399780273,11.199000358581543,-0.9361000061035156,1.7203999757766724,0.46584999561309814
-1.7820000648498535,4.855050086975098,12.109050750732422,-0.8566250205039978,1.7582124471664429,0.3339875042438507
-3.8809502124786377,4.558050155639648,11.443950653076172,-0.4815250039100647,1.0544874668121338,0.31679999828338623
-4.818000316619873,4.5199503898620605,9.868050575256348,-0.28971248865127563,0.4339500069618225,0.7016624808311462
-3.520050048828125,4.303950309753418,9.624000549316406,-0.17132499814033508,0.13942499458789825,1.0352375507354736
-1.897050142288208,4.065000057220459,9.612000465393066,-0.033137500286102295,0.24461250007152557,0.9692375063896179
-1.5490500926971436,3.436950206756592,9.451950073242188,0.07919999957084656,0.5732374787330627,0.6723750233650208
-2.662950038909912,3.5689501762390137,9.307950019836426,0.1256749927997589,0.8443874716758728,0.5135625004768372
-3.8020501136779785,3.5020501613616943,10.717950820922852,0.3455374836921692,0.829675018787384,0.5575624704360962
-4.357950210571289,3.7129502296447754,5.869950294494629,0.5055875182151794,0.25671249628067017,0.549037516117096
-4.087049961090088,3.1840500831604004,7.969950199127197,0.12677499651908875,0.7771499752998352,0.7176125049591064
-3.4740002155303955,3.636000156402588,8.520000457763672,0.14877499639987946,1.0044374465942383,0.7481374740600586
-2.2990500926971436,3.484950065612793,8.632950782775879,0.23801249265670776,0.9261999726295471,0.6258999705314636
-2.2170000076293945,4.323000431060791,7.3060503005981445,0.23430000245571136,0.4449499845504761,0.30703750252723694
-3.142050266265869,4.35705041885376,7.759050369262695,0.1414874941110611,-0.2782999873161316,-0.006874999962747097
-3.781050205230713,4.291950225830078,7.486050128936768,0.12443749606609344,-1.0272624492645264,-0.16940000653266907
-3.3600001335144043,4.146000385284424,7.135950565338135,0.02914999984204769,-1.8397499322891235,-0.2414499968290329
-2.245950222015381,4.024050235748291,5.475000381469727,-0.29589998722076416,-2.222137451171875,-0.3269749879837036
-2.3080501556396484,2.7960002422332764,8.66100025177002,-1.026437520980835,-0.195250004529953,-0.49802500009536743
-1.968000054359436,3.277050256729126,10.644000053405762,-0.738099992275238,0.7222874760627747,-0.5480750203132629
-2.7229502201080322,3.7290000915527344,10.23900032043457,-0.2616625130176544,0.4595249891281128,-0.5663625001907349
-5.550000190734863,2.1919500827789307,9.636000633239746,0.1695374995470047,-0.30882498621940613,-0.5077875256538391
-6.67995023727417,5.539950370788574,8.752050399780273,0.4127750098705292,-0.9857375025749207,0.34375
-2.2510499954223633,3.009000062942505,7.312950134277344,0.4848249852657318,-0.7279250025749207,1.3553375005722046
0.29295000433921814,3.466050148010254,4.9770002365112305,0.03396249935030937,-0.7401624917984009,1.0412875413894653
-1.2169500589370728,5.887050151824951,6.067950248718262,-0.6330500245094299,-0.4298250079154968,0.28751251101493835
-1.1860500574111938,4.672950267791748,8.640000343322754,-1.0826749801635742,-0.901449978351593,-0.1266375035047531
-1.5970500707626343,3.9160501956939697,10.270050048828125,-0.9824374914169312,-0.9954999685287476,-0.3282124996185303
-1.7290500402450562,3.375000238418579,10.072050094604492,-0.5964750051498413,-0.5373499989509583,-0.2451625019311905
-1.855950117111206,3.9589502811431885,8.905950546264648,-0.43642500042915344,0.272662490606308,-0.04468749836087227
-1.2880500555038452,4.258950233459473,11.194950103759766,-0.22618749737739563,0.38747498393058777,0.09941250085830688
-0.7930500507354736,4.122000217437744,10.570050239562988,0.12677499651908875,-0.07315000146627426,-0.1046374961733818
-0.8479500412940979,4.1579999923706055,10.195950508117676,0.28929999470710754,-0.16101250052452087,-0.20363749563694
-0.843000054359436,4.206000328063965,9.72195053100586,0.40658751130104065,-0.19401249289512634,-0.27197501063346863
-1.281000018119812,3.9190502166748047,9.037050247192383,0.5348749756813049,-0.18672500550746918,-0.3624500036239624
-2.2099502086639404,3.9930002689361572,7.879050254821777,0.4395875036716461,-0.06324999779462814,-0.2475000023841858
-2.3869500160217285,4.1010003089904785,7.609950542449951,0.3480125069618225,0.13832500576972961,-0.09116250276565552
-2.2129499912261963,4.147950172424316,7.573950290679932,0.2539624869823456,0.3642374873161316,0.07369999587535858
-1.2859500646591187,3.696000099182129,7.993050575256348,0.07672499865293503,0.5182374715805054,0.2642749845981598
-2.2579500675201416,4.941000461578369,8.83395004272461,0.013199999928474426,0.4094749987125397,0.27527499198913574
-1.7269500494003296,4.861950397491455,9.544950485229492,0.195250004529953,0.19208750128746033,0.21546250581741333
-1.5090000629425049,4.479000091552734,9.277050018310547,0.2820124924182892,-0.4030124843120575,0.013887500390410423
-1.3000500202178955,4.728000164031982,8.755050659179688,0.317487508058548,-0.6374499797821045,-0.0056374999694526196
-1.114050030708313,4.776000022888184,9.283950805664062,0.3735874891281128,-0.5275874733924866,0.02736249938607216
-1.2120000123977661,4.79295015335083,9.793950080871582,0.5324000120162964,-0.4347749948501587,-0.03987500071525574
-0.49605002999305725,4.374000072479248,8.452950477600098,0.6228749752044678,-0.3345375061035156,-0.21216249465942383
0.24300001561641693,4.105050086975098,6.97605037689209,0.44811248779296875,0.060087498277425766,-0.3489750027656555
-0.2760000228881836,3.80400013923645,7.561950206756592,-0.006324999965727329,0.08937499672174454,-0.42102500796318054
-1.4749500751495361,4.045950412750244,9.543000221252441,-0.3606624901294708,-0.06324999779462814,-0.4637874960899353
-1.546950101852417,3.627000093460083,10.44795036315918,-0.3997125029563904,-0.24529999494552612,-0.43078750371932983
-1.0830000638961792,3.3439502716064453,10.55505084991455,-0.23718750476837158,-0.1574375033378601,-0.3282124996185303
-1.0249500274658203,3.235950231552124,10.491000175476074,0.06091250106692314,-0.022962499409914017,-0.20116250216960907
-1.165950059890747,3.255000114440918,9.95895004272461,0.4030124843120575,-0.04743750020861626,-0.08758749812841415
-1.0609500408172607,3.330000162124634,9.508950233459473,0.6583499908447266,-0.021724998950958252,0.048124998807907104
-0.8550000190734863,3.306000232696533,9.028050422668457,0.7754999995231628,0.10532499849796295,0.09322500228881836
-1.284000039100647,3.7699501514434814,8.170949935913086,0.8439750075340271,0.34113749861717224,0.10064999759197235
-1.9800001382827759,4.386000156402588,7.881000518798828,0.6351125240325928,0.3227125108242035,0.11288750171661377
-1.051050066947937,4.3660502433776855,7.926000595092773,0.3100624978542328,-0.227012500166893,0.0798875018954277
-0.003000000026077032,4.147950172424316,8.233050346374512,0.08043749630451202,-0.5398250222206116,-0.06792499870061874
0.08700000494718552,4.069050312042236,8.728050231933594,-0.16266250610351562,-0.6973999738693237,-0.2316875010728836
-0.28995001316070557,3.7219502925872803,9.16200065612793,-0.18342499434947968,-0.453062504529953,-0.3392125070095062
-0.8890500664710999,3.7579500675201416,8.86500072479248,-0.15908749401569366,-0.02667500078678131,-0.31968748569488525
-1.2049500942230225,3.9379501342773438,8.808000564575195,-0.052799999713897705,0.554812490940094,-0.022824998944997787
-1.308000087738037,4.2870001792907715,8.709000587463379,0.09501250088214874,0.5682874917984009,0.15441249310970306
-1.1059499979019165,4.575000286102295,8.266050338745117,0.23196250200271606,0.2983750104904175,0.28751251101493835
-0.6780000329017639,4.62000036239624,7.579050540924072,0.27582499384880066,0.0648999959230423,0.32903748750686646
-0.5130000114440918,4.639050006866455,7.2460503578186035,0.19401249289512634,-0.03272499889135361,0.3302749991416931
-0.45000001788139343,4.654050350189209,7.363950252532959,0.0424874983727932,-0.0009624999947845936,0.3339875042438507
-0.364050030708313,4.6870503425598145,7.843050479888916,-0.06861250102519989,0.15289999544620514,0.3474625051021576
-0.09600000083446503,4.7059502601623535,7.759050369262695,-0.11013749986886978,0.24461250007152557,0.34127500653266907
-0.0580500029027462,4.672950267791748,7.962000370025635,-0.2079000025987625,0.519474983215332,0.2777499854564667
-0.9649500250816345,4.777950286865234,8.932050704956055,-0.24461250007152557,0.6623374819755554,0.2032250016927719
-1.7050501108169556,4.789950370788574,9.142950057983398,-0.13942499458789825,0.5768125057220459,0.2204124927520752
-1.8220500946044922,4.80495023727417,8.632950782775879,-0.023375000804662704,0.49004998803138733,0.3669874966144562
-1.675950050354004,4.969950199127197,8.269050598144531,0.004674999974668026,0.4449499845504761,0.5660874843597412
-1.4269500970840454,4.993950366973877,8.281050682067871,0.002199999988079071,0.3642374873161316,0.7188500165939331
-1.0200001001358032,5.058000087738037,7.990950584411621,-0.012374999932944775,0.2763749957084656,0.7933750152587891
-0.9100500345230103,5.082000255584717,8.11305046081543,-0.033137500286102295,0.2751374840736389,0.8177124857902527
-0.7570500373840332,4.921950340270996,8.503050804138184,-0.021037500351667404,0.2751374840736389,0.8397125005722046
-0.8190000653266907,4.776000022888184,8.044050216674805,0.022962499409914017,0.43271249532699585,0.8104249835014343
-1.165950059890747,4.915050029754639,8.062950134277344,-0.002612499985843897,0.5744749903678894,0.820187509059906
-1.870050072669983,5.182950019836426,9.032999992370605,-0.03437500074505806,0.7601000070571899,0.9229000210762024
-1.831950068473816,5.061000347137451,9.415950775146484,0.013199999928474426,0.7771499752998352,0.994949996471405
-1.6740000247955322,4.783050060272217,9.483000755310059,0.2147749960422516,0.7148625254631042,1.11347496509552
-1.7119500637054443,4.957950115203857,8.443950653076172,0.37853750586509705,0.7271000146865845,1.2245750427246094
-2.004000186920166,5.254950046539307,7.759050369262695,0.35282498598098755,0.7930999994277954,1.2820500135421753
-2.6100001335144043,5.494050025939941,8.518050193786621,0.1695374995470047,0.6672874689102173,1.3283874988555908
-2.5600500106811523,5.247000217437744,9.765000343322754,0.05224999785423279,0.35199999809265137,1.4335750341415405
-1.8679500818252563,4.723050117492676,10.22295093536377,0.12677499651908875,0.3936625123023987,1.559387445449829
-1.4820001125335693,4.441050052642822,9.787050247192383,0.33329999446868896,0.8615750074386597,1.5776749849319458
-2.221950054168701,4.711050033569336,8.970000267028809,0.5275874733924866,1.2940125465393066,1.4823875427246094
-3.301950216293335,5.086950302124023,7.4569501876831055,0.5691124796867371,1.3330625295639038,1.4103374481201172
-3.8050501346588135,5.025000095367432,6.339000225067139,0.39806249737739563,1.484587550163269,1.4335750341415405
-3.928950071334839,4.930950164794922,5.980050086975098,0.11824999749660492,1.664162516593933,1.488437533378601
-3.8430001735687256,5.293050289154053,6.313050270080566,-0.22013749182224274,1.5090625286102295,1.459149956703186
-3.160950183868408,4.672950267791748,7.8070502281188965,-0.42666250467300415,1.2462999820709229,1.191575050354004
-3.421950101852417,4.624950408935547,7.819050312042236,-0.39476248621940613,1.406350016593933,1.0352375507354736
-4.102050304412842,4.5199503898620605,7.311000347137451,-0.35571250319480896,1.584825038909912,0.9644249677658081
-5.103000164031982,4.71405029296875,7.225050449371338,-0.38142499327659607,1.559112548828125,1.0645250082015991
-4.654950141906738,4.612950325012207,7.618050575256348,-0.4057624936103821,1.2170125246047974,1.2405250072479248
-4.237950325012207,4.495950222015381,7.888050556182861,-0.39723750948905945,0.9824374914169312,1.291812539100647
-3.57705020904541,4.60605001449585,8.191950798034668,-0.3484250009059906,0.7478625178337097,1.2735249996185303
-3.2160000801086426,4.63200044631958,8.282999992370605,-0.34718748927116394,0.8933374881744385,1.1525249481201172
-3.8809502124786377,4.939050197601318,8.484000205993652,-0.4217124879360199,0.9751499891281128,1.0670000314712524
-3.709050178527832,5.125050067901611,8.628000259399414,-0.47423750162124634,0.7698624730110168,1.0670000314712524
-3.132000207901001,4.990950107574463,9.004050254821777,-0.4534749984741211,0.7735750079154968,1.0670000314712524
-2.962050199508667,5.176050186157227,9.270000457763672,-0.36918750405311584,0.8663874864578247,0.98642498254776
-2.8879501819610596,5.082000255584717,8.723999977111816,-0.272662490606308,1.0019625425338745,0.8788999915122986
-2.7900002002716064,4.975050449371338,8.050950050354004,-0.24213749170303345,1.1547249555587769,0.8299499750137329
-3.232950210571289,4.797000408172607,7.383000373840332,-0.21642500162124634,1.0374374389648438,0.8274750113487244
-4.23105001449585,5.194950103759766,6.945000171661377,-0.22013749182224274,0.8566250205039978,0.9484750032424927
-4.044000148773193,5.2669501304626465,7.2109503746032715,-0.23361249268054962,0.7271000146865845,1.096287488937378
-4.0159502029418945,5.212050437927246,7.471050262451172,-0.23485000431537628,0.658762514591217,1.139050006866455
-3.82200026512146,5.044050216674805,7.428000450134277,-0.25561249256134033,0.6355249881744385,1.1672375202178955
-3.3139500617980957,4.891050338745117,7.606050491333008,-0.35694998502731323,0.738099992275238,1.2515250444412231
-2.9170501232147217,4.9960503578186035,8.581950187683105,-0.41071251034736633,0.987387478351593,1.3283874988555908
-3.1270501613616943,5.419950485229492,8.922000885009766,-0.3324750065803528,1.143725037574768,1.3186249732971191
-3.0990002155303955,5.451000213623047,8.353050231933594,-0.27761250734329224,0.9983875155448914,1.3223375082015991
-2.7490501403808594,5.45805025100708,8.118000030517578,-0.27994999289512634,0.8395749926567078,1.3333375453948975
-1.927950143814087,5.233050346374512,7.978950500488281,-0.2653749883174896,0.5817624926567078,1.301574945449829
-2.146050214767456,5.334000110626221,7.588950157165527,-0.22384999692440033,0.4595249891281128,1.2110999822616577
-3.81000018119812,5.64300012588501,7.693950176239014,-0.14685000479221344,-0.01691249944269657,1.2600499391555786
-2.6359500885009766,5.164050102233887,6.982950210571289,-0.18466250598430634,-0.3137750029563904,1.5116750001907349
0.2050500065088272,5.371950149536133,7.7560505867004395,-0.24461250007152557,-0.1891999989748001,1.4641000032424927
0.6379500031471252,5.604000091552734,8.842950820922852,-0.1859000027179718,0.09556250274181366,0.9216625094413757
-0.7279500365257263,5.607000350952148,8.776050567626953,-0.05403750017285347,0.06379999965429306,0.426800012588501
-2.2680001258850098,5.716950416564941,8.353050231933594,0.0009624999947845936,-0.2917749881744385,0.3718000054359436
-2.0880000591278076,5.5849504470825195,8.257050514221191,0.04138749837875366,-0.6766374707221985,0.5893250107765198
-1.2330000400543213,5.347950458526611,7.7470502853393555,0.15001249313354492,-0.6716874837875366,0.7836124897003174
-0.40995001792907715,5.451000213623047,7.1670002937316895,0.18177500367164612,-0.444537490606308,0.7957124710083008
0.18300001323223114,5.653950214385986,6.729000091552734,0.05843750014901161,-0.26977500319480896,0.593037486076355
-0.027000000700354576,5.56095027923584,6.958950519561768,-0.17737500369548798,-0.03272499889135361,0.3302749991416931
-0.9360000491142273,5.355000019073486,8.173049926757812,-0.33742499351501465,0.2531374990940094,0.23017500340938568
-1.3050000667572021,5.07705020904541,8.796000480651855,-0.23842500150203705,0.46076250076293945,0.29493749141693115
-1.281000018119812,5.122950077056885,8.842950820922852,-0.06737499684095383,0.5622375011444092,0.41222500801086426
-0.9360000491142273,5.134950160980225,8.23799991607666,0.04372499883174896,0.427762508392334,0.49527499079704285
-0.9600000381469727,5.046000003814697,8.383950233459473,0.06696250289678574,0.23594999313354492,0.5318499803543091
-1.1830500364303589,4.720950126647949,8.008049964904785,0.05967500060796738,0.17861250042915344,0.549037516117096
-0.7980000376701355,4.534049987792969,7.749000549316406,0.015675000846385956,0.4950000047683716,0.6430875062942505
-0.34800001978874207,4.833000183105469,8.155950546264648,-0.06984999775886536,0.8834375143051147,0.680899977684021
-0.7210500240325928,5.182950019836426,8.616000175476074,-0.11384999752044678,1.031387448310852,0.610087513923645
-0.6799500584602356,4.929000377655029,8.934000015258789,-0.11137499660253525,0.9506750106811523,0.5673249959945679
-0.5820000171661377,4.693950176239014,8.391000747680664,-0.11384999752044678,0.9971500039100647,0.5318499803543091
-1.4130001068115234,4.79295015335083,7.941000461578369,-0.18342499434947968,1.1791999340057373,0.5440874695777893
-1.67205011844635,4.906949996948242,7.785000324249268,-0.2751374840736389,1.056962490081787,0.6650875210762024
-0.37905001640319824,4.624950408935547,7.141050338745117,-0.37523749470710754,0.5035250186920166,0.7529500126838684
0.38700002431869507,4.342050075531006,7.668000221252441,-0.4852375090122223,0.4754749834537506,0.6796625256538391
-0.34800001978874207,4.359000205993652,8.440950393676758,-0.5207124948501587,0.7308124899864197,0.5710374712944031
-1.2430500984191895,4.1770501136779785,9.373050689697266,-0.44852501153945923,0.8113874793052673,0.6601374745368958
-1.3510500192642212,4.594050407409668,9.643050193786621,-0.3044250011444092,0.5744749903678894,0.8666625022888184
-0.18195000290870667,4.5199503898620605,9.370050430297852,-0.14561249315738678,0.19813749194145203,0.9912375211715698
0.544950008392334,4.696950435638428,8.482049942016602,-0.057612501084804535,-0.2172500044107437,0.9044749736785889
0.25005000829696655,5.158950328826904,8.086950302124023,-0.05637500062584877,-0.4078249931335449,0.654087483882904
-0.3379500210285187,4.7059502601623535,7.404000282287598,-0.12856249511241913,-0.26358750462532043,0.5233250260353088
-0.7900500297546387,4.480950355529785,7.527000427246094,-0.30566251277923584,0.26785001158714294,0.6271374821662903
-0.9409500360488892,4.540950298309326,7.990950584411621,-0.37523749470710754,0.5402374863624573,0.7261375188827515
-0.8689500689506531,4.885950088500977,8.725950241088867,-0.38266250491142273,0.768762469291687,0.9020000100135803
-0.5010000467300415,5.239950180053711,8.854949951171875,-0.26413750648498535,0.6782875061035156,0.947237491607666
-0.5560500025749207,5.439000129699707,8.623050689697266,-0.17242500185966492,0.44123750925064087,0.8984249830245972
-0.5370000004768372,5.118000030517578,8.257050514221191,-0.07603749632835388,0.3643749952316284,0.8544250130653381
-0.43800002336502075,4.939050197601318,7.993050575256348,-0.04661250114440918,0.4376625120639801,0.8409500122070312
-0.31200000643730164,4.941000461578369,7.462050437927246,-0.0943249985575676,0.7160999774932861,0.8189499974250793
-0.4429500102996826,5.218950271606445,7.974000453948975,-0.21037499606609344,1.0729124546051025,0.7884249687194824
-1.0489500761032104,5.508000373840332,8.42400074005127,-0.23361249268054962,1.1864874362945557,0.7310875058174133
-1.5250500440597534,5.488950252532959,8.580000877380371,-0.18713749945163727,1.118149995803833,0.763949990272522
-1.5229500532150269,4.998000144958496,8.743050575256348,-0.07108750194311142,0.9813374876976013,0.9057124853134155
-1.7650500535964966,5.2260003089904785,8.922000885009766,-0.02227500081062317,0.9739124774932861,0.9937124848365784
-2.155050039291382,5.224050045013428,9.121050834655762,0.05719999969005585,1.114437460899353,1.0865249633789062
-2.056950092315674,5.700000286102295,8.308950424194336,0.014437500387430191,0.8896250128746033,1.12681245803833
-1.1880000829696655,5.353050231933594,9.133049964904785,-0.17737500369548798,0.9213874936103821,1.0755250453948975
-1.5589500665664673,5.278950214385986,10.017000198364258,-0.2849000096321106,0.8639125227928162,0.8824750185012817
-2.184000015258789,5.2759504318237305,10.225050926208496,-0.2971374988555908,0.7650499939918518,0.8226624727249146
-3.4069502353668213,5.281050205230713,10.282050132751465,-0.2689499855041504,0.5732374787330627,0.9240000247955322
-3.034050226211548,4.771050453186035,10.336950302124023,-0.12732499837875366,0.5878124833106995,1.1977624893188477
-2.3800501823425293,4.584000110626221,9.234000205993652,0.3162499964237213,0.6721000075340271,1.376099944114685
-2.514000177383423,5.017950057983398,7.9069504737854,0.4542999863624573,0.5609999895095825,1.3528624773025513
-2.164950132369995,5.020050048828125,6.96405029296875,0.38458749651908875,0.3007124960422516,1.271049976348877
-2.146050214767456,4.900050163269043,6.7819504737854,0.195250004529953,0.11384999752044678,1.0987625122070312
-2.0620501041412354,4.729950428009033,8.42400074005127,0.0742499977350235,0.9116249680519104,0.8556625247001648
-2.347050189971924,4.789950370788574,8.26395034790039,0.15248750150203705,1.0252000093460083,0.8776624798774719
-3.079050064086914,4.960050106048584,7.972050189971924,0.24172499775886536,1.0984874963760376,0.8984249830245972
-3.091050148010254,5.259000301361084,7.206000328063965,0.2502500116825104,1.0899624824523926,0.9802374839782715
-2.5380001068115234,5.427000045776367,7.120050430297852,0.15248750150203705,1.0741499662399292,1.0620499849319458
-1.7650500535964966,5.263950347900391,7.131000518798828,0.07796250283718109,1.0936750173568726,1.0572375059127808
-2.076000213623047,5.302950382232666,7.3810505867004395,0.08043749630451202,1.1070125102996826,0.9667624831199646
-2.656050205230713,6.187950134277344,7.486050128936768,-0.0002749999985098839,0.5072374939918518,0.8959500193595886
-1.4869500398635864,5.731050491333008,8.04900074005127,-0.15661250054836273,0.14685000479221344,0.8617125153541565
-0.5560500025749207,5.596950054168701,8.482049942016602,-0.22866250574588776,0.2116124927997589,0.7151374816894531
-0.18000000715255737,5.590050220489502,8.128050804138184,-0.1993750035762787,0.5267624855041504,0.4890874922275543
-1.6210501194000244,5.239950180053711,8.14905071258545,-0.20061250030994415,0.6648125052452087,0.2704625129699707
-2.6050500869750977,5.716950416564941,7.560000419616699,-0.1956624984741211,0.6367624998092651,0.3377000093460083
-2.1100502014160156,5.833950042724609,7.845000267028809,-0.18837499618530273,0.8529124855995178,0.5917999744415283
-1.3669500350952148,5.710050106048584,8.817000389099121,-0.045375000685453415,0.9556249976158142,0.6553249955177307
-1.8679500818252563,5.875050067901611,8.341050148010254,0.24529999494552612,0.8468624949455261,0.47327500581741333
-2.1979501247406006,5.9659504890441895,6.5209503173828125,0.36134999990463257,0.7222874760627747,0.46584999561309814
-2.6050500869750977,5.949000358581543,6.025050163269043,0.2868250012397766,0.738099992275238,0.5380374789237976
-2.950050115585327,6.124050140380859,6.645000457763672,0.07796250283718109,1.01048743724823,0.7591375112533569
-3.0510001182556152,6.160050392150879,7.98900032043457,0.07919999957084656,0.9213874936103821,0.8739500045776367
-2.9740500450134277,6.421050071716309,6.8110504150390625,-0.03437500074505806,-0.32725000381469727,0.2765125036239624
-2.425950050354004,5.719050407409668,6.1710004806518555,-0.07108750194311142,-0.258774995803833,0.3669874966144562
-0.7090500593185425,5.82705020904541,5.965050220489502,-0.2628999948501587,-0.025437500327825546,0.3694624900817871
-0.364050030708313,5.9320502281188965,7.222050189971924,-0.44123750925064087,-0.1451999992132187,0.004124999977648258
-2.111999988555908,5.500950336456299,7.549950122833252,-0.4437125027179718,-0.5190625190734863,-0.28049999475479126
-3.493950128555298,5.27400016784668,7.201050281524658,-0.4474250078201294,-0.5361124873161316,-0.09116250276565552
-2.8780500888824463,5.707050323486328,7.902000427246094,-0.45223748683929443,0.012374999932944775,0.2839374840259552
-0.9390000700950623,5.772000312805176,8.520000457763672,-0.3104749917984009,0.41318750381469727,0.3497999906539917
-0.28005000948905945,5.809950351715088,7.515000343322754,-0.17118750512599945,0.09790000319480896,0.14698749780654907
-1.4989501237869263,5.671050071716309,7.375950336456299,-0.3007124960422516,-0.37482500076293945,-0.0031624999828636646
-2.514000177383423,5.760000228881836,8.202000617980957,-0.3581874966621399,-0.48358750343322754,0.0028874999843537807
-2.5500001907348633,5.925000190734863,8.664000511169434,-0.18342499434947968,-0.19043749570846558,0.19222499430179596
-1.7190001010894775,6.118950366973877,8.709000587463379,-0.07232499867677689,0.07356250286102295,0.2887499928474426
-0.2760000228881836,5.755050182342529,9.064050674438477,0.08648750185966492,0.17861250042915344,0.2447499930858612
-0.7590000629425049,5.5849504470825195,8.282999992370605,0.19277499616146088,0.05156249925494194,0.08236250281333923
-1.1400001049041748,5.595000267028809,7.0410003662109375,0.0719124972820282,0.21889999508857727,0.07864999771118164
-1.9950001239776611,5.700000286102295,6.5620503425598145,-0.26413750648498535,0.4950000047683716,0.1274625062942505
-0.89805006980896,5.190000057220459,8.08905029296875,-0.5927624702453613,0.9103875160217285,0.3497999906539917
0.07304999977350235,5.323950290679932,10.050000190734863,-0.6392375230789185,0.9506750106811523,0.4390375018119812
0.33105000853538513,5.250000476837158,10.456950187683105,-0.527999997138977,0.7356249690055847,0.4255625009536743
-0.003000000026077032,5.499000072479248,9.712950706481934,-0.23594999313354492,0.21642500162124634,0.37056249380111694
0.10605000704526901,5.38200044631958,8.869950294494629,-0.14190000295639038,0.07961250096559525,0.3669874966144562
0.3840000033378601,4.942950248718262,6.763050556182861,-0.17118750512599945,0.25066250562667847,0.4329875111579895
0.1879500150680542,5.038950443267822,6.303000450134277,-0.3081375062465668,0.5414749979972839,0.4927999973297119
1.0879501104354858,5.200050354003906,7.254000186920166,-0.5022875070571899,1.0777250528335571,0.6296125054359436
1.366050124168396,5.568000316619873,8.551050186157227,-0.5072374939918518,0.8541499972343445,0.47932499647140503
0.6930000185966492,5.6449503898620605,8.5420503616333,-0.3068999946117401,0.328900009393692,0.25575000047683716
0.40605002641677856,5.269050121307373,7.948050498962402,-0.19689999520778656,0.13337500393390656,0.2069374918937683
0.25200000405311584,5.2669501304626465,7.5169501304626465,-0.1798499971628189,0.1859000027179718,0.2129874974489212
0.0010500000789761543,5.407950401306152,7.005000114440918,-0.26413750648498535,0.5157625079154968,0.2447499930858612
0.1279500126838684,5.683050155639648,7.5169501304626465,-0.38266250491142273,0.6880499720573425,0.21793749928474426
0.35805001854896545,5.664000034332275,7.749000549316406,-0.41923749446868896,0.6330500245094299,0.15565000474452972
-0.12195000797510147,5.491950035095215,8.257050514221191,-0.41071251034736633,0.41071251034736633,-0.010587500408291817
-1.1759999990463257,5.52495002746582,8.197050094604492,-0.3642374873161316,0.38871249556541443,-0.06792499870061874
-1.6189501285552979,5.283000469207764,8.227950096130371,-0.2616625130176544,0.519474983215332,0.06764999777078629
-1.423050045967102,5.539950370788574,7.689000129699707,-0.20418749749660492,0.6159999966621399,0.2167000025510788
-1.059000015258789,5.476950168609619,7.677000522613525,-0.24461250007152557,0.6000499725341797,0.20569999516010284
-1.3579500913619995,5.269050121307373,8.00100040435791,-0.2689499855041504,0.49252501130104065,0.1531749963760376
-2.281949996948242,5.587050437927246,8.721000671386719,-0.19085000455379486,0.4399999976158142,0.19346250593662262
-2.8159501552581787,5.892000198364258,7.515000343322754,-0.14190000295639038,-0.02667500078678131,0.3022249937057495
-1.4700000286102295,5.443950176239014,8.59695053100586,-0.26042500138282776,0.18342499434947968,0.4133250117301941
-1.4110500812530518,5.242950439453125,9.564000129699707,-0.17366249859333038,0.546287477016449,0.30098751187324524
-2.2609500885009766,5.416950225830078,9.370050430297852,-0.035612501204013824,0.4717625081539154,0.2704625129699707
-2.5530002117156982,5.47005033493042,9.061050415039062,-0.0038499999791383743,0.3031874895095825,0.31679999828338623
-2.883000135421753,5.604000091552734,8.367000579833984,-0.03203750029206276,-0.0009624999947845936,0.454987496137619
-2.5890002250671387,5.17995023727417,8.551050186157227,-0.10889999568462372,0.008799999952316284,0.5831375122070312
-2.395050048828125,4.8949503898620605,9.085050582885742,-0.09913749992847443,-0.004674999974668026,0.6796625256538391
-1.6980000734329224,4.8949503898620605,8.800050735473633,-0.057612501084804535,-0.07548750191926956,0.7004249691963196
-1.1089500188827515,5.053950309753418,8.60205078125,-0.15661250054836273,0.05403750017285347,0.549037516117096
-1.9609501361846924,5.295000076293945,9.456000328063965,-0.16266250610351562,0.23485000431537628,0.41456249356269836
-2.1529500484466553,5.082000255584717,9.729000091552734,-0.08579999953508377,0.19442500174045563,0.38403749465942383
-2.7679500579833984,5.170950412750244,9.420000076293945,0.0193875003606081,-0.20377500355243683,0.3632749915122986
-2.8690500259399414,5.233050346374512,9.127950668334961,0.03891250118613243,-0.36629998683929443,0.3950375020503998
-2.4210000038146973,4.79295015335083,9.065999984741211,0.02419999986886978,-0.3381125032901764,0.509850025177002
-2.095050096511841,4.588950157165527,9.028050422668457,0.025437500327825546,-0.14877499639987946,0.5563250184059143
-1.6050000190734863,4.540950298309326,9.057000160217285,0.11577499657869339,0.4399999976158142,0.5698000192642212
-3.2760002613067627,5.026950359344482,7.440000534057617,0.27953749895095825,1.069200038909912,0.3144625127315521
-3.4099502563476562,5.1060004234313965,7.074000358581543,0.2147749960422516,0.6245250105857849,0.36451250314712524
-2.5380001068115234,5.1660003662109375,7.219950199127197,0.04867500066757202,0.2311374992132187,0.3975124955177307
-2.245950222015381,4.840050220489502,8.032050132751465,0.0364375002682209,0.10532499849796295,0.2887499928474426
-2.572050094604492,4.681950092315674,7.25100040435791,0.1317249983549118,0.20542499423027039,0.1494625061750412
-2.8540501594543457,4.639050006866455,6.850950241088867,0.1256749927997589,0.4950000047683716,0.18246249854564667
-2.6920502185821533,4.534049987792969,6.568950176239014,0.09624999761581421,0.6000499725341797,0.23127499222755432
-3.0390000343322754,5.391000270843506,6.724050521850586,0.05348749831318855,0.3997125029563904,0.2765125036239624
-2.682000160217285,5.731050491333008,7.062000274658203,-0.06861250102519989,-0.030249999836087227,0.2129874974489212
-2.2489500045776367,5.014950275421143,7.464000225067139,0.01691249944269657,-0.12443749606609344,0.10422500222921371
-2.5860002040863037,5.341050148010254,6.625950336456299,0.025437500327825546,-0.15619999170303345,0.0541750006377697
-2.826000213623047,5.251950263977051,6.5809502601623535,-0.11990000307559967,-0.18672500550746918,0.043175000697374344
-3.5149502754211426,5.83905029296875,6.825000286102295,-0.2824249863624573,-0.42611250281333923,0.06517499685287476
-3.169950246810913,5.86305046081543,7.564950466156006,-0.3104749917984009,-0.8219749927520752,0.29122498631477356
-1.8730500936508179,5.724000453948975,7.3660502433776855,-0.2886124849319458,-0.8892124891281128,0.359562486410141
-1.0630500316619873,5.338050365447998,7.561950206756592,-0.3068999946117401,-0.6399250030517578,0.27293750643730164
-1.423050045967102,5.122950077056885,7.828050136566162,-0.27761250734329224,-0.19648750126361847,0.14217500388622284
-1.7770501375198364,5.4340500831604,7.636950492858887,-0.24584999680519104,0.14079999923706055,0.09693749994039536
-1.8030000925064087,5.956050395965576,7.978950500488281,-0.2494249939918518,0.1798499971628189,0.12870000302791595
-1.662000060081482,5.986950397491455,8.532000541687012,-0.17008750140666962,0.02227500081062317,0.10312499850988388
-1.8919501304626465,6.021000385284424,8.496000289916992,-0.012374999932944775,-0.32958748936653137,0.03217500075697899
-1.971000075340271,6.066000461578369,8.09595012664795,0.02419999986886978,-0.5324000120162964,0.01993750035762787
-1.516050100326538,5.841000080108643,7.651050567626953,-0.021037500351667404,-0.6399250030517578,0.050462499260902405
-1.3150500059127808,5.628000259399414,8.242050170898438,-0.0906125009059906,-0.4358749985694885,0.03217500075697899
-1.3050000667572021,5.800950050354004,8.439000129699707,-0.04908749833703041,-0.2110625058412552,-0.019112499430775642
-1.2360000610351562,5.773950099945068,8.365050315856934,0.037675000727176666,-0.08401250094175339,-0.03616249933838844
-1.336050033569336,6.034950256347656,8.14905071258545,0.12196250259876251,-0.19772499799728394,-0.03135000169277191
-1.4059500694274902,6.289050102233887,8.056050300598145,0.19277499616146088,-0.4016374945640564,-0.016637500375509262
-1.3510500192642212,5.884050369262695,7.837950229644775,0.26124998927116394,-0.4811125099658966,-0.03135000169277191
-0.9940500259399414,5.899050235748291,7.540950298309326,0.20748749375343323,-0.7706875205039978,-0.11192499846220016
-0.38100001215934753,5.860050201416016,8.230050086975098,-0.2213750034570694,-0.9735000133514404,-0.31968748569488525
-0.13005000352859497,5.158950328826904,10.591050148010254,-0.5072374939918518,-0.67044997215271,-0.6335999965667725
-0.3949500322341919,3.9400501251220703,11.740950584411621,-0.3936625123023987,-0.22082500159740448,-0.8633624911308289
-1.6309500932693481,4.213050365447998,11.395950317382812,-0.16266250610351562,-0.015675000846385956,-0.7508875131607056
-1.8580501079559326,4.350000381469727,11.343000411987305,-0.01979999989271164,0.005087499972432852,-0.5665000081062317
-1.2310500144958496,4.275000095367432,10.759050369262695,0.33329999446868896,-0.13901250064373016,-0.22439999878406525
-0.597000002861023,4.0410003662109375,9.38700008392334,0.7474499940872192,-0.2782999873161316,-0.10092499852180481
-0.3570000231266022,3.753000259399414,7.261050224304199,0.9917874932289124,-0.2525874972343445,-0.09858749806880951
-0.37905001640319824,3.8490002155303955,5.842950344085693,0.9270250201225281,-0.1695374995470047,-0.08758749812841415
-0.34995001554489136,4.189050197601318,5.311950206756592,0.6729249954223633,-0.12443749606609344,-0.06311249732971191
0.034950003027915955,4.192049980163574,5.329050064086914,0.39077499508857727,-0.18424999713897705,-0.10944999754428864
0.30300000309944153,4.350000381469727,5.211000442504883,0.22453749179840088,-0.26358750462532043,-0.1461624950170517
0.934950053691864,4.4599504470825195,5.664000034332275,-0.24213749170303345,-0.36629998683929443,-0.2671625018119812
1.384950041770935,4.311000347137451,6.490050315856934,-0.5059999823570251,-0.3797749876976013,-0.39668750762939453
2.0050501823425293,3.895050287246704,8.32395076751709,-0.8713374733924866,-0.2232999950647354,-0.7533624768257141
1.6120500564575195,3.3100502490997314,9.669000625610352,-0.8590999841690063,0.1993750035762787,-1.112512469291687
1.1020500659942627,2.9800500869750977,9.73905086517334,-0.7258625030517578,0.41690000891685486,-1.2225124835968018
-0.41895002126693726,3.3919501304626465,9.034950256347656,-0.41923749446868896,0.8163374662399292,-1.1467499732971191
-1.284000039100647,3.7219502925872803,8.599050521850586,-0.320374995470047,1.1131999492645264,-0.9219374656677246
-2.4090001583099365,4.708950042724609,8.809950828552246,-0.18466250598430634,1.9207375049591064,-0.30621248483657837
-2.493000030517578,5.104050159454346,9.064050674438477,-0.08813749998807907,2.229837417602539,-0.06792499870061874
-2.1700501441955566,5.793000221252441,9.625950813293457,0.21972499787807465,2.1015501022338867,0.013887500390410423
-1.8580501079559326,5.632950305938721,8.343000411987305,0.4811125099658966,1.056962490081787,-0.12416250258684158
-1.7509500980377197,5.7019500732421875,7.207950115203857,0.516587495803833,0.23842500150203705,-0.1326874941587448
-1.4629501104354858,5.848050117492676,3.850950241088867,0.2917749881744385,-0.11453749984502792,-0.14121249318122864
-1.141950011253357,5.571000099182129,5.719050407409668,-0.3777124881744385,-0.8256874680519104,-0.3244999945163727
-1.360050082206726,5.410050392150879,8.748000144958496,-0.5964750051498413,-1.2544125318527222,-0.4992625117301941
-1.5640500783920288,5.760000228881836,10.21500015258789,-0.31171250343322754,-1.1433124542236328,-0.5872625112533569
-1.3150500059127808,5.202000141143799,9.331950187683105,0.020487500354647636,-0.791450023651123,-0.6628875136375427
-2.1259500980377197,5.1060004234313965,7.558050155639648,0.004674999974668026,-0.5715875029563904,-0.6213625073432922
-3.1750502586364746,5.662050247192383,7.299000263214111,-0.2763749957084656,-0.6056874990463257,-0.36121249198913574
-3.1180500984191895,5.812950134277344,7.504950523376465,-0.40466248989105225,-0.6118749976158142,-0.19497500360012054
-2.0239500999450684,5.620950222015381,8.151000022888184,-0.49018749594688416,-0.40287500619888306,0.06764999777078629
-0.7860000133514404,5.425050258636475,8.307000160217285,-0.45471251010894775,-0.1377750039100647,0.1396999955177307
-0.43605002760887146,5.427000045776367,8.530050277709961,-0.45471251010894775,0.06627500057220459,0.028599999845027924
-1.1740500926971436,5.305050373077393,9.44895076751709,-0.4156624972820282,0.403425008058548,-0.0826374962925911
-1.9039500951766968,5.209050178527832,10.438050270080566,-0.2653749883174896,0.6575250029563904,-0.06435000151395798
-2.215050220489502,5.326050281524658,10.134000778198242,-0.012374999932944775,0.8053374886512756,-0.030112499371170998
-2.313000202178955,5.604000091552734,9.456000328063965,0.1414874941110611,0.8481000065803528,-0.07535000145435333
-2.1000001430511475,5.614050388336182,8.575050354003906,0.10243749618530273,0.7675250172615051,-0.08635000139474869
-2.871000051498413,5.359950065612793,8.27400016784668,-0.008799999952316284,0.5255249738693237,-0.04358749836683273
-3.879000186920166,5.4150004386901855,8.508000373840332,-0.11261250078678131,0.07713750004768372,0.11041250079870224
-3.819000244140625,4.374000072479248,8.59695053100586,-0.272662490606308,-0.4945875108242035,0.3082749843597412
-2.9380500316619873,5.200050354003906,8.398050308227539,-0.5377625226974487,-0.6106374859809875,0.5172749757766724
-1.8060001134872437,4.9960503578186035,8.956050872802734,-0.7796249985694885,-0.2807750105857849,0.5513749718666077
-1.6090500354766846,4.6080002784729,10.093050003051758,-0.8823375105857849,-0.26606249809265137,0.48179998993873596
-1.492050051689148,3.873000144958496,11.884050369262695,-0.8566250205039978,-0.7144500017166138,0.2862749993801117
-1.360050082206726,3.574050188064575,12.41100025177002,-0.6990500092506409,-0.9697874784469604,0.21422499418258667
-1.3840500116348267,3.223950147628784,12.079950332641602,-0.1993750035762787,-1.1017874479293823,0.10312499850988388
-1.8130500316619873,3.1810500621795654,11.338050842285156,0.0719124972820282,-0.9429749846458435,0.04441250115633011
-2.5309500694274902,2.977950096130371,9.463950157165527,0.49334999918937683,-0.5556374788284302,-0.0411125011742115
-2.8540501594543457,3.4489500522613525,8.022000312805176,0.6313999891281128,-0.41635000705718994,-0.011824999935925007
-3.1060502529144287,4.375950336456299,7.555050373077393,0.551925003528595,-0.6986374855041504,0.16775000095367432
-2.920950174331665,4.753950119018555,8.143950462341309,0.6876375079154968,-0.591112494468689,0.3852750062942505
-1.336050033569336,1.8859500885009766,8.359950065612793,0.6484500169754028,-0.9820249676704407,0.20817500352859497
-1.6140000820159912,3.655050277709961,5.319000244140625,-0.27994999289512634,-1.2373625040054321,-0.33550000190734863
-1.6210501194000244,3.994950294494629,6.376950263977051,-0.8993874788284302,-0.16224999725818634,-0.36602500081062317
-1.4080500602722168,3.6529502868652344,9.073050498962402,-1.2047749757766724,0.5757125020027161,-0.3502124845981598
-1.1209501028060913,2.635050058364868,10.500000953674316,-1.1559624671936035,0.272662490606308,-0.33192500472068787
-2.4619500637054443,2.5729501247406006,8.523000717163086,-0.3521375060081482,-0.011962499469518661,-0.4442625045776367
-2.4660000801086426,2.9850001335144043,8.893950462341309,0.18548749387264252,0.5707625150680542,-0.25244998931884766
-2.143050193786621,3.0520501136779785,9.082950592041016,0.7816874980926514,1.0228625535964966,-0.23539999127388
-2.1889500617980957,3.258000135421753,9.844050407409668,1.215362548828125,1.1511499881744385,-0.25850000977516174
-2.4570000171661377,4.33305025100708,9.207000732421875,0.9124500155448914,-0.36134999990463257,-0.19744999706745148
-1.6810500621795654,4.534049987792969,5.898000240325928,0.4883999824523926,-1.1958374977111816,-0.21216249465942383
-1.7820000648498535,4.3060503005981445,5.817000389099121,0.3382500112056732,-0.9783124923706055,-0.31597501039505005
-2.581050157546997,4.13700008392334,6.78000020980835,-0.04413750022649765,-0.6276875138282776,-0.42102500796318054
-2.8660502433776855,4.4569501876831055,6.969000339508057,-0.44247499108314514,-0.5068249702453613,-0.18768750131130219
-2.4190502166748047,4.486050128936768,6.985050201416016,-0.5805249810218811,-0.35530000925064087,-0.011824999935925007
-1.4659500122070312,4.2709503173828125,7.432950496673584,-0.7393375039100647,0.10532499849796295,0.24722500145435333
-0.9750000238418579,3.8610002994537354,8.878950119018555,-0.724762499332428,0.47066250443458557,0.28022500872612
-1.1539500951766968,3.9589502811431885,9.73905086517334,-0.6635749936103821,0.1798499971628189,0.11288750171661377
-1.2360000610351562,4.204050064086914,9.507000923156738,-0.5975750088691711,-0.25382500886917114,-0.09858749806880951
-0.8119500279426575,3.9469501972198486,9.576000213623047,-0.45223748683929443,-0.3381125032901764,-0.227974995970726
-1.6500000953674316,3.8179502487182617,9.787050247192383,-0.20308749377727509,-0.19277499616146088,-0.28421249985694885
-2.905050039291382,3.718050241470337,11.211000442504883,0.2012999951839447,-0.12677499651908875,-0.19016249477863312
-2.782050132751465,3.8200502395629883,9.954000473022461,0.42253750562667847,-0.7706875205039978,0.08717499673366547
-1.7149500846862793,3.9400501251220703,9.045000076293945,0.43230000138282776,-1.1225500106811523,0.28503748774528503
-0.5010000467300415,3.9160501956939697,8.958000183105469,0.3137750029563904,-1.0810250043869019,0.20198750495910645
-0.5989500284194946,4.122000217437744,9.339000701904297,0.19277499616146088,-0.7852625250816345,-0.04592499881982803
-0.8119500279426575,3.8490002155303955,9.396000862121582,0.18053749203681946,-0.5849249958992004,-0.08139999955892563
-0.9030000567436218,3.6820502281188965,9.315000534057617,0.21353749930858612,-0.18672500550746918,-0.0056374999694526196
-0.5560500025749207,4.114950180053711,9.23805046081543,0.3198249936103821,0.23485000431537628,0.10917499661445618
0.30000001192092896,4.3279500007629395,9.042000770568848,0.39077499508857727,0.37894999980926514,0.06888750195503235
0.527999997138977,4.06695032119751,8.956050872802734,0.3125374913215637,0.2213750034570694,-0.17916250228881836
-0.05505000427365303,3.6720001697540283,9.375,0.09143749624490738,-0.09143749624490738,-0.4637874960899353
-0.5130000114440918,2.9389500617980957,8.500950813293457,0.5861625075340271,0.37894999980926514,-0.0471624992787838
-0.364050030708313,3.4330501556396484,7.8349504470825195,0.5543999671936035,0.31542500853538513,-0.05335000157356262
-0.36705002188682556,3.492000102996826,7.615050315856934,0.5141124725341797,0.31790000200271606,-0.05211250111460686
-0.48405003547668457,3.5380501747131348,7.384950160980225,0.42006251215934753,0.4437125027179718,-0.020349999889731407
-0.16305001080036163,3.6979501247406006,6.849000453948975,0.267300009727478,0.47671249508857727,0.06146249920129776
0.05100000277161598,4.093050003051758,7.621950149536133,-0.0038499999791383743,0.46447500586509705,-0.0031624999828636646
0.364950031042099,3.853950262069702,8.544000625610352,-0.3386625051498413,-0.12677499651908875,-0.19744999706745148
0.1570500135421753,3.5190000534057617,9.577950477600098,-0.44866248965263367,-0.468874990940094,-0.3746874928474426
0.018000001087784767,3.6409502029418945,9.772050857543945,-0.36313748359680176,-0.38458749651908875,-0.4197874963283539
0.08505000174045563,3.466050148010254,9.328950881958008,-0.23361249268054962,0.040562499314546585,-0.41126251220703125
-0.2179500162601471,3.283950090408325,9.418050765991211,-0.18342499434947968,0.23485000431537628,-0.4076874852180481
-1.2450000047683716,3.80400013923645,9.15195083618164,-0.08332499861717224,0.38266250491142273,-0.32573750615119934
-1.4560500383377075,4.414050102233887,8.785950660705566,-0.018562499433755875,0.37537500262260437,-0.13392500579357147
-0.5130000114440918,4.431000232696533,8.80305004119873,0.0193875003606081,0.24832500517368317,0.01993750035762787
0.21705001592636108,4.299000263214111,8.85300064086914,0.12925000488758087,0.13832500576972961,0.0016499999910593033
-0.003000000026077032,4.405050277709961,8.970000267028809,0.23553749918937683,0.15537500381469727,-0.0789249986410141
-0.8020500540733337,4.315950393676758,9.030000686645508,0.3198249936103821,0.1676124930381775,-0.09487500041723251
-1.276050090789795,4.326000213623047,8.901000022888184,0.3515875041484833,0.16032500565052032,-0.06435000151395798
-1.5280500650405884,4.32105016708374,8.42400074005127,0.3357749879360199,0.1578499972820282,0.07246249914169312
-0.8910000324249268,4.507950305938721,8.017050743103027,0.22577500343322754,0.28366249799728394,0.19346250593662262
-0.031050002202391624,4.492950439453125,8.122950553894043,0.1060125008225441,0.4694249927997589,0.19593749940395355
-0.7639500498771667,4.693950176239014,9.094950675964355,0.08401250094175339,0.3398999869823456,0.008937500417232513
-2.236950159072876,4.579050064086914,9.163949966430664,0.21848750114440918,0.040562499314546585,-0.08868750184774399
-2.1910500526428223,4.540950298309326,8.094000816345215,0.3137750029563904,0.08208750188350677,0.13598750531673431
-1.1350500583648682,4.71405029296875,8.010000228881836,0.24777500331401825,0.5072374939918518,0.40851250290870667
-0.4120500087738037,4.801950454711914,8.472000122070312,0.1769624948501587,0.8908625245094299,0.4035624861717224
-1.0470000505447388,5.134950160980225,8.635050773620605,0.20377500355243683,0.9470999836921692,0.25575000047683716
-1.9330500364303589,5.425050258636475,8.307000160217285,0.2110625058412552,0.7283374667167664,0.20941250026226044
-1.9999500513076782,5.317050457000732,8.218950271606445,0.19277499616146088,0.685575008392334,0.23375000059604645
-1.8250501155853271,5.202000141143799,8.53695011138916,0.15853749215602875,0.7748125195503235,0.28751251101493835
-1.6500000953674316,5.2260003089904785,8.817000389099121,0.15372499823570251,0.812624990940094,0.30703750252723694
-1.6600500345230103,5.365050315856934,9.38895034790039,0.20996250212192535,0.812624990940094,0.28146249055862427
-1.9090501070022583,5.4559502601623535,8.56605052947998,0.32477501034736633,0.7565249800682068,0.22027499973773956
-2.4660000801086426,5.551950454711914,7.881000518798828,0.2770625054836273,0.7907624840736389,0.17874999344348907
-3.0769500732421875,5.5159502029418945,7.764000415802002,0.1695374995470047,0.7320500016212463,0.18369999527931213
-3.361950159072876,5.4559502601623535,7.972050189971924,0.12443749606609344,0.6624749898910522,0.22893749177455902
-3.2970001697540283,5.347950458526611,8.3860502243042,0.07919999957084656,0.4694249927997589,0.38032498955726624
-2.7900002002716064,5.484000205993652,8.60205078125,0.05967500060796738,0.41813749074935913,0.45003750920295715
-2.7060000896453857,5.326050281524658,9.259950637817383,0.05719999969005585,0.4474250078201294,0.359562486410141
-3.264000177383423,5.122950077056885,9.045000076293945,0.08401250094175339,0.4314749836921692,0.25093749165534973
-3.6919500827789307,4.291950225830078,9.375,0.195250004529953,0.7369999885559082,0.2777499854564667
-3.939000129699707,4.323000431060791,8.962950706481934,0.29782500863075256,0.804099977016449,0.3205125033855438
-4.357950210571289,4.408950328826904,7.945950508117676,0.45058751106262207,0.7650499939918518,0.4512749910354614
-4.41795015335083,4.539000034332275,6.346050262451172,0.4786374866962433,0.27761250734329224,0.5868499875068665
-4.236000061035156,4.405050277709961,5.761950492858887,0.31130000948905945,-0.09624999761581421,0.7163749933242798
-3.7950000762939453,4.551000118255615,6.50700044631958,0.11096250265836716,-0.2367749959230423,0.8043749928474426
-2.725050210952759,4.570050239562988,7.387950420379639,0.004674999974668026,-0.28558748960494995,0.7101874947547913
-2.30400013923645,4.703999996185303,7.861950397491455,-0.07108750194311142,-0.2525874972343445,0.44632500410079956
-2.6080501079559326,4.5199503898620605,7.873950481414795,-0.11756250262260437,-0.2942500114440918,0.17270000278949738
-3.15405011177063,4.711050033569336,7.588950157165527,-0.20308749377727509,-0.44440001249313354,0.03712499886751175
-3.1060502529144287,4.642050266265869,8.355000495910645,-0.24584999680519104,-0.5666375160217285,0.0016499999910593033
-2.7150001525878906,4.414050102233887,8.85105037689209,-0.09308750182390213,-0.7682124972343445,-0.04235000163316727
-2.4019501209259033,4.285050392150879,8.665950775146484,0.1280124932527542,-0.8720250129699707,-0.09968750178813934
-2.1259500980377197,4.2709503173828125,7.64400053024292,0.3003000020980835,-0.8134499788284302,-0.15839999914169312
-2.1739501953125,4.394999980926514,6.4110002517700195,0.28806251287460327,-0.5568749904632568,-0.164450004696846
-2.3080501556396484,4.729950428009033,5.925000190734863,0.08167500048875809,-0.2330625057220459,-0.1106875017285347
-2.77305006980896,5.121000289916992,6.757950305938721,-0.17366249859333038,0.006324999965727329,-0.024062499403953552
-2.5410001277923584,5.173050403594971,7.609950542449951,-0.272662490606308,0.07837499678134918,0.04688749834895134
-2.1700501441955566,5.185050010681152,7.9360504150390625,-0.2311374992132187,0.1480875015258789,0.04441250115633011
-1.758000135421753,5.215950012207031,8.223000526428223,-0.12113749980926514,0.19456249475479126,0.01759999990463257
-1.815000057220459,5.394000053405762,8.08395004272461,0.011962499469518661,0.10903749614953995,-0.10216250270605087
-2.4019501209259033,5.578050136566162,7.546050548553467,0.030249999836087227,-0.04619999974966049,-0.25244998931884766
-2.2990500926971436,5.143950462341309,6.58305025100708,-0.10284999758005142,-0.029012499377131462,-0.3111625015735626
-3.2659502029418945,5.413050174713135,7.795050144195557,-0.29218751192092896,0.028324998915195465,-0.2915000021457672
-2.962050199508667,5.767050266265869,8.56605052947998,-0.48042500019073486,-0.2550624907016754,-0.20116250216960907
-1.5400500297546387,5.06505012512207,10.069050788879395,-0.3899500072002411,-0.3870624899864197,-0.20239999890327454
-1.4179500341415405,4.921950340270996,10.225050926208496,-0.08579999953508377,-0.4725874960422516,-0.3636874854564667
-2.1220500469207764,4.933950424194336,9.364950180053711,0.20624999701976776,-0.5788750052452087,-0.46021249890327454
-2.955000162124634,5.259000301361084,8.29800033569336,0.2868250012397766,-0.9025499820709229,-0.43326249718666077
-2.830050230026245,5.341050148010254,8.161050796508789,0.22206249833106995,-1.0723625421524048,-0.2866874933242798
-1.4700000286102295,4.837950229644775,8.353050231933594,0.18053749203681946,-1.0748374462127686,-0.1938749998807907
-0.9630000591278076,4.749000072479248,8.575050354003906,0.18177500367164612,-1.0480250120162964,-0.1999250054359436
-0.21300001442432404,4.876049995422363,8.824049949645996,0.2428250014781952,-0.9783124923706055,-0.27568748593330383
0.37005001306533813,4.88100004196167,8.54699993133545,0.3382500112056732,-0.8952624797821045,-0.40149998664855957
0.39900001883506775,4.8480000495910645,8.226000785827637,0.36629998683929443,-0.7657374739646912,-0.5395500063896179
-0.06000000238418579,5.15595006942749,8.185050010681152,0.32725000381469727,-0.6729249954223633,-0.6690750122070312
-0.4459500312805176,5.26200008392334,8.500950813293457,0.26001250743865967,-0.7376874685287476,-0.7558375000953674
-0.1680000126361847,5.0560503005981445,8.652000427246094,0.2209624946117401,-0.8427374958992004,-0.8046500086784363
0.5329500436782837,4.8949503898620605,8.659049987792969,0.227012500166893,-0.791450023651123,-0.8646000027656555
0.8029500246047974,4.90500020980835,8.902950286865234,0.2330625057220459,-0.7486875057220459,-1.0514625310897827
0.7459500432014465,4.60605001449585,8.974950790405273,0.2012999951839447,-0.8439750075340271,-1.3410375118255615
0.23595000803470612,4.414050102233887,9.076050758361816,0.1574375033378601,-1.023550033569336,-1.6061375141143799
0.039000000804662704,4.291950225830078,9.279000282287598,0.09143749624490738,-1.2629375457763672,-1.731950044631958
0.3840000033378601,3.9160501956939697,10.141050338745117,0.01691249944269657,-1.552512526512146,-1.8149999380111694
0.6520500183105469,3.624000072479248,10.455000877380371,0.005912499967962503,-1.6857500076293945,-1.87728750705719
0.8820000290870667,3.1240501403808594,10.761000633239746,0.07672499865293503,-1.794374942779541,-2.0153374671936035
0.8269500136375427,2.997000217437744,10.681950569152832,0.14396250247955322,-1.7492749691009521,-2.0715749263763428
0.6880500316619873,2.7529501914978027,10.29900074005127,0.28806251287460327,-1.47798752784729,-2.09728741645813
0.4249500334262848,2.745000123977661,9.22605037689209,0.3185875117778778,-1.2141250371932983,-2.000762462615967
-0.25905001163482666,2.7240002155303955,9.247950553894043,0.4127750098705292,-0.7864999771118164,-1.9054750204086304
-0.7710000276565552,3.028050184249878,8.932050704956055,0.5861625075340271,-0.5348749756813049,-1.8174749612808228
-1.2529500722885132,3.5190000534057617,8.934000015258789,0.6876375079154968,-0.7682124972343445,-1.6549500226974487
-0.5509500503540039,3.5089502334594727,8.53695011138916,0.572825014591217,-1.4756499528884888,-1.5218499898910522
0.7000500559806824,3.4680001735687256,8.499000549316406,0.2807750105857849,-2.0717124938964844,-1.5291374921798706
1.519050121307373,3.397050142288208,8.800050735473633,0.02667500078678131,-2.124375104904175,-1.6952375173568726
1.5210000276565552,3.1210501194000244,9.346050262451172,-0.13089999556541443,-1.8005625009536743,-1.989762544631958
1.168950080871582,3.2029502391815186,9.700950622558594,-0.17242500185966492,-1.5904624462127686,-2.1338624954223633
0.10200000554323196,3.1999502182006836,10.606050491333008,-0.19208750128746033,-1.260599970817566,-2.281675100326538
-0.7330500483512878,3.1840500831604004,11.359950065612793,-0.060087498277425766,-1.2361249923706055,-2.223099946975708
-1.111050009727478,3.3490500450134277,11.0149507522583,0.21353749930858612,-1.3166999816894531,-2.025099992752075
-0.9480000734329224,3.516000270843506,10.045050621032715,0.4493499994277954,-1.3386999368667603,-1.7929999828338623
-0.7090500593185425,3.748950242996216,8.956050872802734,0.49939998984336853,-1.2703624963760376,-1.6171374320983887
-0.8050500154495239,4.132050037384033,8.860050201416016,0.4175874888896942,-1.123787522315979,-1.5133249759674072
-0.6300000548362732,4.153050422668457,9.004050254821777,0.39077499508857727,-1.2141250371932983,-1.465612530708313
-0.2970000207424164,4.153050422668457,8.723999977111816,0.4371125102043152,-1.4059374332427979,-1.3960374593734741
0.0010500000789761543,4.017000198364258,8.60205078125,0.4945875108242035,-1.4609375,-1.299512505531311
0.38895002007484436,3.753000259399414,8.380949974060059,0.5458750128746033,-1.2446500062942505,-1.199275016784668
0.7219500541687012,4.085999965667725,7.498050212860107,0.572825014591217,-0.7254499793052673,-1.0881749391555786
-1.015950083732605,4.432950019836426,9.616950035095215,0.21972499787807465,-0.22206249833106995,-1.62318754196167
-1.141950011253357,4.351950168609619,8.749950408935547,0.3797749876976013,-0.049912501126527786,-1.4961374998092651
-1.6740000247955322,4.771050453186035,8.985000610351562,0.43834999203681946,0.2274249941110611,-1.2848000526428223
-3.0990002155303955,5.391000270843506,9.217050552368164,0.5556374788284302,0.07603749632835388,-1.2457499504089355
-3.6760501861572266,5.121000289916992,7.359000205993652,0.6374499797821045,-0.46406251192092896,-1.1027499437332153
-3.031050205230713,5.683050155639648,6.553950309753418,0.4298250079154968,-0.9869750142097473,-0.7264124751091003
-1.1230500936508179,5.773950099945068,7.390050411224365,0.15496249496936798,-1.3094124794006348,-0.4735499918460846
-0.5530500411987305,5.808000087738037,8.81505012512207,0.12072499841451645,-1.631987452507019,-0.5005000233650208
