accX,accY,accZ,gyroX,gyroY,gyroZ
-0.1055755615234375,-0.107025146484375,9.548431396484375,0.0012969970703125,-0.00067138671875,7.62939453125e-05
-0.09600830078125,-0.107025146484375,9.558013916015625,0.0002288818359375,0.000396728515625,7.62939453125e-05
-0.103179931640625,-0.107025146484375,9.55322265625,0.0002288818359375,-0.00067138671875,7.62939453125e-05
-0.1055755615234375,-0.0974578857421875,9.555618286132812,0.0002288818359375,0.000396728515625,7.62939453125e-05
-0.091217041015625,-0.1142120361328125,9.56280517578125,0.0002288818359375,0.000396728515625,7.62939453125e-05
-0.10797119140625,-0.1142120361328125,9.56280517578125,0.0002288818359375,0.000396728515625,7.62939453125e-05
-0.1055755615234375,-0.1142120361328125,9.569992065429688,0.0002288818359375,0.000396728515625,0.001129150390625
-0.0888214111328125,-0.116607666015625,9.567596435546875,0.0002288818359375,-0.00067138671875,7.62939453125e-05
-0.103179931640625,-0.1142120361328125,9.577163696289062,0.0002288818359375,0.000396728515625,7.62939453125e-05
-0.09600830078125,-0.1094207763671875,9.572372436523438,0.0002288818359375,0.000396728515625,0.001129150390625
-0.0984039306640625,-0.11181640625,9.572372436523438,0.0002288818359375,0.000396728515625,7.62939453125e-05
-0.0936126708984375,-0.11181640625,9.579559326171875,0.0012969970703125,0.000396728515625,0.001129150390625
-0.0888214111328125,-0.1046295166015625,9.577163696289062,0.0002288818359375,0.000396728515625,0.001129150390625
-0.0984039306640625,-0.1190032958984375,9.581954956054688,0.0012969970703125,0.000396728515625,7.62939453125e-05
-0.091217041015625,-0.11181640625,9.579559326171875,0.0002288818359375,0.000396728515625,7.62939453125e-05
-0.091217041015625,-0.1094207763671875,9.591537475585938,0.0002288818359375,0.000396728515625,7.62939453125e-05
-0.0984039306640625,-0.116607666015625,9.579559326171875,0.0002288818359375,0.000396728515625,7.62939453125e-05
-0.0888214111328125,-0.107025146484375,9.5843505859375,0.0002288818359375,-0.00067138671875,7.62939453125e-05
-0.103179931640625,-0.11181640625,9.5843505859375,0.0002288818359375,-0.00067138671875,0.001129150390625
-0.1007843017578125,-0.1094207763671875,9.591537475585938,0.0002288818359375,-0.00067138671875,7.62939453125e-05
-0.1007843017578125,-0.1094207763671875,9.601104736328125,0.0002288818359375,-0.00067138671875,7.62939453125e-05
-0.10797119140625,-0.107025146484375,9.601104736328125,0.0012969970703125,-0.00067138671875,7.62939453125e-05
-0.10797119140625,-0.10223388671875,9.59393310546875,0.0002288818359375,-0.00067138671875,7.62939453125e-05
-0.1007843017578125,-0.107025146484375,9.591537475585938,0.0012969970703125,0.000396728515625,7.62939453125e-05
-0.09600830078125,-0.116607666015625,9.59393310546875,0.0002288818359375,0.000396728515625,7.62939453125e-05
-0.103179931640625,-0.1094207763671875,9.613082885742188,0.0002288818359375,0.000396728515625,7.62939453125e-05
-0.0888214111328125,-0.099853515625,9.60589599609375,0.0002288818359375,-0.00067138671875,7.62939453125e-05
-0.1007843017578125,-0.11181640625,9.596328735351562,0.0002288818359375,-0.00067138671875,7.62939453125e-05
-0.1007843017578125,-0.116607666015625,9.59393310546875,0.0002288818359375,0.000396728515625,7.62939453125e-05
-0.1055755615234375,-0.107025146484375,9.596328735351562,0.0002288818359375,0.000396728515625,0.001129150390625
-0.103179931640625,-0.107025146484375,9.601104736328125,0.0002288818359375,-0.00067138671875,0.001129150390625
-0.103179931640625,-0.12139892578125,9.603500366210938,0.0023651123046875,0.000396728515625,7.62939453125e-05
-0.0888214111328125,-0.1142120361328125,9.608291625976562,0.0012969970703125,0.0025177001953125,7.62939453125e-05
-0.1007843017578125,-0.107025146484375,9.598709106445312,-0.00189208984375,-0.001739501953125,0.001129150390625
-0.10797119140625,-0.10223388671875,9.603500366210938,-0.000823974609375,-0.001739501953125,7.62939453125e-05
-0.1151580810546875,-0.1142120361328125,9.59393310546875,0.0002288818359375,-0.00067138671875,7.62939453125e-05
-0.112762451171875,-0.1094207763671875,9.615478515625,-0.000823974609375,0.000396728515625,7.62939453125e-05
-0.1103668212890625,-0.10223388671875,9.603500366210938,0.0002288818359375,0.000396728515625,7.62939453125e-05
-0.103179931640625,-0.1094207763671875,9.608291625976562,0.0002288818359375,0.000396728515625,0.001129150390625
-0.112762451171875,-0.1190032958984375,9.608291625976562,0.0002288818359375,-0.00067138671875,7.62939453125e-05
-0.112762451171875,-0.1142120361328125,9.608291625976562,0.0002288818359375,-0.00067138671875,0.001129150390625
-0.06488037109375,-0.0399932861328125,9.63702392578125,0.0002288818359375,-0.001739501953125,7.62939453125e-05
-0.1103668212890625,-0.03759765625,9.59393310546875,0.0012969970703125,0.0035858154296875,7.62939453125e-05
-0.103179931640625,-0.1190032958984375,9.577163696289062,0.0012969970703125,0.0014495849609375,7.62939453125e-05
-0.103179931640625,-0.0926666259765625,9.59393310546875,0.0002288818359375,0.000396728515625,7.62939453125e-05
-0.0984039306640625,-0.09027099609375,9.622665405273438,0.0002288818359375,0.000396728515625,7.62939453125e-05
-0.1055755615234375,-0.099853515625,9.620269775390625,0.0002288818359375,-0.00067138671875,7.62939453125e-05
-0.1007843017578125,-0.1190032958984375,9.615478515625,0.0002288818359375,0.000396728515625,7.62939453125e-05
-0.1007843017578125,-0.107025146484375,9.615478515625,0.0002288818359375,-0.00067138671875,7.62939453125e-05
-0.103179931640625,-0.099853515625,9.617874145507812,0.0002288818359375,0.000396728515625,7.62939453125e-05
-0.09600830078125,-0.107025146484375,9.610687255859375,0.0002288818359375,-0.00067138671875,0.001129150390625
-0.09600830078125,-0.107025146484375,9.608291625976562,0.0002288818359375,-0.00067138671875,7.62939453125e-05
-0.103179931640625,-0.11181640625,9.610687255859375,0.0002288818359375,0.000396728515625,7.62939453125e-05
-0.1007843017578125,-0.099853515625,9.62744140625,0.0002288818359375,0.000396728515625,7.62939453125e-05
-0.0888214111328125,-0.11181640625,9.615478515625,0.0002288818359375,-0.00067138671875,7.62939453125e-05
-0.1007843017578125,-0.1046295166015625,9.613082885742188,0.0002288818359375,0.000396728515625,7.62939453125e-05
-0.09600830078125,-0.1190032958984375,9.610687255859375,0.0002288818359375,0.000396728515625,7.62939453125e-05
-0.09600830078125,-0.1094207763671875,9.617874145507812,0.0012969970703125,0.000396728515625,0.001129150390625
-0.10797119140625,-0.107025146484375,9.617874145507812,-0.000823974609375,-0.001739501953125,7.62939453125e-05
-0.09600830078125,-0.10223388671875,9.615478515625,0.0002288818359375,-0.00067138671875,7.62939453125e-05
-0.0984039306640625,-0.11181640625,9.62744140625,0.0002288818359375,0.000396728515625,7.62939453125e-05
-0.0984039306640625,-0.107025146484375,9.62744140625,0.0002288818359375,-0.00067138671875,7.62939453125e-05
-0.1007843017578125,-0.11181640625,9.617874145507812,0.0002288818359375,0.000396728515625,7.62939453125e-05
-0.0888214111328125,-0.1142120361328125,9.625045776367188,0.0002288818359375,-0.00067138671875,7.62939453125e-05
-0.0936126708984375,-0.107025146484375,9.625045776367188,0.0002288818359375,-0.00067138671875,7.62939453125e-05
-0.1007843017578125,-0.0974578857421875,9.615478515625,0.0002288818359375,0.000396728515625,7.62939453125e-05
-0.0888214111328125,-0.099853515625,9.653778076171875,0.0002288818359375,0.000396728515625,7.62939453125e-05
-0.08642578125,-0.075897216796875,9.634628295898438,0.0002288818359375,-0.00067138671875,7.62939453125e-05
-0.08642578125,-0.085479736328125,9.641815185546875,0.0012969970703125,0.000396728515625,0.001129150390625
-0.0888214111328125,-0.0974578857421875,9.625045776367188,0.0002288818359375,0.000396728515625,7.62939453125e-05
-0.0984039306640625,-0.10223388671875,9.613082885742188,0.0002288818359375,-0.00067138671875,7.62939453125e-05
-0.091217041015625,-0.099853515625,9.629837036132812,0.0002288818359375,0.000396728515625,7.62939453125e-05
-0.0840301513671875,-0.107025146484375,9.629837036132812,0.0002288818359375,-0.00067138671875,7.62939453125e-05
-0.0984039306640625,-0.1142120361328125,9.625045776367188,0.0002288818359375,0.000396728515625,0.001129150390625
-0.1055755615234375,-0.1046295166015625,9.634628295898438,0.0002288818359375,0.000396728515625,7.62939453125e-05
-0.09600830078125,-0.11181640625,9.615478515625,0.0002288818359375,0.000396728515625,7.62939453125e-05
-0.0984039306640625,-0.11181640625,9.617874145507812,0.0002288818359375,-0.00067138671875,7.62939453125e-05
-0.1007843017578125,-0.1094207763671875,9.620269775390625,0.0002288818359375,0.000396728515625,7.62939453125e-05
-0.1007843017578125,-0.1046295166015625,9.62744140625,0.0002288818359375,0.000396728515625,7.62939453125e-05
-0.1007843017578125,-0.107025146484375,9.620269775390625,0.0002288818359375,-0.00067138671875,7.62939453125e-05
-0.0984039306640625,-0.099853515625,9.613082885742188,0.0002288818359375,0.000396728515625,7.62939453125e-05
-0.103179931640625,-0.10223388671875,9.632232666015625,0.0002288818359375,0.000396728515625,7.62939453125e-05
-0.1055755615234375,-0.107025146484375,9.634628295898438,0.0002288818359375,-0.00067138671875,7.62939453125e-05
-0.0984039306640625,-0.116607666015625,9.632232666015625,0.0002288818359375,-0.00067138671875,7.62939453125e-05
-0.09600830078125,-0.1142120361328125,9.62744140625,0.0002288818359375,0.000396728515625,7.62939453125e-05
-0.1055755615234375,-0.116607666015625,9.622665405273438,-0.000823974609375,-0.00067138671875,7.62939453125e-05
-0.09600830078125,-0.116607666015625,9.617874145507812,0.0002288818359375,0.000396728515625,7.62939453125e-05
-0.10797119140625,-0.11181640625,9.620269775390625,0.0002288818359375,-0.00067138671875,7.62939453125e-05
-0.09600830078125,-0.099853515625,9.634628295898438,0.0002288818359375,0.000396728515625,7.62939453125e-05
-0.103179931640625,-0.0974578857421875,9.632232666015625,0.0002288818359375,0.000396728515625,7.62939453125e-05
-0.1007843017578125,-0.1046295166015625,9.620269775390625,0.0012969970703125,0.0014495849609375,7.62939453125e-05
-0.103179931640625,-0.099853515625,9.644210815429688,0.0002288818359375,0.000396728515625,7.62939453125e-05
-0.10797119140625,-0.1046295166015625,9.622665405273438,-0.00189208984375,-0.001739501953125,7.62939453125e-05
-0.0984039306640625,-0.1094207763671875,9.629837036132812,0.0002288818359375,-0.00067138671875,7.62939453125e-05
-0.103179931640625,-0.107025146484375,9.625045776367188,0.0002288818359375,-0.00067138671875,0.001129150390625
-0.1055755615234375,-0.11181640625,9.622665405273438,0.0002288818359375,-0.00067138671875,7.62939453125e-05
-0.103179931640625,-0.116607666015625,9.62744140625,0.0002288818359375,0.000396728515625,7.62939453125e-05
-0.1007843017578125,-0.1190032958984375,9.622665405273438,0.0012969970703125,0.000396728515625,7.62939453125e-05
-0.1103668212890625,-0.1094207763671875,9.62744140625,0.0002288818359375,-0.00067138671875,7.62939453125e-05
-0.09600830078125,-0.107025146484375,9.625045776367188,0.0002288818359375,0.000396728515625,0.001129150390625
-0.103179931640625,-0.10223388671875,9.639419555664062,0.0002288818359375,0.000396728515625,7.62939453125e-05
-0.1319122314453125,-0.1573028564453125,9.6466064453125,0.0012969970703125,0.000396728515625,0.002197265625
-0.0936126708984375,-0.095062255859375,9.6466064453125,0.0002288818359375,0.000396728515625,0.001129150390625
-0.1055755615234375,-0.1094207763671875,9.620269775390625,0.0002288818359375,0.000396728515625,7.62939453125e-05
-0.103179931640625,-0.1094207763671875,9.622665405273438,0.0002288818359375,0.000396728515625,7.62939453125e-05
-0.0936126708984375,-0.116607666015625,9.62744140625,0.0002288818359375,0.000396728515625,7.62939453125e-05
-0.10797119140625,-0.11181640625,9.63702392578125,0.0002288818359375,0.000396728515625,7.62939453125e-05
-0.1007843017578125,-0.1190032958984375,9.634628295898438,0.0002288818359375,-0.00067138671875,7.62939453125e-05
-0.09600830078125,-0.1094207763671875,9.62744140625,0.0002288818359375,-0.00067138671875,7.62939453125e-05
-0.1055755615234375,-0.1046295166015625,9.62744140625,0.0002288818359375,-0.00067138671875,7.62939453125e-05
-0.103179931640625,-0.10223388671875,9.629837036132812,0.0002288818359375,-0.00067138671875,7.62939453125e-05
-0.10797119140625,-0.099853515625,9.632232666015625,0.0002288818359375,-0.00067138671875,7.62939453125e-05
-0.09600830078125,-0.107025146484375,9.622665405273438,0.0002288818359375,0.000396728515625,7.62939453125e-05
-0.09600830078125,-0.1142120361328125,9.634628295898438,-0.000823974609375,-0.00067138671875,7.62939453125e-05
-0.112762451171875,-0.10223388671875,9.622665405273438,0.0002288818359375,0.000396728515625,7.62939453125e-05
-0.10797119140625,-0.1046295166015625,9.625045776367188,0.0002288818359375,0.000396728515625,7.62939453125e-05
-0.1007843017578125,-0.107025146484375,9.639419555664062,0.0002288818359375,-0.00067138671875,7.62939453125e-05
-0.0936126708984375,-0.1142120361328125,9.639419555664062,0.0002288818359375,-0.00067138671875,7.62939453125e-05
-0.1055755615234375,-0.11181640625,9.632232666015625,0.0002288818359375,0.000396728515625,7.62939453125e-05
-0.103179931640625,-0.1046295166015625,9.629837036132812,0.0002288818359375,0.000396728515625,7.62939453125e-05
-0.1151580810546875,-0.1094207763671875,9.629837036132812,0.0012969970703125,0.000396728515625,7.62939453125e-05
-0.1055755615234375,-0.11181640625,9.639419555664062,0.0002288818359375,-0.00067138671875,7.62939453125e-05
-0.103179931640625,-0.107025146484375,9.639419555664062,0.0002288818359375,-0.00067138671875,7.62939453125e-05
-0.0984039306640625,-0.1142120361328125,9.625045776367188,0.0012969970703125,-0.00067138671875,7.62939453125e-05
-0.0936126708984375,-0.1190032958984375,9.629837036132812,0.0002288818359375,0.000396728515625,0.001129150390625
-0.1055755615234375,-0.099853515625,9.632232666015625,0.0002288818359375,0.000396728515625,7.62939453125e-05
-0.1007843017578125,-0.107025146484375,9.639419555664062,0.0002288818359375,0.000396728515625,7.62939453125e-05
-0.10797119140625,-0.1094207763671875,9.629837036132812,0.0002288818359375,0.000396728515625,7.62939453125e-05
-0.0936126708984375,-0.1094207763671875,9.629837036132812,0.0002288818359375,-0.00067138671875,7.62939453125e-05
-0.09600830078125,-0.1142120361328125,9.622665405273438,0.0002288818359375,-0.00067138671875,7.62939453125e-05
-0.1007843017578125,-0.099853515625,9.62744140625,0.0002288818359375,-0.00067138671875,0.001129150390625
-0.1055755615234375,-0.1094207763671875,9.6466064453125,0.006622314453125,0.0025177001953125,-0.0020599365234375
-0.1007843017578125,-0.107025146484375,9.632232666015625,-0.00189208984375,0.000396728515625,0.001129150390625
-0.1055755615234375,-0.10223388671875,9.625045776367188,-0.002960205078125,-0.001739501953125,0.001129150390625
-0.091217041015625,-0.1046295166015625,9.615478515625,-0.00189208984375,-0.00067138671875,7.62939453125e-05
-0.10797119140625,-0.1046295166015625,9.634628295898438,-0.000823974609375,0.000396728515625,7.62939453125e-05
-0.0984039306640625,-0.1190032958984375,9.62744140625,0.0002288818359375,-0.00067138671875,7.62939453125e-05
-0.0984039306640625,-0.1094207763671875,9.634628295898438,0.0002288818359375,0.000396728515625,7.62939453125e-05
-0.103179931640625,-0.099853515625,9.634628295898438,0.0002288818359375,-0.00067138671875,7.62939453125e-05
-0.0984039306640625,-0.1094207763671875,9.615478515625,0.0002288818359375,0.000396728515625,7.62939453125e-05
-0.0984039306640625,-0.12139892578125,9.613082885742188,0.0012969970703125,0.000396728515625,7.62939453125e-05
-0.1103668212890625,-0.11181640625,9.634628295898438,0.0012969970703125,0.000396728515625,0.001129150390625
-0.18218994140625,-0.2195587158203125,9.613082885742188,0.0002288818359375,0.000396728515625,0.001129150390625
-0.124725341796875,-0.1525115966796875,9.629837036132812,0.0012969970703125,0.0025177001953125,0.001129150390625
-0.1103668212890625,-0.138153076171875,9.632232666015625,-0.000823974609375,0.000396728515625,0.001129150390625
-0.103179931640625,-0.1190032958984375,9.62744140625,0.0002288818359375,-0.00067138671875,7.62939453125e-05
-0.1007843017578125,-0.1190032958984375,9.629837036132812,0.0002288818359375,-0.00067138671875,7.62939453125e-05
-0.10797119140625,-0.11181640625,9.632232666015625,0.0002288818359375,0.000396728515625,7.62939453125e-05
-0.1007843017578125,-0.1046295166015625,9.644210815429688,-0.000823974609375,-0.00067138671875,7.62939453125e-05
-0.1151580810546875,-0.116607666015625,9.629837036132812,0.0002288818359375,0.000396728515625,7.62939453125e-05
-0.1007843017578125,-0.1094207763671875,9.62744140625,-0.000823974609375,0.000396728515625,7.62939453125e-05
-0.0984039306640625,-0.1142120361328125,9.629837036132812,0.0002288818359375,0.000396728515625,7.62939453125e-05
-0.0984039306640625,-0.116607666015625,9.629837036132812,0.0002288818359375,0.000396728515625,7.62939453125e-05
-0.112762451171875,-0.1525115966796875,9.603500366210938,0.0002288818359375,-0.00067138671875,7.62939453125e-05
-0.1534576416015625,-0.212371826171875,9.620269775390625,0.0002288818359375,-0.001739501953125,0.001129150390625
-0.10797119140625,-0.095062255859375,9.62744140625,0.0023651123046875,0.0035858154296875,0.001129150390625
-0.10797119140625,-0.126190185546875,9.629837036132812,0.0002288818359375,0.000396728515625,0.001129150390625
-0.1055755615234375,-0.1237945556640625,9.62744140625,0.0002288818359375,0.000396728515625,7.62939453125e-05
-0.0936126708984375,-0.1094207763671875,9.620269775390625,0.0002288818359375,0.000396728515625,0.001129150390625
-0.1175537109375,-0.107025146484375,9.62744140625,0.0002288818359375,0.000396728515625,7.62939453125e-05
-0.1151580810546875,-0.0974578857421875,9.63702392578125,0.0002288818359375,0.000396728515625,7.62939453125e-05
-0.103179931640625,-0.1094207763671875,9.625045776367188,0.0002288818359375,0.000396728515625,7.62939453125e-05
-0.091217041015625,-0.1142120361328125,9.62744140625,0.0002288818359375,-0.00067138671875,7.62939453125e-05
-0.1055755615234375,-0.1094207763671875,9.62744140625,0.0002288818359375,0.000396728515625,7.62939453125e-05
-0.1055755615234375,-0.099853515625,9.634628295898438,0.0002288818359375,-0.00067138671875,7.62939453125e-05
-0.112762451171875,-0.107025146484375,9.632232666015625,0.0002288818359375,0.000396728515625,0.001129150390625
-0.1151580810546875,-0.116607666015625,9.62744140625,0.0002288818359375,-0.00067138671875,7.62939453125e-05
-0.10797119140625,-0.1046295166015625,9.632232666015625,0.0002288818359375,0.000396728515625,7.62939453125e-05
-0.10797119140625,-0.1046295166015625,9.62744140625,0.0002288818359375,0.000396728515625,7.62939453125e-05
-0.103179931640625,-0.10223388671875,9.62744140625,0.0002288818359375,0.000396728515625,7.62939453125e-05
-0.1007843017578125,-0.107025146484375,9.632232666015625,0.0002288818359375,0.000396728515625,7.62939453125e-05
-0.1055755615234375,-0.107025146484375,9.625045776367188,0.0002288818359375,0.000396728515625,7.62939453125e-05
-0.1055755615234375,-0.107025146484375,9.62744140625,-0.000823974609375,0.000396728515625,7.62939453125e-05
-0.1055755615234375,-0.10223388671875,9.632232666015625,0.0002288818359375,-0.00067138671875,7.62939453125e-05
-0.09600830078125,-0.12139892578125,9.620269775390625,0.0002288818359375,0.000396728515625,7.62939453125e-05
-0.103179931640625,-0.11181640625,9.622665405273438,0.0002288818359375,0.000396728515625,7.62939453125e-05
-0.10797119140625,-0.10223388671875,9.62744140625,0.0002288818359375,0.000396728515625,0.001129150390625
-0.1007843017578125,-0.1142120361328125,9.622665405273438,0.0002288818359375,0.000396728515625,7.62939453125e-05
-0.1055755615234375,-0.1190032958984375,9.625045776367188,0.0002288818359375,-0.00067138671875,7.62939453125e-05
-0.10797119140625,-0.107025146484375,9.629837036132812,-0.000823974609375,-0.00067138671875,7.62939453125e-05
-0.103179931640625,-0.10223388671875,9.625045776367188,-0.000823974609375,0.000396728515625,7.62939453125e-05
-0.09600830078125,-0.1142120361328125,9.632232666015625,0.0002288818359375,-0.00067138671875,7.62939453125e-05
-0.0936126708984375,-0.10223388671875,9.622665405273438,0.0002288818359375,0.000396728515625,7.62939453125e-05
-0.0936126708984375,-0.099853515625,9.62744140625,0.0002288818359375,0.000396728515625,7.62939453125e-05
-0.1007843017578125,-0.10223388671875,9.625045776367188,-0.000823974609375,0.000396728515625,0.001129150390625
-0.1103668212890625,-0.1142120361328125,9.625045776367188,0.0002288818359375,-0.00067138671875,7.62939453125e-05
-0.103179931640625,-0.107025146484375,9.629837036132812,0.0002288818359375,-0.00067138671875,7.62939453125e-05
-0.1151580810546875,-0.0974578857421875,9.62744140625,0.0002288818359375,0.000396728515625,7.62939453125e-05
-0.0984039306640625,-0.099853515625,9.639419555664062,-0.000823974609375,0.000396728515625,7.62939453125e-05
-0.1007843017578125,-0.0974578857421875,9.622665405273438,0.0002288818359375,0.000396728515625,7.62939453125e-05
-0.08642578125,-0.095062255859375,9.634628295898438,0.0002288818359375,0.000396728515625,7.62939453125e-05
-0.0984039306640625,-0.1094207763671875,9.629837036132812,-0.000823974609375,0.000396728515625,7.62939453125e-05
-0.0984039306640625,-0.107025146484375,9.634628295898438,-0.000823974609375,0.000396728515625,7.62939453125e-05
-0.112762451171875,-0.1142120361328125,9.620269775390625,-0.000823974609375,-0.00067138671875,7.62939453125e-05
-0.0984039306640625,-0.1142120361328125,9.62744140625,0.0002288818359375,-0.00067138671875,7.62939453125e-05
-0.0984039306640625,-0.12139892578125,9.632232666015625,0.0002288818359375,0.000396728515625,7.62939453125e-05
-0.1007843017578125,-0.1142120361328125,9.629837036132812,0.0002288818359375,0.000396728515625,7.62939453125e-05
-0.1007843017578125,-0.107025146484375,9.634628295898438,-0.000823974609375,0.000396728515625,7.62939453125e-05
-0.1103668212890625,-0.0974578857421875,9.62744140625,-0.000823974609375,-0.00067138671875,7.62939453125e-05
-0.1055755615234375,-0.107025146484375,9.634628295898438,-0.000823974609375,-0.00067138671875,7.62939453125e-05
-0.1103668212890625,-0.1094207763671875,9.629837036132812,-0.000823974609375,-0.00067138671875,7.62939453125e-05
-0.1175537109375,-0.116607666015625,9.63702392578125,-0.000823974609375,-0.00067138671875,7.62939453125e-05
-0.1007843017578125,-0.1046295166015625,9.591537475585938,0.0002288818359375,-0.00067138671875,7.62939453125e-05
-0.1007843017578125,-0.0926666259765625,9.639419555664062,0.0002288818359375,0.000396728515625,7.62939453125e-05
-0.103179931640625,-0.1190032958984375,9.651382446289062,0.0002288818359375,0.000396728515625,7.62939453125e-05
-0.0984039306640625,-0.0830841064453125,9.634628295898438,0.0002288818359375,-0.00067138671875,7.62939453125e-05
-0.103179931640625,-0.1142120361328125,9.622665405273438,0.0002288818359375,0.000396728515625,7.62939453125e-05
-0.0984039306640625,-0.107025146484375,9.613082885742188,-3.0517578125e-05,-0.000640869140625,0.0008392333984375
-0.0936126708984375,-0.095062255859375,9.620269775390625,-3.0517578125e-05,0.00042724609375,-0.000213623046875
-0.09600830078125,-0.1094207763671875,9.634628295898438,-3.0517578125e-05,-0.000640869140625,-0.000213623046875
-0.091217041015625,-0.10223388671875,9.63702392578125,-3.0517578125e-05,0.00042724609375,-0.000213623046875
-0.091217041015625,-0.1142120361328125,9.634628295898438,-3.0517578125e-05,-0.000640869140625,-0.000213623046875
-0.09600830078125,-0.1046295166015625,9.634628295898438,-3.0517578125e-05,0.00042724609375,-0.000213623046875
-0.0984039306640625,-0.0974578857421875,9.641815185546875,-3.0517578125e-05,0.00042724609375,-0.000213623046875
-0.103179931640625,-0.099853515625,9.625045776367188,-3.0517578125e-05,-0.000640869140625,-0.000213623046875
-0.103179931640625,-0.107025146484375,9.644210815429688,0.00103759765625,0.00042724609375,-0.000213623046875
-0.1055755615234375,-0.1094207763671875,9.615478515625,-3.0517578125e-05,0.00042724609375,-0.000213623046875
-0.112762451171875,-0.11181640625,9.6466064453125,-3.0517578125e-05,-0.000640869140625,-0.000213623046875
-0.1175537109375,-0.1142120361328125,9.617874145507812,-3.0517578125e-05,0.00042724609375,-0.000213623046875
-0.1055755615234375,-0.11181640625,9.625045776367188,-3.0517578125e-05,0.00042724609375,-0.000213623046875
-0.0984039306640625,-0.10223388671875,9.63702392578125,0.00103759765625,0.00042724609375,-0.000213623046875
-0.103179931640625,-0.10223388671875,9.62744140625,0.00103759765625,0.00042724609375,-0.000213623046875
-0.0984039306640625,-0.107025146484375,9.613082885742188,-0.0010833740234375,-0.001708984375,-0.000213623046875
-0.103179931640625,-0.12139892578125,9.617874145507812,-0.0010833740234375,-0.000640869140625,-0.000213623046875
-0.103179931640625,-0.12139892578125,9.641815185546875,-3.0517578125e-05,-0.000640869140625,-0.000213623046875
-0.0984039306640625,-0.1046295166015625,9.625045776367188,-3.0517578125e-05,-0.000640869140625,-0.000213623046875
-0.1007843017578125,-0.107025146484375,9.62744140625,-3.0517578125e-05,-0.000640869140625,-0.000213623046875
-0.09600830078125,-0.11181640625,9.610687255859375,-3.0517578125e-05,-0.000640869140625,-0.000213623046875
-0.103179931640625,-0.1142120361328125,9.670547485351562,-3.0517578125e-05,0.00042724609375,-0.000213623046875
-0.1055755615234375,-0.107025146484375,9.64898681640625,-3.0517578125e-05,0.00042724609375,-0.000213623046875
-0.0984039306640625,-0.1237945556640625,9.610687255859375,-3.0517578125e-05,0.00042724609375,-0.000213623046875
-0.02178955078125,0.0078887939453125,9.634628295898438,0.002105712890625,0.0025482177734375,-0.000213623046875
-0.10797119140625,-0.0926666259765625,9.625045776367188,-3.0517578125e-05,0.0025482177734375,0.0008392333984375
-0.091217041015625,-0.0782928466796875,9.6466064453125,-3.0517578125e-05,0.00042724609375,-0.000213623046875
-0.103179931640625,-0.09027099609375,9.62744140625,-3.0517578125e-05,0.00042724609375,-0.000213623046875
-0.103179931640625,-0.0878753662109375,9.641815185546875,-3.0517578125e-05,0.00042724609375,-0.000213623046875
-0.10797119140625,-0.1046295166015625,9.62744140625,-3.0517578125e-05,-0.000640869140625,-0.000213623046875
-0.1007843017578125,-0.116607666015625,9.629837036132812,-0.0010833740234375,-0.000640869140625,-0.000213623046875
-0.0984039306640625,-0.1142120361328125,9.632232666015625,-3.0517578125e-05,0.00042724609375,-0.000213623046875
-0.1007843017578125,-0.1094207763671875,9.620269775390625,-0.0010833740234375,0.00042724609375,-0.000213623046875
-0.1175537109375,-0.12139892578125,9.613082885742188,-3.0517578125e-05,0.00042724609375,-0.000213623046875
-0.13909912109375,-0.1620941162109375,9.579559326171875,-3.0517578125e-05,-0.001708984375,-0.000213623046875
-0.1199493408203125,-0.1525115966796875,9.629837036132812,0.00103759765625,0.0014801025390625,0.0008392333984375
-0.112762451171875,-0.1142120361328125,9.625045776367188,0.00103759765625,0.00042724609375,0.0008392333984375
-0.112762451171875,-0.107025146484375,9.622665405273438,-3.0517578125e-05,0.00042724609375,-0.000213623046875
-0.112762451171875,-0.116607666015625,9.629837036132812,-3.0517578125e-05,0.00042724609375,-0.000213623046875
-0.1007843017578125,-0.107025146484375,9.641815185546875,-3.0517578125e-05,-0.000640869140625,-0.000213623046875
-0.1103668212890625,-0.0974578857421875,9.617874145507812,-3.0517578125e-05,-0.000640869140625,-0.000213623046875
-0.103179931640625,-0.1142120361328125,9.620269775390625,-3.0517578125e-05,0.00042724609375,0.0008392333984375
-0.0936126708984375,-0.107025146484375,9.6466064453125,-3.0517578125e-05,0.00042724609375,-0.000213623046875
-0.10797119140625,-0.099853515625,9.632232666015625,-3.0517578125e-05,-0.001708984375,-0.000213623046875
-0.1103668212890625,-0.0926666259765625,9.625045776367188,-0.0010833740234375,0.00042724609375,-0.000213623046875
-0.1055755615234375,-0.095062255859375,9.629837036132812,-0.0010833740234375,0.00042724609375,-0.000213623046875
-0.10797119140625,-0.1046295166015625,9.64898681640625,-3.0517578125e-05,-0.000640869140625,-0.000213623046875
-0.1007843017578125,-0.10223388671875,9.62744140625,-3.0517578125e-05,-0.000640869140625,-0.000213623046875
-0.0984039306640625,-0.10223388671875,9.620269775390625,-3.0517578125e-05,-0.000640869140625,-0.000213623046875
-0.1103668212890625,-0.1142120361328125,9.639419555664062,-0.0010833740234375,-0.000640869140625,0.0008392333984375
-0.1007843017578125,-0.0974578857421875,9.641815185546875,-3.0517578125e-05,0.00042724609375,-0.000213623046875
-0.1055755615234375,-0.10223388671875,9.64898681640625,-3.0517578125e-05,-0.000640869140625,-0.000213623046875
-0.0936126708984375,-0.107025146484375,9.629837036132812,-3.0517578125e-05,0.00042724609375,-0.000213623046875
-0.09600830078125,-0.11181640625,9.620269775390625,-3.0517578125e-05,-0.000640869140625,0.0008392333984375
-0.1055755615234375,-0.10223388671875,9.634628295898438,-0.0010833740234375,0.00042724609375,-0.000213623046875
-0.103179931640625,-0.095062255859375,9.63702392578125,-0.0010833740234375,-0.000640869140625,-0.000213623046875
-0.1055755615234375,-0.10223388671875,9.629837036132812,-3.0517578125e-05,-0.000640869140625,-0.000213623046875
-0.10797119140625,-0.1094207763671875,9.63702392578125,-3.0517578125e-05,-0.000640869140625,-0.00128173828125
-0.1055755615234375,-0.1094207763671875,9.629837036132812,-3.0517578125e-05,-0.000640869140625,-0.000213623046875
-0.10797119140625,-0.1142120361328125,9.620269775390625,-3.0517578125e-05,-0.000640869140625,-0.000213623046875
-0.103179931640625,-0.10223388671875,9.625045776367188,0.00103759765625,-0.000640869140625,-0.000213623046875
-0.1055755615234375,-0.1094207763671875,9.632232666015625,-3.0517578125e-05,0.00042724609375,-0.000213623046875
-0.112762451171875,-0.10223388671875,9.62744140625,-3.0517578125e-05,-0.000640869140625,-0.000213623046875
-0.103179931640625,-0.099853515625,9.620269775390625,-3.0517578125e-05,-0.000640869140625,-0.000213623046875
-0.091217041015625,-0.10223388671875,9.629837036132812,-3.0517578125e-05,-0.000640869140625,-0.000213623046875
-0.0936126708984375,-0.1046295166015625,9.639419555664062,-3.0517578125e-05,-0.000640869140625,-0.000213623046875
-0.1103668212890625,-0.11181640625,9.632232666015625,-3.0517578125e-05,-0.000640869140625,-0.000213623046875
-0.1103668212890625,-0.10223388671875,9.63702392578125,-0.0010833740234375,-0.000640869140625,-0.000213623046875
-0.1103668212890625,-0.1046295166015625,9.639419555664062,-3.0517578125e-05,0.00042724609375,-0.000213623046875
-0.1151580810546875,-0.1046295166015625,9.629837036132812,-3.0517578125e-05,0.00042724609375,-0.000213623046875
-0.0984039306640625,-0.099853515625,9.63702392578125,-3.0517578125e-05,-0.000640869140625,-0.000213623046875
-0.103179931640625,-0.1046295166015625,9.615478515625,-3.0517578125e-05,0.00042724609375,-0.000213623046875
-0.1103668212890625,-0.0974578857421875,9.617874145507812,-0.0010833740234375,-0.000640869140625,-0.000213623046875
-0.10797119140625,-0.107025146484375,9.62744140625,-3.0517578125e-05,0.00042724609375,-0.000213623046875
-0.1151580810546875,-0.107025146484375,9.62744140625,-3.0517578125e-05,-0.000640869140625,-0.000213623046875
-0.103179931640625,-0.1094207763671875,9.622665405273438,-3.0517578125e-05,-0.000640869140625,-0.000213623046875
-0.103179931640625,-0.095062255859375,9.632232666015625,-3.0517578125e-05,-0.000640869140625,-0.000213623046875
-0.0984039306640625,-0.1046295166015625,9.622665405273438,-3.0517578125e-05,0.00042724609375,-0.000213623046875
-0.10797119140625,-0.1046295166015625,9.632232666015625,-3.0517578125e-05,0.00042724609375,-0.000213623046875
-0.10797119140625,-0.1094207763671875,9.632232666015625,-3.0517578125e-05,0.00042724609375,-0.000213623046875
-0.1055755615234375,-0.10223388671875,9.632232666015625,-3.0517578125e-05,-0.000640869140625,-0.000213623046875
-0.1151580810546875,-0.095062255859375,9.617874145507812,-3.0517578125e-05,-0.000640869140625,-0.000213623046875
-0.0984039306640625,-0.10223388671875,9.62744140625,-3.0517578125e-05,-0.000640869140625,-0.000213623046875
-0.1007843017578125,-0.107025146484375,9.632232666015625,-3.0517578125e-05,-0.000640869140625,0.0008392333984375
-0.1007843017578125,-0.107025146484375,9.644210815429688,-3.0517578125e-05,0.00042724609375,-0.000213623046875
-0.0984039306640625,-0.095062255859375,9.598709106445312,-0.0010833740234375,-0.000640869140625,-0.000213623046875
-0.1151580810546875,-0.1142120361328125,9.634628295898438,-3.0517578125e-05,0.00042724609375,-0.000213623046875
-0.1199493408203125,-0.10223388671875,9.639419555664062,-3.0517578125e-05,-0.000640869140625,-0.000213623046875
-0.0936126708984375,-0.107025146484375,9.63702392578125,-3.0517578125e-05,-0.000640869140625,-0.000213623046875
-0.1055755615234375,-0.1094207763671875,9.629837036132812,-3.0517578125e-05,0.00042724609375,-0.000213623046875
-0.10797119140625,-0.1046295166015625,9.632232666015625,-3.0517578125e-05,-0.000640869140625,-0.000213623046875
-0.103179931640625,-0.0974578857421875,9.622665405273438,-3.0517578125e-05,-0.000640869140625,-0.000213623046875
-0.1103668212890625,-0.1046295166015625,9.625045776367188,-3.0517578125e-05,0.00042724609375,0.0008392333984375
-0.1151580810546875,-0.10223388671875,9.6585693359375,-3.0517578125e-05,-0.000640869140625,-0.000213623046875
-0.1055755615234375,-0.1094207763671875,9.610687255859375,-3.0517578125e-05,-0.000640869140625,-0.000213623046875
-0.0936126708984375,-0.10223388671875,9.629837036132812,-3.0517578125e-05,0.00042724609375,-0.000213623046875
-0.103179931640625,-0.1094207763671875,9.639419555664062,-3.0517578125e-05,0.00042724609375,-0.000213623046875
-0.1055755615234375,-0.099853515625,9.629837036132812,-3.0517578125e-05,-0.000640869140625,-0.000213623046875
-0.112762451171875,-0.1142120361328125,9.63702392578125,-3.0517578125e-05,-0.000640869140625,-0.000213623046875
-0.10797119140625,-0.1094207763671875,9.62744140625,-3.0517578125e-05,0.00042724609375,-0.000213623046875
-0.0984039306640625,-0.11181640625,9.634628295898438,-0.0010833740234375,-0.000640869140625,-0.000213623046875
-0.1007843017578125,-0.107025146484375,9.622665405273438,-3.0517578125e-05,-0.000640869140625,-0.000213623046875
-0.09600830078125,-0.11181640625,9.62744140625,-3.0517578125e-05,-0.000640869140625,-0.000213623046875
-0.10797119140625,-0.107025146484375,9.64898681640625,0.00103759765625,-0.000640869140625,-0.000213623046875
-0.10797119140625,-0.107025146484375,9.63702392578125,-0.0010833740234375,0.0014801025390625,0.0008392333984375
-0.1055755615234375,-0.0926666259765625,9.586746215820312,-0.0010833740234375,-0.000640869140625,-0.000213623046875
-0.1151580810546875,-0.1046295166015625,9.641815185546875,-3.0517578125e-05,0.00042724609375,-0.000213623046875
-0.1007843017578125,-0.0878753662109375,9.625045776367188,-3.0517578125e-05,-0.000640869140625,-0.000213623046875
-0.10797119140625,-0.10223388671875,9.6466064453125,-3.0517578125e-05,0.00042724609375,-0.000213623046875
-0.1007843017578125,-0.1046295166015625,9.617874145507812,-0.0010833740234375,0.00042724609375,-0.000213623046875
-0.1007843017578125,-0.1094207763671875,9.62744140625,-0.0010833740234375,-0.000640869140625,-0.000213623046875
-0.0984039306640625,-0.107025146484375,9.622665405273438,-3.0517578125e-05,-0.000640869140625,-0.000213623046875
-0.112762451171875,-0.107025146484375,9.622665405273438,-3.0517578125e-05,-0.000640869140625,-0.000213623046875
-0.1151580810546875,-0.1142120361328125,9.641815185546875,-3.0517578125e-05,-0.000640869140625,-0.00128173828125
-0.0457305908203125,-0.0136566162109375,9.675323486328125,-3.0517578125e-05,-0.000640869140625,-0.000213623046875
-0.060089111328125,-0.011260986328125,9.634628295898438,-3.0517578125e-05,0.0025482177734375,0.0008392333984375
-0.1055755615234375,-0.085479736328125,9.613082885742188,0.00103759765625,0.0025482177734375,0.0008392333984375
-0.0888214111328125,-0.0663299560546875,9.622665405273438,-0.0010833740234375,-0.000640869140625,0.0008392333984375
-0.1055755615234375,-0.085479736328125,9.641815185546875,-3.0517578125e-05,0.00042724609375,-0.000213623046875
-0.1007843017578125,-0.0974578857421875,9.634628295898438,-0.0010833740234375,-0.000640869140625,-0.000213623046875
-0.1055755615234375,-0.1142120361328125,9.629837036132812,-3.0517578125e-05,-0.000640869140625,-0.000213623046875
-0.10797119140625,-0.1046295166015625,9.613082885742188,-0.0010833740234375,-0.000640869140625,0.0008392333984375
-0.1055755615234375,-0.1046295166015625,9.62744140625,-3.0517578125e-05,-0.000640869140625,-0.000213623046875
-0.10797119140625,-0.1046295166015625,9.622665405273438,-3.0517578125e-05,-0.000640869140625,-0.000213623046875
-0.1151580810546875,-0.107025146484375,9.644210815429688,-3.0517578125e-05,0.00042724609375,-0.000213623046875
-0.1103668212890625,-0.107025146484375,9.644210815429688,-3.0517578125e-05,0.00042724609375,-0.000213623046875
-0.1151580810546875,-0.107025146484375,9.629837036132812,-3.0517578125e-05,-0.000640869140625,0.0008392333984375
-0.10797119140625,-0.1046295166015625,9.629837036132812,-3.0517578125e-05,-0.000640869140625,-0.000213623046875
-0.1103668212890625,-0.107025146484375,9.625045776367188,-3.0517578125e-05,0.00042724609375,-0.000213623046875
-0.1055755615234375,-0.10223388671875,9.625045776367188,-3.0517578125e-05,0.00042724609375,-0.000213623046875
-0.103179931640625,-0.0974578857421875,9.622665405273438,-3.0517578125e-05,-0.000640869140625,-0.000213623046875
-0.1103668212890625,-0.107025146484375,9.629837036132812,-3.0517578125e-05,-0.000640869140625,-0.000213623046875
-0.1055755615234375,-0.1094207763671875,9.610687255859375,-3.0517578125e-05,0.00042724609375,-0.000213623046875
-0.10797119140625,-0.1142120361328125,9.663360595703125,-3.0517578125e-05,0.00042724609375,-0.000213623046875
-0.1007843017578125,-0.116607666015625,9.620269775390625,-3.0517578125e-05,-0.000640869140625,-0.000213623046875
-0.1007843017578125,-0.1046295166015625,9.625045776367188,-3.0517578125e-05,0.00042724609375,-0.000213623046875
-0.10797119140625,-0.1094207763671875,9.62744140625,-3.0517578125e-05,0.00042724609375,-0.00128173828125
-0.1103668212890625,-0.1142120361328125,9.629837036132812,-0.0010833740234375,0.00042724609375,-0.000213623046875
-0.1007843017578125,-0.1142120361328125,9.634628295898438,-3.0517578125e-05,0.00042724609375,-0.000213623046875
-0.1007843017578125,-0.1142120361328125,9.613082885742188,-3.0517578125e-05,-0.000640869140625,-0.000213623046875
-0.103179931640625,-0.1046295166015625,9.632232666015625,-3.0517578125e-05,0.00042724609375,-0.000213623046875
-0.10797119140625,-0.1094207763671875,9.62744140625,-3.0517578125e-05,0.00042724609375,-0.000213623046875
-0.0984039306640625,-0.1094207763671875,9.603500366210938,-3.0517578125e-05,-0.000640869140625,-0.000213623046875
-0.10797119140625,-0.1046295166015625,9.639419555664062,-3.0517578125e-05,-0.000640869140625,-0.000213623046875
-0.10797119140625,-0.10223388671875,9.634628295898438,-3.0517578125e-05,0.00042724609375,-0.000213623046875
-0.103179931640625,-0.10223388671875,9.620269775390625,-3.0517578125e-05,0.00042724609375,-0.000213623046875
-0.1055755615234375,-0.0926666259765625,9.651382446289062,-3.0517578125e-05,-0.000640869140625,-0.000213623046875
-0.103179931640625,-0.11181640625,9.632232666015625,-3.0517578125e-05,-0.000640869140625,-0.000213623046875
-0.10797119140625,-0.11181640625,9.641815185546875,-3.0517578125e-05,-0.000640869140625,0.0008392333984375
-0.1055755615234375,-0.1142120361328125,9.617874145507812,-0.0010833740234375,0.00042724609375,-0.000213623046875
-0.1103668212890625,-0.1190032958984375,9.639419555664062,-0.0010833740234375,0.00042724609375,-0.000213623046875
-0.1007843017578125,-0.107025146484375,9.644210815429688,-3.0517578125e-05,0.00042724609375,-0.000213623046875
-0.1055755615234375,-0.11181640625,9.62744140625,-3.0517578125e-05,-0.000640869140625,-0.000213623046875
-0.09600830078125,-0.1046295166015625,9.625045776367188,-0.0010833740234375,0.00042724609375,-0.000213623046875
-0.1055755615234375,-0.10223388671875,9.634628295898438,-3.0517578125e-05,-0.000640869140625,-0.000213623046875
-0.112762451171875,-0.11181640625,9.639419555664062,-3.0517578125e-05,-0.000640869140625,-0.000213623046875
-0.1103668212890625,-0.107025146484375,9.622665405273438,-3.0517578125e-05,0.00042724609375,-0.000213623046875
-0.103179931640625,-0.1046295166015625,9.629837036132812,-3.0517578125e-05,0.00042724609375,-0.000213623046875
-0.0984039306640625,-0.1094207763671875,9.641815185546875,-3.0517578125e-05,0.00042724609375,-0.000213623046875
-0.112762451171875,-0.11181640625,9.629837036132812,-3.0517578125e-05,0.00042724609375,-0.000213623046875
-0.1055755615234375,-0.0926666259765625,9.617874145507812,-3.0517578125e-05,0.00042724609375,-0.000213623046875
-0.1103668212890625,-0.11181640625,9.639419555664062,0.00103759765625,-0.000640869140625,-0.000213623046875
-0.1055755615234375,-0.10223388671875,9.634628295898438,-3.0517578125e-05,0.00042724609375,-0.000213623046875
-0.1103668212890625,-0.116607666015625,9.625045776367188,-3.0517578125e-05,0.00042724609375,-0.000213623046875
-0.10797119140625,-0.11181640625,9.62744140625,-3.0517578125e-05,0.00042724609375,0.0008392333984375
-0.1175537109375,-0.1094207763671875,9.632232666015625,-3.0517578125e-05,0.00042724609375,-0.000213623046875
-0.1055755615234375,-0.1142120361328125,9.622665405273438,-3.0517578125e-05,-0.000640869140625,-0.000213623046875
-0.10797119140625,-0.1094207763671875,9.625045776367188,-3.0517578125e-05,-0.000640869140625,-0.000213623046875
-0.1175537109375,-0.0926666259765625,9.629837036132812,-3.0517578125e-05,0.00042724609375,-0.000213623046875
-0.1151580810546875,-0.107025146484375,9.62744140625,-3.0517578125e-05,-0.000640869140625,-0.000213623046875
-0.09600830078125,-0.11181640625,9.632232666015625,-3.0517578125e-05,-0.000640869140625,-0.000213623046875
-0.103179931640625,-0.1094207763671875,9.632232666015625,-3.0517578125e-05,0.00042724609375,-0.000213623046875
-0.1103668212890625,-0.1094207763671875,9.629837036132812,-0.0010833740234375,-0.000640869140625,0.0008392333984375
-0.112762451171875,-0.107025146484375,9.62744140625,-3.0517578125e-05,0.00042724609375,-0.000213623046875
-0.1103668212890625,-0.10223388671875,9.63702392578125,-3.0517578125e-05,0.00042724609375,-0.000213623046875
-0.103179931640625,-0.11181640625,9.625045776367188,-3.0517578125e-05,-0.000640869140625,0.0008392333984375
-0.1055755615234375,-0.1046295166015625,9.634628295898438,-3.0517578125e-05,-0.000640869140625,-0.000213623046875
-0.103179931640625,-0.10223388671875,9.639419555664062,-3.0517578125e-05,-0.000640869140625,-0.000213623046875
-0.0984039306640625,-0.107025146484375,9.632232666015625,-3.0517578125e-05,-0.000640869140625,-0.000213623046875
-0.09600830078125,-0.107025146484375,9.634628295898438,-0.0010833740234375,-0.000640869140625,-0.000213623046875
-0.09600830078125,-0.1142120361328125,9.632232666015625,-3.0517578125e-05,0.00042724609375,-0.000213623046875
-0.024169921875,0.024658203125,9.660964965820312,-3.0517578125e-05,-0.001708984375,-0.000213623046875
-0.1007843017578125,-0.0878753662109375,9.610687255859375,-3.0517578125e-05,0.0014801025390625,0.0008392333984375
-0.09600830078125,-0.073516845703125,9.632232666015625,-3.0517578125e-05,0.00042724609375,-0.000213623046875
-0.0984039306640625,-0.09027099609375,9.634628295898438,-3.0517578125e-05,0.00042724609375,-0.000213623046875
-0.10797119140625,-0.0974578857421875,9.641815185546875,-3.0517578125e-05,0.00042724609375,0.0008392333984375
-0.1151580810546875,-0.10223388671875,9.634628295898438,-3.0517578125e-05,0.00042724609375,-0.000213623046875
-0.103179931640625,-0.1046295166015625,9.639419555664062,-3.0517578125e-05,-0.000640869140625,0.0008392333984375
-0.1103668212890625,-0.1094207763671875,9.641815185546875,0.00103759765625,0.0014801025390625,-0.000213623046875
-0.103179931640625,-0.107025146484375,9.639419555664062,0.002105712890625,0.0025482177734375,-0.000213623046875
-0.10797119140625,-0.11181640625,9.629837036132812,-0.0010833740234375,-0.000640869140625,0.0008392333984375
-0.1007843017578125,-0.107025146484375,9.62744140625,-0.0021514892578125,-0.001708984375,-0.000213623046875
-0.1151580810546875,-0.0974578857421875,9.6466064453125,-3.0517578125e-05,-0.000640869140625,-0.000213623046875
-0.1151580810546875,-0.0974578857421875,9.629837036132812,-3.0517578125e-05,-0.000640869140625,-0.000213623046875
-0.1103668212890625,-0.11181640625,9.64898681640625,-3.0517578125e-05,0.00042724609375,-0.000213623046875
-0.1055755615234375,-0.1046295166015625,9.644210815429688,0.00103759765625,0.0014801025390625,-0.000213623046875
-0.1055755615234375,-0.10223388671875,9.634628295898438,-0.0010833740234375,-0.000640869140625,0.0008392333984375
-0.1007843017578125,-0.1190032958984375,9.620269775390625,-0.0010833740234375,-0.000640869140625,-0.000213623046875
-0.112762451171875,-0.1046295166015625,9.613082885742188,-0.0010833740234375,-0.000640869140625,-0.000213623046875
-0.112762451171875,-0.099853515625,9.63702392578125,-3.0517578125e-05,0.0025482177734375,0.0008392333984375
-0.122344970703125,-0.147735595703125,9.634628295898438,-3.0517578125e-05,-0.000640869140625,0.0008392333984375
-0.103179931640625,-0.1142120361328125,9.629837036132812,-3.0517578125e-05,0.00042724609375,0.0008392333984375
-0.112762451171875,-0.11181640625,9.62744140625,-3.0517578125e-05,0.00042724609375,-0.000213623046875
-0.112762451171875,-0.10223388671875,9.629837036132812,-3.0517578125e-05,-0.000640869140625,-0.000213623046875
-0.112762451171875,-0.10223388671875,9.641815185546875,-3.0517578125e-05,0.00042724609375,-0.000213623046875
-0.069671630859375,-0.0352020263671875,9.68011474609375,-3.0517578125e-05,0.00042724609375,-0.000213623046875
-0.0409393310546875,0.0030975341796875,9.663360595703125,-3.0517578125e-05,-0.000640869140625,-0.000213623046875
-0.1007843017578125,-0.085479736328125,9.639419555664062,0.002105712890625,0.0025482177734375,0.0008392333984375
-0.103179931640625,-0.063934326171875,9.62744140625,0.00103759765625,0.0014801025390625,-0.000213623046875
-0.112762451171875,-0.0974578857421875,9.634628295898438,-3.0517578125e-05,0.00042724609375,-0.000213623046875
-0.1151580810546875,-0.09027099609375,9.641815185546875,-3.0517578125e-05,0.00042724609375,-0.000213623046875
-0.10797119140625,-0.099853515625,9.6466064453125,-3.0517578125e-05,0.00042724609375,-0.000213623046875
-0.1103668212890625,-0.1094207763671875,9.644210815429688,-3.0517578125e-05,0.00042724609375,-0.000213623046875
-0.1055755615234375,-0.1046295166015625,9.63702392578125,-0.0010833740234375,-0.000640869140625,-0.000213623046875
-0.1175537109375,-0.107025146484375,9.632232666015625,-3.0517578125e-05,0.00042724609375,-0.000213623046875
-0.112762451171875,-0.10223388671875,9.62744140625,-3.0517578125e-05,0.00042724609375,-0.000213623046875
-0.0984039306640625,-0.10223388671875,9.625045776367188,-0.0010833740234375,0.00042724609375,-0.000213623046875
-0.103179931640625,-0.099853515625,9.63702392578125,-3.0517578125e-05,0.0014801025390625,-0.00128173828125
-0.0984039306640625,-0.11181640625,9.601104736328125,-3.0517578125e-05,0.00042724609375,-0.000213623046875
-0.1055755615234375,-0.10223388671875,9.656173706054688,0.00103759765625,0.00042724609375,-0.000213623046875
-0.1103668212890625,-0.1094207763671875,9.629837036132812,-3.0517578125e-05,-0.000640869140625,-0.00128173828125
-0.091217041015625,-0.0974578857421875,9.653778076171875,-3.0517578125e-05,0.00042724609375,-0.000213623046875
-0.0984039306640625,-0.1046295166015625,9.644210815429688,-3.0517578125e-05,0.00042724609375,-0.000213623046875
-0.1055755615234375,-0.10223388671875,9.6466064453125,-3.0517578125e-05,-0.000640869140625,0.0008392333984375
-0.112762451171875,-0.1046295166015625,9.639419555664062,-0.0010833740234375,0.00042724609375,-0.000213623046875
-0.1151580810546875,-0.095062255859375,9.620269775390625,-3.0517578125e-05,-0.000640869140625,-0.000213623046875
-0.112762451171875,-0.09027099609375,9.629837036132812,-3.0517578125e-05,-0.000640869140625,-0.000213623046875
-0.1175537109375,-0.10223388671875,9.617874145507812,-3.0517578125e-05,0.00042724609375,-0.000213623046875
-0.10797119140625,-0.1094207763671875,9.653778076171875,-3.0517578125e-05,-0.000640869140625,-0.000213623046875
-0.1007843017578125,-0.10223388671875,9.632232666015625,-3.0517578125e-05,-0.000640869140625,-0.000213623046875
-0.1103668212890625,-0.0926666259765625,9.620269775390625,-3.0517578125e-05,0.00042724609375,-0.000213623046875
-0.10797119140625,-0.10223388671875,9.656173706054688,-3.0517578125e-05,0.0014801025390625,-0.000213623046875
-0.1055755615234375,-0.0926666259765625,9.632232666015625,-3.0517578125e-05,-0.000640869140625,-0.000213623046875
-0.1007843017578125,-0.10223388671875,9.608291625976562,-3.0517578125e-05,-0.000640869140625,-0.000213623046875
-0.103179931640625,-0.0974578857421875,9.632232666015625,0.002105712890625,-0.000640869140625,-0.000213623046875
-0.10797119140625,-0.099853515625,9.644210815429688,-3.0517578125e-05,-0.000640869140625,-0.000213623046875
-0.103179931640625,-0.10223388671875,9.629837036132812,-0.0010833740234375,0.00042724609375,-0.000213623046875
-0.1055755615234375,-0.095062255859375,9.625045776367188,-0.0010833740234375,0.00042724609375,-0.000213623046875
-0.10797119140625,-0.1046295166015625,9.63702392578125,-3.0517578125e-05,0.00042724609375,-0.000213623046875
-0.0984039306640625,-0.1190032958984375,9.62744140625,-3.0517578125e-05,0.00042724609375,0.0008392333984375
-0.0936126708984375,-0.1046295166015625,9.632232666015625,0.00103759765625,0.00042724609375,-0.000213623046875
-0.0936126708984375,-0.1142120361328125,9.651382446289062,-3.0517578125e-05,0.00042724609375,-0.000213623046875
-0.10797119140625,-0.107025146484375,9.639419555664062,-3.0517578125e-05,0.00042724609375,-0.000213623046875
-0.1103668212890625,-0.1046295166015625,9.634628295898438,-3.0517578125e-05,-0.000640869140625,-0.000213623046875
-0.09600830078125,-0.1046295166015625,9.629837036132812,-3.0517578125e-05,-0.000640869140625,0.0008392333984375
-0.1055755615234375,-0.099853515625,9.644210815429688,-3.0517578125e-05,-0.000640869140625,-0.000213623046875
-0.1103668212890625,-0.099853515625,9.63702392578125,-3.0517578125e-05,-0.001708984375,-0.000213623046875
-0.081634521484375,-0.05914306640625,9.682510375976562,-3.0517578125e-05,-0.000640869140625,-0.000213623046875
-0.03375244140625,0.0078887939453125,9.634628295898438,-3.0517578125e-05,-0.001708984375,0.0008392333984375
-0.09600830078125,-0.09027099609375,9.62744140625,-3.0517578125e-05,0.0025482177734375,0.0008392333984375
-0.1055755615234375,-0.0711212158203125,9.632232666015625,0.00103759765625,0.00042724609375,0.0008392333984375
-0.1175537109375,-0.0782928466796875,9.639419555664062,-3.0517578125e-05,0.00042724609375,-0.000213623046875
-0.103179931640625,-0.09027099609375,9.6466064453125,-3.0517578125e-05,0.00042724609375,-0.000213623046875
-0.0984039306640625,-0.1046295166015625,9.641815185546875,-3.0517578125e-05,-0.000640869140625,-0.000213623046875
-0.0936126708984375,-0.099853515625,9.625045776367188,-3.0517578125e-05,0.00042724609375,-0.000213623046875
-0.1175537109375,-0.099853515625,9.632232666015625,-3.0517578125e-05,0.00042724609375,0.0008392333984375
-0.1175537109375,-0.107025146484375,9.634628295898438,-3.0517578125e-05,0.00042724609375,-0.000213623046875
-0.1103668212890625,-0.107025146484375,9.639419555664062,-3.0517578125e-05,-0.000640869140625,-0.000213623046875
-0.112762451171875,-0.1094207763671875,9.644210815429688,-3.0517578125e-05,-0.000640869140625,0.0008392333984375
-0.10797119140625,-0.116607666015625,9.629837036132812,-3.0517578125e-05,0.00042724609375,0.0008392333984375
-0.10797119140625,-0.11181640625,9.632232666015625,-3.0517578125e-05,-0.000640869140625,-0.000213623046875
-0.1007843017578125,-0.0974578857421875,9.632232666015625,-3.0517578125e-05,0.00042724609375,-0.000213623046875
-0.0984039306640625,-0.107025146484375,9.625045776367188,0.00103759765625,0.00042724609375,0.0008392333984375
-0.112762451171875,-0.11181640625,9.634628295898438,-3.0517578125e-05,-0.000640869140625,0.0008392333984375
-0.1199493408203125,-0.10223388671875,9.632232666015625,-3.0517578125e-05,-0.000640869140625,-0.000213623046875
-0.1199493408203125,-0.107025146484375,9.632232666015625,-3.0517578125e-05,0.0014801025390625,-0.000213623046875
-0.10797119140625,-0.1094207763671875,9.656173706054688,-3.0517578125e-05,0.00042724609375,-0.000213623046875
-0.10797119140625,-0.099853515625,9.610687255859375,-3.0517578125e-05,-0.001708984375,-0.000213623046875
-0.124725341796875,-0.107025146484375,9.632232666015625,-3.0517578125e-05,0.00042724609375,-0.000213623046875
-0.112762451171875,-0.095062255859375,9.62744140625,-3.0517578125e-05,-0.000640869140625,-0.000213623046875
-0.122344970703125,-0.10223388671875,9.615478515625,0.00103759765625,-0.000640869140625,-0.000213623046875
-0.103179931640625,-0.107025146484375,9.644210815429688,-3.0517578125e-05,0.00042724609375,-0.000213623046875
-0.1055755615234375,-0.11181640625,9.6466064453125,-3.0517578125e-05,-0.000640869140625,-0.000213623046875
-0.1055755615234375,-0.1046295166015625,9.625045776367188,-3.0517578125e-05,-0.001708984375,-0.000213623046875
-0.10797119140625,-0.099853515625,9.634628295898438,-3.0517578125e-05,0.00042724609375,-0.000213623046875
-0.1199493408203125,-0.1309661865234375,9.617874145507812,-0.0010833740234375,-0.001708984375,-0.000213623046875
-0.1007843017578125,-0.126190185546875,9.663360595703125,0.00103759765625,-0.000640869140625,0.0008392333984375
-0.134307861328125,-0.126190185546875,9.59393310546875,0.00103759765625,0.0025482177734375,-0.000213623046875
-0.112762451171875,-0.099853515625,9.632232666015625,-3.0517578125e-05,-0.000640869140625,0.0008392333984375
-0.1007843017578125,-0.099853515625,9.625045776367188,0.00103759765625,0.00042724609375,-0.000213623046875
-0.10797119140625,-0.099853515625,9.641815185546875,-3.0517578125e-05,-0.000640869140625,-0.000213623046875
-0.10797119140625,-0.099853515625,9.641815185546875,-0.0010833740234375,0.00042724609375,0.0008392333984375
-0.1103668212890625,-0.10223388671875,9.620269775390625,-3.0517578125e-05,-0.000640869140625,0.0008392333984375
-0.103179931640625,-0.10223388671875,9.644210815429688,-3.0517578125e-05,-0.000640869140625,-0.000213623046875
-0.1151580810546875,-0.1046295166015625,9.622665405273438,-3.0517578125e-05,0.00042724609375,0.0008392333984375
-0.1055755615234375,-0.1142120361328125,9.632232666015625,0.002105712890625,0.0025482177734375,0.0008392333984375
-0.10797119140625,-0.10223388671875,9.632232666015625,0.002105712890625,0.0014801025390625,-0.000213623046875
-0.10797119140625,-0.095062255859375,9.613082885742188,-0.0010833740234375,-0.000640869140625,-0.000213623046875
-0.1007843017578125,-0.099853515625,9.632232666015625,-0.0010833740234375,-0.000640869140625,-0.000213623046875
-0.10797119140625,-0.1094207763671875,9.620269775390625,-3.0517578125e-05,-0.000640869140625,-0.000213623046875
-0.112762451171875,-0.10223388671875,9.632232666015625,-3.0517578125e-05,-0.000640869140625,0.0008392333984375
-0.0984039306640625,-0.10223388671875,9.617874145507812,-0.0010833740234375,-0.000640869140625,-0.000213623046875
-0.1055755615234375,-0.107025146484375,9.6466064453125,-3.0517578125e-05,-0.000640869140625,-0.000213623046875
-0.103179931640625,-0.10223388671875,9.622665405273438,-3.0517578125e-05,-0.000640869140625,-0.000213623046875
-0.1007843017578125,-0.10223388671875,9.62744140625,-3.0517578125e-05,-0.000640869140625,-0.000213623046875
-0.10797119140625,-0.10223388671875,9.63702392578125,-3.0517578125e-05,-0.000640869140625,-0.000213623046875
-0.1007843017578125,-0.107025146484375,9.632232666015625,-3.0517578125e-05,-0.000640869140625,-0.000213623046875
-0.103179931640625,-0.1046295166015625,9.625045776367188,-3.0517578125e-05,-0.000640869140625,-0.000213623046875
-0.1151580810546875,-0.12139892578125,9.632232666015625,-3.0517578125e-05,-0.000640869140625,-0.000213623046875
-0.1103668212890625,-0.1501312255859375,9.632232666015625,-3.0517578125e-05,-0.001708984375,-0.000213623046875
-0.1151580810546875,-0.1429443359375,9.644210815429688,-3.0517578125e-05,-0.001708984375,-0.000213623046875
-0.1175537109375,-0.13336181640625,9.615478515625,0.00103759765625,0.0014801025390625,-0.000213623046875
-0.1199493408203125,-0.1190032958984375,9.63702392578125,-3.0517578125e-05,0.00042724609375,0.0008392333984375
-0.112762451171875,-0.095062255859375,9.639419555664062,-3.0517578125e-05,-0.000640869140625,-0.000213623046875
-0.1007843017578125,-0.099853515625,9.613082885742188,-3.0517578125e-05,-0.000640869140625,-0.000213623046875
-0.1175537109375,-0.10223388671875,9.615478515625,-3.0517578125e-05,0.00042724609375,-0.000213623046875
-0.103179931640625,-0.11181640625,9.634628295898438,-3.0517578125e-05,0.00042724609375,-0.000213623046875
-0.10797119140625,-0.1142120361328125,9.622665405273438,-3.0517578125e-05,-0.000640869140625,-0.000213623046875
-0.1055755615234375,-0.10223388671875,9.613082885742188,-0.0010833740234375,0.00042724609375,-0.000213623046875
-0.1055755615234375,-0.1094207763671875,9.634628295898438,-3.0517578125e-05,-0.000640869140625,-0.000213623046875
-0.103179931640625,-0.1046295166015625,9.625045776367188,-3.0517578125e-05,-0.000640869140625,-0.000213623046875
-0.103179931640625,-0.1094207763671875,9.615478515625,-3.0517578125e-05,-0.000640869140625,-0.000213623046875
-0.10797119140625,-0.1046295166015625,9.632232666015625,-3.0517578125e-05,0.00042724609375,0.0008392333984375
-0.1103668212890625,-0.107025146484375,9.620269775390625,-3.0517578125e-05,-0.000640869140625,0.0008392333984375
-0.103179931640625,-0.1094207763671875,9.620269775390625,0.00103759765625,0.00042724609375,0.0008392333984375
-0.1007843017578125,-0.099853515625,9.639419555664062,-3.0517578125e-05,0.00042724609375,0.0008392333984375
-0.1103668212890625,-0.099853515625,9.644210815429688,-3.0517578125e-05,-0.000640869140625,-0.000213623046875
-0.1103668212890625,-0.11181640625,9.620269775390625,-3.0517578125e-05,-0.000640869140625,-0.000213623046875
-0.1175537109375,-0.107025146484375,9.644210815429688,0.00103759765625,0.00042724609375,-0.000213623046875
-0.10797119140625,-0.107025146484375,9.639419555664062,-3.0517578125e-05,0.00042724609375,-0.000213623046875
-0.112762451171875,-0.107025146484375,9.634628295898438,-3.0517578125e-05,-0.000640869140625,0.0008392333984375
-0.103179931640625,-0.10223388671875,9.625045776367188,-3.0517578125e-05,0.00042724609375,-0.000213623046875
-0.1103668212890625,-0.107025146484375,9.639419555664062,-0.0010833740234375,0.00042724609375,-0.000213623046875
-0.1175537109375,-0.0974578857421875,9.641815185546875,-3.0517578125e-05,-0.000640869140625,-0.000213623046875
-0.1151580810546875,-0.1046295166015625,9.625045776367188,-3.0517578125e-05,-0.001708984375,-0.000213623046875
-0.1175537109375,-0.10223388671875,9.63702392578125,-3.0517578125e-05,0.00042724609375,-0.000213623046875
-0.1151580810546875,-0.11181640625,9.634628295898438,-3.0517578125e-05,-0.000640869140625,-0.000213623046875
-0.1103668212890625,-0.10223388671875,9.656173706054688,-3.0517578125e-05,0.00042724609375,-0.000213623046875
-0.1007843017578125,-0.095062255859375,9.608291625976562,-3.0517578125e-05,0.00042724609375,-0.000213623046875
-0.10797119140625,-0.099853515625,9.653778076171875,-3.0517578125e-05,0.0014801025390625,-0.000213623046875
-0.0984039306640625,-0.116607666015625,9.622665405273438,-3.0517578125e-05,0.00042724609375,-0.000213623046875
-0.122344970703125,-0.1046295166015625,9.615478515625,-3.0517578125e-05,0.00042724609375,-0.000213623046875
-0.112762451171875,-0.1142120361328125,9.622665405273438,-3.0517578125e-05,0.00042724609375,-0.000213623046875
-0.1007843017578125,-0.10223388671875,9.634628295898438,-3.0517578125e-05,0.00042724609375,-0.000213623046875
-0.1055755615234375,-0.0974578857421875,9.632232666015625,-3.0517578125e-05,0.00042724609375,-0.000213623046875
-0.103179931640625,-0.0926666259765625,9.641815185546875,-3.0517578125e-05,0.00042724609375,-0.000213623046875
-0.112762451171875,-0.116607666015625,9.651382446289062,-3.0517578125e-05,0.00042724609375,-0.000213623046875
-0.10797119140625,-0.1094207763671875,9.60589599609375,-3.0517578125e-05,-0.000640869140625,-0.000213623046875
-0.112762451171875,-0.099853515625,9.641815185546875,0.00103759765625,-0.000640869140625,-0.000213623046875
-0.1175537109375,-0.1094207763671875,9.644210815429688,-3.0517578125e-05,-0.000640869140625,0.0008392333984375
-0.1151580810546875,-0.1094207763671875,9.622665405273438,-0.0010833740234375,0.00042724609375,0.0008392333984375
-0.122344970703125,-0.1094207763671875,9.63702392578125,-3.0517578125e-05,-0.000640869140625,-0.000213623046875
-0.1103668212890625,-0.116607666015625,9.617874145507812,0.00103759765625,0.00042724609375,-0.000213623046875
-0.10797119140625,-0.1142120361328125,9.644210815429688,0.00103759765625,0.0014801025390625,-0.000213623046875
-0.103179931640625,-0.0974578857421875,9.632232666015625,0.00103759765625,0.00042724609375,-0.000213623046875
-0.1151580810546875,-0.0974578857421875,9.620269775390625,0.00103759765625,0.00042724609375,-0.000213623046875
-0.1055755615234375,-0.10223388671875,9.634628295898438,0.00103759765625,0.00042724609375,-0.000213623046875
-0.1175537109375,-0.10223388671875,9.63702392578125,-0.0021514892578125,-0.001708984375,-0.000213623046875
-0.10797119140625,-0.1094207763671875,9.629837036132812,-0.0010833740234375,-0.001708984375,-0.000213623046875
