accX,accY,accZ,gyroX,gyroY,gyroZ
0.31639009714126587,3.776561975479126,7.746761798858643,-0.02681015431880951,-0.007224392145872116,0.022122615948319435
0.2852540612220764,2.921518325805664,10.338238716125488,-0.7421913743019104,-0.45839929580688477,-1.1412373781204224
0.050536200404167175,2.703566074371338,10.366978645324707,-0.7352666854858398,-0.39927253127098083,-1.0533462762832642
-0.08358827233314514,2.3682548999786377,10.405301094055176,-0.7139596939086914,-0.30658721923828125,-0.802456796169281
-0.25363895297050476,1.8820534944534302,9.777789115905762,-0.960587739944458,0.19678977131843567,-0.47326427698135376
-0.7446303367614746,1.726373314857483,10.139446258544922,-1.0692532062530518,0.4945545196533203,-0.3092006742954254
-1.6547608375549316,1.2976540327072144,11.322615623474121,-0.7235478758811951,0.20957393944263458,0.06367119401693344
-0.5649993419647217,1.1132328510284424,11.744150161743164,-0.28728771209716797,0.30705326795578003,0.37262213230133057
-0.730259895324707,1.4078277349472046,10.632833480834961,0.018999816849827766,0.366712749004364,0.5089867115020752
-0.009340792894363403,1.5443472862243652,10.043643951416016,0.057352349162101746,0.4024019241333008,0.5665155053138733
0.14394432306289673,1.6257799863815308,9.495169639587402,-0.08327360451221466,0.2985305190086365,0.4812876582145691
0.22298194468021393,1.5682979822158813,9.969395637512207,-0.3149867653846741,0.24206706881523132,0.399788498878479
0.6085898876190186,1.690447211265564,10.841204643249512,-0.41512954235076904,0.13819563388824463,0.34119436144828796
0.39303264021873474,1.6976324319839478,10.9873046875,-0.264915406703949,0.15790456533432007,0.30603790283203125
0.5343424081802368,1.496445655822754,10.577746391296387,-0.1642400473356247,0.2852136492729187,0.24264965951442719
0.4624899625778198,1.6353603601455688,10.690314292907715,-0.14399845898151398,0.3278275728225708,0.16328124701976776
0.21579672396183014,1.7000274658203125,10.410089492797852,-0.04758443683385849,0.18613629043102264,0.04609294980764389
1.2241252660751343,0.9671329855918884,10.187347412109375,0.18466143310070038,0.08599356561899185,-0.10465379804372787
1.0420993566513062,1.2976540327072144,10.058013916015625,0.27415066957473755,0.16802538931369781,-0.23249557614326477
-0.1506505161523819,2.0688698291778564,9.931074142456055,0.35511714220046997,0.2687007784843445,-0.34062841534614563
-0.8811500072479248,2.373044967651367,9.818506240844727,0.3508557081222534,0.09025495499372482,-0.19361035525798798
-0.1698111593723297,2.2053892612457275,9.310749053955078,0.3172973394393921,-0.12707605957984924,0.02372063882648945
0.9965927600860596,2.1071910858154297,9.284402847290039,0.26829129457473755,-0.11908594518899918,0.0018810033798217773
0.45769980549812317,2.234130382537842,9.684380531311035,0.2453862726688385,0.036454882472753525,-0.1078498512506485
0.12717875838279724,2.1239566802978516,9.58378791809082,0.2469843178987503,0.16962340474128723,-0.08494486659765244
0.12238860130310059,2.1479074954986572,9.569416999816895,0.2587031424045563,0.1738847941160202,-0.041265591979026794
0.21100656688213348,2.1790435314178467,9.351465225219727,0.2587031424045563,0.18560361862182617,-0.06683395057916641
0.08885747939348221,2.658059597015381,9.806529998779297,0.4770994782447815,0.2591126263141632,0.010936463251709938
-0.23447832465171814,2.749072790145874,8.328765869140625,0.4137113094329834,0.8248125314712524,0.0626058429479599
-1.022459626197815,2.543095588684082,9.413737297058105,-0.13654100894927979,0.9792880415916443,-0.10625182837247849
-1.2931036949157715,2.787393808364868,10.297521591186523,-0.03639828786253929,0.9633077383041382,-0.06949731707572937
-1.1038923263549805,2.777813673019409,10.556190490722656,0.0786593109369278,0.975026547908783,-0.020491305738687515
-0.7470254898071289,2.7706284523010254,10.33344841003418,0.265627920627594,0.9281512498855591,-0.019425958395004272
-1.206880807876587,2.7634429931640625,9.935864448547363,0.31836265325546265,0.721473753452301,-0.16378061473369598
-1.97330641746521,2.6293184757232666,9.51432991027832,0.29439228773117065,0.5137308835983276,-0.21278662979602814
-2.5648910999298096,2.4664530754089355,9.456849098205566,0.20330503582954407,0.40453261137008667,-0.06310523301362991
-2.181678295135498,2.8736166954040527,9.550256729125977,0.14843960106372833,0.26230865716934204,0.10308907181024551
-1.94696044921875,2.974210023880005,9.593368530273438,0.13565543293952942,0.16429667174816132,0.11693860590457916
-1.7984654903411865,2.9454689025878906,9.581392288208008,0.15057030320167542,0.05403311923146248,0.06047515571117401
-2.002047538757324,3.0149264335632324,9.466428756713867,0.17240992188453674,0.06521927565336227,0.02425331436097622
-1.9134292602539062,3.2161130905151367,8.83891773223877,0.171344593167305,-0.22562074661254883,0.021589944139122963
-1.752959132194519,3.072408437728882,9.519121170043945,0.039241429418325424,-0.29912978410720825,0.018393902108073235
-2.188863515853882,2.89277720451355,9.58378791809082,0.12553462386131287,-0.3039238750934601,-0.0263507217168808
-1.6356000900268555,2.787393808364868,8.82454776763916,0.18093271553516388,-0.7529680728912354,-0.006109107285737991
-1.3529807329177856,2.9095427989959717,8.937116622924805,0.03444736450910568,-0.828075110912323,-0.02688339725136757
-1.5517723560333252,2.967024564743042,9.931074142456055,-0.0880676656961441,-0.88933265209198,-0.09613102674484253
-1.4200429916381836,3.019716501235962,10.079569816589355,-0.04971513897180557,-0.9324791431427002,-0.09133695811033249
-0.9889285564422607,3.036482095718384,9.720307350158691,0.043502822518348694,-0.8525781035423279,-0.07482405751943588
-0.7925319671630859,3.101149320602417,8.822152137756348,-0.00017644837498664856,-0.5926331281661987,-0.0577784925699234
-0.7637909650802612,3.1251003742218018,8.673657417297363,-0.09765579551458359,-0.3774328827857971,0.013067157939076424
-0.4620109498500824,3.0915687084198,9.099981307983398,-0.20365794003009796,-0.2410683035850525,0.08231478184461594
-0.2775897681713104,3.0867788791656494,9.37781047821045,-0.23561839759349823,-0.21603260934352875,0.08764152228832245
-0.16502100229263306,3.113124370574951,9.768209457397461,-0.22762826085090637,-0.07540667802095413,0.04662562906742096
-0.3374667465686798,2.993370771408081,9.823295593261719,-0.15145587921142578,0.036454882472753525,-0.015164566226303577
-0.5506289005279541,2.950259208679199,9.277217864990234,-0.03160421550273895,-0.07167796045541763,-0.014631892554461956
-0.49554207921028137,3.029296875,9.226921081542969,0.023793883621692657,-0.2868782877922058,-0.013566543348133564
-0.4188994765281677,2.830505132675171,9.277217864990234,-0.27237290143966675,-0.0024303256068378687,0.027449360117316246
-0.481171578168869,2.7730231285095215,9.792160034179688,-0.25372928380966187,0.0076904818415641785,0.022122615948319435
-0.31351596117019653,2.7730231285095215,9.988555908203125,-0.17649157345294952,0.09185298532247543,0.04662562906742096
-0.2656143605709076,2.7969741821289062,9.957420349121094,-0.1067112609744072,0.14725108444690704,0.04928899556398392
-0.28717008233070374,2.823319673538208,9.828085899353027,-0.07581616938114166,0.15044714510440826,0.03703749179840088
-0.4524305760860443,2.7969741821289062,9.689170837402344,-0.036930955946445465,0.11049656569957733,0.01626320369541645
-0.5961353778839111,2.775418519973755,9.792160034179688,-0.028408169746398926,0.04391231760382652,0.01945924572646618
-0.5769747495651245,2.775418519973755,9.847247123718262,-0.0012417994439601898,-0.010420436039566994,0.02478598617017269
-0.5170978307723999,2.7897887229919434,9.777789115905762,0.02432655729353428,-0.032260071486234665,0.02425331436097622
-0.4165043830871582,2.8065545558929443,9.459242820739746,0.06907117366790771,-0.024269960820674896,0.01626320369541645
-0.4332699477672577,2.8161346912384033,9.315539360046387,0.052558280527591705,0.001831067493185401,0.0034790262579917908
-0.5362584590911865,2.80415940284729,9.473614692687988,-0.006035864353179932,-0.018943220376968384,-0.024220023304224014
-0.6631976366043091,2.7730231285095215,9.614923477172852,-0.0177546925842762,-0.036521464586257935,-0.041265591979026794
-0.6392468214035034,2.8017640113830566,9.555047035217285,0.0030195945873856544,-0.03971750661730766,-0.009837825782597065
-0.47638139128685,2.7826037406921387,9.499959945678711,0.018467143177986145,-0.018943220376968384,0.02851470746099949
-0.34944212436676025,2.7562577724456787,9.52630615234375,-0.0012417994439601898,0.022605353966355324,0.02425331436097622
-0.47398629784584045,2.6939854621887207,9.713122367858887,-0.006035864353179932,0.005559785291552544,-0.006641780957579613
-0.5530239343643188,2.7107512950897217,9.801740646362305,0.010477031581103802,0.0023637411650270224,-0.015697240829467773
-0.5602091550827026,2.686800241470337,9.741863250732422,0.03817608207464218,0.031128134578466415,-0.010903173126280308
-0.45003554224967957,2.713146209716797,9.358650207519531,0.0951722040772438,0.04284696653485298,-0.00770712923258543
-0.5075173377990723,2.8736166954040527,9.013758659362793,0.09623756259679794,0.13446690142154694,-0.012501196004450321
-0.7829517126083374,2.6844053268432617,9.6460599899292,-0.08220825344324112,0.07640542834997177,0.009338440373539925
-0.6703828573226929,2.696380853652954,9.792160034179688,-0.04651908576488495,-0.002962997416034341,0.012534484267234802
-0.6464320421218872,2.69877552986145,9.643665313720703,-0.014558646827936172,0.0023637411650270224,0.04236423224210739
-0.6152961254119873,2.732307195663452,9.466428756713867,-0.004970517009496689,0.0028964148368686438,0.051952362060546875
-0.5913451910018921,2.741887331008911,9.46882438659668,-0.024679452180862427,-0.03545611724257469,0.026384009048342705
-0.612900972366333,2.7275168895721436,9.555047035217285,-0.04971513897180557,-0.05250168219208717,0.006675070151686668
-0.45722076296806335,2.7442822456359863,9.58378791809082,-0.03107154369354248,-0.12707605957984924,-0.005043759010732174
-0.45722076296806335,2.715541124343872,9.516725540161133,-0.04438839107751846,-0.13240279257297516,-0.0263507217168808
-0.5170978307723999,2.6724298000335693,9.521515846252441,-0.06356465816497803,-0.11961861699819565,-0.032742805778980255
-0.5458387136459351,2.6388988494873047,9.636479377746582,-0.08860033005475998,-0.0871255025267601,-0.017827939242124557
-0.3901585042476654,2.5838119983673096,9.899938583374023,-0.0880676656961441,0.008223157376050949,0.008273093029856682
-0.1865767240524292,2.7466773986816406,9.864011764526367,0.012607728131115437,-0.10150770097970963,0.010403787717223167
-0.3973437547683716,2.6365036964416504,9.832876205444336,0.1750733107328415,-0.20165042579174042,-0.05564779043197632
-0.5482337474822998,2.658059597015381,9.265242576599121,0.15003763139247894,-0.09351760149002075,-0.032742805778980255
-0.5937403440475464,2.579021692276001,9.066451072692871,0.006748314015567303,-0.05303436145186424,0.02478598617017269
-0.5530239343643188,2.562256336212158,9.135907173156738,-0.05717257410287857,-0.045044247061014175,0.05674643814563751
-0.34225690364837646,2.7107512950897217,9.325119018554688,-0.12109348177909851,-0.07700469344854355,0.08071675896644592
-0.2201078236103058,2.6628496646881104,9.574207305908203,-0.12642019987106323,-0.06581854075193405,0.043962255120277405
-0.2201078236103058,2.607762575149536,9.864011764526367,-0.11363603174686432,0.015680594369769096,0.01999192126095295
-0.25363895297050476,2.5862069129943848,10.041248321533203,-0.0752834901213646,0.057229164987802505,0.01945924572646618
-0.22729310393333435,2.5909972190856934,9.988555908203125,-0.019885387271642685,0.05136976018548012,0.013599833473563194
-0.2584291100502014,2.634108543395996,9.607738494873047,0.053090956062078476,-0.16436323523521423,0.01200181059539318
-0.36860278248786926,2.761047840118408,9.684380531311035,0.17933468520641327,-0.349733829498291,-0.04819035530090332
-0.2680094242095947,2.7203314304351807,9.353860855102539,0.15163564682006836,-0.08819085359573364,-0.050853729248046875
-0.29675036668777466,2.6915905475616455,9.140698432922363,-0.037463631480932236,0.1738847941160202,0.0024136770516633987
-0.33267658948898315,2.5478856563568115,9.416131973266602,-0.1956678330898285,0.1829402595758438,0.022655291482806206
-0.34944212436676025,2.550281047821045,10.046038627624512,-0.17915493249893188,-0.02533530816435814,0.03703749179840088
-0.1506505161523819,2.5023791790008545,10.022087097167969,-0.07581616938114166,-0.04397890344262123,0.04715830087661743
-0.2512438893318176,2.588602066040039,9.928679466247559,-0.03107154369354248,0.009821178391575813,0.039700865745544434
-0.23687338829040527,2.6005775928497314,9.885567665100098,-0.010297253727912903,0.05030440166592598,0.039700865745544434
-0.24645370244979858,2.569441556930542,9.734678268432617,0.008346335031092167,0.05563114210963249,0.043962255120277405
-0.34225690364837646,2.562256336212158,9.626899719238281,0.01633644476532936,0.027932096272706985,0.04449492692947388
-0.40452900528907776,2.595787286758423,9.658035278320312,0.017934467643499374,0.007157810032367706,0.04449492692947388
-0.36860278248786926,2.624528408050537,9.772998809814453,0.035512711852788925,-0.06635121256113052,0.055681079626083374
-0.1506505161523819,2.52632999420166,9.655640602111816,0.0951722040772438,-0.1595691591501236,0.02052459679543972
-0.11472433805465698,2.5862069129943848,9.483194351196289,0.12340393662452698,-0.22189201414585114,-0.015164566226303577
-0.10993415117263794,2.705960988998413,9.234106063842773,0.1303286850452423,-0.26184260845184326,-0.02208932861685753
0.18226559460163116,2.4760334491729736,8.910770416259766,0.16868123412132263,0.05989253893494606,-0.04659233242273331
-0.31351596117019653,2.75146746635437,9.016154289245605,0.11168510466814041,0.1760154813528061,-0.09772904217243195
-0.5889501571655273,2.9263083934783936,9.49277400970459,-0.027875497937202454,0.03858557716012001,-0.04020024836063385
-0.4284798204898834,2.7897887229919434,9.90233325958252,-0.1067112609744072,-0.040250182151794434,0.040233537554740906
-0.10035383701324463,2.5574660301208496,9.926283836364746,-0.06995674967765808,0.043379638344049454,0.05994247645139694
0.033770639449357986,2.4832186698913574,9.892752647399902,-0.0055031925439834595,0.14725108444690704,0.040233537554740906
0.024190321564674377,2.5814168453216553,9.784975051879883,0.13299205899238586,0.2591126263141632,-0.04073292016983032
-0.1410701870918274,2.69877552986145,9.684380531311035,0.15376634895801544,0.16962340474128723,-0.07802010327577591
-0.4260846674442291,2.777813673019409,9.938260078430176,0.03711073473095894,0.02100733108818531,-0.04073292016983032
-0.45003554224967957,2.7921841144561768,9.945444107055664,0.05948304384946823,0.001831067493185401,-0.033275485038757324
-0.44045522809028625,2.7347021102905273,9.74665355682373,0.13885147869586945,-0.01787787303328514,-0.008772478438913822
-0.42129454016685486,2.775418519973755,9.519121170043945,0.171344593167305,-0.06475318968296051,0.026384009048342705
-0.32309624552726746,2.830505132675171,9.171833992004395,0.14311286807060242,-0.12281466275453568,0.04129888117313385
-0.19376197457313538,2.8808016777038574,8.886819839477539,0.08664941787719727,-0.0796680673956871,0.026384009048342705
-0.11472433805465698,2.8640363216400146,9.04489517211914,0.09197615832090378,0.16909071803092957,-0.0226220041513443
-0.36620771884918213,2.983790159225464,9.356254577636719,0.005150291137397289,0.0012983919586986303,-0.06044185906648636
-0.6009255647659302,2.8784070014953613,9.854432106018066,-0.1232241690158844,-0.12494536489248276,-0.07216069847345352
-0.5147026777267456,2.5742316246032715,9.672405242919922,-0.05237850546836853,0.007157810032367706,-0.07002998888492584
-0.49554207921028137,2.5646512508392334,9.61013412475586,0.04723154008388519,0.06362124532461166,-0.03860221803188324
-0.23447832465171814,2.959839344024658,9.590972900390625,0.0600157231092453,-0.04184820502996445,-0.05671314150094986
-0.32309624552726746,2.85685133934021,9.6460599899292,0.048296887427568436,-0.03918483480811119,-0.09985974431037903
-0.481171578168869,2.7897887229919434,9.624504089355469,0.07279989123344421,-0.03492344170808792,-0.07802010327577591
-0.36620771884918213,2.9239132404327393,9.574207305908203,0.1212732344865799,-0.06954725831747055,0.02478598617017269
-0.2919602394104004,2.9430739879608154,9.655640602111816,0.13725346326828003,0.04284696653485298,0.05994247645139694
-0.13867512345314026,3.0436675548553467,9.325119018554688,0.1804000437259674,-0.040782857686281204,0.07592269778251648
-0.09556367993354797,2.9957656860351562,9.442477226257324,0.2512456774711609,-0.13453349471092224,0.01200181059539318
-0.2129225730895996,2.950259208679199,9.262846946716309,0.18892282247543335,0.005027109757065773,0.004544373601675034
-0.3901585042476654,3.0077412128448486,9.14309310913086,0.05522165074944496,0.13713029026985168,0.03597214072942734
-0.38536837697029114,3.0269017219543457,9.305957794189453,-0.05397652089595795,0.1552411913871765,0.06367119401693344
-0.35183724761009216,2.9694199562072754,9.435293197631836,-0.06622803211212158,0.11635598540306091,0.07325932383537292
-0.1865767240524292,3.0963592529296875,9.658035278320312,0.010477031581103802,0.05030440166592598,0.06846525520086288
-0.17460131645202637,3.120309829711914,9.691566467285156,0.0914434865117073,0.08759158849716187,0.05461573600769043
-0.2488487958908081,3.101149320602417,9.576602935791016,0.1100870817899704,0.16376398503780365,0.0626058429479599
-0.29914548993110657,3.072408437728882,9.519121170043945,0.09996627271175385,0.18773430585861206,0.08018409460783005
-0.32549136877059937,3.1514461040496826,9.428107261657715,0.08878012001514435,0.13180355727672577,0.06580188870429993
-0.41171422600746155,3.173001766204834,9.471219062805176,0.07759396731853485,0.07693810015916824,0.04982166737318039
-0.4284798204898834,3.113124370574951,9.60534381866455,0.0989009216427803,0.048706378787755966,0.0663345605134964
-0.5218878984451294,3.1706063747406006,9.51432991027832,0.007813661359250546,0.07906880229711533,0.03224342316389084
-0.32549136877059937,3.2137179374694824,9.334699630737305,0.10529301315546036,-0.03971750661730766,-0.029546765610575676
-0.2823799252510071,3.4843621253967285,9.109562873840332,0.03284934163093567,-0.23787224292755127,-0.09400032460689545
-0.5362584590911865,3.208927869796753,9.339489936828613,-0.2697095274925232,-0.07061260938644409,-0.08760824054479599
-0.41410931944847107,2.9957656860351562,9.832876205444336,-0.2233668863773346,-0.06475318968296051,-0.04446163773536682
-0.1243046224117279,2.967024564743042,10.041248321533203,-0.09232906252145767,-0.09138689190149307,-0.019425958395004272
-0.0716128796339035,3.0221118927001953,9.741863250732422,0.03284934163093567,-0.08606015890836716,-0.024220023304224014
-0.19136688113212585,3.058037757873535,9.38499641418457,0.048296887427568436,-0.04238088056445122,-0.00024969223886728287
-0.18897178769111633,3.0221118927001953,9.456849098205566,0.022728534415364265,-0.005626369267702103,0.02851470746099949
-0.34944212436676025,3.08198881149292,9.581392288208008,-0.019352715462446213,0.09717971086502075,0.08124943822622299
-0.5338633060455322,3.1442606449127197,9.626899719238281,-0.014558646827936172,0.11369261145591736,0.1291901022195816
0.17508035898208618,3.120309829711914,9.133512496948242,0.1415148377418518,0.22608685493469238,0.12066732347011566
-0.41410931944847107,3.4580163955688477,9.174229621887207,0.13459008932113647,0.14512039721012115,-0.015164566226303577
-0.7230746746063232,3.4053244590759277,9.552651405334473,0.048296887427568436,-0.19366030395030975,-0.023687351495027542
-0.5458387136459351,3.1849770545959473,9.741863250732422,0.0712018758058548,-0.31724071502685547,0.02958005480468273
-0.31351596117019653,3.2616195678710938,8.97543716430664,0.21608920395374298,-0.1835394948720932,0.004544373601675034
-0.2201078236103058,3.326286792755127,8.999387741088867,0.08558407425880432,-0.30818524956703186,-0.041265591979026794
-0.045267000794410706,3.28078031539917,9.23650074005127,0.04723154008388519,-0.3220347762107849,-0.07216069847345352
0.2828589677810669,3.3310768604278564,9.665221214294434,0.04723154008388519,-0.2506564259529114,-0.14780040085315704
-0.054847314953804016,3.2664098739624023,9.741863250732422,0.11328312009572983,-0.14944835007190704,-0.15525782108306885
-0.1698111593723297,3.256829261779785,9.722702026367188,0.14950494468212128,-0.12388001382350922,-0.11743798106908798
-0.0021555647253990173,3.3837687969207764,9.756233215332031,0.1878574788570404,-0.12760873138904572,-0.02208932861685753
0.3475261330604553,3.5849554538726807,9.531095504760742,0.18839016556739807,-0.14944835007190704,0.01573052816092968
0.4265637695789337,3.7382407188415527,9.229315757751465,0.1676158756017685,-0.10843246430158615,-0.01409921795129776
0.1678951233625412,3.625671625137329,8.951486587524414,0.12979602813720703,-0.08819085359573364,-0.03434082865715027
0.019400160759687424,3.5657949447631836,8.98022747039795,0.07013653218746185,-0.04717494174838066,-0.008772478438913822
0.043350961059331894,3.5322635173797607,9.140698432922363,0.019532490521669388,0.04657568410038948,0.03757016360759735
0.11759844422340393,3.4580163955688477,9.229315757751465,-0.006035864353179932,0.08173216879367828,0.06207317113876343
0.08646240085363388,3.453226089477539,9.260452270507812,-0.010297253727912903,0.014082567766308784,0.06047515571117401
0.033770639449357986,3.4125096797943115,9.361045837402344,-0.007633883506059647,-0.03865215927362442,0.04183156043291092
0.012214921414852142,3.3789784908294678,9.476009368896484,0.00994435790926218,-0.028531353920698166,0.02904737927019596
-0.0021555647253990173,3.39095401763916,9.459242820739746,0.0248592309653759,-0.01308380626142025,0.026916684582829475
0.043350961059331894,3.479572057723999,9.442477226257324,0.036045387387275696,-0.02213926427066326,0.021589944139122963
0.13436400890350342,3.5298686027526855,9.217340469360352,0.043502822518348694,-0.07061260938644409,0.01146913506090641
0.31639009714126587,3.6041159629821777,9.109562873840332,0.03444736450910568,-0.07487399876117706,-0.004511084873229265
0.3020195960998535,3.6448323726654053,9.13830280303955,0.0030195945873856544,-0.023204613476991653,-0.024752698838710785
0.15591973066329956,3.587350606918335,9.258056640625,-0.03959432989358902,0.0028964148368686438,-0.011435847729444504
0.12717875838279724,3.6184866428375244,9.389785766601562,-0.04971513897180557,-0.002962997416034341,0.0008156551048159599
0.1152033656835556,3.577770233154297,9.42092227935791,-0.04492107033729553,-0.01308380626142025,0.014665180817246437
0.2301671952009201,3.443645715713501,9.538281440734863,-0.020418062806129456,-0.03439076989889145,0.03597214072942734
0.26848846673965454,3.479572057723999,9.617318153381348,-0.006568536162376404,-0.029064027592539787,0.03597214072942734
0.25172293186187744,3.4939424991607666,9.643665313720703,0.014738422818481922,-0.026933331042528152,0.030112730339169502
0.194241002202034,3.4675962924957275,9.423317909240723,0.0637444406747818,-0.01787787303328514,0.022122615948319435
0.20142623782157898,3.5298686027526855,9.253266334533691,0.06480978429317474,0.011419201269745827,0.02478598617017269
0.09604272246360779,3.577770233154297,9.282008171081543,-0.015091318637132645,0.036454882472753525,-0.00770712923258543
0.10083287954330444,3.5107078552246094,9.2484769821167,-0.016156673431396484,0.03538953885436058,0.001348329707980156
0.12238860130310059,3.56339955329895,9.181415557861328,-0.025212127715349197,0.03432418033480644,0.008273093029856682
0.2205868810415268,3.525078296661377,9.260452270507812,-0.053443849086761475,0.03379150852560997,0.006142396479845047
0.2134016454219818,3.5011277198791504,9.442477226257324,-0.05397652089595795,0.06362124532461166,-0.008772478438913822
0.07209192216396332,3.472386598587036,9.394576072692871,-0.024679452180862427,0.06948066502809525,-0.015164566226303577
0.026585400104522705,3.434065341949463,9.2484769821167,-0.014558646827936172,0.06042521074414253,0.00028298143297433853
0.0050296783447265625,3.4484360218048096,9.23650074005127,-0.024679452180862427,0.062023233622312546,0.008805764839053154
0.017005078494548798,3.4652016162872314,9.313143730163574,-0.0491824597120285,0.062023233622312546,0.018926573917269707
0.0792771577835083,3.4484360218048096,9.418527603149414,-0.055041879415512085,0.0684153139591217,0.02478598617017269
0.11041319370269775,3.4604110717773438,9.432897567749023,-0.03906165063381195,0.0907876268029213,0.017861222848296165
0.06730175763368607,3.4652016162872314,9.334699630737305,-0.0177546925842762,0.0998430922627449,0.0029463516548275948
0.03856080397963524,3.489151954650879,9.437687873840332,-0.014558646827936172,0.08759158849716187,-0.005576433148235083
-0.030896522104740143,3.489151954650879,9.358650207519531,0.0003562234342098236,0.05190242454409599,-0.016762588173151016
-0.09316858649253845,3.496337413787842,9.37302017211914,0.007280987687408924,0.019941983744502068,-0.024752698838710785
-0.10035383701324463,3.4508309364318848,9.538281440734863,0.026989927515387535,0.005027109757065773,-0.027416067197918892
-0.04766207933425903,3.4220898151397705,9.550256729125977,0.06587512791156769,-0.04291355237364769,-0.014631892554461956
-0.009340792894363403,3.453226089477539,9.552651405334473,0.08505139499902725,-0.07380864769220352,-0.008239802904427052
-0.0021555647253990173,3.453226089477539,9.545465469360352,0.10103161633014679,-0.10789979994297028,-0.00770712923258543
0.00023952871561050415,3.479572057723999,9.47840404510498,0.1287306547164917,-0.18460482358932495,-0.004511084873229265
0.11999352276325226,3.5131030082702637,9.392181396484375,0.14790692925453186,-0.18567019701004028,0.0034790262579917908
0.1846606731414795,3.723870038986206,9.301168441772461,-0.028408169746398926,0.20691058039665222,0.014132505282759666
0.15591973066329956,3.687943696975708,8.872447967529297,-0.019885387271642685,0.1312708705663681,0.005609722808003426
0.25890815258026123,3.7190797328948975,8.759881019592285,-0.2878204584121704,0.12221541255712509,0.022122615948319435
0.21819178760051727,3.534658670425415,9.088006973266602,-0.37251561880111694,0.235142320394516,-0.013566543348133564
0.06251160055398941,3.453226089477539,9.47840404510498,-0.44868797063827515,0.19838780164718628,-0.06044185906648636
-0.19855213165283203,3.4053244590759277,9.717911720275879,-0.36132949590682983,0.23247894644737244,-0.06097453087568283
-0.29914548993110657,3.3143112659454346,9.60534381866455,-0.2840917110443115,0.2969324588775635,-0.008239802904427052
-0.28956514596939087,3.2616195678710938,9.452058792114258,-0.25000059604644775,0.21916207671165466,0.018926573917269707
-0.2488487958908081,3.256829261779785,9.423317909240723,-0.24147777259349823,0.1738847941160202,0.021589944139122963
-0.16262592375278473,3.225693464279175,9.346674919128418,-0.22922629117965698,0.15204516053199768,0.01146913506090641
-0.23447832465171814,3.1993472576141357,9.305957794189453,-0.23987977206707,0.19306106865406036,0.005609722808003426
-0.311120867729187,3.1777915954589844,9.322723388671875,-0.2510659098625183,0.20264919102191925,0.010403787717223167
-0.30633071064949036,3.110729694366455,9.411341667175293,-0.259056031703949,0.18453827500343323,0.01999192126095295
-0.3015405535697937,3.08198881149292,9.435293197631836,-0.2563926577568054,0.17441748082637787,0.017328551039099693
-0.3278864324092865,3.00295090675354,9.432897567749023,-0.25213128328323364,0.15044714510440826,0.008273093029856682
-0.36620771884918213,2.964629888534546,9.53588581085205,-0.2553272843360901,0.133401557803154,0.005609722808003426
-0.45003554224967957,2.9167280197143555,9.749049186706543,-0.23561839759349823,0.08918960392475128,0.010403787717223167
-0.40213391184806824,2.859246015548706,9.911913871765137,-0.18181830644607544,0.04710835590958595,0.017328551039099693
-0.3278864324092865,2.967024564743042,9.497565269470215,-0.1029825434088707,0.08226484060287476,0.013599833473563194
-0.4069240987300873,2.976605176925659,9.44726848602295,-0.1194954514503479,0.08759158849716187,0.013067157939076424
-0.4284798204898834,2.9694199562072754,9.476009368896484,-0.1471944898366928,0.12168272584676743,0.023187967017292976
-0.2512438893318176,2.967024564743042,9.056870460510254,-0.3149867653846741,0.22875022888183594,0.03863551467657089
-0.27040454745292664,2.8975672721862793,9.22213077545166,-0.4252502918243408,0.24792645871639252,0.025851337239146233
-0.5266780853271484,2.6748251914978027,9.473614692687988,-0.48704051971435547,0.23354429006576538,0.006675070151686668
-0.4069240987300873,2.2772417068481445,9.753838539123535,-0.2585233449935913,0.09558169543743134,-0.028481418266892433
-0.4356650412082672,2.210179328918457,9.691566467285156,-0.20578864216804504,0.03219348564743996,-0.0966636911034584
-0.49554207921028137,2.24371075630188,9.864011764526367,-0.16370739042758942,-0.019475894048810005,-0.196806401014328
-0.5841600894927979,2.1143763065338135,10.074779510498047,-0.1360083520412445,-0.016812525689601898,-0.23462627828121185
-0.9290515184402466,1.848522424697876,10.24243450164795,-0.05877058953046799,0.019941983744502068,-0.24634508788585663
-1.1062874794006348,1.8269667625427246,9.95981502532959,0.01633644476532936,0.003429088508710265,-0.18828362226486206
-0.9410269260406494,1.9946223497390747,9.780184745788574,0.07439792156219482,-0.032792747020721436,-0.10305578261613846
-0.842828631401062,2.0233633518218994,9.86640739440918,0.06907117366790771,0.04497766122221947,-0.07002998888492584
-0.9338417053222656,2.0161781311035156,9.852036476135254,0.07546326518058777,0.14192435145378113,-0.03434082865715027
-0.9769532680511475,2.1024010181427,9.806529998779297,0.1026296466588974,0.09877774119377136,-0.004511084873229265
-0.9074957370758057,2.24371075630188,9.636479377746582,0.12713265419006348,0.006092460826039314,0.013599833473563194
-0.7087041139602661,2.4017858505249023,9.638874053955078,0.1100870817899704,-0.04770762100815773,-0.0013150405138731003
-0.5913451910018921,2.488008737564087,9.744257926940918,0.08878012001514435,-0.010953109711408615,-0.042330943048000336
-0.7470254898071289,2.4401071071624756,9.713122367858887,0.05522165074944496,0.04710835590958595,-0.06630127876996994
-0.8524090051651001,2.2772417068481445,9.569416999816895,0.04669886827468872,0.009821178391575813,-0.04286361485719681
-0.8883352279663086,2.3203532695770264,9.42092227935791,0.048829562962055206,-0.027466006577014923,-0.03114478476345539
-0.7853467464447021,2.377835273742676,9.471219062805176,0.014205750077962875,-0.0482402928173542,-0.016762588173151016
-0.6440370082855225,2.363464593887329,9.693961143493652,-0.023614108562469482,0.005559785291552544,-0.01729525998234749
-0.6727780103683472,2.3395137786865234,9.698752403259277,-0.024146780371665955,-0.0024303256068378687,-0.03806954622268677
-0.847618818283081,2.308377981185913,9.758628845214844,-0.033202238380908966,-0.06688389182090759,-0.04872302711009979
-0.9769532680511475,2.2580809593200684,9.808924674987793,-0.028940845280885696,-0.03439076989889145,-0.033808156847953796
-0.7925319671630859,2.2029943466186523,9.890358924865723,0.05096026137471199,0.05403311923146248,-0.02315467596054077
-0.7590007781982422,2.4305267333984375,9.380206108093262,0.13459008932113647,-0.02640065737068653,-0.03913489729166031
-0.847618818283081,2.4640581607818604,9.325119018554688,-0.007633883506059647,-0.15637311339378357,-0.024220023304224014
-0.9027056694030762,2.408971071243286,9.298773765563965,-0.09872114658355713,-0.14145825803279877,-0.019958633929491043
-1.07754647731781,2.3754398822784424,9.624504089355469,-0.24786989390850067,0.01674594171345234,-0.015697240829467773
-0.9530023336410522,2.1862287521362305,9.6460599899292,-0.20578864216804504,0.12328074127435684,-0.03487350046634674
-1.010484218597412,2.3850204944610596,9.413737297058105,-0.0880676656961441,-0.26557132601737976,-0.046059660613536835
-0.9027056694030762,2.452082395553589,9.626899719238281,-0.09765579551458359,-0.448278546333313,0.016795875504612923
-0.29675036668777466,2.5359103679656982,10.127470970153809,0.06800583004951477,-0.5398984551429749,0.008805764839053154
-0.11951448023319244,2.3419089317321777,9.650849342346191,0.035512711852788925,-0.1020403802394867,-0.04659233242273331
-0.35662737488746643,2.272451639175415,9.36344051361084,-0.04598641395568848,-0.027998678386211395,-0.08228149265050888
-0.612900972366333,2.2389204502105713,9.241291046142578,-0.1770242303609848,0.0023637411650270224,-0.08654289692640305
-0.8308532238006592,2.0353386402130127,9.23650074005127,-0.1748935431241989,-0.011485784314572811,-0.06417057663202286
-0.5602091550827026,2.0521042346954346,9.425712585449219,-0.11683206260204315,-0.0722106322646141,-0.0013150405138731003
-0.41171422600746155,2.0688698291778564,9.643665313720703,-0.13121427595615387,0.019941983744502068,0.034374117851257324
-0.28956514596939087,1.9802519083023071,9.885567665100098,-0.1509232074022293,0.0923856571316719,0.07592269778251648
-0.12909479439258575,1.6617062091827393,9.878382682800293,-0.21431143581867218,0.13180355727672577,0.0775207132101059
-0.33028149604797363,1.7814602851867676,9.909518241882324,-0.18554702401161194,0.27349480986595154,0.01200181059539318
-0.766185998916626,1.9706714153289795,10.019692420959473,-0.12375684082508087,0.22875022888183594,-0.05831116437911987
-0.7853467464447021,2.028153419494629,10.371768951416016,-0.04225769639015198,0.007157810032367706,-0.08334684371948242
-0.6296665668487549,2.054499387741089,10.161002159118652,0.0802573412656784,-0.0684819146990776,-0.08707556128501892
-0.6655926704406738,2.0880305767059326,9.612529754638672,0.17986737191677094,0.00023304461501538754,-0.059376515448093414
-0.766185998916626,2.2580809593200684,9.2484769821167,0.26083382964134216,0.013549895957112312,-0.03114478476345539
-0.5482337474822998,2.3323285579681396,9.34907054901123,0.13991683721542358,-0.07753737270832062,0.026384009048342705
-0.6320616006851196,1.9179798364639282,9.90233325958252,-0.05397652089595795,-0.11269386112689972,0.025851337239146233
-0.5290732383728027,2.090425491333008,10.03885269165039,0.0248592309653759,-0.009355087764561176,0.1275920867919922
-0.12909479439258575,2.2149696350097656,9.49038028717041,0.14790692925453186,-0.014149154536426067,0.12013465166091919
-0.2392684519290924,2.1239566802978516,9.574207305908203,0.09783557802438736,-0.008822414092719555,0.06793258339166641
-0.40213391184806824,2.1862287521362305,9.607738494873047,0.08132267743349075,0.0023637411650270224,0.012534484267234802
-0.6320616006851196,2.1239566802978516,9.622109413146973,-0.05557455122470856,0.12541145086288452,0.017861222848296165
-0.9649777412414551,2.255686044692993,9.665221214294434,-0.012960627675056458,-0.25864654779434204,-0.07482405751943588
-0.7374451160430908,2.047314167022705,9.816110610961914,-0.1434657722711563,-0.03332541882991791,0.014665180817246437
-0.7134943008422852,2.090425491333008,10.019692420959473,-0.12908358871936798,0.16163328289985657,0.07219398021697998
-0.46680107712745667,2.0616846084594727,9.856826782226562,-0.002307143062353134,0.09558169543743134,0.04982166737318039
-0.5099124908447266,2.2125744819641113,9.590972900390625,0.08824744075536728,-0.15850381553173065,-0.04073292016983032
-0.6512222290039062,2.3490941524505615,9.622109413146973,0.004617617465555668,-0.3257634937763214,-0.09453300386667252
-0.653617262840271,2.155092716217041,10.079569816589355,-0.05877058953046799,-0.27302876114845276,-0.07109533995389938
-0.6560124158859253,2.111981153488159,10.153816223144531,-0.011362601071596146,-0.2021830826997757,-0.05724581331014633
-0.6033205986022949,2.1215615272521973,9.871197700500488,0.13192671537399292,-0.10097503662109375,-0.041265591979026794
-0.41410931944847107,2.19101881980896,9.483194351196289,0.19211886823177338,-0.1409255713224411,-0.033275485038757324
-0.3374667465686798,2.317957878112793,9.346674919128418,0.14790692925453186,-0.15424242615699768,-0.04392896592617035
-0.41410931944847107,2.3131678104400635,9.404157638549805,0.04723154008388519,-0.10470374673604965,-0.03593885898590088
-0.3973437547683716,2.308377981185913,9.588577270507812,-0.037463631480932236,-0.05409970507025719,0.005609722808003426
-0.31351596117019653,2.2700562477111816,9.72509765625,-0.04492107033729553,-0.009355087764561176,0.02478598617017269
-0.27998483180999756,2.200599431991577,9.799345016479492,-0.025212127715349197,0.08173216879367828,0.039168186485767365
-0.20573735237121582,2.1598827838897705,10.00771713256836,0.08824744075536728,-0.05090366676449776,0.04715830087661743
-0.22729310393333435,2.3203532695770264,9.962210655212402,0.31410127878189087,-0.2149672508239746,-0.020491305738687515
-0.15544068813323975,2.3682548999786377,9.176624298095703,0.2672259211540222,-0.06954725831747055,-0.03221013396978378
-0.3901585042476654,2.3682548999786377,8.843708038330078,0.026989927515387535,0.05083708092570305,-0.03593885898590088
-0.49075189232826233,2.305982828140259,9.20057487487793,-0.22922629117965698,0.12860749661922455,-0.004511084873229265
-0.4691961705684662,2.1982040405273438,10.07717514038086,-0.3213788866996765,0.1483164280653,0.05994247645139694
-0.33028149604797363,2.2604763507843018,10.41487979888916,-0.27450358867645264,0.12008470296859741,0.0849781483411789
-0.21771275997161865,2.2413153648376465,10.503498077392578,-0.06569535285234451,0.06042521074414253,0.06526921689510345
-0.1961570382118225,2.236525297164917,9.698752403259277,0.11807718873023987,0.05243510380387306,0.014132505282759666
-0.21531769633293152,2.32753849029541,9.346674919128418,0.16601784527301788,0.04710835590958595,-0.013566543348133564
-0.5290732383728027,2.4496874809265137,9.13830280303955,0.12979602813720703,-0.18620285391807556,-0.07002998888492584
-0.3781830966472626,2.2221550941467285,9.442477226257324,-0.09232906252145767,-0.24426434934139252,-0.04499430954456329
-0.4715912640094757,2.1934139728546143,9.763419151306152,-0.20951735973358154,-0.02533530816435814,-0.016229912638664246
-0.45722076296806335,2.183833360671997,9.600553512573242,-0.10990731418132782,0.09824506938457489,-0.030079437419772148
-0.23687338829040527,2.155092716217041,9.629294395446777,-0.12002812325954437,-0.008289739489555359,-0.05191907286643982
-0.33267658948898315,2.1239566802978516,9.753838539123535,-0.1732955127954483,-0.020008569583296776,-0.055115118622779846
-0.36620771884918213,2.1143763065338135,9.849641799926758,-0.17808958888053894,0.037520233541727066,-0.025285374373197556
-0.3733929693698883,2.092820644378662,9.880777359008789,-0.16743610799312592,0.07054601609706879,-0.007174455560743809
-0.34225690364837646,2.0760550498962402,9.950235366821289,-0.14825984835624695,0.10676784813404083,0.009871114045381546
-0.3350716829299927,2.030548572540283,9.99334716796875,-0.11470137536525726,0.1760154813528061,0.035439468920230865
-0.33267658948898315,2.0065977573394775,10.048433303833008,-0.025212127715349197,0.22715219855308533,0.04236423224210739
-0.44045522809028625,2.100005626678467,9.789764404296875,0.1303286850452423,0.14405503869056702,-0.012501196004450321
-0.6033205986022949,2.2748465538024902,9.70354175567627,0.13512276113033295,-0.1483830064535141,-0.07482405751943588
-0.6703828573226929,2.2053892612457275,9.394576072692871,0.08505139499902725,-0.16755926609039307,-0.09133695811033249
-0.6488271951675415,2.1982040405273438,9.36344051361084,-0.004970517009496689,-0.12494536489248276,-0.06470325589179993
-0.6560124158859253,2.2293403148651123,9.351465225219727,-0.03852897509932518,-0.08819085359573364,-0.04659233242273331
-0.5003321170806885,2.171858310699463,9.416131973266602,-0.06676070392131805,0.019941983744502068,-0.008239802904427052
-0.41410931944847107,2.1526975631713867,9.523910522460938,-0.0917963832616806,-0.07167796045541763,-0.030079437419772148
-0.3374667465686798,2.073660135269165,9.780184745788574,-0.14666181802749634,-0.13559883832931519,-0.04659233242273331
-0.3350716829299927,1.9994124174118042,9.830480575561523,-0.16051135957241058,-0.1318701058626175,-0.05671314150094986
-0.3805782198905945,1.9443256855010986,9.820900917053223,-0.169566810131073,-0.12920674681663513,-0.07695475220680237
-0.2943553030490875,1.925165057182312,9.88796329498291,-0.16370739042758942,-0.11588990688323975,-0.07216069847345352
-0.2775897681713104,1.9060043096542358,9.928679466247559,-0.15145587921142578,-0.1110958382487297,-0.07375871390104294
-0.22250288724899292,1.9012141227722168,10.074779510498047,-0.11257067322731018,-0.11802059412002563,-0.07908545434474945
-0.20573735237121582,1.8604978322982788,9.938260078430176,-0.050247810781002045,-0.11642257869243622,-0.07375871390104294
-0.24645370244979858,1.9131895303726196,9.864011764526367,-0.008699234575033188,-0.13613151013851166,-0.07802010327577591
-0.28956514596939087,1.9634861946105957,9.804136276245117,0.012607728131115437,-0.14145825803279877,-0.08334684371948242
-0.23687338829040527,1.9515109062194824,9.770604133605957,0.047764215618371964,-0.14412161707878113,-0.07535673677921295
-0.21052753925323486,1.9850419759750366,9.749049186706543,0.06267908215522766,-0.13986022770404816,-0.06417057663202286
-0.10993415117263794,2.018573045730591,9.543071746826172,0.06054839491844177,-0.08499480783939362,-0.03913489729166031
-0.1602308303117752,2.0233633518218994,9.507145881652832,0.013140401802957058,-0.0482402928173542,-0.03114478476345539
-0.1410701870918274,1.9515109062194824,9.614923477172852,-0.05237850546836853,0.04231429472565651,-0.0013150405138731003
-0.23447832465171814,1.9754616022109985,9.98137092590332,0.031251318752765656,0.19678977131843567,0.0024136770516633987
-0.2392684519290924,1.9970173835754395,9.84006118774414,0.0823880285024643,0.08918960392475128,0.001348329707980156
-0.3733929693698883,1.9658814668655396,9.86640739440918,0.04989491030573845,-0.07007993012666702,-0.037536874413490295
-0.37578803300857544,1.8413372039794922,9.813715934753418,-0.0033724941313266754,-0.1281414031982422,-0.03593885898590088
-0.36620771884918213,1.8245716094970703,9.847247123718262,-0.01828736439347267,-0.09884432703256607,-0.008772478438913822
-0.32549136877059937,1.9227699041366577,9.914308547973633,-0.00017644837498664856,-0.08233143389225006,0.017328551039099693
-0.09316858649253845,2.056894540786743,10.01729679107666,0.07066920399665833,-0.062089819461107254,0.03703749179840088
-0.1338849514722824,2.0688698291778564,9.751443862915039,0.10156428813934326,-0.054632384330034256,0.015197856351733208
-0.14825543761253357,2.030548572540283,9.653244972229004,0.09570488333702087,-0.03865215927362442,0.026916684582829475
-0.18418163061141968,1.9994124174118042,9.47840404510498,0.07599593698978424,-0.04238088056445122,0.03810284286737442
-0.17939147353172302,2.044919013977051,9.444872856140137,0.0323166660964489,-0.045576922595500946,0.034374117851257324
-0.08358827233314514,2.0425238609313965,9.499959945678711,0.006748314015567303,-0.03865215927362442,0.03490679711103439
-0.023711279034614563,2.109586238861084,9.672405242919922,-0.03213689103722572,-0.03385809436440468,0.027982031926512718
0.019400160759687424,2.085635185241699,9.689170837402344,-0.03959432989358902,-0.014681828208267689,0.01626320369541645
-0.014130957424640656,2.0353386402130127,9.71072769165039,-0.04119235277175903,-0.013616479933261871,0.008273093029856682
-0.10753907263278961,1.9898321628570557,9.763419151306152,-0.033202238380908966,-0.03332541882991791,-0.003445737063884735
-0.14586035907268524,1.9802519083023071,9.806529998779297,-0.014558646827936172,-0.03332541882991791,-0.007174455560743809
-0.12669971585273743,1.9826469421386719,9.859221458435059,0.001954246312379837,-0.041315529495477676,-0.007174455560743809
-0.07879813015460968,1.9994124174118042,9.84006118774414,0.014205750077962875,-0.037054140120744705,-0.010370499454438686
-0.12909479439258575,2.011388063430786,9.885567665100098,0.017934467643499374,-0.01308380626142025,-0.006641780957579613
-0.14825543761253357,1.9706714153289795,9.99574089050293,0.025924578309059143,0.04231429472565651,0.008805764839053154
-0.23447832465171814,1.925165057182312,9.758628845214844,0.030718645080924034,0.06362124532461166,0.030112730339169502
0.12957383692264557,2.119166374206543,9.732283592224121,0.13459008932113647,-0.11056315898895264,0.0514196902513504
0.1583147943019867,2.1335370540618896,9.933469772338867,0.20863176882266998,-0.18300682306289673,0.008805764839053154
-0.16262592375278473,2.0688698291778564,9.636479377746582,0.27947741746902466,-0.04238088056445122,-0.007174455560743809
-0.12669971585273743,2.0784502029418945,9.375415802001953,0.24858230352401733,0.023670701310038567,0.01200181059539318
-0.17939147353172302,2.1982040405273438,9.226921081542969,0.12074055522680283,0.1073005199432373,0.021589944139122963
-0.13867512345314026,2.181438446044922,9.241291046142578,0.04936223849654198,0.14458772540092468,0.02478598617017269
-0.11711940169334412,2.1431171894073486,9.495169639587402,-0.09232906252145767,0.18240757286548615,0.02904737927019596
-0.12909479439258575,2.0952157974243164,9.693961143493652,-0.14293310046195984,0.15417584776878357,0.039700865745544434
-0.1338849514722824,2.1239566802978516,9.74665355682373,-0.13174693286418915,0.08918960392475128,0.0514196902513504
-0.0356866791844368,2.1479074954986572,9.787368774414062,-0.07741419225931168,0.037520233541727066,0.06473653763532639
-0.11951448023319244,2.0760550498962402,9.883172988891602,-0.05131315439939499,0.08599356561899185,0.04982166737318039
-0.09316858649253845,1.9754616022109985,10.115494728088379,-0.012960627675056458,0.16962340474128723,0.051952362060546875
-0.1698111593723297,2.164673089981079,9.758628845214844,0.12926334142684937,0.07107869535684586,0.03277610242366791
-0.13867512345314026,2.207784414291382,9.693961143493652,0.0562870018184185,-0.0445115752518177,-0.00024969223886728287
-0.33028149604797363,2.0233633518218994,9.955025672912598,-0.02254876121878624,-0.029064027592539787,0.005609722808003426
-0.21052753925323486,2.1047959327697754,10.050827980041504,0.07439792156219482,0.14139167964458466,0.08604350686073303
-0.16502100229263306,2.1670680046081543,9.883172988891602,0.1377861201763153,0.18453827500343323,0.12013465166091919
0.0050296783447265625,2.174253463745117,9.864011764526367,0.11275044828653336,0.29533445835113525,0.17819611728191376
-0.10753907263278961,2.1862287521362305,10.06519889831543,0.12819799780845642,0.40080389380455017,0.1792614609003067
-0.32549136877059937,2.2413153648376465,10.280755996704102,0.2326020896434784,0.45620203018188477,0.1590198576450348
-0.4859617054462433,2.2293403148651123,10.146631240844727,0.3359408974647522,0.5377011895179749,0.17286938428878784
-0.797322154045105,2.2485005855560303,9.677196502685547,0.4046558737754822,0.5723249912261963,0.19897040724754333
-0.9194711446762085,2.4640581607818604,9.238896369934082,0.4174399971961975,0.5158615708351135,0.24424771964550018
-0.9410269260406494,2.6652445793151855,9.20057487487793,0.5399550199508667,0.26230865716934204,0.1568891555070877
-0.9290515184402466,2.6197381019592285,8.891609191894531,0.2752160429954529,-0.08765818178653717,0.05781178176403046
-0.8236680030822754,2.5191450119018555,9.21255111694336,0.12606731057167053,-0.02213926427066326,0.04449492692947388
-1.0296449661254883,2.516749620437622,9.698752403259277,0.05895036831498146,0.19359372556209564,0.05781178176403046
-1.154189109802246,2.677219867706299,9.957420349121094,0.22727535665035248,0.15204516053199768,0.10362174361944199
-0.9889285564422607,2.6748251914978027,9.911913871765137,0.3503230810165405,0.07001333683729172,0.1291901022195816
-0.8356434106826782,2.7370970249176025,9.368230819702148,0.4914817214012146,-0.0796680673956871,0.13984358310699463
-0.9194711446762085,3.036482095718384,9.313143730163574,0.45739054679870605,-0.1057690903544426,0.16115054488182068
-0.9290515184402466,3.2424590587615967,9.830480575561523,0.40572118759155273,0.057229164987802505,0.22826747596263885
-0.6919386386871338,3.074803113937378,9.830480575561523,0.5106579661369324,0.42530694603919983,0.3198874294757843
-0.6320616006851196,3.0173213481903076,9.808924674987793,0.5937550663948059,0.5451586246490479,0.34705376625061035
-0.6512222290039062,3.012531280517578,9.722702026367188,0.6720582246780396,0.5590081214904785,0.35291317105293274
-0.7853467464447021,3.218508243560791,9.320328712463379,0.7445018887519836,0.4535386264324188,0.33959636092185974
-0.991323709487915,3.4747817516326904,8.599410057067871,0.6875057816505432,0.40080389380455017,0.3390636444091797
-1.0607810020446777,3.5945358276367188,8.036566734313965,0.4680440425872803,0.3203701376914978,0.3593052923679352
-1.180534839630127,3.5011277198791504,8.410199165344238,0.14684158563613892,0.2553838789463043,0.38434097170829773
-1.1014972925186157,3.5825603008270264,9.126327514648438,-0.025212127715349197,0.30119386315345764,0.3891350328922272
-0.8691744804382324,3.7214748859405518,9.305957794189453,-0.04438839107751846,0.396542489528656,0.3017764985561371
-0.9865334033966064,3.7430307865142822,9.217340469360352,-0.02734282612800598,0.3331542909145355,0.1552911400794983
-1.0559908151626587,3.6089062690734863,9.38499641418457,-0.0012417994439601898,0.1722867786884308,0.04236423224210739
-1.2116708755493164,3.642437219619751,9.607738494873047,0.0637444406747818,-0.03971750661730766,-0.03913489729166031
-1.3913019895553589,3.7478208541870117,8.817362785339355,0.15216831862926483,-0.13453349471092224,-0.09453300386667252
-1.5158460140228271,3.7262651920318604,8.786225318908691,0.1564297080039978,-0.37903088331222534,-0.10145775973796844
-1.1158677339553833,3.7023143768310547,8.82454776763916,0.01154237985610962,-0.41578540205955505,-0.0726933628320694
-1.1182628870010376,3.822068214416504,9.12872314453125,-0.11843009293079376,-0.27515944838523865,-0.07375871390104294
-1.0176695585250854,3.740635395050049,8.973042488098145,-0.17755690217018127,-0.14252358675003052,-0.09186963737010956
