accX,accY,accZ,gyroX,gyroY,gyroZ
0.008303090929985046,6.611865520477295,7.827181816101074,-0.5312607884407043,-0.6845704913139343,-0.23209388554096222
-0.41043320298194885,6.256585597991943,7.289645195007324,-0.6004630923271179,-0.12349949777126312,0.06600835174322128
0.05384080857038498,6.289577484130859,6.991174221038818,-0.6334672570228577,-0.03300417587161064,0.1756673902273178
0.9534764289855957,6.777257442474365,6.753037452697754,-0.736738383769989,0.03619812801480293,0.2384817898273468
1.4870482683181763,6.497422695159912,7.420435428619385,-0.7282211780548096,0.3012961745262146,-0.015969762578606606
0.30461907386779785,6.261690139770508,8.065826416015625,-0.6143035292625427,0.41521382331848145,0.08304276317358017
0.29340463876724243,6.274149417877197,8.621606826782227,-0.22889992594718933,0.582364022731781,0.24699899554252625
0.7853747606277466,6.48490571975708,8.295851707458496,0.3012961745262146,0.6132388710975647,0.24806363880634308
0.6988770961761475,6.623300075531006,7.036300182342529,0.48867473006248474,0.483351469039917,0.22996458411216736
0.9742964506149292,6.386197566986084,7.85101842880249,0.42586034536361694,0.5706528425216675,0.1788613349199295
0.2885874807834625,5.919989109039307,9.193265914916992,0.4024380147457123,1.2009261846542358,0.3087487518787384
0.07054275274276733,5.975180625915527,9.290009498596191,0.5206142663955688,1.6427562236785889,0.4663170576095581
0.6922690272331238,6.8164262771606445,6.4783172607421875,0.47483426332473755,1.9238240718841553,0.4216017425060272
-1.9131300449371338,7.6808671951293945,-1.5277304649353027,-0.5781053900718689,1.2179605960845947,0.43970078229904175
1.7912554740905762,8.05850887298584,7.19544792175293,-0.716509997844696,-0.7516434788703918,0.017034413293004036
0.7029088735580444,7.969722747802734,8.63448715209961,0.07239625602960587,-1.3712702989578247,-0.3162012994289398
0.10468407720327377,6.227462291717529,7.276294708251953,0.17673203349113464,-1.6938594579696655,-0.47909286618232727
-0.17399142682552338,5.593103885650635,7.000176429748535,-0.11711159348487854,-1.6182693243026733,-0.18631389737129211
1.3068989515304565,6.919856071472168,7.783722400665283,-0.406696617603302,-1.342524766921997,-0.09688322991132736
1.8998373746871948,7.5269775390625,6.834814071655273,-0.5887519121170044,-1.139176368713379,-0.41521382331848145
1.571869969367981,7.218087196350098,4.9529709815979,-0.9294402003288269,-1.4340846538543701,-0.7942295074462891
1.3250948190689087,5.552230358123779,5.034824371337891,-1.7332515716552734,-1.8120356798171997,-1.1562107801437378
1.1624518632888794,4.822630882263184,5.820496082305908,-2.228314161300659,-1.998349666595459,-1.0752973556518555
1.668835163116455,4.948489189147949,7.097256660461426,-2.4689252376556396,-2.067551851272583,-0.913470447063446
1.21083402633667,4.6169209480285645,7.446781158447266,-2.4785070419311523,-2.209150552749634,-0.8495913743972778
0.5963860750198364,4.746006965637207,9.231294631958008,-2.532804250717163,-1.492640495300293,-0.7761304378509521
0.3450714945793152,3.7939093112945557,8.750740051269531,-2.425274610519409,-0.8304276466369629,-0.39392080903053284
1.1825345754623413,3.4638257026672363,12.262765884399414,-1.933405876159668,-1.0838145017623901,1.0178061723709106
2.264474391937256,3.5609536170959473,13.12680435180664,-1.31910240650177,-0.8666257858276367,1.4234381914138794
2.8224477767944336,3.020955801010132,13.813711166381836,-0.5301961302757263,-0.3481408357620239,1.761997103691101
4.962222576141357,3.38913631439209,14.358046531677246,0.5397779941558838,0.6100449562072754,1.8599450588226318
5.063994884490967,1.753685712814331,13.74927806854248,1.6917301416397095,1.3925633430480957,1.647014856338501
5.590910911560059,0.41845858097076416,8.175336837768555,2.6190409660339355,3.0619359016418457,1.5309679508209229
6.558656692504883,2.107175350189209,5.366612911224365,0.8676904439926147,-0.5663942694664001,-0.13733996450901031
2.3855443000793457,2.227546215057373,11.502070426940918,1.451119065284729,0.03619812801480293,-0.5919458866119385
1.5838696956634521,3.500016450881958,9.91669750213623,1.820552945137024,0.6696653962135315,-0.17247343063354492
3.0826973915100098,6.430232048034668,8.237480163574219,1.9089189767837524,0.5844933390617371,-0.14159856736660004
3.481466054916382,4.483343601226807,8.035898208618164,1.8471691608428955,0.4663170576095581,-0.5120970606803894
2.777254819869995,3.761922836303711,8.75833511352539,1.82268226146698,0.7239625453948975,-0.6089802980422974
-0.1355309784412384,6.2861008644104,6.941288471221924,1.998349666595459,1.100848913192749,-0.41521382331848145
0.19707153737545013,6.32701301574707,3.4214770793914795,1.6832129955291748,0.07878416031599045,-0.0947539210319519
2.147723436355591,5.7231669425964355,7.764022350311279,1.0667800903320312,-0.11498229205608368,-0.1330813616514206
1.6009165048599243,6.059667110443115,8.208654403686523,1.00715970993042,0.5940751433372498,-0.06494370102882385
1.0921294689178467,5.9747395515441895,6.263203144073486,0.7122514247894287,1.139176368713379,0.1543743759393692
0.4754405915737152,6.225135326385498,5.003067493438721,0.20441296696662903,1.0784913301467896,0.405631959438324
-0.570997953414917,6.309133529663086,5.003115177154541,-0.40137335658073425,0.9517978429794312,0.7047988772392273
-0.05151364579796791,5.337575912475586,4.628997325897217,-1.1136248111724854,0.8272337317466736,1.1359823942184448
-0.2986718714237213,5.66933536529541,5.486389636993408,-1.474541425704956,0.7686778903007507,1.3691409826278687
1.1573858261108398,5.463692665100098,8.815306663513184,-1.3095204830169678,0.7516434788703918,1.5618427991867065
3.4171769618988037,5.9292120933532715,9.501465797424316,-0.8943067193031311,0.33536502718925476,1.3297488689422607
5.396836757659912,6.715956211090088,11.333958625793457,0.047909289598464966,-0.4908040463924408,0.3758217394351959
4.439894199371338,6.305254936218262,10.556648254394531,0.736738383769989,-0.5919458866119385,-0.4343775510787964
1.6698790788650513,5.461087703704834,8.160713195800781,0.9400866627693176,-0.13946926593780518,-0.8070053458213806
0.48388731479644775,5.772037029266357,8.326248168945312,0.8442681431770325,0.16715018451213837,-0.6536956429481506
0.7376344203948975,5.859511852264404,7.430845737457275,0.7239625453948975,0.5429719090461731,-0.3183306157588959
1.5021986961364746,6.008842945098877,6.856534004211426,0.6206914186477661,0.6238853931427002,-0.2831971347332001
0.45459187030792236,6.718972682952881,6.474553108215332,0.47164031863212585,0.5898165702819824,-0.22144737839698792
0.3969873785972595,6.438151836395264,6.746304988861084,0.4173431396484375,0.34920546412467957,-0.03726277872920036
0.6886969208717346,6.410982608795166,6.5647382736206055,0.5099677443504333,0.3513347804546356,0.24380503594875336
1.7611459493637085,7.193800449371338,4.570167064666748,0.580234706401825,0.33110642433166504,0.18311993777751923
1.3391153812408447,7.602748870849609,5.083531856536865,0.15011577308177948,-0.6409198045730591,-0.14905111491680145
1.6425755023956299,6.825294494628906,8.344301223754883,0.009581857360899448,-0.040456730872392654,-0.3119426965713501
1.5929869413375854,6.48753023147583,7.8766937255859375,0.05003859102725983,0.3119426965713501,-0.34601151943206787
0.8441858887672424,6.804206371307373,6.087363243103027,0.0074525559321045876,0.3225892186164856,-0.2981022298336029
0.7651869058609009,6.595996856689453,7.535136699676514,0.07559020817279816,-0.18311993777751923,-0.31726595759391785
-0.9179273843765259,6.406022071838379,8.7962007522583,0.2917143404483795,-0.27148595452308655,-0.1298874020576477
0.03910209983587265,6.1406965255737305,8.772441864013672,0.48973938822746277,0.15543901920318604,0.05110324174165726
-0.09766427427530289,6.72949743270874,6.600612640380859,0.49612727761268616,0.6973463296890259,0.20441296696662903
-0.38915354013442993,6.763533592224121,6.231168270111084,0.5174202919006348,0.6143035292625427,0.2672273516654968
-0.3427634835243225,7.0164666175842285,5.771510601043701,0.5163556337356567,0.23741713166236877,0.3364296555519104
-0.24862347543239594,7.054180145263672,5.421631336212158,0.5397779941558838,-0.041521381586790085,0.3854036033153534
0.009260771796107292,6.885666370391846,5.159571647644043,0.47483426332473755,-0.24699899554252625,0.4205370843410492
0.48301583528518677,7.021887302398682,5.837887287139893,0.3683691918849945,-0.2906496822834015,0.44395941495895386
1.311179757118225,7.451981544494629,6.073984146118164,0.1756673902273178,-0.06494370102882385,0.4237310290336609
1.552122712135315,7.973132133483887,5.9797773361206055,-0.10007718205451965,0.1650208830833435,0.1437278687953949
1.1091378927230835,7.434053897857666,4.936767101287842,-0.2384817898273468,-0.18311993777751923,0.0074525559321045876
0.8398668169975281,7.116075038909912,5.727179527282715,-0.3321710526943207,-0.36623987555503845,0.041521381586790085
1.4194934368133545,7.34234619140625,7.3859686851501465,-0.41201987862586975,-0.3481408357620239,0.20973621308803558
2.665052890777588,7.69525146484375,8.47640323638916,-0.328977108001709,-0.17247343063354492,0.16927948594093323
3.2308506965637207,7.68851900100708,8.97011661529541,-0.043650683015584946,0.05749114602804184,-0.02874557301402092
2.329472064971924,7.3838043212890625,7.4442243576049805,0.20867156982421875,0.11391764134168625,-0.19908970594406128
1.3121087551116943,7.0944695472717285,5.690366268157959,0.23422318696975708,-0.05429719388484955,-0.11391764134168625
1.9070295095443726,7.23231840133667,5.862011432647705,0.09049531817436218,-0.21825341880321503,0.05216789245605469
2.8656487464904785,7.3224263191223145,7.344443321228027,0.05003859102725983,0.0010646508308127522,0.02981022372841835
2.576371908187866,7.1343092918396,6.661377906799316,0.06813765317201614,0.4130845367908478,-0.07559020817279816
1.5319538116455078,6.93185567855835,5.828281879425049,0.1085943877696991,0.35985198616981506,-0.042586032301187515
1.4588924646377563,7.174618244171143,3.4378533363342285,0.16395622491836548,-0.10965903848409653,-0.012775810435414314
1.5487228631973267,7.257132053375244,4.313307762145996,0.05323254317045212,-0.582364022731781,-0.012775810435414314
2.2815496921539307,7.377416610717773,6.455389976501465,-0.09368927031755447,-0.6526309847831726,-0.05642649531364441
2.4035484790802,7.405141830444336,7.510869026184082,-0.07665485888719559,-0.46099382638931274,-0.13840460777282715
2.0461230278015137,6.836939811706543,6.971781253814697,0.05323254317045212,-0.08943066745996475,-0.3183306157588959
1.3372957706451416,7.05204439163208,6.647395610809326,0.06387905031442642,-0.08091346174478531,-0.31407198309898376
1.3663996458053589,7.18736457824707,6.452603340148926,0.019163714721798897,-0.06281439960002899,-0.2661627233028412
0.7578223347663879,7.043722152709961,6.35899019241333,-0.020228365436196327,-0.0021293016616255045,-0.26509806513786316
0.15301822125911713,7.04257345199585,6.40092658996582,-0.017034413293004036,-0.15224507451057434,-0.19696040451526642
0.2190694510936737,6.903124809265137,7.203233242034912,0.038327429443597794,-0.07559020817279816,-0.13840460777282715
0.16769945621490479,6.927574634552002,7.321325302124023,0.07771950960159302,0.04684463515877724,-0.10007718205451965
0.3155940771102905,7.0739850997924805,7.544589519500732,0.1788613349199295,0.3162012994289398,-0.012775810435414314
0.07936299592256546,7.297823905944824,7.009456634521484,0.2491282969713211,0.5089030861854553,0.02555162087082863
-0.2894781529903412,7.135171413421631,5.6952595710754395,0.2981022298336029,0.44715335965156555,0.0947539210319519
-0.6836690902709961,7.429590702056885,3.0117621421813965,0.2597748041152954,-0.18737854063510895,0.15011577308177948
1.487306833267212,7.789449214935303,8.329734802246094,-0.3513347804546356,0.10114183276891708,0.09688322991132736
1.3372094631195068,7.55750846862793,8.978524208068848,-0.12349949777126312,0.756966769695282,-0.0596204474568367
-0.3424761891365051,7.164475917816162,6.264218330383301,0.14479251205921173,0.377951055765152,-0.038327429443597794
0.34225592017173767,7.752434730529785,5.435651779174805,0.07878416031599045,-0.018099064007401466,0.12349949777126312
1.4201829433441162,7.789726734161377,7.368328094482422,0.06174974888563156,-0.1575683206319809,0.0734609067440033
1.1903300285339355,7.473740100860596,8.128850936889648,0.19908970594406128,0.11285299062728882,-0.015969762578606606
0.7870603203773499,7.206106662750244,7.887688159942627,0.2736152708530426,0.330041766166687,-0.010646508075296879
-0.20144814252853394,6.991786956787109,6.747320175170898,0.4162784814834595,0.455670565366745,0.13095206022262573
0.14801912009716034,7.10642147064209,5.601129531860352,0.48548078536987305,0.21293017268180847,0.30342549085617065
0.16452954709529877,7.235679626464844,4.952319622039795,0.49932125210762024,0.05536184459924698,0.3747570812702179
1.6137206554412842,8.067779541015625,4.544529914855957,0.15011577308177948,-0.8847248554229736,0.4311835765838623
2.6139895915985107,7.68147087097168,7.553582191467285,-0.005323254037648439,-0.1575683206319809,0.13201670348644257
1.655829906463623,7.325634956359863,6.416786193847656,-0.0841074138879776,0.10965903848409653,0.10965903848409653
2.1265108585357666,7.566673278808594,5.998892784118652,-0.14479251205921173,0.1650208830833435,0.2917143404483795
2.8728888034820557,7.895157814025879,5.791440010070801,-0.15863297879695892,0.10646508634090424,0.2917143404483795
3.4615273475646973,7.930936813354492,6.424476623535156,-0.10327113419771194,-0.07559020817279816,0.09688322991132736
3.032620429992676,7.576834678649902,6.290103912353516,0.03726277872920036,-0.008517206646502018,-0.09901253134012222
2.421198844909668,7.4984002113342285,5.985523223876953,0.06174974888563156,0.019163714721798897,-0.14585717022418976
1.5822992324829102,7.3913893699646,5.478268623352051,0.022357666864991188,-0.009581857360899448,-0.11285299062728882
1.7204350233078003,6.887073993682861,6.339098930358887,0.06600835174322128,0.070266954600811,-0.05642649531364441
0.89844810962677,7.672832012176514,3.97353196144104,-0.02661627158522606,-0.5930105447769165,-0.07984881103038788
1.330247163772583,7.572994232177734,4.564420700073242,-0.203348308801651,-0.5184849500656128,-0.040456730872392654
2.512455940246582,7.783693313598633,7.4492716789245605,-0.4492826461791992,-0.20121900737285614,-0.14798647165298462
2.288684368133545,7.450181007385254,8.617268562316895,-0.2310292273759842,0.4705756604671478,-0.36943385004997253
1.3845094442367554,7.201864242553711,7.674201488494873,-0.021293016150593758,0.5482951998710632,-0.44289475679397583
0.12447933107614517,7.456549644470215,5.778453826904297,0.2065422683954239,0.203348308801651,-0.2981022298336029
0.7229722738265991,7.834316253662109,6.146011829376221,0.2416757345199585,-0.1437278687953949,-0.1437278687953949
1.112221598625183,7.609453201293945,6.950233459472656,0.3960501253604889,-0.203348308801651,-0.20121900737285614
0.7421642541885376,7.714951038360596,6.626297950744629,0.4130845367908478,0.08517206460237503,-0.24061109125614166
0.5841660499572754,7.509662628173828,6.684045791625977,0.40776127576828003,0.15011577308177948,-0.23209388554096222
0.5555314421653748,7.537224769592285,6.545641899108887,0.4620584547519684,0.27467992901802063,-0.20973621308803558
0.5625799298286438,7.898567199707031,5.813131332397461,0.4758989214897156,0.05536184459924698,-0.08091346174478531
0.9749189615249634,7.713571548461914,5.786613464355469,0.5142263770103455,0.05003859102725983,-0.08943066745996475
0.9144030809402466,7.72899055480957,5.8550872802734375,0.5099677443504333,0.140533909201622,-0.09901253134012222
0.7749743461608887,7.794285297393799,5.648381233215332,0.5120970606803894,0.4003087282180786,-0.07665485888719559
1.1188678741455078,7.855557441711426,4.967144966125488,0.4247956871986389,0.7654839754104614,-0.013840461149811745
1.48666512966156,8.263309478759766,4.180936813354492,0.23315852880477905,1.0316466093063354,-0.05003859102725983
-1.824573278427124,7.997514724731445,-0.9281745553016663,-0.3864682614803314,0.2555162012577057,-0.0010646508308127522
0.7723694443702698,8.27012825012207,6.129147052764893,-0.46525242924690247,-0.8644964694976807,0.0031939526088535786
0.7180115580558777,8.815298080444336,6.508809566497803,-0.3183306157588959,-0.9741555452346802,-0.05749114602804184
1.16583251953125,8.021360397338867,6.484216213226318,-0.3012961745262146,-0.9752201437950134,-0.19163715839385986
0.8614146113395691,7.953154563903809,7.005568504333496,-0.34175291657447815,-0.8442681431770325,-0.20228366553783417
1.4527441263198853,8.169581413269043,7.118411540985107,-0.4450240433216095,-0.020228365436196327,-0.2278352826833725
1.3100593090057373,8.165395736694336,6.332845211029053,-0.29916688799858093,-0.17247343063354492,-0.35665804147720337
0.9041559100151062,7.9750285148620605,5.649923324584961,-0.1895078420639038,-0.43011894822120667,-0.3832743167877197
0.6567390561103821,7.859148979187012,5.5045857429504395,-0.1852492392063141,-0.582364022731781,-0.38114500045776367
0.28920039534568787,7.6067047119140625,5.4991559982299805,-0.253386914730072,-0.6803118586540222,-0.33430036902427673
0.5358319282531738,7.388736248016357,6.366134166717529,-0.32791244983673096,-0.582364022731781,-0.25019294023513794
0.7578031420707703,7.434273719787598,6.7151994705200195,-0.3183306157588959,-0.4599291682243347,-0.22570598125457764
0.9282799363136292,7.533719539642334,6.923600673675537,-0.2203827202320099,-0.21931807696819305,-0.19589576125144958
-0.09439858049154282,7.145638465881348,5.6875410079956055,-0.22570598125457764,-0.22251202166080475,-0.08517206460237503
0.13139379024505615,7.211306571960449,5.8248724937438965,-0.3609166443347931,-0.012775810435414314,0.08623671531677246
0.9367457628250122,7.436582088470459,7.411883354187012,-0.20547761023044586,0.0,0.05216789245605469
1.0621827840805054,7.547835826873779,7.273019313812256,0.021293016150593758,0.01171115878969431,0.020228365436196327
1.2332724332809448,7.517324447631836,7.181254863739014,0.11072368919849396,0.03406882658600807,0.009581857360899448
1.2101635932922363,7.484925746917725,7.010586261749268,0.2001543641090393,0.038327429443597794,-0.014905111864209175
1.0743931531906128,7.551753044128418,6.571183681488037,0.3162012994289398,0.004258603323251009,-0.040456730872392654
0.8877795338630676,7.733261585235596,4.78873872756958,-0.040456730872392654,0.13414600491523743,0.08623671531677246
0.9812970757484436,7.620993137359619,5.476008892059326,-0.1927018016576767,0.044715333729982376,0.06494370102882385
0.9314402341842651,7.537569522857666,5.807730197906494,-0.22996458411216736,0.03406882658600807,0.05855579674243927
1.2207938432693481,7.694533348083496,6.555736064910889,-0.1714087873697281,0.20121900737285614,-0.045779984444379807
0.7873476147651672,7.556474208831787,6.3263139724731445,-0.10114183276891708,0.15543901920318604,-0.044715333729982376
0.6381217837333679,7.523693084716797,5.865478038787842,-0.05429719388484955,0.02555162087082863,-0.02342231757938862
0.7781442999839783,7.516261100769043,5.832879066467285,-0.08517206460237503,-0.03087487444281578,-0.006387905217707157
0.7749360203742981,7.194709777832031,6.560332775115967,-0.19802506268024445,0.203348308801651,0.03406882658600807
0.37952885031700134,7.054189682006836,6.852138042449951,-0.1788613349199295,0.29277896881103516,0.07452555745840073
0.11834059655666351,7.45768928527832,5.843825340270996,0.2246413230895996,-0.19696040451526642,0.07133160531520844
0.36969348788261414,7.266143321990967,6.622131824493408,0.20121900737285614,-0.3396236300468445,0.1437278687953949
1.8573451042175293,7.832621097564697,6.614221572875977,-0.05216789245605469,0.09049531817436218,0.0734609067440033
1.6407464742660522,7.803948402404785,6.481621265411377,-0.17034412920475006,0.18418459594249725,-0.20441296696662903
0.535496711730957,7.240860939025879,5.687943458557129,-0.05323254317045212,-0.22889992594718933,-0.25445154309272766
0.06858909130096436,7.353934288024902,6.2108845710754395,-0.13840460777282715,-0.4237310290336609,-0.07771950960159302
0.8351932764053345,7.4850311279296875,7.6839704513549805,-0.16608552634716034,-0.2661627233028412,-0.014905111864209175
1.1398699283599854,7.260397434234619,7.592952251434326,-0.009581857360899448,0.13840460777282715,-0.03300417587161064
0.19069337844848633,7.040073394775391,6.154860496520996,0.10646508634090424,0.12882275879383087,0.05216789245605469
0.5139297246932983,7.172855854034424,5.6384501457214355,0.020228365436196327,0.07452555745840073,0.17992599308490753
1.2743474245071411,7.508973121643066,6.197630405426025,-0.12775810062885284,0.14266321063041687,0.19483110308647156
1.5365124940872192,7.519507884979248,6.632206916809082,-0.1788613349199295,0.26509806513786316,0.1682148277759552
1.2111116647720337,7.217924118041992,6.950338840484619,-0.07771950960159302,0.4130845367908478,0.14585717022418976
0.38342660665512085,7.491486072540283,4.848057270050049,0.2203827202320099,-0.3183306157588959,0.11711159348487854
1.4105966091156006,7.696783542633057,5.17459774017334,-0.02874557301402092,-0.36623987555503845,0.1362753063440323
1.4842422008514404,7.587895393371582,6.053403854370117,-0.23954643309116364,0.1362753063440323,-0.2065422683954239
0.6551110148429871,7.546744346618652,6.215960502624512,-0.22996458411216736,-0.06813765317201614,-0.19376645982265472
0.46388137340545654,7.306069374084473,7.6292290687561035,-0.08197811245918274,-0.24486969411373138,-0.08623671531677246
0.9466673731803894,7.326831817626953,7.90975284576416,0.09901253134012222,-0.040456730872392654,-0.07133160531520844
0.9950206279754639,7.348475456237793,7.538661003112793,0.16927948594093323,0.06387905031442642,-0.08091346174478531
0.9774280190467834,7.3109917640686035,6.579323768615723,0.20441296696662903,0.19589576125144958,-0.13414600491523743
0.18737022578716278,7.083561420440674,5.889832019805908,0.10752973705530167,0.27893853187561035,-0.1085943877696991
-0.08937075734138489,6.932784557342529,5.840080738067627,-0.05003859102725983,0.2906496822834015,0.02874557301402092
-0.07412447780370712,6.941605091094971,6.212398052215576,-0.08943066745996475,0.2981022298336029,0.10327113419771194
0.09747274219989777,7.236905574798584,5.496330738067627,0.1788613349199295,-0.2139948159456253,0.10433578491210938
1.1478185653686523,7.459508895874023,6.1037397384643555,0.0,-0.21293017268180847,0.18631389737129211
1.840394139289856,7.859119892120361,6.617248058319092,-0.22889992594718933,0.11391764134168625,0.01171115878969431
0.1327345371246338,7.293696403503418,6.35468053817749,-0.17460273206233978,-0.23635248839855194,-0.0021293016616255045
1.1411818265914917,7.525617599487305,7.353665828704834,-0.2352878302335739,-0.06068509817123413,0.06920230388641357
1.3278721570968628,7.4214982986450195,7.630158424377441,-0.1469218134880066,0.22570598125457764,0.0
0.08757989853620529,6.9467854499816895,5.724679470062256,-0.02874557301402092,0.05536184459924698,0.1575683206319809
0.6802501678466797,6.916092395782471,6.782869338989258,-0.044715333729982376,0.10220648348331451,0.3428175747394562
1.0849181413650513,7.196367263793945,6.115097522735596,0.24486969411373138,0.3790156841278076,0.3162012994289398
0.865647554397583,7.694772720336914,6.196902751922607,0.23741713166236877,-0.2949082851409912,0.2842617630958557
2.2198081016540527,7.681020736694336,6.513339519500732,0.10114183276891708,-0.2831971347332001,0.24593433737754822
2.173255205154419,7.936002731323242,6.944563865661621,-0.32791244983673096,0.2704213261604309,-0.12349949777126312
0.70932537317276,6.950942516326904,7.31058931350708,-0.15650367736816406,0.35665804147720337,-0.2970375716686249
-0.12315773963928223,7.29012393951416,5.3646111488342285,-0.041521381586790085,0.03726277872920036,-0.07133160531520844
1.0496563911437988,7.5650835037231445,6.404345512390137,-0.06387905031442642,-0.40882593393325806,0.047909289598464966
1.241163730621338,7.3408522605896,7.476507663726807,0.024486970156431198,-0.30023154616355896,-0.03619812801480293
0.834475040435791,7.23236608505249,7.6451263427734375,0.06600835174322128,-0.16927948594093323,-0.05536184459924698
0.37621527910232544,6.928513050079346,7.871627330780029,0.17779669165611267,0.11711159348487854,-0.0031939526088535786
0.23787830770015717,6.868237018585205,6.87145471572876,0.25445154309272766,0.38753291964530945,0.08623671531677246
0.09211929887533188,6.983024597167969,6.100224494934082,0.22144737839698792,0.42905429005622864,0.13414600491523743
0.009193734265863895,7.17213773727417,4.1277570724487305,0.23954643309116364,0.021293016150593758,0.15863297879695892
0.9570390582084656,7.531191349029541,6.259822368621826,-0.13946926593780518,-0.013840461149811745,0.22144737839698792
2.1209847927093506,7.542530059814453,7.572975158691406,-0.1820552945137024,0.33536502718925476,0.02555162087082863
1.4299992322921753,7.397862911224365,7.284904956817627,0.16927948594093323,0.1895078420639038,-0.1437278687953949
0.363822877407074,7.338428974151611,7.421422004699707,0.3374943137168884,-0.04684463515877724,-0.07452555745840073
0.7000454068183899,7.310934066772461,7.606101036071777,0.5099677443504333,0.13840460777282715,-0.038327429443597794
0.2729772925376892,7.162283420562744,6.7178425788879395,0.5781053900718689,0.3225892186164856,0.0010646508308127522
0.31066206097602844,7.405735492706299,5.6637139320373535,0.4801575243473053,0.3406882584095001,0.11817624419927597
0.7406319379806519,7.557584762573242,5.66551399230957,0.330041766166687,0.40882593393325806,0.17460273206233978
0.6209123134613037,7.454413890838623,6.249172687530518,0.17460273206233978,0.5440365672111511,0.18311993777751923
0.31585267186164856,7.137718677520752,6.121983528137207,0.22357667982578278,0.8804662227630615,0.27467992901802063
-0.6686334609985352,8.281466484069824,0.35010892152786255,0.14159856736660004,0.6355965733528137,0.2831971347332001
2.131395101547241,8.405486106872559,7.752625942230225,-0.505709171295166,-0.31407198309898376,0.012775810435414314
1.7242848873138428,7.7144622802734375,5.696361541748047,-0.3992440700531006,-0.2917143404483795,-0.23315852880477905
