accX,accY,accZ,gyroX,gyroY,gyroZ
1.8026328086853027,5.009512901306152,8.142805099487305,-0.01820378378033638,0.001745329238474369,0.04326671361923218
0.8540117144584656,4.197437763214111,8.51805305480957,-1.0800096988677979,0.43079960346221924,-0.26946139335632324
0.9897534251213074,4.164666175842285,8.521960258483887,-1.0012255907058716,0.3764849603176117,-0.2928836941719055
0.29926562309265137,3.4173014163970947,8.35755443572998,-1.0280861854553223,0.5367062091827393,-0.23047073185443878
-0.18264886736869812,2.4236981868743896,9.58641242980957,-0.835750937461853,0.9246754050254822,0.1534842550754547
-0.7989355325698853,2.526380777359009,10.230902671813965,-0.3763802647590637,0.7891331911087036,0.40168753266334534
-0.871901273727417,3.342564105987549,10.585321426391602,-0.07262314856052399,0.3116459846496582,0.40245547890663147
0.09133400768041611,3.819469928741455,10.488998413085938,0.0038920841179788113,-0.29255208373069763,0.32614967226982117
1.3033173084259033,2.9943227767944336,10.142470359802246,-0.01127482671290636,-0.07579965144395828,0.1549328714609146
1.6898754835128784,2.384155511856079,9.625236511230469,-0.07684684544801712,0.3551046848297119,-0.23088960349559784
0.1747480034828186,3.5180113315582275,9.237979888916016,-0.04096287861466408,0.6205168962478638,-0.30206412076950073
0.04275086522102356,2.532423734664917,9.033821105957031,0.6740984916687012,-0.1204102635383606,0.7584677338600159
1.645774245262146,1.3877558708190918,7.40468168258667,0.5147674083709717,0.3824365437030792,0.5438620448112488
0.24250391125679016,3.0411722660064697,9.519068717956543,0.30630528926849365,0.14238396286964417,-0.2998824715614319
0.06698018312454224,3.804893970489502,8.290814399719238,0.12719959020614624,-0.07082545757293701,0.027262043207883835
0.2379262000322342,3.3756520748138428,8.42062759399414,0.0414864756166935,-0.12449433654546738,-0.007051130291074514
0.36734718084335327,3.7150156497955322,8.81885051727295,-0.11091567575931549,-0.14236651360988617,-0.002809980185702443
0.45569321513175964,3.6137120723724365,8.990926742553711,-0.07881906628608704,0.09538224339485168,-0.007906341925263405
0.4292803704738617,3.2529921531677246,9.464202880859375,0.061453044414520264,0.1005309671163559,-0.026825711131095886
0.36525940895080566,3.28096604347229,9.005999565124512,0.24555036425590515,0.09953612834215164,-0.06138322874903679
0.18157626688480377,3.6727819442749023,9.160512924194336,0.3309842348098755,0.11222466826438904,-0.08185594528913498
0.03858495503664017,3.7957098484039307,8.622028350830078,0.3794171214103699,0.07733553647994995,-0.06717772036790848
0.15733735263347626,3.9276018142700195,8.27186107635498,0.3597996234893799,0.16296139359474182,-0.0431968979537487
0.04947378486394882,4.103460311889648,8.48230266571045,0.25624924898147583,0.23745204508304596,-0.04771730303764343
-0.35300108790397644,4.179481506347656,8.84184455871582,0.1201135590672493,0.09224065393209457,-0.022602014243602753
-0.4818953573703766,4.214877128601074,9.000733375549316,-0.016580628231167793,-0.18196803331375122,0.012287117540836334
-0.021030668169260025,4.048001289367676,8.954994201660156,-0.013089969754219055,-0.2312561273574829,0.0463733971118927
0.5153183937072754,3.785529851913452,8.898222923278809,0.09574875980615616,-0.048432886600494385,0.03792600333690643
0.6055893301963806,3.6432855129241943,8.190937042236328,0.18823376297950745,0.12508775293827057,0.009424777701497078
-0.008092401549220085,3.8213469982147217,8.933629035949707,0.18942058086395264,0.05363396927714348,-0.009372417815029621
-0.24406492710113525,4.315835952758789,8.683424949645996,-0.09267698228359222,-0.23916245996952057,0.02822197414934635
0.13523408770561218,4.03138542175293,8.414316177368164,-0.4012337327003479,-0.35897931456565857,0.06415830552577972
0.6245802044868469,3.4687864780426025,9.054574012756348,-0.285082072019577,-0.10232865065336227,0.09496336430311203
0.49553272128105164,3.40735125541687,9.392702102661133,-0.2183057814836502,-0.06532767415046692,0.06382668763399124
0.4492671489715576,3.476074457168579,9.632323265075684,-0.0806342139840126,-0.029478611424565315,0.021153390407562256
0.5849992632865906,3.64288330078125,8.810556411743164,0.08836601674556732,-0.043964844197034836,-0.023090705275535583
0.44579076766967773,3.7530930042266846,8.812529563903809,0.15388567745685577,0.05351179465651512,-0.04323180392384529
0.31532591581344604,3.7535624504089355,8.999344825744629,0.16036085784435272,-0.0070685832761228085,-0.030752701684832573
0.45484083890914917,3.755046844482422,8.775428771972656,0.12308061867952347,-0.11917108297348022,-0.01096066739410162
0.6180296540260315,3.741945743560791,8.69729232788086,0.1431519091129303,-0.04054399952292442,-0.01935570128262043
0.48649221658706665,3.8484878540039062,8.828934669494629,0.1731192022562027,0.03242821618914604,-0.029338983818888664
0.4773367941379547,3.893508195877075,8.936271667480469,0.18725638091564178,0.030194196850061417,-0.006946410518139601
0.587671160697937,3.7351748943328857,8.846124649047852,0.2315877377986908,-0.008726646192371845,-0.009529497474431992
0.36223316192626953,4.11825704574585,8.705968856811523,0.15538665652275085,-0.01647590845823288,-0.0616450272500515
0.3130275011062622,4.119128227233887,8.70889949798584,0.13295918703079224,-0.07117452472448349,-0.0383099764585495
0.523037314414978,3.870954751968384,8.948357582092285,0.021642083302140236,0.06752678751945496,-0.04656538367271423
0.6088742017745972,3.8621537685394287,8.637360572814941,0.10623819380998611,-0.006719517521560192,-0.03565707802772522
0.7061745524406433,4.219005107879639,8.442442893981934,0.051801372319459915,0.12664109468460083,-0.05152212083339691
0.5372492671012878,4.280306339263916,8.528395652770996,-0.034784410148859024,0.2534741759300232,-0.08719664812088013
0.3106333017349243,4.119894504547119,8.967625617980957,-0.020141098648309708,0.24090780317783356,-0.04937536269426346
0.2951093018054962,4.027717590332031,9.178977012634277,0.14329153299331665,0.3565358519554138,-0.03530801087617874
0.3737061321735382,3.8805124759674072,9.168452262878418,0.3833615779876709,0.42320743203163147,-0.06403613090515137
0.2680356800556183,4.061102390289307,8.777966499328613,0.4463505148887634,0.39210566878318787,-0.07871434837579727
-0.22556252777576447,4.654548168182373,8.406023025512695,0.24417155981063843,0.2540326714515686,-0.07960446923971176
-0.25000256299972534,4.76339864730835,8.451014518737793,0.0855560377240181,0.16402603685855865,-0.0067544239573180676
0.03369120880961418,4.420424461364746,8.563179016113281,0.08616690337657928,0.17357298731803894,0.061941735446453094
0.3825838565826416,4.0827555656433105,8.617067337036133,0.18156659603118896,0.30866149067878723,0.06066764518618584
0.3550792634487152,4.161477088928223,8.432522773742676,0.28471556305885315,0.5158495306968689,-0.005445427261292934
-0.05666596442461014,4.474322319030762,8.097037315368652,0.1523323357105255,0.6079679727554321,-0.018622662872076035
-0.23851993680000305,4.2824320793151855,8.299471855163574,0.15315264463424683,0.7117277979850769,-0.08909905701875687
-1.0238373279571533,4.500993728637695,8.663389205932617,0.11328931897878647,0.518886387348175,-0.15418238937854767
-1.5888209342956543,4.968600749969482,8.412363052368164,0.05167919769883156,0.09210102260112762,-0.07838273793458939
-1.0601046085357666,4.980762958526611,8.549779891967773,-0.15866787731647491,-0.21465803682804108,0.029565878212451935
-0.47096818685531616,4.422014236450195,8.868247985839844,-0.1794722080230713,-0.15194836258888245,0.07099999487400055
-0.9845436215400696,4.621182441711426,9.247307777404785,-0.017243852838873863,-0.20516344904899597,-0.03216641768813133
-0.7373566627502441,4.385430812835693,8.690780639648438,-0.0017278759041801095,-0.4583234488964081,-0.005201081279665232
-0.5127326846122742,4.505944728851318,7.777678966522217,-0.09349729120731354,-0.5688202381134033,-0.008621926419436932
-0.28296589851379395,4.389595985412598,8.542204856872559,-0.24876177310943604,-0.17784905433654785,-0.045954518020153046
-0.354782372713089,4.41592264175415,9.005951881408691,-0.2641032338142395,-0.26366689801216125,-0.034121185541152954
-0.254810094833374,4.375010967254639,9.202957153320312,-0.2050587385892868,-0.3245439827442169,-0.019565140828490257
-0.006502651609480381,4.239499092102051,9.275395393371582,-0.0515570268034935,-0.24757495522499084,-0.015655603259801865
0.04220498725771904,4.215097427368164,9.163702011108398,0.030613074079155922,-0.20343557000160217,-0.016667895019054413
0.10011593997478485,4.385985851287842,8.705767631530762,0.13313370943069458,-0.06000442057847977,0.010821041651070118
0.08892065286636353,4.227614402770996,8.477791786193848,0.2148849368095398,0.11135200411081314,0.039968039840459824
-0.32526665925979614,4.580826282501221,7.999918460845947,0.1390852928161621,0.09000662714242935,-0.009407324716448784
-0.29109662771224976,4.572561740875244,7.979538917541504,-0.10466739535331726,-0.1019621342420578,0.008464846760034561
-0.08305007219314575,4.3151655197143555,8.460304260253906,-0.22547908127307892,-0.17381733655929565,0.0015009831404313445
-0.32335132360458374,4.451223373413086,8.496667861938477,-0.2315528243780136,-0.6249849200248718,0.014678219333291054
-0.10850521922111511,4.581094264984131,8.082805633544922,-0.388213574886322,-0.8021882176399231,0.08332201838493347
0.7775697112083435,4.2851996421813965,8.0205659866333,-0.508047878742218,-0.7474023699760437,0.1345299780368805
1.012852668762207,3.8397343158721924,8.105953216552734,-0.5389925837516785,-0.49300315976142883,0.06756169348955154
0.8025268316268921,3.787818670272827,8.690272331237793,-0.4476071298122406,-0.32531192898750305,0.05028293654322624
0.8521443009376526,3.757575035095215,9.180316925048828,-0.3067939877510071,-0.327127069234848,0.07799876481294632
1.039696455001831,3.827026128768921,8.792160034179688,-0.18537141382694244,-0.14788174629211426,0.14325661957263947
1.243950605392456,3.397199869155884,9.139309883117676,-0.1333431601524353,-0.09527752548456192,0.08154178410768509
1.0566856861114502,3.3397486209869385,9.568954467773438,-0.007941247895359993,-0.09150761365890503,0.03405137360095978
1.0013892650604248,3.6221399307250977,9.29777717590332,0.08131489157676697,-0.1578475832939148,-0.005916666239500046
0.9964188933372498,3.8889975547790527,8.732256889343262,0.11100293695926666,-0.13171999156475067,-0.008098327554762363
0.9857886433601379,3.822697162628174,8.744965553283691,0.13782864809036255,-0.08086110651493073,0.013735741376876831
1.0926562547683716,3.639042854309082,8.533231735229492,0.20149825513362885,0.03703588619828224,0.016510814428329468
0.9043378829956055,3.746054172515869,8.657146453857422,0.17919296026229858,-0.015847589820623398,-0.0024260077625513077
0.8526135087013245,3.9821033477783203,8.438488006591797,0.04101523756980896,-0.11459831893444061,-0.005742133129388094
0.9969168901443481,3.960986375808716,8.487262725830078,-0.05434955283999443,-0.13552480936050415,0.0033684854861348867
0.7549684047698975,4.5656561851501465,8.656906127929688,0.05441936478018761,0.029914943501353264,0.07850491255521774
1.4021499156951904,3.214033842086792,8.571855545043945,0.09979792684316635,0.1555088311433792,0.04016002640128136
0.9404616355895996,3.8564460277557373,8.6800537109375,-0.008098327554762363,0.02028072625398636,-0.04508185386657715
0.7180498242378235,4.075314521789551,8.749034881591797,-0.05763076990842819,-0.04173082113265991,-0.02254965342581272
0.9143648147583008,3.98518705368042,8.922174453735352,-0.06298892945051193,-0.11248646676540375,0.01286307629197836
1.322767734527588,3.771087884902954,8.809245109558105,0.020367993041872978,0.016772614791989326,-0.0011868239380419254
1.2486815452575684,3.684628486633301,8.545433044433594,0.08319984376430511,0.1491732895374298,-0.03199188411235809
1.0582563877105713,3.744387626647949,8.646276473999023,0.09749408811330795,0.15934856235980988,-0.03998549282550812
0.9929903745651245,3.8479321002960205,8.534064292907715,0.06204645335674286,0.1451764851808548,-0.0555887371301651
0.7593545913696289,4.167098522186279,8.565544128417969,-0.008360126987099648,0.11150908470153809,-0.05522221699357033
0.7888607382774353,4.185151100158691,8.500804901123047,-0.153205007314682,0.06627015024423599,0.009599311277270317
0.9103425145149231,3.806436061859131,8.593173027038574,-0.07963937520980835,0.17318901419639587,0.03104940801858902
0.7601686120033264,3.8935177326202393,8.595547676086426,-0.12438961863517761,0.15533430874347687,0.0391826406121254
1.01665461063385,3.7012250423431396,8.642685890197754,-0.1045626774430275,0.21912609040737152,0.04473278671503067
0.879581868648529,3.6840922832489014,9.097363471984863,0.0019024088978767395,0.34681436419487,0.012653636746108532
0.6404968500137329,3.805985927581787,9.57169246673584,0.04511675983667374,0.263195663690567,0.0076445420272648335
0.531158447265625,3.845576524734497,9.732123374938965,0.08059930801391602,0.09749408811330795,0.005235987715423107
0.6430825591087341,3.850767135620117,9.427236557006836,0.17441074550151825,0.08171631395816803,-0.0023561944253742695
0.15381309390068054,4.280076026916504,8.115615844726562,0.15404276549816132,0.23104669153690338,0.02471386268734932
0.5170804858207703,4.154323101043701,8.062445640563965,0.09012880176305771,0.27757716178894043,0.05815437063574791
0.5548322796821594,4.089056968688965,8.238131523132324,0.09695304185152054,0.4052654504776001,0.04633849114179611
0.1083998829126358,4.29206657409668,8.7013521194458,0.10445795208215714,0.45230206847190857,0.03202679008245468
0.11379161477088928,4.294076919555664,9.019991874694824,0.10576695203781128,0.4551120400428772,0.04928809776902199
0.13139379024505615,4.206900119781494,9.149806022644043,0.10012953728437424,0.3599567115306854,0.04279547184705734
-0.20095013082027435,4.279079914093018,9.166900634765625,0.10683160275220871,0.2240828275680542,0.01441641990095377
-0.27346572279930115,4.316927909851074,8.871657371520996,0.1618618369102478,0.122714102268219,0.007522369269281626
0.12288958579301834,4.212253093719482,8.524995803833008,0.18383553624153137,0.08454374969005585,0.001117010717280209
0.11050677299499512,4.266218185424805,8.242470741271973,0.22853341698646545,0.08145451545715332,-0.004660028964281082
-0.023118412122130394,4.445094108581543,8.205704689025879,0.07571238279342651,0.0286583062261343,-0.008796459063887596
-0.025081656873226166,4.498599529266357,8.28315258026123,-0.1491732895374298,0.002373647876083851,-0.0013962633674964309
-0.3732943534851074,4.5040202140808105,8.776281356811523,-0.15772540867328644,-0.030002210289239883,-0.010855947621166706
-0.30245471000671387,4.2423529624938965,9.04544734954834,-0.07478735595941544,-0.17816321551799774,0.020717058330774307
0.0815177783370018,4.315011978149414,8.628291130065918,-0.0627969428896904,-0.22816689312458038,0.02019345946609974
0.33341652154922485,4.272040843963623,8.542914390563965,0.04194026067852974,0.0016057029133662581,0.012234757654368877
0.3021674156188965,4.173170566558838,8.767538070678711,0.17147859930992126,0.19751891493797302,0.023055799305438995
0.0031794998794794083,4.375614166259766,8.682313919067383,0.17275269329547882,0.21505947411060333,0.027471482753753662
-0.09285672008991241,4.460292339324951,8.610727310180664,0.15599752962589264,0.2258106917142868,0.02076941728591919
-0.01877054199576378,4.3940300941467285,8.723024368286133,0.17877407371997833,0.275988906621933,0.02511528693139553
0.11136868596076965,4.379215240478516,8.468348503112793,0.23979078233242035,0.3836059272289276,0.06098180264234543
0.3451002240180969,4.292841911315918,8.1486177444458,0.28354617953300476,0.5931326746940613,0.0322536826133728
-1.2436250448226929,4.601913928985596,8.109784126281738,0.22774800658226013,0.2739294171333313,-0.12515756487846375
-0.9972520470619202,4.894830703735352,8.39207935333252,-0.15966272354125977,-0.18439403176307678,-0.027960173785686493
-0.6334866285324097,5.170623302459717,8.583710670471191,-0.3848276436328888,-0.3761882781982422,0.006021386012434959
-0.4561624825000763,4.209130764007568,9.069130897521973,-0.24331635236740112,-0.32416000962257385,-0.04516912251710892
-0.4800565838813782,4.25195837020874,9.019762992858887,-0.021764256060123444,-0.31464794278144836,-0.032794736325740814
-0.2884151041507721,4.541168689727783,8.46812915802002,0.015097098425030708,-0.3467271029949188,-0.03750712424516678
-0.16258545219898224,4.611682415008545,8.48898696899414,-0.012234757654368877,-0.2621135413646698,-0.05267403647303581
-0.16655024886131287,4.496875762939453,8.703248977661133,0.006771877408027649,-0.21617648005485535,-0.02471386268734932
-0.1478850543498993,4.396175861358643,8.700481414794922,0.02741912193596363,-0.22540926933288574,-0.01851794309914112
0.05772899091243744,4.575817584991455,8.279474258422852,0.09098401665687561,-0.1938711702823639,-0.04930555075407028
0.12195105850696564,4.6431708335876465,8.110109329223633,0.022444933652877808,-0.16144295036792755,-0.030264008790254593
0.18434394896030426,4.626248836517334,8.094422340393066,-0.018343409523367882,-0.07192502170801163,-0.01136209350079298
0.20608331263065338,4.413471221923828,8.24417495727539,-0.028710665181279182,-0.004450589418411255,-0.014800392091274261
0.08512823283672333,4.435584545135498,8.210493087768555,-0.029077185317873955,0.004188789986073971,-0.027384215965867043
-0.06807194650173187,4.560810565948486,8.316595077514648,-0.09869837015867233,-0.02652900479733944,-0.032044246792793274
-0.06405925750732422,4.631937503814697,8.655920028686523,-0.12863077223300934,-0.10349802672863007,-0.028553586453199387
0.07337749749422073,4.505331993103027,8.803250312805176,-0.08557349443435669,-0.07751007378101349,-0.0028623400721699
-0.012066775932908058,4.491292476654053,8.980411529541016,0.12686797976493835,0.0015358896926045418,0.03645992651581764
0.11850340664386749,4.566709995269775,8.397796630859375,0.11660544574260712,-0.042760565876960754,0.010157816112041473
0.0953754186630249,4.472234725952148,8.442548751831055,0.03907792270183563,-0.08279842138290405,-0.02076941728591919
-0.037713468074798584,4.417369365692139,8.471461296081543,0.06857398897409439,-0.13992305099964142,0.01005309633910656
0.0009097966831177473,4.594357967376709,8.443209648132324,0.07726572453975677,-0.2601587772369385,-0.02396337129175663
0.07494808733463287,4.6034464836120605,8.498822212219238,0.043825216591358185,-0.31033700704574585,-0.014643312431871891
0.25456109642982483,4.587730884552002,8.659770965576172,0.0018500490114092827,-0.3975161910057068,-0.005881759338080883
0.3654700815677643,4.604308605194092,8.696142196655273,0.012391837313771248,-0.4049513041973114,0.005078908056020737
0.5336675643920898,4.614239692687988,8.794103622436523,0.10761699825525284,-0.2843490540981293,-0.00017453292093705386
0.5561730265617371,4.561270713806152,8.612029075622559,0.2232101559638977,-0.1970302164554596,-0.027087509632110596
0.5486552715301514,4.5867156982421875,8.05878734588623,0.2520080804824829,-0.1500459611415863,-0.02272418700158596
0.5764567255973816,4.705842018127441,7.594762325286865,0.1658760905265808,-0.12056734412908554,-0.015219271183013916
0.5543822050094604,4.873885631561279,7.694360733032227,0.06485643237829208,-0.09402088820934296,0.0042236968874931335
0.7026024460792542,4.826308727264404,8.165262222290039,-0.022881265729665756,0.05152212083339691,0.033684853464365005
0.5588067173957825,4.8651041984558105,8.462621688842773,-0.043423790484666824,0.10189232230186462,0.023858651518821716
0.5277586579322815,4.826519012451172,8.714070320129395,-0.057648226618766785,0.12198106199502945,0.03527310490608215
0.4530404210090637,4.655860424041748,8.690425872802734,-0.023596851155161858,0.027698375284671783,0.027977628633379936
0.4129806458950043,4.584579944610596,8.534754753112793,0.0076445420272648335,-0.003403391921892762,0.006702064536511898
0.43692266941070557,4.574227333068848,8.371767044067383,0.03358013555407524,-0.054908059537410736,-0.005829399451613426
0.5447383522987366,4.741668224334717,8.253962516784668,0.0256388857960701,-0.05239478498697281,-0.016580628231167793
0.45454397797584534,4.762546062469482,8.189022064208984,0.02373647689819336,-0.032532937824726105,-0.006859143730252981
0.6565475463867188,4.810276985168457,7.907253265380859,0.017819812521338463,0.02754129469394684,0.02143264375627041
0.4997177720069885,4.812871932983398,8.244184494018555,-0.03890338912606239,0.06290166825056076,0.010786134749650955
0.4918743669986725,4.734591484069824,8.473261833190918,-0.0472460612654686,0.07600908726453781,0.03605850040912628
0.47584280371665955,4.548743724822998,8.609376907348633,-0.008499753661453724,0.0023911010939627886,0.03157300502061844
0.5820687413215637,4.828788757324219,8.38750171661377,-0.030229102820158005,0.02869321219623089,0.0005410520825535059
0.44493845105171204,4.753993988037109,8.476585388183594,-0.046268679201602936,0.04173082113265991,0.009861109778285027
0.4562007784843445,4.670618057250977,8.507776260375977,-0.0010995573829859495,0.06290166825056076,0.03637266159057617
0.5360521674156189,4.609882354736328,8.39387035369873,0.09334021061658859,0.13444271683692932,0.032218776643276215
0.49866434931755066,4.650947093963623,8.272082328796387,0.13269738852977753,0.20060814917087555,0.0027576202992349863
0.30293357372283936,4.763772010803223,8.409939765930176,0.1045452207326889,0.15453144907951355,-0.002914699725806713
0.30430305004119873,4.751638412475586,8.552184104919434,0.06489133834838867,0.05167919769883156,0.008656833320856094
0.3845854103565216,4.717103958129883,8.42440128326416,0.06810274720191956,-0.006300638429820538,0.007347836159169674
0.4862527847290039,4.684121608734131,8.047266006469727,0.11442378163337708,0.0319744311273098,0.006824237294495106
0.27194300293922424,4.723108768463135,8.428902626037598,0.07751007378101349,-0.026110125705599785,-0.012653636746108532
0.25594016909599304,4.8812408447265625,8.385366439819336,-0.06583382189273834,-0.16749924421310425,-0.029967302456498146
0.20222385227680206,4.681114196777344,8.956392288208008,0.009826203808188438,-0.2660754323005676,-0.03127630054950714
0.21957702934741974,4.7992634773254395,8.639448165893555,0.07482226192951202,-0.39446187019348145,-0.006841690745204687
0.7379025220870972,4.967719554901123,8.210857391357422,0.04286528751254082,-0.34517377614974976,0.01171115878969431
0.9462459683418274,4.911992073059082,7.970871925354004,-0.0200189258903265,-0.20872391760349274,-0.010402162559330463
0.6555228233337402,4.787838459014893,8.725111961364746,-0.07716100662946701,-0.04187044873833656,0.017418386414647102
0.6615179181098938,4.765620231628418,8.583298683166504,-0.006579891312867403,-0.06461209058761597,0.003228859044611454
0.609209418296814,4.782609462738037,8.429036140441895,-0.0016406094655394554,-0.06489133834838867,0.008796459063887596
0.6399222612380981,4.744111061096191,8.364133834838867,-0.00970403105020523,-0.1011069267988205,0.001029744278639555
0.6513952612876892,4.677647590637207,8.275931358337402,0.017819812521338463,-0.14734070003032684,-0.012147491797804832
0.7055425047874451,4.678001880645752,8.121294975280762,0.026302112266421318,-0.14816099405288696,-0.012967796064913273
0.8767566680908203,4.796907901763916,7.96359395980835,-0.02015855349600315,-0.14095279574394226,-0.009093165397644043
0.9464662671089172,4.848727703094482,8.048673629760742,-0.05705481395125389,-0.05599016323685646,0.00143117003608495
0.8259804248809814,4.846123218536377,8.255322456359863,-0.06553710997104645,-0.10784389078617096,0.028536133468151093
0.8277233839035034,4.822343826293945,8.12589168548584,-0.09588839113712311,-0.09604547172784805,0.03897320106625557
0.7985619902610779,4.724698066711426,8.143829345703125,-0.15399040281772614,-0.08951793611049652,0.04625122621655464
0.8061947822570801,4.617811679840088,8.133601188659668,-0.21734584867954254,-0.14097024500370026,0.04677482321858406
0.911961019039154,4.6700053215026855,8.20886516571045,-0.28677505254745483,-0.15662585198879242,0.0495498962700367
1.0402135848999023,4.465214729309082,8.683855056762695,-0.2454107403755188,-0.16797049343585968,0.0524296909570694
1.0500202178955078,4.324617862701416,8.910529136657715,-0.13831734657287598,-0.17664477229118347,0.01886700838804245
1.0836540460586548,4.48881196975708,8.524948120117188,-0.03693116828799248,-0.1348266899585724,-0.0073303827084600925
1.116224765777588,4.490143775939941,8.235135078430176,-0.04588470607995987,-0.09857619553804398,-0.018099064007401466
1.246000051498413,4.521401882171631,8.279973030090332,-0.07696902006864548,-0.06834709644317627,0.009738937020301819
1.1974838972091675,4.391779899597168,8.523223876953125,-0.03296926990151405,0.0017278759041801095,-0.003630284918472171
0.9668360948562622,4.329310417175293,8.573951721191406,0.03605850040912628,0.02157226949930191,-0.0322536826133728
1.023990511894226,4.61466121673584,8.28309440612793,-0.14903366565704346,-0.093305304646492,0.030264008790254593
1.084535002708435,4.4653778076171875,8.657222747802734,-0.13144074380397797,-0.06618288159370422,-0.022392574697732925
0.9345430731773376,4.647270202636719,8.788942337036133,-0.05768313258886337,-0.021991148591041565,-0.0030717793852090836
1.0724490880966187,4.34793758392334,8.754705429077148,0.018395770341157913,-0.0362853966653347,0.01310742273926735
1.2723841667175293,4.457974433898926,8.650163650512695,0.12538444995880127,0.07023204863071442,0.022619467228651047
1.233597993850708,4.586706161499023,8.561655044555664,0.2166128158569336,0.21436133980751038,0.04310963302850723
1.2146073579788208,4.590853214263916,8.144078254699707,0.2657961845397949,0.3854385018348694,0.07965682446956635
1.1389601230621338,4.291730880737305,8.204029083251953,0.2882760167121887,0.5002113580703735,0.054367005825042725
0.9193159937858582,4.396673679351807,8.119877815246582,0.2554463744163513,0.48291516304016113,0.00331612559966743
0.5115068554878235,4.692453384399414,8.349079132080078,0.15575318038463593,0.32672563195228577,-0.002740166848525405
0.3843172490596771,4.986289024353027,8.42809772491455,0.016702800989151,0.14770720899105072,0.033283427357673645
0.7243130207061768,4.757699966430664,8.437167167663574,0.00427605677396059,0.1515120267868042,0.0501258559525013
0.6953144669532776,4.6361894607543945,8.46986198425293,0.061854466795921326,0.24007004499435425,0.030455995351076126
0.6420291066169739,4.5092878341674805,8.91602611541748,0.1426108479499817,0.20860175788402557,0.02525491453707218
0.416093111038208,4.772477149963379,8.70712661743164,0.19160224497318268,0.07770206034183502,0.02028072625398636
0.5903239846229553,4.895395278930664,8.30920124053955,0.2954667806625366,0.13177235424518585,-0.00062831852119416
0.44979387521743774,4.839610576629639,8.267005920410156,0.09023351967334747,-0.08780751377344131,-0.01771509274840355
0.57770174741745,4.6726484298706055,8.569413185119629,-0.01473057921975851,-0.1788613349199295,-0.011798425577580929
0.5450735688209534,4.8957977294921875,8.576614379882812,0.07646287232637405,-0.14852751791477203,-0.041399210691452026
0.6457353234291077,4.941737651824951,8.144853591918945,0.025307273492217064,-0.3724358081817627,-0.0003490658418741077
0.7901440262794495,4.624007701873779,8.258090019226074,0.04433136433362961,-0.3415958285331726,-0.021066123619675636
0.7245716452598572,4.673740386962891,8.330212593078613,0.1569923609495163,-0.3556981086730957,-0.01441641990095377
0.4501578211784363,4.7745747566223145,8.400036811828613,0.13110913336277008,-0.395107626914978,0.049637164920568466
1.2396601438522339,5.05766487121582,8.254240036010742,0.1448797732591629,-0.45066145062446594,0.08337438106536865
1.3677786588668823,5.135964870452881,7.4019999504089355,0.0440695621073246,-0.2355670928955078,-0.030595621094107628
1.6261800527572632,5.194967746734619,7.502125263214111,0.030490901321172714,-0.050998520106077194,0.004974188283085823
1.5184123516082764,5.098902702331543,7.899543762207031,-0.10285225510597229,0.10414379835128784,0.01736602559685707
1.1995238065719604,5.045980930328369,8.48914909362793,-0.13973106443881989,0.16606807708740234,0.060126591473817825
1.098890781402588,4.807106971740723,8.68752384185791,-0.10847221314907074,0.1426108479499817,0.06991788744926453
1.1134953498840332,4.719738006591797,8.470245361328125,-0.01045452244579792,0.10964158177375793,0.0161268413066864
1.0390739440917969,4.903459072113037,8.303464889526367,-0.007749261800199747,0.13526301085948944,-0.011466813273727894
0.7680694460868835,4.795087814331055,8.53351879119873,0.05523966997861862,0.04270820692181587,-0.020001472905278206
0.874190092086792,4.921396255493164,8.295458793640137,0.08395033329725266,-0.023404864594340324,-0.008342674002051353
1.1085058450698853,4.960402965545654,8.161316871643066,0.07941248267889023,-0.017959438264369965,-0.012479104101657867
1.053467869758606,4.895289897918701,8.12099838256836,0.054541539400815964,0.0627969428896904,-0.009564404375851154
0.85969078540802,4.872008800506592,8.176993370056152,0.07162830978631973,0.04916592314839363,-0.02537708729505539
0.8095561861991882,4.923378944396973,8.237998008728027,0.0751713290810585,-0.018901916220784187,-0.014538592658936977
1.0214430093765259,5.050673961639404,8.10718822479248,0.06349507719278336,-0.02364921197295189,-0.013212142512202263
0.9787783622741699,5.05190896987915,8.25562858581543,0.06195918843150139,0.01891936920583248,-0.027925267815589905
0.9071822166442871,4.9984517097473145,8.172837257385254,0.09178686141967773,-0.03757693991065025,-0.021868975833058357
0.9402604699134827,5.007846355438232,8.065108299255371,0.07899360358715057,-0.06454227864742279,-0.021066123619675636
1.0590894222259521,5.0324015617370605,7.8332343101501465,0.041119955480098724,-0.07278022915124893,-0.03317870944738388
0.9468684792518616,5.0871710777282715,7.817662239074707,0.009861109778285027,-0.049323003739118576,-0.02223549410700798
0.9631873369216919,5.118755340576172,7.986176013946533,-0.010978121310472488,-0.06072000414133072,0.00012217304902151227
1.0043772459030151,5.221447467803955,7.65654182434082,-0.08197811245918274,-0.20111428201198578,0.005759586580097675
1.4041705131530762,5.192122936248779,8.006354331970215,-0.20357520878314972,-0.00808087456971407,-0.011763518676161766
1.1801977157592773,5.131196022033691,8.55849552154541,-0.1540776640176773,0.07876671105623245,0.03207915276288986
1.116780161857605,5.176407814025879,8.752426147460938,-0.041119955480098724,0.11714649945497513,0.0541575662791729
1.3059507608413696,4.998240947723389,8.415360450744629,-0.0067544239573180676,0.13915510475635529,0.05078908056020737
1.2751518487930298,4.961226463317871,8.180134773254395,-0.010489428415894508,0.22415263950824738,0.0032463124953210354
0.9212504625320435,4.907711505889893,8.064945220947266,-0.017645278945565224,0.20631536841392517,-0.027174776419997215
0.7691228985786438,4.925552845001221,7.693297863006592,-0.061767201870679855,0.11684979498386383,0.01682497374713421
1.059185266494751,4.9689741134643555,7.455496311187744,-0.19605283439159393,0.09597565233707428,0.03785619139671326
1.0774385929107666,4.947493076324463,7.848097324371338,-0.3117158114910126,0.17379988729953766,0.0039618974551558495
0.7930840849876404,4.841305732727051,8.638240814208984,-0.2750289738178253,0.18305012583732605,0.00020943951676599681
0.7809119820594788,4.845308780670166,8.891193389892578,-0.19767598807811737,0.139434352517128,0.01953023485839367
0.8904898166656494,4.833375930786133,8.955119132995605,-0.11911872029304504,0.10910052806138992,0.015446163713932037
0.7728291749954224,4.827754497528076,8.838579177856445,-0.01014036312699318,0.12688542902469635,0.008028514683246613
0.8556972742080688,4.892455577850342,7.796937942504883,-0.0003490658418741077,0.02755874954164028,-0.003508111694827676
0.7925382256507874,4.835453987121582,7.890378952026367,-0.08637634664773941,0.06387905031442642,-6.981316983001307e-05
0.778412401676178,4.763110637664795,8.176974296569824,-0.12407545745372772,0.0832522064447403,0.0039618974551558495
0.6019501686096191,4.436312198638916,8.795483589172363,-0.22661355137825012,0.09391617029905319,0.01242674421519041
0.45902594923973083,4.272615909576416,8.71925163269043,-0.2669481039047241,0.002775073517113924,0.018046705052256584
0.49943047761917114,4.375489711761475,8.54550838470459,-0.2943672239780426,-0.034033920615911484,0.016179202124476433
0.8728684782981873,4.146699905395508,8.507814407348633,-0.2958507537841797,-0.005759586580097675,0.003752457909286022
0.7327789068222046,4.3266191482543945,8.608036041259766,-0.2790781557559967,0.13791592419147491,-0.07532840967178345
0.5199727416038513,4.029604434967041,8.7191743850708,-0.2701769769191742,0.089884452521801,-0.08449138700962067
0.19508913159370422,4.1310133934021,8.79338550567627,-0.28783971071243286,0.08815658092498779,-0.05637413635849953
0.08892065286636353,4.025524616241455,8.84708309173584,-0.2784672677516937,0.03078760765492916,0.04738568887114525
0.9911037683486938,3.932849884033203,9.139692306518555,0.030019663274288177,-0.04420918971300125,0.029653143137693405
0.6541534066200256,3.898545742034912,8.66588020324707,0.10288716107606888,-0.06557202339172363,-0.050108402967453
0.5685271620750427,4.008746147155762,8.76307487487793,0.05234242230653763,0.041835542768239975,-0.08319984376430511
0.6839851140975952,4.034095764160156,9.03660774230957,0.055292028933763504,0.06274458765983582,-0.08393288403749466
0.5857175588607788,4.0324201583862305,9.051116943359375,0.10126399993896484,0.08377580344676971,-0.08215264976024628
0.579329788684845,4.017039775848389,9.017435073852539,0.13575170934200287,0.11555825173854828,-0.09276425093412399
0.5774431228637695,3.959530830383301,9.151472091674805,0.22603759169578552,0.13042844831943512,-0.12629202008247375
0.4802481532096863,3.9765870571136475,8.747780799865723,0.31894147396087646,0.052726395428180695,-0.15702727437019348
0.3626162111759186,4.199075222015381,8.136425971984863,0.23745204508304596,0.037803832441568375,-0.10745992511510849
0.3751618266105652,4.332173824310303,8.108366012573242,0.066828653216362,0.10306169092655182,-0.06382668763399124
0.3663511574268341,4.248779296875,8.474496841430664,-0.0103672556579113,0.0279427208006382,-0.06503096967935562
0.33274614810943604,4.128963947296143,8.742255210876465,-0.0030717793852090836,-0.1814793348312378,-0.07192502170801163
0.3916530907154083,4.183781147003174,8.4601411819458,-0.003804817795753479,-0.11955505609512329,-0.05075417459011078
0.6622840762138367,4.133627414703369,8.980459213256836,0.035849060863256454,0.03817034885287285,-0.0959058403968811
0.3065440058708191,4.233619213104248,8.953519821166992,0.13550736010074615,-0.01523672416806221,-0.13524556159973145
0.17371369898319244,4.362791061401367,8.281783103942871,0.07485716789960861,-0.07655014097690582,-0.028553586453199387
0.3440084755420685,4.372607231140137,8.368807792663574,0.05159193277359009,-0.05593780055642128,0.008325220085680485
0.3437211513519287,4.334156036376953,8.476431846618652,0.06073745712637901,-0.017959438264369965,0.036826446652412415
0.48580268025398254,4.2966532707214355,8.407392501831055,0.0832522064447403,0.09894271194934845,0.05541420355439186
0.44896069169044495,4.372425079345703,8.355668067932129,0.09370672702789307,0.1667662113904953,0.02324778586626053
0.39451655745506287,4.12670373916626,8.522390365600586,0.00296705961227417,-0.00548033369705081,-0.05044001340866089
-0.26233747601509094,4.369982719421387,9.138026237487793,-0.038030724972486496,-0.3689102530479431,-0.07197737693786621
-0.02883576601743698,4.177202224731445,9.416242599487305,0.13533282279968262,-0.5485569834709167,-0.07581710070371628
0.15377478301525116,4.531017303466797,8.979195594787598,0.27574455738067627,-0.5088682174682617,-0.037088245153427124
-0.12853990495204926,4.235678195953369,8.330806732177734,0.23568926751613617,-0.4475896954536438,0.18880972266197205
0.7143340706825256,4.625827789306641,8.011133193969727,0.045151665806770325,-0.3769911229610443,0.39097121357917786
2.747174024581909,4.735395908355713,7.683615684509277,-0.09772098809480667,-0.1451764851808548,0.2736501693725586
1.9559862613677979,4.779755592346191,8.230289459228516,-0.035814154893159866,0.2819928526878357,-0.2877175211906433
1.1113309860229492,4.602642059326172,7.227175712585449,-0.27604126930236816,0.18046703934669495,-0.39442694187164307
-0.284517377614975,3.7836813926696777,7.138149261474609,-0.6330658197402954,0.0858527421951294,-0.20552997291088104
-0.4835233986377716,3.636275053024292,8.858497619628906,-0.658949077129364,0.2713812589645386,0.042184606194496155
1.4151934385299683,4.196403503417969,9.501418113708496,-0.47972118854522705,0.23204152286052704,0.04490732029080391
1.1229667663574219,4.277873516082764,9.591765403747559,-0.2611885070800781,0.06464699655771255,-0.19055505096912384
0.5712853074073792,4.634312629699707,8.568598747253418,0.22129029035568237,0.1606924682855606,-0.16435766220092773
0.7363128066062927,4.563702583312988,8.468013763427734,0.23036600649356842,0.018448129296302795,-0.23465952277183533
0.22924001514911652,4.386953353881836,7.885045051574707,0.19601792097091675,-0.04525638744235039,-0.2600889503955841
-0.09908164292573929,4.439999103546143,8.063767433166504,0.1034107580780983,0.10932742059230804,-0.08494517207145691
0.28558996319770813,4.626737117767334,8.545720100402832,0.0509810671210289,0.09946631640195847,-0.05541420355439186
-0.46865060925483704,4.0429253578186035,8.36733341217041,-0.0803724154829979,0.12088150531053543,-0.11999138444662094
-0.720271646976471,3.7364389896392822,8.647789001464844,-0.13100440800189972,0.13124875724315643,-0.056740652769804
-0.4155472218990326,3.802241325378418,8.993551254272461,-0.09213592857122421,0.10927506536245346,0.0035953782498836517
0.05106353387236595,4.056141376495361,9.099556922912598,-0.016685348004102707,-0.09824458509683609,0.00027925267932005227
0.273312509059906,4.207886219024658,8.795675277709961,-0.015219271183013916,-0.3242647349834442,0.03555235639214516
0.5258241295814514,4.273228645324707,8.57861614227295,-0.08906415104866028,-0.3306700885295868,0.014782939106225967
0.8394262790679932,4.241232395172119,8.833369255065918,-0.13240067660808563,-0.2269975244998932,0.001483529806137085
0.6005806922912598,4.0667338371276855,9.030383110046387,-0.09436995536088943,-0.21413443982601166,0.022654373198747635
0.15910907089710236,4.30202579498291,8.638595581054688,-0.03330088034272194,-0.377270370721817,0.1632930040359497
0.15792153775691986,4.324464321136475,8.68315601348877,0.060475658625364304,-0.28010788559913635,0.17537067830562592
0.8080717921257019,4.314447402954102,7.412228107452393,0.01740093342959881,0.05469861999154091,0.15945327281951904
1.1424555778503418,3.8215291500091553,8.273086547851562,-0.06023131310939789,0.16308356821537018,0.06359979510307312
1.022707223892212,4.108526706695557,8.5795259475708,-0.14290755987167358,0.03635520860552788,-0.013805554248392582
0.9571348428726196,4.308720111846924,8.683721542358398,-0.18420204520225525,0.08073893189430237,0.027628561481833458
0.9777632355690002,4.163966655731201,8.993196487426758,-0.1889667958021164,0.1595754474401474,0.0303861815482378
0.8538298010826111,3.8511595726013184,9.261988639831543,-0.11217231303453445,0.1552470326423645,0.011728612706065178
0.6974884271621704,3.9413061141967773,8.873448371887207,-0.01563815027475357,0.07243116199970245,-0.002722713630646467
0.7770812511444092,4.102627277374268,8.645615577697754,-0.024731315672397614,0.021013764664530754,-0.02419026382267475
0.7249451279640198,4.107568740844727,8.647262573242188,-0.07405432313680649,0.03881612420082092,-0.036739181727170944
0.6068535447120667,4.1779680252075195,8.78966999053955,-0.07539822161197662,0.019216075539588928,-0.03431317210197449
0.5683643221855164,4.120143413543701,8.686776161193848,-0.08826129883527756,-0.050649452954530716,-0.020036378875374794
0.6714299321174622,4.108315944671631,8.592626571655273,-0.08251916617155075,-0.055606190115213394,0.005986479111015797
1.0436420440673828,4.0654120445251465,8.477619171142578,-0.13082988560199738,0.09381144493818283,-0.008569566532969475
0.7831146121025085,4.032754898071289,8.513838768005371,-0.16116370260715485,0.1794722080230713,-0.030857421457767487
0.5585097670555115,3.907069206237793,8.800443649291992,-0.153205007314682,0.18624408543109894,-0.0006457717972807586
0.571093738079071,3.9947445392608643,8.829346656799316,-0.1869073063135147,0.08311257511377335,-0.03956661373376846
0.4731229841709137,3.8873023986816406,8.9586820602417,-0.17524850368499756,0.047909289598464966,-0.070266954600811
0.5412715673446655,3.8278112411499023,8.947295188903809,-0.08634144067764282,0.0944746732711792,-0.03104940801858902
0.6041623950004578,3.8421480655670166,9.027203559875488,-0.047455500811338425,0.1269901543855667,-0.004642575979232788
0.44706448912620544,3.8708302974700928,8.993474006652832,-0.033056534826755524,0.13957397639751434,-0.00376991112716496
0.4573499858379364,3.845921039581299,8.910433769226074,-0.03021164983510971,0.12302825599908829,-0.005462880712002516
0.4791276454925537,3.7874643802642822,9.115463256835938,-0.021013764664530754,0.12864822149276733,-0.026808258146047592
0.49834829568862915,3.8489186763763428,8.560956954956055,-0.0039618974551558495,0.07438593357801437,0.012897983193397522
0.4821443557739258,3.848459005355835,8.727478981018066,-0.012950343079864979,0.11283553391695023,-0.005288347601890564
0.43804314732551575,3.9148166179656982,8.834461212158203,0.005166174378246069,0.15130259096622467,-0.0017627825727686286
0.25914841890335083,3.945222854614258,8.964466094970703,0.006475171539932489,0.1042659655213356,0.017016960307955742
0.2317970246076584,3.8705623149871826,8.883810043334961,0.03972369432449341,0.06700319051742554,0.018622662872076035
0.24297316372394562,3.973637342453003,8.806219100952148,0.05403539165854454,0.057072266936302185,0.016912240535020828
0.281222939491272,3.8896007537841797,8.866178512573242,0.07368779927492142,0.036337755620479584,0.016842426732182503
0.29930394887924194,3.947990655899048,8.682304382324219,0.08056439459323883,0.06927211582660675,0.010594148188829422
0.2471773773431778,3.997579336166382,8.645931243896484,0.06407103687524796,0.11904890835285187,0.0062831854447722435
0.24008096754550934,3.902137041091919,8.894104957580566,0.0737576112151146,0.08679522573947906,0.00012217304902151227
0.27094700932502747,3.8767201900482178,8.8818941116333,0.10445795208215714,0.057997290045022964,-0.010245082899928093
0.3075304329395294,3.9002790451049805,8.362342834472656,0.15392059087753296,0.17011724412441254,-0.012653636746108532
0.1645965725183487,3.980983018875122,8.551868438720703,0.12332496792078018,0.08969247341156006,-0.018797196447849274
0.32003772258758545,4.070985794067383,8.034260749816895,-0.24233897030353546,-0.05159193277359009,-0.021956242620944977
0.17986200749874115,4.157703399658203,8.447222709655762,-0.4249004125595093,-0.03539527580142021,-0.07967428117990494
-0.15031756460666656,3.930407762527466,8.971236228942871,-0.33368951082229614,-0.07808603346347809,-0.05993460491299629
0.1356363147497177,3.880215644836426,8.997525215148926,-0.15135495364665985,-0.026022858917713165,-0.0026703537441790104
0.28115588426589966,3.743995189666748,9.114476203918457,-0.06930702179670334,-0.05522221699357033,-0.021694442257285118
0.1860198974609375,3.6636457443237305,9.18167781829834,-0.08262388408184052,-0.0803549587726593,-0.025987952947616577
0.28108885884284973,3.6393685340881348,9.28322982788086,-0.022130774334073067,-0.07714354991912842,-0.04832816496491432
0.25243502855300903,3.801628351211548,9.00304126739502,0.07323401421308517,-0.014905111864209175,-0.05475097894668579
0.21805432438850403,3.818971872329712,8.831741333007812,0.13915510475635529,0.07627088576555252,-0.04195771366357803
0.11675085127353668,3.8459689617156982,8.553247451782227,0.11524409055709839,0.06949900835752487,-0.0351334773004055
0.2111685872077942,3.8814127445220947,8.173929214477539,0.019320795312523842,0.1129053458571434,-0.016528267413377762
0.28149110078811646,3.8346779346466064,8.210838317871094,-0.03188716620206833,0.13081242144107819,-0.018936822190880775
0.23243866860866547,3.772878885269165,8.25545597076416,-0.13760176301002502,0.15817919373512268,-0.03920009359717369
0.013350068591535091,3.857145071029663,8.839239120483398,-0.24401448667049408,0.08412487059831619,-0.03942698612809181
-0.6829029321670532,3.986987590789795,9.198819160461426,-0.2045176774263382,0.20935223996639252,0.14337879419326782
-0.11541967839002609,3.613635778427124,9.779029846191406,0.10962413251399994,0.006056292448192835,0.03335324302315712
0.20276972651481628,3.3560194969177246,9.476882934570312,0.2779960334300995,-0.10702358931303024,0.01567305624485016
0.2589377164840698,3.812000036239624,8.751870155334473,0.2583087384700775,-0.1333780586719513,-0.0008726646192371845
0.3772687315940857,3.8546454906463623,8.877861976623535,0.2182883322238922,-0.07845254987478256,5.2359879191499203e-05
0.43012315034866333,3.8403284549713135,8.560257911682129,0.22689279913902283,-0.0165631752461195,-0.010262535884976387
0.3312138617038727,3.9663302898406982,8.414948463439941,0.15807446837425232,0.042987458407878876,-0.019285887479782104
0.13193966448307037,4.039401531219482,8.473155975341797,0.099675752222538,0.014905111864209175,-0.0034732052590698004
0.12962208688259125,3.984574317932129,9.077319145202637,0.035185836255550385,0.005777040030807257,-0.016894787549972534
0.30442753434181213,3.9689831733703613,8.563810348510742,0.07960446923971176,0.04530874639749527,0.009808750823140144
0.2586982846260071,3.9456253051757812,8.663992881774902,0.04443608224391937,0.04850269854068756,-0.014398965984582901
0.1385093480348587,4.071866512298584,8.659856796264648,0.01661553420126438,0.014381512999534607,-0.012932890094816685
0.2033539116382599,4.067787170410156,8.718025207519531,0.008813912980258465,0.014905111864209175,-0.004468042869120836
0.31360211968421936,3.9310877323150635,8.656417846679688,0.02307325229048729,0.05434955283999443,-0.00022689280740451068
0.28778305649757385,3.866549491882324,8.719318389892578,0.010855947621166706,0.10953686386346817,-0.020263273268938065
0.15296074748039246,4.0094451904296875,8.832305908203125,0.04057890549302101,0.08607963472604752,-0.04756022244691849
0.03253241255879402,4.094956398010254,8.686767578125,0.05927138030529022,0.040631264448165894,-0.020141098648309708
0.19905392825603485,4.054896831512451,8.654196739196777,0.01473057921975851,0.04185299575328827,-0.007522369269281626
0.18063773214817047,4.055815696716309,8.721186637878418,-0.04473278671503067,0.027122415602207184,-0.026389379054307938
-0.04547068104147911,4.063668727874756,8.861418724060059,-0.05605997517704964,-0.02670353837311268,-0.030438542366027832
0.0663481131196022,3.994486093521118,8.885380744934082,-0.014940018765628338,-0.043476153165102005,-0.0067544239573180676
0.31964507699012756,3.940415620803833,8.596745491027832,0.03375466912984848,0.049584802240133286,-0.0045378562062978745
0.02893153391778469,4.096469879150391,8.657308578491211,-0.007155850064009428,0.05138249322772026,-0.025359634310007095
0.23058077692985535,3.9707164764404297,8.69449520111084,-0.02675589732825756,0.07794640213251114,0.014835298992693424
0.20470423996448517,3.8590221405029297,8.669031143188477,0.031066861003637314,0.1437453180551529,-0.01621410809457302
0.11827356368303299,3.957624912261963,8.515351295471191,0.05262167751789093,0.20441296696662903,-0.017645278945565224
-0.06956592202186584,3.98518705368042,8.840197563171387,0.13025392591953278,0.1702394187450409,-0.025830872356891632
-0.08476431667804718,4.232996463775635,8.816197395324707,-0.03122393973171711,0.08663814514875412,0.022340213879942894
0.034160468727350235,4.118869781494141,8.806056022644043,-0.12150982022285461,0.02724459022283554,0.030141836032271385
-0.014039598405361176,3.8506805896759033,9.004563331604004,-0.05836381018161774,0.08485791087150574,0.00839503388851881
-0.07938215136528015,4.235132217407227,8.729891777038574,0.12856094539165497,0.20514599978923798,-0.0018151424592360854
-0.1880405992269516,4.022354602813721,8.799811363220215,0.11007791757583618,0.21711896359920502,0.059777528047561646
-0.05522944778203964,3.952194929122925,8.866265296936035,0.1302190124988556,0.20577432215213776,0.01958259381353855
-0.1883087456226349,4.153163909912109,8.971331596374512,0.1742362231016159,0.20926497876644135,0.015585790388286114
-0.22086988389492035,4.201201438903809,8.962329864501953,0.1783202886581421,0.2028072625398636,0.031154127791523933
-0.26023057103157043,4.119770050048828,8.855874061584473,0.18729127943515778,0.21191787719726562,0.04651302471756935
-0.19605638086795807,4.115642070770264,8.619863510131836,0.24448572099208832,0.2640683054924011,0.0303861815482378
-0.27536192536354065,4.137333869934082,8.499129295349121,0.26680848002433777,0.2817310392856598,0.0200189258903265
-0.3823731541633606,4.2685933113098145,8.149747848510742,0.27059584856033325,0.34035664796829224,-0.004468042869120836
-0.2496194690465927,4.110298156738281,8.346877098083496,0.3061307370662689,0.41427135467529297,-0.013962633907794952
-0.5824326872825623,4.2115254402160645,9.30070686340332,-0.3733433783054352,-0.514557957649231,-0.09060004353523254
-0.08331821858882904,4.267664432525635,8.766705513000488,0.018011797219514847,-0.23048818111419678,-0.013037609867751598
-0.17807115614414215,4.205923080444336,8.755720138549805,0.08967501670122147,-0.11697196960449219,0.004852015525102615
-0.16448165476322174,4.192726135253906,8.676365852355957,0.10018189996480942,-0.12014846503734589,0.018727382645010948
-0.07317638397216797,4.263479709625244,8.462908744812012,0.046652652323246,-0.11927580088376999,-0.00041887903353199363
-0.10663773864507675,4.20233154296875,8.586756706237793,0.028361599892377853,-0.10213666409254074,-0.016266468912363052
-0.048353299498558044,4.260568141937256,8.42640209197998,0.05654866620898247,-0.06330309063196182,-0.0025830871891230345
-0.025416845455765724,4.279003620147705,8.544896125793457,0.023108160123229027,-0.07106980681419373,-0.0038397242315113544
0.22468145191669464,4.171417713165283,8.782975196838379,0.1704837679862976,-0.19261454045772552,0.04775220900774002
0.4308605492115021,4.2139482498168945,8.664691925048828,0.1454382836818695,0.014852751977741718,-0.003036872949451208
0.1488235741853714,4.254094123840332,8.390584945678711,0.028989918529987335,-0.0016057029133662581,0.023020893335342407
0.1429051011800766,4.195522308349609,8.294108390808105,0.035901423543691635,-0.01771509274840355,0.022933626547455788
0.22770772874355316,4.258806228637695,8.13674259185791,0.038728855550289154,0.005235987715423107,0.02502802200615406
0.24294443428516388,4.223257064819336,8.202535629272461,-0.02076941728591919,0.0573166124522686,-0.009686577133834362
0.05009627714753151,4.231176853179932,8.486075401306152,-0.04960225895047188,-0.00031415926059708,-0.03122393973171711
0.15858232975006104,4.292583465576172,8.724308967590332,-0.03818780556321144,0.008482299745082855,0.009930923581123352
0.24114400148391724,4.324397563934326,8.795138359069824,-0.025185100734233856,0.018675023689866066,0.012391837313771248
0.18587623536586761,4.337498664855957,8.87090015411377,-0.011798425577580929,0.07005751878023148,0.00015707963029854
0.19886240363121033,4.190235614776611,8.827881813049316,0.0881216749548912,0.026022858917713165,0.021938787773251534
0.24958115816116333,4.242994785308838,8.621932029724121,0.14924310147762299,0.07182029634714127,0.005323254037648439
0.15879303216934204,4.326083183288574,8.403322219848633,0.13215632736682892,0.0944921225309372,0.001483529806137085
0.1269022673368454,4.375211715698242,8.351444244384766,0.0794822946190834,0.09183922410011292,0.005532693583518267
0.11334151029586792,4.342928886413574,8.483307838439941,0.0004886921960860491,0.1160643920302391,0.009791296906769276
0.10038408637046814,4.309840679168701,8.506110191345215,0.030752701684832573,0.157254159450531,-0.009843656793236732
0.10839029401540756,4.304669380187988,8.49973201751709,-0.00012217304902151227,0.1722639948129654,-0.020141098648309708
-0.12767799198627472,4.384003639221191,8.473721504211426,0.1477421224117279,0.22223277390003204,-0.03893829509615898
-0.2187151163816452,4.373612880706787,8.666569709777832,0.05590289458632469,0.08333947509527206,-0.0041015236638486385
-0.15312357246875763,4.5261616706848145,8.668963432312012,-0.16055284440517426,-0.13037610054016113,-0.010751227848231792
-0.12457510083913803,4.418585300445557,9.122856140136719,-0.258605420589447,-0.2601238787174225,-0.03007202222943306
-0.31872570514678955,4.350063323974609,9.120912551879883,-0.12749630212783813,-0.2964092791080475,-0.034697145223617554
-0.06426995247602463,4.257254600524902,8.803738594055176,0.06002187356352806,-0.2036275565624237,-0.004380776546895504
0.2752948999404907,4.349124908447266,8.301798820495605,0.06291911751031876,-0.11547098308801651,-0.004310963209718466
0.21147504448890686,4.334166049957275,8.459183692932129,0.03307398781180382,-0.009861109778285027,0.005811946466565132
-0.0037732617929577827,4.430364608764648,8.578807830810547,-0.0023561944253742695,-0.010332348756492138,0.03883357718586922
0.04842991381883621,4.364485740661621,8.621261596679688,-0.00427605677396059,-0.018186330795288086,0.054681167006492615
0.16545850038528442,4.262263298034668,8.542003631591797,0.018081611022353172,0.014556045643985271,0.04689699783921242
0.10050859302282333,4.293838024139404,8.53537654876709,-0.008674286305904388,0.010489428415894508,0.021240657195448875
0.0934983640909195,4.308586597442627,8.730628967285156,-0.0012042771559208632,-0.010698867961764336,0.004921828396618366
0.16191506385803223,4.383103370666504,8.756677627563477,0.17870426177978516,0.14823080599308014,0.02839650772511959
0.08554961532354355,4.400514125823975,8.68058967590332,0.1414065808057785,0.07527604699134827,0.02108357660472393
0.030233977362513542,4.412054061889648,8.445671081542969,-0.0269304309040308,-0.11787953972816467,-0.00593411922454834
0.18000565469264984,4.38076639175415,8.410332679748535,0.057962384074926376,0.00041887903353199363,0.00839503388851881
0.14416925609111786,4.340132236480713,8.271842956542969,0.017383478581905365,0.044401176273822784,-0.005515240598469973
0.009634267538785934,4.42733907699585,8.412631034851074,-0.029914943501353264,0.04173082113265991,-0.0019024088978767395
0.012804190628230572,4.450380325317383,8.531977653503418,-0.037664204835891724,0.015969762578606606,0.0025307273026555777
0.09134358167648315,4.368690490722656,8.659013748168945,-0.03703588619828224,-0.009773843921720982,0.010419615544378757
0.06206728518009186,4.443686008453369,8.440949440002441,0.030403634533286095,0.014782939106225967,0.0007330382941290736
0.05768110603094101,4.37393856048584,8.497969627380371,0.02802998758852482,0.03459242731332779,0.00890117883682251
0.1339699625968933,4.3338494300842285,8.519660949707031,0.060301125049591064,0.07328637689352036,0.005916666239500046
0.09446562081575394,4.442699909210205,8.602118492126465,0.06529276818037033,0.0757647454738617,-0.015271631069481373
-0.00287304213270545,4.566643238067627,8.540011405944824,0.038728855550289154,0.08770279586315155,0.009023352526128292
0.03772304207086563,4.289787292480469,8.812108039855957,0.12091641128063202,0.1618967354297638,0.02949606440961361
-0.05234682559967041,4.431045055389404,8.66822624206543,0.16406095027923584,0.11156144738197327,-0.0002617993741296232
0.002403778489679098,4.547699928283691,8.239386558532715,-0.015062191523611546,-0.06948155909776688,0.0006981316837482154
-0.011013327166438103,4.507228374481201,8.352450370788574,0.02263692021369934,0.03193952515721321,-0.007382742594927549
-0.1239238828420639,4.635442733764648,8.426067352294922,-0.012287117540836334,0.024958208203315735,0.004694935865700245
-0.055909398943185806,4.522436618804932,8.704781532287598,-0.053441982716321945,-0.010437068529427052,0.019634954631328583
0.03974374756217003,4.369082927703857,8.818755149841309,-0.00040142572834156454,0.023841196671128273,-0.00663225119933486
0.05623500794172287,4.484617710113525,8.603266716003418,0.0832522064447403,0.0723089873790741,-0.010105456225574017
-0.025455152615904808,4.581036567687988,8.272686004638672,0.069708451628685,0.09138543903827667,-0.0006108652451075613
-0.1634952425956726,4.57159423828125,8.297220230102539,0.014835298992693424,0.07820820063352585,0.003455751808360219
-0.23354001343250275,4.576669692993164,8.478270530700684,-0.01448623277246952,0.0052534411661326885,0.0018500490114092827
-0.028165388852357864,4.474724769592285,8.618541717529297,-0.008028514683246613,0.0,0.010018189437687397
0.11359050869941711,4.444365978240967,8.78133773803711,0.03604104742407799,0.04574507847428322,-0.0008203047327697277
-0.22767899930477142,4.642261028289795,8.543756484985352,0.10515608638525009,0.08258897811174393,0.006021386012434959
-0.1999637335538864,4.618290424346924,8.263577461242676,0.08171631395816803,0.054332099854946136,0.015934856608510017
-0.09930191189050674,4.526966094970703,8.295555114746094,0.035465091466903687,0.019722219556570053,-0.0005934119690209627
-0.07615476846694946,4.526736259460449,8.269601821899414,0.0007504915702156723,0.0006457717972807586,-0.013212142512202263
-0.17661547660827637,4.651158332824707,8.401905059814453,-0.02281145378947258,0.03577924892306328,0.00029670598451048136
-0.10977894067764282,4.54441499710083,8.520475387573242,-0.015184364281594753,0.031555552035570145,0.002914699725806713
-0.20277930796146393,4.500831127166748,8.758133888244629,-0.013840461149811745,-0.02134537696838379,0.0030717793852090836
-0.1584099531173706,4.571440696716309,8.703545570373535,-0.09080947935581207,-0.15789993107318878,-0.008168140426278114
-0.18559850752353668,4.629629611968994,8.750375747680664,-0.1290147304534912,-0.23521801829338074,-0.04066617041826248
-0.28440243005752563,4.648419380187988,8.637312889099121,-0.0590444877743721,-0.20402899384498596,-0.009354964829981327
0.11512279510498047,4.547374725341797,8.319266319274902,0.02330014482140541,-0.13704325258731842,0.010314895771443844
-0.05211698263883591,4.580835342407227,8.385404586791992,-0.00874409917742014,0.008168140426278114,-0.0011519172694534063
-0.146946519613266,4.661156177520752,8.581297874450684,-0.010506882332265377,-0.00143117003608495,0.003403391921892762
-0.04329674690961838,4.489060878753662,8.65365982055664,0.019111355766654015,-0.01953023485839367,0.014451325871050358
0.044062890112400055,4.4565958976745605,8.44168758392334,0.08646360784769058,0.01719149388372898,0.008168140426278114
0.08744582533836365,4.537979602813721,8.357047080993652,0.1123293936252594,0.07590436935424805,-0.0035953782498836517
0.036382291465997696,4.631669521331787,8.267600059509277,-0.06572909653186798,0.0013089969288557768,-0.00017453292093705386
-0.1246517151594162,4.6703691482543945,8.526040077209473,-0.1149299293756485,-0.012758356519043446,0.0005410520825535059
-0.17002663016319275,4.479896068572998,8.835246086120605,-0.02200860157608986,-0.029251718893647194,0.010890854522585869
0.035319264978170395,4.500036239624023,8.592329978942871,0.04164355620741844,-0.03269001841545105,-0.0007504915702156723
0.09438900649547577,4.589474201202393,8.37643051147461,0.030578168109059334,0.010227628983557224,-0.004206243436783552
-0.053543925285339355,4.612151622772217,8.406472206115723,0.0034208453726023436,0.013002702966332436,0.007714355364441872
-0.0063589997589588165,4.521603107452393,8.481450080871582,0.018814649432897568,0.018395770341157913,0.012287117540836334
0.0599508099257946,4.536945343017578,8.5304536819458,0.03277728334069252,0.03588397055864334,0.004939281847327948
0.0653904378414154,4.55470085144043,8.565103530883789,0.05604252219200134,0.07630579173564911,0.0103672556579113
0.15562310814857483,4.444979190826416,8.556953430175781,0.09241518378257751,0.1085943877696991,0.0005759586347267032
0.16433799266815186,4.492202281951904,8.285393714904785,0.11875220388174057,0.1759640872478485,-0.016441000625491142
-0.02288856916129589,4.557401180267334,8.318778038024902,0.10955431312322617,0.24118705093860626,-0.02551671303808689
0.1938537359237671,4.475950717926025,8.39773941040039,0.12281882017850876,0.31234413385391235,-0.04511675983667374
0.3998604118824005,4.260347843170166,8.245352745056152,0.2517637312412262,0.5439318418502808,-0.08328711241483688
0.09001240879297256,4.606989860534668,8.611809730529785,0.4117929935455322,0.8088728189468384,-0.1278977245092392
-1.1527985334396362,5.416661262512207,8.69520378112793,0.5507560968399048,0.975342333316803,0.04714134335517883
-0.9627084732055664,5.326744556427002,8.577946662902832,0.5613327622413635,1.0813710689544678,0.12952087819576263
-0.992291271686554,5.351797580718994,8.16252326965332,0.5577199459075928,1.130851149559021,0.1655968427658081
-1.349927544593811,5.061457633972168,8.32834529876709,0.4741710424423218,0.8748462796211243,0.20244073867797852
-1.3742622137069702,4.942906379699707,7.801601886749268,0.3020815849304199,0.5637413263320923,0.1834864616394043
-1.1465544700622559,5.156871318817139,7.149258613586426,0.13727015256881714,0.3188018500804901,0.038554321974515915
-1.1914314031600952,5.12330436706543,6.8623948097229,-0.05324999615550041,0.20170770585536957,-0.0035604715812951326
-1.9261831045150757,5.239097595214844,8.06544303894043,-0.2565808594226837,-0.07175048440694809,-0.08590510487556458
-1.6916950941085815,5.3650994300842285,8.53048324584961,-0.4196120500564575,-0.42645373940467834,-0.07384487986564636
