accX,accY,accZ,gyroX,gyroY,gyroZ
-0.41307640075683594,8.403448104858398,4.905853271484375,-0.10784389078617096,0.3116808831691742,0.4345695376396179
-0.425679475069046,8.408886909484863,5.237401962280273,-0.08965755999088287,0.3326946496963501,0.4312185049057007
-0.5106544494628906,8.333775520324707,5.587309837341309,-0.00019198621157556772,0.3004584312438965,0.47022661566734314
-0.3928118646144867,8.207773208618164,5.496033191680908,0.044488441199064255,0.29340729117393494,0.4991292655467987
-0.2921692132949829,8.150925636291504,5.379943370819092,0.03851941600441933,0.2589544951915741,0.49839621782302856
0.0006799532566219568,8.017290115356445,5.277682304382324,-0.013194689527153969,0.18310248851776123,0.4548851549625397
0.17719006538391113,8.020241737365723,5.3941650390625,-0.08590510487556458,0.06921976059675217,0.31040680408477783
0.16383042931556702,8.064237594604492,5.275757312774658,-0.10922270268201828,0.01286307629197836,0.2888869047164917
0.19526150822639465,8.094986915588379,5.126569747924805,-0.12575097382068634,0.04424409568309784,0.27700120210647583
0.1431540995836258,8.15038013458252,5.342306613922119,-0.11217231303453445,0.11187560111284256,0.2633178234100342
0.20320068299770355,8.14366626739502,5.587587833404541,-0.05311036854982376,0.13004447519779205,0.24446827173233032
0.2778902053833008,8.075278282165527,5.419572353363037,-0.013823007233440876,0.14894640445709229,0.2355845421552658
0.2919968366622925,8.112675666809082,5.343245029449463,-0.08677776902914047,0.07274532318115234,0.18783234059810638
0.33451783657073975,7.985610485076904,5.4688639640808105,-0.10529571026563644,-0.05967280641198158,0.1515120267868042
0.5713139772415161,7.976589202880859,5.537529945373535,-0.10382963716983795,-0.055344391614198685,0.10292206704616547
0.5704041719436646,7.880831718444824,5.602269172668457,-0.07665485888719559,-0.02143264375627041,0.02679080329835415
0.4477061331272125,7.9232940673828125,5.586917400360107,-0.04295255243778229,-0.008133234456181526,-0.0007853981805965304
0.34862449765205383,7.992572784423828,5.3382649421691895,-0.041434116661548615,0.017610372975468636,-0.006806783843785524
0.44669097661972046,8.090686798095703,5.417455673217773,-0.055257122963666916,0.059777528047561646,-0.030264008790254593
0.018684349954128265,8.200370788574219,5.394375801086426,0.007714355364441872,0.00724311638623476,-0.040037851780653
-0.026508599519729614,8.269803047180176,5.473738670349121,0.025987952947616577,0.04375540465116501,-0.00890117883682251
0.02431551180779934,8.290287017822266,5.579562187194824,0.05265658348798752,0.02165953628718853,0.0073303827084600925
0.06972872465848923,8.299614906311035,6.0777764320373535,0.19043287634849548,-0.28677505254745483,0.004590216092765331
-0.5417503714561462,8.273969650268555,5.085418224334717,0.2986781895160675,-0.2678556740283966,0.13234831392765045
0.6026684045791626,8.585051536560059,4.005326747894287,-0.044802602380514145,0.34667474031448364,0.14638076722621918
0.6529562473297119,8.116765022277832,4.863897323608398,-0.3791029751300812,0.07021459192037582,-0.08386307209730148
-0.5494213700294495,7.6794114112854,5.994056224822998,-0.3825761675834656,-0.3164980113506317,-0.054506633430719376
0.11568782478570938,8.146787643432617,6.384914398193359,-0.1719498336315155,-0.3145781457424164,0.030106930062174797
0.32133057713508606,8.306262016296387,5.93605899810791,0.03148574009537697,-0.23652702569961548,0.029251718893647194
0.5956869125366211,7.930562973022461,5.1284661293029785,-0.08105309307575226,-0.34889131784439087,0.0794822946190834
0.9011487364768982,7.904073715209961,5.112664222717285,-0.1800307184457779,-0.49206066131591797,0.015568336471915245
0.9559855461120605,7.928475379943848,5.046182155609131,-0.2724284529685974,-0.6560867428779602,-0.08367108553647995
0.585411012172699,7.991041660308838,5.465789794921875,-0.34719833731651306,-0.633711576461792,-0.13398893177509308
0.5183733701705933,8.008402824401855,5.799015045166016,-0.25624924898147583,-0.40742966532707214,-0.1077042669057846
0.48709553480148315,8.017080307006836,5.942705154418945,-0.14871950447559357,-0.1705186665058136,-0.047769661992788315
0.5064789652824402,8.33204174041748,5.775254726409912,0.493055522441864,0.8775166273117065,0.182648703455925
0.5966733694076538,7.852847099304199,4.977851390838623,0.213157057762146,0.09758135676383972,0.15751595795154572
1.1496189832687378,7.592607021331787,4.972067356109619,-0.26506316661834717,-0.49127528071403503,-0.027454029768705368
1.193088173866272,7.6634368896484375,5.272807598114014,-0.4110075831413269,-0.6425604224205017,-0.14306463301181793
0.746904730796814,7.8281965255737305,5.973111629486084,-0.49207812547683716,-0.6767863035202026,-0.2370157092809677
0.5578968524932861,7.939344882965088,6.375605583190918,-0.26052528619766235,-0.33459708094596863,-0.1609717160463333
0.5496320724487305,7.980564594268799,6.134777545928955,0.07080800831317902,0.05169665068387985,-0.015044738538563251
0.9286437630653381,7.907310485839844,5.729065895080566,0.23404864966869354,0.3325899541378021,0.052377332001924515
1.066779613494873,7.711895942687988,5.478804588317871,0.19881045818328857,0.28239426016807556,-0.007714355364441872
0.8124196529388428,7.706313610076904,5.56824254989624,0.04000294581055641,0.07005751878023148,-0.11767009645700455
0.7106565237045288,7.908900260925293,5.967500686645508,0.0067369709722697735,-0.0881391242146492,-0.16781340539455414
0.45225510001182556,7.992716312408447,5.930111885070801,0.055745817720890045,-0.11274827271699905,-0.1754404902458191
0.3301699757575989,8.13803482055664,5.755240440368652,0.12048007547855377,-0.0049916417337954044,-0.13692107796669006
0.3160633444786072,8.148561477661133,5.645738124847412,0.16999506950378418,0.11122982949018478,-0.09569640457630157
0.2902251183986664,8.10283088684082,5.581717014312744,0.19922932982444763,0.1552819460630417,-0.05775294452905655
0.37540122866630554,8.058701515197754,5.462102890014648,0.19273671507835388,0.1385442316532135,-0.04075343906879425
0.4859367311000824,8.065328598022461,5.3098602294921875,0.14097024500370026,0.10688396543264389,-0.05318018049001694
0.46035706996917725,8.120116233825684,5.245877742767334,0.0950680822134018,0.04797910153865814,-0.060301125049591064
0.4266371428966522,8.106316566467285,5.2898640632629395,0.018186330795288086,-0.09253735840320587,-0.08033750206232071
0.32547733187675476,8.138839721679688,5.346070289611816,0.010332348756492138,-0.07527604699134827,-0.0711570754647255
0.4313393533229828,7.812682151794434,5.9672698974609375,-0.2474353313446045,-0.16315338015556335,-0.11109020560979843
0.449554443359375,8.044086456298828,6.28320837020874,-0.06997025012969971,-0.09599310904741287,-0.08599237352609634
0.39375039935112,8.102447509765625,5.906265735626221,0.11620402336120605,0.030054569244384766,-0.038693949580192566
0.4755459129810333,8.061958312988281,5.5016069412231445,0.1624726951122284,0.09196139872074127,-0.027454029768705368
0.5479273796081543,7.975640773773193,5.3701653480529785,0.11018263548612595,0.043999750167131424,-0.06293657422065735
0.4481945335865021,8.05375862121582,5.539962291717529,0.08683013170957565,0.021554816514253616,-0.1255764365196228
0.12148179113864899,8.1994047164917,5.28225040435791,0.265499472618103,0.1071457639336586,-0.2462484985589981
-0.009279925376176834,8.334187507629395,5.141279697418213,0.24788911640644073,0.10288716107606888,-0.2381676286458969
-0.13226526975631714,8.373817443847656,5.0853705406188965,0.21591468155384064,0.10005972534418106,-0.2266833633184433
-0.3051457703113556,8.522860527038574,5.086845397949219,0.18994417786598206,0.10156071186065674,-0.19193385541439056
-0.4507611095905304,8.600930213928223,5.004791259765625,0.16493360698223114,0.04242895543575287,-0.1416683793067932
-0.702621579170227,8.772059440612793,3.6730692386627197,0.10707595199346542,-0.010157816112041473,-0.10035642981529236
-0.47355392575263977,8.767546653747559,4.187324523925781,-0.06693337857723236,0.18586011230945587,-0.04021238535642624
-0.41178351640701294,8.323959350585938,5.015737533569336,-0.12793263792991638,0.11102039366960526,-0.016266468912363052
-0.34619197249412537,8.35107135772705,5.402458667755127,-0.13147565722465515,-0.017924530431628227,0.002600540639832616
-0.33020827174186707,8.458416938781738,5.295954704284668,-0.12519246339797974,-0.029338983818888664,0.017086774110794067
-0.2867678999900818,8.385270118713379,5.308337688446045,-0.10637781769037247,0.03073524869978428,0.044401176273822784
-0.14597925543785095,8.255963325500488,5.360234260559082,-0.07082545757293701,0.053284902125597,0.06405358016490936
0.056129664182662964,8.187652587890625,5.349000930786133,-0.04881685972213745,0.04398229718208313,0.04729842394590378
-0.09874644875526428,8.20896053314209,5.373804569244385,-0.04361577704548836,-0.06963863968849182,0.024661501869559288
0.04082592576742172,8.232040405273438,5.398627758026123,-0.007470009382814169,-0.03640756756067276,0.016772614791989326
-0.11225932836532593,8.265875816345215,5.269043922424316,0.020699605345726013,-0.00047123889089562,0.013857914134860039
-0.18967822194099426,8.25528335571289,5.126751899719238,0.006579891312867403,0.008342674002051353,0.030770154669880867
-0.05414726212620735,8.246129035949707,5.111103057861328,-0.01679006777703762,-0.002600540639832616,0.02457423508167267
-0.019948488101363182,8.255963325500488,5.1724042892456055,-0.027523841708898544,0.009005898609757423,0.005969026125967503
-0.08219772577285767,8.254642486572266,5.1996026039123535,-0.028588492423295975,-0.02741912193596363,-0.0034732052590698004
-0.07298484444618225,8.246665000915527,5.18088960647583,-0.038606684654951096,-0.02485348843038082,-0.009773843921720982
0.033279404044151306,8.229724884033203,5.392479419708252,0.036250486969947815,-0.00045378561480902135,0.009599311277270317
0.07829039543867111,8.169323921203613,5.3717265129089355,0.047856926918029785,-0.01202531810849905,-0.0017104226863011718
0.1145864874124527,8.141196250915527,5.3701558113098145,0.04904375225305557,-0.042900193482637405,-0.018011797219514847
0.15760549902915955,8.184139251708984,5.366210460662842,0.07005751878023148,-0.03537782281637192,-0.04811872914433479
0.13580869138240814,8.159573554992676,5.32915735244751,0.08299040794372559,-0.02117084339261055,-0.06007423251867294
0.023836670443415642,8.156891822814941,5.1797404289245605,0.10976375639438629,0.03269001841545105,-0.07569492608308792
-0.044704534113407135,8.239243507385254,5.085188388824463,0.10602875053882599,0.06187192350625992,-0.08168140798807144
-0.07320510596036911,8.2615385055542,5.092313766479492,0.10220648348331451,0.06756169348955154,-0.08827875554561615
-0.11975796520709991,8.317743301391602,5.074596405029297,0.08937831223011017,0.06503096967935562,-0.0904604122042656
-0.22455695271492004,8.409873008728027,5.177087306976318,0.0786270797252655,0.050597093999385834,-0.09611528366804123
-0.3122805058956146,8.404328346252441,5.224416255950928,0.08429940044879913,0.02736676298081875,-0.0930434986948967
-0.49744805693626404,8.430356979370117,5.198510646820068,0.0912981703877449,-0.00296705961227417,-0.06288421154022217
-0.4707096219062805,8.502548217773438,5.104150295257568,0.09796532988548279,0.011763518676161766,-0.028117254376411438
-0.5519113540649414,8.473241806030273,4.187612056732178,0.07675957679748535,0.00874409917742014,0.00427605677396059
-0.21851399540901184,8.596266746520996,4.391119003295898,-0.08283332735300064,0.1324530392885208,0.03984586521983147
-0.21393628418445587,8.299625396728516,5.111812114715576,-0.1489289402961731,0.04553563892841339,0.024469515308737755
-0.22924959659576416,8.25465202331543,5.7048845291137695,-0.11171852797269821,-0.06661921739578247,0.02321287989616394
-0.1579694151878357,8.309958457946777,5.709059715270996,-0.012444197200238705,-0.033597588539123535,0.01860520988702774
-0.22636696696281433,8.273747444152832,5.434291839599609,0.0645248219370842,0.02445206232368946,0.027628561481833458
-0.1804366111755371,8.243160247802734,5.139143943786621,0.07674212753772736,0.025743605569005013,0.04527384042739868
-0.039705440402030945,8.304960250854492,4.978694438934326,0.054681167006492615,0.009372417815029621,0.025987952947616577
-0.07682514190673828,8.307544708251953,4.8793158531188965,0.022287854924798012,0.0008028514566831291,0.005567600484937429
-0.19765570759773254,8.380491256713867,4.853181838989258,-0.009581857360899448,-0.0036477381363511086,0.004188789986073971
-0.22486340999603271,8.417840003967285,4.898239612579346,-0.03511602431535721,0.001745329238474369,0.01005309633910656
-0.2203623205423355,8.415197372436523,5.010604381561279,-0.0544368177652359,0.006300638429820538,0.02085668407380581
-0.30697494745254517,8.326286315917969,5.103173732757568,-0.06810274720191956,-0.001518436474725604,0.033021628856658936
-0.24059811234474182,8.304059982299805,5.25242805480957,-0.06611306965351105,-0.007557275705039501,0.04530874639749527
-0.07778282463550568,8.358243942260742,5.441685199737549,-0.030752701684832573,-0.016894787549972534,0.03495894372463226
-0.08246587961912155,8.251683235168457,5.332375526428223,0.012374384328722954,-0.03216641768813133,0.025673793628811836
-0.09540414810180664,8.233409881591797,5.235161304473877,0.02364921197295189,-0.016423547640442848,0.02591813914477825
-0.03254198655486107,8.25296688079834,5.087535858154297,0.02125811018049717,0.01621410809457302,0.016458455473184586
-0.11737333983182907,8.36710262298584,5.097082614898682,0.022026054561138153,0.022287854924798012,0.0018151424592360854
-0.1464676707983017,8.372140884399414,5.115297794342041,0.007120943162590265,0.022654373198747635,0.0013962633674964309
-0.14364251494407654,8.291934967041016,5.188790321350098,-0.004764748737215996,-0.010663961991667747,0.00045378561480902135
-0.10636001080274582,8.284282684326172,5.172883033752441,-0.001745329238474369,-0.004642575979232788,-0.0033335788175463676
-0.1262127310037613,8.365397453308105,5.237660884857178,0.014660765416920185,0.011850785464048386,-0.0045378562062978745
-0.21960574388504028,8.39591121673584,5.2552056312561035,0.023858651518821716,0.0035953782498836517,-0.0018151424592360854
-0.23286962509155273,8.341848373413086,5.1627607345581055,0.033335790038108826,-0.012496557086706161,0.01129228062927723
-0.18549315631389618,8.329169273376465,5.092696666717529,0.028815384954214096,-0.014206980355083942,0.00970403105020523
-0.1680346429347992,8.331217765808105,5.063401222229004,0.025446901097893715,-0.015097098425030708,0.010908307507634163
-0.1331750750541687,8.341668128967285,4.953287124633789,0.010332348756492138,-0.011920598335564137,0.017732545733451843
-0.0938335508108139,8.374333381652832,4.938816547393799,-0.01424188632518053,-0.0006632251315750182,0.01736602559685707
-0.043641507625579834,8.338046073913574,4.973283290863037,-0.04124213010072708,0.0070685832761228085,0.003857177682220936
-0.07449797540903091,8.295315742492676,5.094324588775635,-0.04965461790561676,0.016144296154379845,-0.007208209950476885
-0.16091908514499664,8.363693237304688,5.216678142547607,-0.04138175770640373,0.009424777701497078,-0.009930923581123352
-0.22198079526424408,8.34825611114502,5.2426981925964355,-0.02975786291062832,0.0030194194987416267,-0.0012217304902151227
-0.19459113478660583,8.364956855773926,5.274694442749023,-0.01825614459812641,-0.0032463124953210354,0.00783652812242508
-0.22261285781860352,8.38346004486084,5.242190361022949,0.0006981316837482154,0.007103490177541971,0.022776545956730843
-0.1407407522201538,8.278833389282227,5.18475866317749,0.013404129073023796,0.025987952947616577,0.03361504152417183
-0.05574658885598183,8.298983573913574,5.177393913269043,0.013089969754219055,0.0025830871891230345,0.027349309995770454
-0.024200590327382088,8.257132530212402,5.165135383605957,0.0073303827084600925,-0.02241002768278122,0.018186330795288086
0.01538035087287426,8.278038024902344,5.08314847946167,0.005567600484937429,-0.0021816615480929613,0.00921533815562725
-0.053974881768226624,8.289846420288086,5.074864864349365,0.0011519172694534063,0.010733774863183498,0.0012042771559208632
-0.10268251597881317,8.306070327758789,5.0854949951171875,-0.0038222710136324167,0.007522369269281626,-0.0018325956771150231
-0.13445836305618286,8.332568168640137,5.044764518737793,-0.012077677994966507,0.0038920841179788113,0.004049163777381182
-0.11080364882946014,8.350736618041992,5.001410484313965,-0.028291787952184677,0.012374384328722954,0.00143117003608495
-0.19871872663497925,8.369965553283691,5.042820453643799,-0.04427900165319443,0.014364060014486313,3.490658491500653e-05
-0.23380814492702484,8.376459121704102,5.064990997314453,-0.050597093999385834,0.0223227608948946,0.007225662935525179
-0.22008459270000458,8.376660346984863,5.099027156829834,-0.06140068173408508,0.050073496997356415,0.023492131382226944
-0.1509304642677307,8.352776527404785,5.230075836181641,-0.06098180264234543,0.03160791099071503,0.02773328125476837
-0.13656525313854218,8.28545093536377,5.323153018951416,-0.052290063351392746,-0.0067544239573180676,0.026371924206614494
-0.11585062742233276,8.29602336883545,5.342977046966553,-0.0342782661318779,-0.010681414976716042,0.02604031190276146
-0.054798487573862076,8.237356185913086,5.323842525482178,-0.001745329238474369,0.016947146505117416,0.025761060416698456
0.00888727605342865,8.224331855773926,5.311986446380615,0.01127482671290636,0.0342782661318779,0.01979203335940838
-0.03768473491072655,8.214631080627441,5.286052227020264,0.018849555402994156,0.0039618974551558495,0.002914699725806713
-0.12130940705537796,8.30448055267334,5.071072101593018,-0.01014036312699318,-0.009616764262318611,-0.006073745898902416
-0.10978850722312927,8.323930740356445,5.1655378341674805,-0.014521139673888683,-0.020525071769952774,-0.01219985168427229
-0.12012188136577606,8.350497245788574,5.200186729431152,-0.004398229531943798,-0.004241149872541428,-0.010663961991667747
-0.15694470703601837,8.337050437927246,5.203768253326416,0.0057072266936302185,0.01218239776790142,0.00143117003608495
-0.1214626356959343,8.26030158996582,5.219158172607422,0.00041887903353199363,0.015376350842416286,0.0032114058267325163
-0.1189822405576706,8.284867286682129,5.284012317657471,-0.0006632251315750182,-0.01705186627805233,-0.003543018363416195
-0.09459012001752853,8.279973030090332,5.126330375671387,0.026302112266421318,-0.01335176918655634,-0.00874409917742014
-0.05337154120206833,8.278239250183105,5.0575690269470215,0.032044246792793274,-0.0028448866214603186,-0.007295476272702217
-0.015658078715205193,8.283257484436035,5.025457859039307,0.018500490114092827,0.004258603323251009,-0.014608405530452728
-0.0029688100330531597,8.274255752563477,5.053920269012451,0.003403391921892762,0.0028797932900488377,-0.021938787773251534
-0.025541342794895172,8.269667625427246,5.184107303619385,-0.002286381321027875,-0.0028972465079277754,-0.03710569813847542
-0.07338706403970718,8.268202781677246,5.28317928314209,0.008761553093791008,0.0039618974551558495,-0.04181808978319168
-0.01482489611953497,8.255733489990234,5.389702320098877,0.04420918971300125,0.014224433340132236,-0.05174901336431503
0.021902156993746758,8.242317199707031,5.491494178771973,0.06869615614414215,0.03183480724692345,-0.053127821534872055
0.15175408124923706,8.169764518737793,5.660658836364746,0.16114625334739685,0.10353293269872665,-0.08328711241483688
0.16346651315689087,8.056325912475586,5.68086576461792,0.2849424481391907,0.18610446155071259,-0.1074424684047699
0.2873137593269348,7.962147235870361,5.353530406951904,0.3317521810531616,0.07010987401008606,-0.16084954142570496
0.281931608915329,7.9701056480407715,5.143377304077148,0.3203551769256592,0.018814649432897568,-0.2067691534757614
0.1651807576417923,8.084653854370117,4.940741539001465,0.3061656653881073,0.043912485241889954,-0.27724555134773254
0.11409807205200195,8.14050579071045,4.958065986633301,0.3424859642982483,0.14323917031288147,-0.34088024497032166
-0.06641515344381332,8.203109741210938,4.991057872772217,0.36802011728286743,0.1693667471408844,-0.35812410712242126
-0.27563005685806274,8.301703453063965,4.908208847045898,0.40421825647354126,0.16669639945030212,-0.3683342933654785
-0.43804311752319336,8.422467231750488,4.879593372344971,0.4234692454338074,0.12562879920005798,-0.3928212523460388
-1.7254915237426758,9.335777282714844,3.5039522647857666,0.09354964643716812,-0.004188789986073971,-0.269094854593277
-1.883844017982483,9.250017166137695,4.172748565673828,0.0017627825727686286,-0.011885692365467548,-0.13702580332756042
-1.8640774488449097,9.211183547973633,4.480173587799072,0.03291691094636917,-0.11171852797269821,0.11206758767366409
-1.2160629034042358,8.954160690307617,4.161265850067139,-0.0303861815482378,-0.13006193935871124,0.16378170251846313
-0.9242479801177979,8.771904945373535,4.0852742195129395,-0.11992157250642776,-0.12831661105155945,0.18106046319007874
-0.6921541094779968,8.635004997253418,4.229615688323975,-0.1745503842830658,-0.11128219217061996,0.1929636001586914
-0.5118898749351501,8.572784423828125,4.334625244140625,-0.20980602502822876,-0.09583602845668793,0.18392279744148254
-0.4307360351085663,8.456233978271484,4.510781288146973,-0.24129176139831543,-0.07876671105623245,0.15201817452907562
-0.500972330570221,8.490336418151855,4.718808650970459,-0.26921704411506653,-0.1137780100107193,0.12524482607841492
-0.6308912634849548,8.624862670898438,4.942254543304443,-0.2699500620365143,-0.17919296026229858,0.13746212422847748
-0.6920583248138428,8.654311180114746,4.9545416831970215,-0.21539108455181122,-0.2284461408853531,0.2480287402868271
-0.4733911156654358,8.530616760253906,4.901122093200684,-0.216054305434227,-0.23314107954502106,0.2805616855621338
-0.17035223543643951,8.428854942321777,4.815237522125244,-0.24935518205165863,-0.269025057554245,0.2725157141685486
-0.1508251279592514,8.398408889770508,4.820370674133301,-0.31560787558555603,-0.3307049870491028,0.23783601820468903
-0.01668279618024826,8.324543952941895,4.900001525878906,-0.3620859980583191,-0.37683403491973877,0.24013985693454742
0.17523640394210815,8.26167106628418,5.0020904541015625,-0.39760345220565796,-0.37772414088249207,0.23813271522521973
0.19167020916938782,8.196147918701172,5.129414081573486,-0.4050211012363434,-0.39987239241600037,0.22132520377635956
0.310776948928833,8.083112716674805,5.193885326385498,-0.40856412053108215,-0.44289475679397583,0.19057250022888184
0.6979480981826782,7.873360633850098,5.675292015075684,-0.33075734972953796,-0.271293967962265,0.17559757828712463
0.9178985953330994,7.838366985321045,5.632359504699707,-0.2941228747367859,-0.18301522731781006,0.13962633907794952
0.8674767017364502,7.745778560638428,5.752395153045654,-0.27260297536849976,-0.10840240120887756,0.08321730047464371
0.8072385787963867,7.722200393676758,5.931117534637451,-0.2499835044145584,-0.1578126698732376,0.05375614017248154
0.7373470664024353,7.80307674407959,5.891861915588379,-0.20992819964885712,-0.17376497387886047,0.03303908184170723
0.7187871932983398,7.87197208404541,5.867661476135254,-0.17448055744171143,-0.0941954180598259,0.029949849471449852
0.7082623243331909,7.810708999633789,5.98590612411499,-0.13145819306373596,-0.015655603259801865,0.026319565251469612
0.7913123369216919,7.756542682647705,6.129644393920898,-0.07478735595941544,-0.022916173562407494,0.01904154196381569
0.7966274619102478,7.712182998657227,6.135745048522949,-0.02604031190276146,-0.06443755328655243,0.0034732052590698004
0.6858717203140259,7.768006324768066,5.878779888153076,-0.01492256484925747,-0.0639488622546196,-0.0034732052590698004
0.7370980381965637,7.824538230895996,5.811866760253906,-0.0114493602886796,-0.015969762578606606,-0.022218041121959686
0.6742933392524719,7.814683437347412,5.867067813873291,0.017558012157678604,0.032707471400499344,-0.026598818600177765
0.6615274548530579,7.839257717132568,5.79035758972168,0.02932153083384037,0.014678219333291054,-0.022357666864991188
0.6563177108764648,7.880236625671387,5.661616325378418,0.00019198621157556772,-0.01104793418198824,-0.03459242731332779
0.5398924350738525,7.885207176208496,5.713714122772217,-0.02808234840631485,-0.018448129296302795,-0.04244640842080116
0.4759289622306824,7.9206414222717285,5.776480674743652,-0.035412728786468506,-0.012828170321881771,-0.023998277261853218
0.4735156297683716,7.948645114898682,5.7787885665893555,-0.035639625042676926,-0.01120501384139061,-0.01417207345366478
0.5110567212104797,7.95521354675293,5.790539264678955,-0.0351334773004055,-0.012636183761060238,0.006946410518139601
0.547410249710083,7.872518062591553,5.991728782653809,0.04384266957640648,0.15632914006710052,0.01014036312699318
0.5213038921356201,7.93193244934082,5.94881534576416,0.14779448509216309,0.3165329098701477,0.034121185541152954
0.6201269626617432,7.844955921173096,5.404689788818359,0.1555786430835724,0.1978330761194229,0.08307766914367676
0.9296972155570984,7.726826190948486,5.290371417999268,-0.14592698216438293,-0.15807446837425232,0.008726646192371845
0.8266986608505249,7.638614177703857,5.87878942489624,-0.3035825788974762,-0.23546236753463745,-0.11016517877578735
0.46584460139274597,7.801170825958252,6.511902809143066,-0.19057250022888184,-0.12395328283309937,-0.10554005950689316
0.40145015716552734,7.951938629150391,6.520205974578857,0.040334559977054596,0.017418386414647102,-0.006126105785369873
0.5010776519775391,7.9448323249816895,6.31545352935791,0.13138838112354279,0.0757298395037651,0.03817034885287285
0.6716501712799072,7.824432849884033,5.7870917320251465,0.18072883784770966,0.10962413251399994,0.057648226618766785
0.8012914061546326,7.726271629333496,5.522561073303223,0.08826129883527756,0.039043016731739044,0.012775810435414314
0.6998825669288635,7.76960563659668,5.5426530838012695,-0.021066123619675636,-0.047106437385082245,-0.050108402967453
0.543292224407196,7.887936592102051,5.755459308624268,-0.051225412636995316,-0.05550146847963333,-0.058712877333164215
0.4266946017742157,7.976081371307373,5.827706813812256,-0.011938052251935005,0.001483529806137085,-0.027715828269720078
0.3746638298034668,7.941068649291992,5.867278099060059,0.07997098565101624,0.15969762206077576,0.019111355766654015
0.39898890256881714,7.938052177429199,5.760401248931885,0.12233012914657593,0.21533872187137604,0.04124213010072708
0.5070727467536926,7.9028191566467285,5.570789813995361,0.08749335259199142,0.12985248863697052,0.05541420355439186
0.6705679893493652,7.832755088806152,5.549156188964844,-0.09780824929475784,-0.10758209228515625,0.021694442257285118
0.6640461683273315,7.804206371307373,5.9423604011535645,-0.18626153469085693,-0.17092008888721466,-0.04721115529537201
0.7759703397750854,7.779172897338867,5.608331203460693,0.08972737938165665,0.0751538798213005,0.030455995351076126
0.8213069438934326,7.737389087677002,5.620502948760986,0.011641345918178558,0.032707471400499344,-0.022602014243602753
0.6407362222671509,7.797301769256592,5.750470161437988,-0.03986331820487976,-0.049235738813877106,-0.06058037653565407
0.525326132774353,7.863544464111328,5.894984245300293,-0.0426209419965744,-0.04735078290104866,-0.05942846089601517
0.4545343816280365,7.892303466796875,6.007894515991211,0.024870941415429115,0.03033382259309292,-0.03637266159057617
0.4456183910369873,7.8599534034729,5.92352294921875,0.0541401132941246,0.05115560069680214,-0.01860520988702774
0.5503886342048645,7.855154991149902,5.764346599578857,0.06428047269582748,0.036302849650382996,-0.010088003240525723
0.5119951963424683,7.914310932159424,5.7045207023620605,0.05110324174165726,0.06372196972370148,-0.0223227608948946
0.563959002494812,7.851496696472168,5.763907432556152,0.012793263420462608,0.026982789859175682,-0.010070549324154854
0.5715246796607971,7.906927585601807,5.843518257141113,0.014782939106225967,0.045640360563993454,-0.01710422709584236
0.5735166072845459,7.864645957946777,5.877774715423584,0.04499458894133568,0.07644542306661606,-0.01061160210520029
0.25779804587364197,8.132949829101562,5.437538146972656,0.1955990493297577,0.37137115001678467,-0.013386675156652927
0.25112301111221313,8.086800575256348,5.445794582366943,0.18305012583732605,0.32672563195228577,-0.025185100734233856
0.18893124163150787,8.054314613342285,5.435546398162842,0.16830210387706757,0.2831273078918457,-0.07150614261627197
0.07009264826774597,8.134251594543457,5.441675662994385,0.17121680080890656,0.2822372019290924,-0.09628981351852417
-0.07896076887845993,8.203702926635742,5.4594502449035645,0.17720328271389008,0.25274112820625305,-0.08703956753015518
-0.1362396478652954,8.266009330749512,5.402525424957275,0.21216222643852234,0.2862863540649414,-0.06759659945964813
-0.15349705517292023,8.266105651855469,5.3894243240356445,0.239633709192276,0.35793212056159973,-0.05248204991221428
-0.09725246578454971,8.248254776000977,5.346510887145996,0.29571112990379333,0.5083795189857483,-0.0207345113158226
-0.024516623467206955,8.243370056152344,5.286837577819824,0.3176324665546417,0.5498310923576355,-0.0013788101496174932
0.0558040514588356,8.190410614013672,5.186923027038574,0.30379199981689453,0.4836830794811249,-0.011815878562629223
0.09142019599676132,8.170443534851074,5.011810779571533,0.26719245314598083,0.37194710969924927,-0.07120943069458008
-0.0759536549448967,8.246282577514648,4.8198628425598145,0.21013763546943665,0.31410691142082214,-0.1282118856906891
-0.20376570522785187,8.312620162963867,4.817152976989746,0.19076448678970337,0.30398398637771606,-0.1460666060447693
-0.5774239897727966,8.418166160583496,4.935953140258789,0.2099631130695343,0.4254938066005707,-0.15070918202400208
-0.747565507888794,8.547194480895996,5.114665985107422,0.2881014943122864,0.653939962387085,-0.0696909949183464
-0.7363893985748291,8.557787895202637,5.162013530731201,0.34238123893737793,0.706352174282074,0.017505653202533722
-0.684444785118103,8.559931755065918,5.20522403717041,0.3410547971725464,0.6328389048576355,0.02658136375248432
-0.7308443784713745,8.50954818725586,5.17606258392334,0.3233920633792877,0.3188367486000061,-0.029286624863743782
-0.8569326400756836,8.806151390075684,4.331790447235107,0.15426965057849884,0.056269414722919464,-0.00593411922454834
-0.515902578830719,8.991922378540039,4.385794162750244,0.09290387481451035,0.08845328539609909,-0.02923426404595375
-1.5353057384490967,8.655287742614746,4.693276882171631,0.007260569836944342,-0.14851006865501404,0.04427900165319443
-0.8977872729301453,8.738224029541016,4.691370964050293,0.0293738916516304,-0.1838006228208542,0.11025244742631912
-0.5263508558273315,8.655949592590332,4.530078411102295,0.005916666239500046,-0.17462019622325897,0.09749408811330795
-0.5149065852165222,8.553438186645508,4.375010967254639,-0.06410594284534454,-0.22195352613925934,0.07183775305747986
-0.48886722326278687,8.50170612335205,4.400264739990234,-0.14350096881389618,-0.30894073843955994,0.06094689667224884
-0.12492944300174713,8.311144828796387,5.357073783874512,-0.004712388850748539,0.014049900695681572,0.002687806962057948
-0.12958376109600067,8.326669692993164,5.392517566680908,0.0247662216424942,-0.0006108652451075613,-0.009197885170578957
-0.281979501247406,8.349875450134277,5.2695417404174805,0.06665412336587906,-0.04473278671503067,-0.03200933709740639
-0.34141314029693604,8.377551078796387,5.163516998291016,0.08600982278585434,-0.0601964071393013,-0.03640756756067276
-0.4020056128501892,8.431975364685059,5.103508949279785,0.10000736266374588,-0.05700245499610901,-0.0403171069920063
-0.4905431866645813,8.538470268249512,4.9404730796813965,0.10941468924283981,-0.049898963421583176,-0.02755874954164028
-0.5346922278404236,8.570619583129883,4.825379371643066,0.0941779688000679,-0.06455972790718079,-0.009948376566171646
-0.47857216000556946,8.595328330993652,4.7459588050842285,0.06988298147916794,-0.07244861871004105,0.005986479111015797
-0.42024943232536316,8.609567642211914,4.718923568725586,0.06059783324599266,-0.07813838869333267,0.0077667152509093285
-0.3701243996620178,8.550690650939941,4.703418731689453,0.042324233800172806,-0.08159413933753967,0.010402162559330463
-0.40637263655662537,8.553410530090332,4.314695835113525,0.08810421824455261,0.12337732315063477,0.02591813914477825
-0.09795157611370087,8.565035820007324,4.325747489929199,-0.0004886921960860491,0.04899139329791069,0.04194026067852974
-0.15868768095970154,8.272991180419922,4.688162803649902,-0.16322319209575653,-0.20552997291088104,-0.033423054963350296
-0.33589690923690796,8.509788513183594,5.220067977905273,-0.04813618212938309,-0.011903145350515842,-0.04920083284378052
-0.2762525677680969,8.45093822479248,5.111198902130127,0.07044149190187454,0.11068878322839737,-0.03420845419168472
-0.28221890330314636,8.426258087158203,5.063506603240967,0.129608154296875,0.13140584528446198,-0.03689625859260559
-0.31190699338912964,8.424515724182129,4.993758678436279,0.14151129126548767,0.12716469168663025,-0.04326671361923218
-0.3770771622657776,8.449713706970215,4.876883506774902,0.1575683206319809,0.12493066489696503,-0.057962384074926376
-0.44812750816345215,8.505831718444824,4.72108793258667,0.16088445484638214,0.1301841139793396,-0.06820746511220932
-0.4950059652328491,8.525484085083008,4.6721601486206055,0.1567305624485016,0.1218414381146431,-0.07051130384206772
-0.561152994632721,8.579879760742188,4.542154788970947,0.13514083623886108,0.11575023829936981,-0.06852162629365921
-0.6045742034912109,8.63503360748291,4.50249719619751,0.11513937264680862,0.12330751121044159,-0.06321582198143005
-0.6501789689064026,8.651592254638672,4.532970428466797,0.10934487730264664,0.13658946752548218,-0.049235738813877106
-0.6252026557922363,8.662874221801758,4.591436862945557,0.09388125687837601,0.11899654567241669,-0.030002210289239883
-0.5736698508262634,8.618839263916016,4.556184768676758,0.06888814270496368,0.06640977412462234,-0.025534166023135185
-0.6476123929023743,8.618675231933594,4.653753280639648,0.01242674421519041,0.011309733614325523,-0.033457960933446884
-0.6391656398773193,8.6211576461792,4.574878692626953,0.060929443687200546,-0.06368706375360489,-0.02338741160929203
-0.8276180624961853,8.632648468017578,4.265088081359863,0.07953465729951859,-0.13599605858325958,-0.004590216092765331
-0.31201234459877014,8.709722518920898,4.126597881317139,-0.04092797264456749,0.1512502282857895,0.006806783843785524
-0.6009829044342041,8.614893913269043,5.175334930419922,0.04248131439089775,-0.003490658476948738,-0.053005650639534
-0.7463875412940979,8.693058967590332,4.406844139099121,0.09833184629678726,0.05548401549458504,-0.06298892945051193
-0.4190714657306671,8.922530174255371,4.437921047210693,-0.12601277232170105,0.16470672190189362,-0.057735491544008255
-1.4816851615905762,8.503715515136719,4.798679351806641,-0.13151055574417114,-0.08635888993740082,-0.013037609867751598
-0.9271210432052612,8.70654296875,5.172500133514404,-0.053668875247240067,-0.11178833991289139,0.0685390830039978
-0.7123132944107056,8.707816123962402,4.887896537780762,0.02825688011944294,-0.13175490498542786,0.05368632823228836
-0.718231737613678,8.604982376098633,4.557017803192139,0.024958208203315735,-0.12304571270942688,0.06707300245761871
-0.5894428491592407,8.586478233337402,4.39998722076416,-0.009354964829981327,-0.17531831562519073,0.057997290045022964
-0.4886469841003418,8.580167770385742,4.388331890106201,-0.05017821490764618,-0.18990927934646606,0.04335397854447365
-0.4241950511932373,8.563838958740234,4.392536163330078,-0.08820894360542297,-0.21710149943828583,0.02649409882724285
-0.3544759154319763,8.493008613586426,4.436761856079102,-0.12665854394435883,-0.20614083111286163,0.0028448866214603186
-0.3417770564556122,8.498641014099121,4.620119571685791,-0.13456489145755768,-0.17776177823543549,-0.022270401939749718
-0.43414536118507385,8.489867210388184,4.719287395477295,-0.11828096210956573,-0.1446005254983902,-0.041346848011016846
-0.5839170217514038,8.552327156066895,4.807910919189453,-0.07600908726453781,-0.07398450374603271,-0.03956661373376846
-0.6163153648376465,8.5802640914917,4.8787031173706055,-0.031154127791523933,0.0012391837080940604,-0.027838001027703285
-0.6995282173156738,8.664644241333008,4.615293025970459,0.04303981736302376,-0.015254177153110504,0.0012740903766825795
-0.6316190958023071,8.621960639953613,4.54705810546875,0.011780972592532635,-0.018308503553271294,0.015219271183013916
-0.5110567212104797,8.5453462600708,4.573968887329102,-0.012461651116609573,-0.00970403105020523,0.014189526438713074
-0.41309553384780884,8.552212715148926,4.649012565612793,-0.02727949619293213,0.0,0.006265731994062662
-0.40960001945495605,8.488718032836914,4.713962554931641,-0.028239427134394646,-0.006981316953897476,-0.004241149872541428
-0.392668217420578,8.473672866821289,4.759854793548584,-0.025970499962568283,-0.008429939858615398,-0.010506882332265377
-0.44375088810920715,8.483652114868164,4.827907562255859,-0.006422811653465033,0.006003932561725378,-0.025569073855876923
-0.6501789689064026,8.53635311126709,4.877984523773193,0.03476695716381073,0.009756390936672688,-0.029164452105760574
-0.7503331899642944,8.64892864227295,4.723721504211426,0.044087015092372894,-0.008813912980258465,-0.018587756901979446
-0.7872613668441772,8.654885292053223,4.58050012588501,0.027523841708898544,-0.018814649432897568,-0.007365289609879255
-0.7487626075744629,8.66378402709961,4.566863059997559,0.010838494636118412,-0.015062191523611546,0.010175269097089767
-0.5829880833625793,8.609482765197754,4.439223289489746,0.00905825849622488,0.030316369608044624,0.04476769641041756
-0.427795946598053,8.595758438110352,4.4098896980285645,-0.0452214814722538,0.0700051560997963,0.04576253145933151
-0.3360884487628937,8.393601417541504,4.812489032745361,-0.12426744401454926,-0.06009168550372124,-0.0012042771559208632
-0.4748276472091675,8.469334602355957,5.137516021728516,-0.09075712412595749,-0.05482079088687897,-0.015655603259801865
-0.5319532752037048,8.533021926879883,5.240208148956299,0.02754129469394684,0.031031953170895576,-0.0008901178953237832
-0.5372109413146973,8.513876914978027,4.988682746887207,0.10704104602336884,0.04495968297123909,0.01448623277246952
-0.4954560697078705,8.509788513183594,4.805909633636475,0.10751228034496307,0.015411256812512875,0.0044156829826533794
-0.5733442306518555,8.542204856872559,4.588918209075928,0.06033603101968765,-0.04527384042739868,-0.019024088978767395
-0.7153012752532959,8.677831649780273,4.520980358123779,0.029705503955483437,-0.0691499412059784,-0.020612338557839394
-0.8306059837341309,8.759073257446289,4.4592485427856445,0.015446163713932037,-0.04021238535642624,0.018360864371061325
-0.8214409947395325,8.787257194519043,4.470721244812012,-0.010349802672863007,-0.035988688468933105,0.05115560069680214
-0.49026545882225037,8.593327522277832,4.584378719329834,-0.12398818880319595,-0.20182988047599792,0.08070402592420578
-0.3815208077430725,8.520120620727539,4.625367641448975,-0.1639038622379303,-0.24520130455493927,0.054105207324028015
-0.19303010404109955,8.442205429077148,4.683230876922607,-0.17374752461910248,-0.25822144746780396,0.04167846217751503
-0.07338706403970718,8.323184967041016,5.024528980255127,-0.04255112633109093,0.05145230516791344,-0.015027284622192383
-0.17787960171699524,8.334781646728516,5.135112285614014,-0.011885692365467548,0.013683381490409374,-0.05005604401230812
-0.27729642391204834,8.394330978393555,5.18015193939209,0.013439035043120384,-0.00012217304902151227,-0.06068509817123413
-0.5579543113708496,8.548755645751953,5.187976360321045,0.0700051560997963,-0.0006806784076616168,-0.04789183288812637
-0.6461662650108337,8.669145584106445,5.075008392333984,0.09904743731021881,-0.05469861999154091,-0.021991148591041565
-0.724284291267395,8.727688789367676,4.644444465637207,0.15358898043632507,0.16460199654102325,0.03467969223856926
-0.630642294883728,8.83308219909668,4.246825218200684,0.1955466866493225,0.37109190225601196,0.08482300490140915
0.016701949760317802,8.277999877929688,4.389471530914307,-0.20579177141189575,-0.08321730047464371,-0.017907077446579933
-0.24203462898731232,8.318108558654785,5.280334949493408,-0.29012608528137207,-0.3421019911766052,-0.11248646676540375
-0.5921913981437683,8.487310409545898,5.824088096618652,-0.18931587040424347,-0.3355919122695923,-0.1022413894534111
-0.5297314524650574,8.627669334411621,5.4606852531433105,0.16797049343585968,0.04761258140206337,0.02471386268734932
-0.3194056451320648,8.443209648132324,4.765734672546387,0.23860396444797516,0.11335913091897964,0.04490732029080391
-0.12068691104650497,8.377273559570312,4.296184062957764,0.12974777817726135,-0.0034208453726023436,-0.007155850064009428
-0.20736658573150635,8.47439193725586,4.31191873550415,0.015620696358382702,-0.08976228535175323,-0.06558947265148163
-0.4337622821331024,8.631499290466309,4.453751087188721,-0.00905825849622488,-0.03433062508702278,-0.0694117471575737
-0.6378248929977417,8.687264442443848,4.471832275390625,-0.016406094655394554,0.034836772829294205,-0.028553586453199387
-0.6004274487495422,8.665353775024414,4.588544845581055,-0.05262167751789093,0.03529055789113045,0.007138396613299847
-0.5511260628700256,8.610746383666992,4.835836887359619,-0.08852309733629227,-0.005323254037648439,0.01811651699244976
-0.46783655881881714,8.528768539428711,5.083493232727051,-0.076619952917099,-0.03176499158143997,0.02410299703478813
-0.30575868487358093,8.477312088012695,5.1504926681518555,-0.02223549410700798,-0.007941247895359993,0.020350538194179535
-0.27612805366516113,8.413761138916016,5.054025650024414,0.02741912193596363,0.01776745170354843,0.004241149872541428
-0.32695215940475464,8.411749839782715,4.923637390136719,0.05619960278272629,0.007278022821992636,-0.006928957067430019
-0.37448185682296753,8.46058177947998,4.754281044006348,0.05958554148674011,0.0033335788175463676,-0.009948376566171646
-0.37554487586021423,8.550950050354004,4.61595344543457,0.037664204835891724,0.012391837313771248,-0.024696409702301025
-0.4443829655647278,8.581490516662598,4.608493328094482,0.00808087456971407,0.01944296807050705,-0.032044246792793274
-0.566152036190033,8.623588562011719,4.67055082321167,-0.012845623306930065,0.012601276859641075,-0.017819812521338463
-0.5496320724487305,8.594216346740723,4.715169429779053,-0.02975786291062832,0.012234757654368877,-0.0006457717972807586
-0.457771360874176,8.589245796203613,4.838834762573242,-0.03272492438554764,0.013805554248392582,0.016231561079621315
-0.38803303241729736,8.523809432983398,4.926950931549072,-0.017086774110794067,0.00905825849622488,0.018744835630059242
-0.3137170374393463,8.433998107910156,4.856053829193115,0.009791296906769276,0.028588492423295975,0.006143558770418167
-0.2841629981994629,8.457306861877441,4.8392462730407715,0.011746065691113472,0.029216811060905457,-0.009599311277270317
-0.2590622007846832,8.448860168457031,4.8033528327941895,0.017069319263100624,0.02370157092809677,-0.03256784379482269
-0.36021241545677185,8.473779678344727,4.792684078216553,0.0230383463203907,0.04836307466030121,-0.0406138114631176
-0.49809926748275757,8.534236907958984,4.785702705383301,0.029478611424565315,0.06934192776679993,-0.03422590717673302
-0.523908793926239,8.578107833862305,4.749253273010254,0.03202679008245468,0.08475318551063538,-0.020367993041872978
-0.45952391624450684,8.533777236938477,4.759510040283203,0.03104940801858902,0.10117673873901367,-0.027209682390093803
-0.49051445722579956,8.594571113586426,4.805832862854004,0.03436553105711937,0.12229522317647934,-0.04038691893219948
-0.5856121182441711,8.521615028381348,4.80225133895874,0.06633996218442917,0.10246828198432922,-0.012932890094816685
-0.511267364025116,8.51314926147461,4.698984622955322,0.05279621109366417,0.0832347497344017,-0.019634954631328583
-0.4639962613582611,8.519115447998047,4.660399436950684,0.03881612420082092,0.08066911995410919,-0.030002210289239883
-0.4881872832775116,8.52836799621582,4.6198320388793945,0.02457423508167267,0.11227703094482422,-0.047368235886096954
-0.6212282776832581,8.552760124206543,4.648399829864502,0.017174039036035538,0.11124728620052338,-0.04567526653409004
-0.6679343581199646,8.581019401550293,4.6780686378479,0.006003932561725378,0.09368927031755447,-0.030665434896945953
-0.7185477614402771,8.578328132629395,4.688028812408447,-0.029530970379710197,-0.004590216092765331,-0.05457644537091255
-0.7197640538215637,8.546974182128906,4.683623313903809,-0.030403634533286095,0.0017976891249418259,-0.043074727058410645
-0.7000932693481445,8.625972747802734,4.744292259216309,-0.041346848011016846,0.03394665569067001,-0.040683623403310776
-0.7203769683837891,8.583002090454102,4.82582950592041,-0.03012438304722309,0.028134707361459732,-0.02649409882724285
-1.1565430164337158,8.537521362304688,4.311276912689209,-0.019896753132343292,-0.13522811233997345,0.05523966997861862
-0.18813636898994446,8.862502098083496,4.683374404907227,-0.09026842564344406,0.13868385553359985,0.03516838327050209
-0.7701380252838135,8.422168731689453,5.004120826721191,-0.11683233827352524,0.05590289458632469,-0.03982841223478317
-0.9843616485595703,8.428251266479492,5.348914623260498,-0.05508258938789368,-0.059288833290338516,0.012252211570739746
-0.7857673764228821,8.56506633758545,5.137180805206299,0.045465826988220215,-0.08433430641889572,0.047193702310323715
-0.6190447807312012,8.58777141571045,4.699291229248047,0.0696909949183464,-0.04557054489850998,0.03977605327963829
-0.604124128818512,8.546974182128906,4.462035179138184,0.03689625859260559,-0.024347342550754547,0.04080579802393913
-0.5196662545204163,8.496753692626953,4.459133625030518,-0.00938987173140049,-0.015498523600399494,0.037367500364780426
-0.4672045111656189,8.463138580322266,4.562830924987793,-0.041748274117708206,-0.0076445420272648335,0.02715732343494892
-0.4490085542201996,8.424391746520996,4.666615009307861,-0.058712877333164215,0.01516691129654646,0.011152653954923153
-0.46494436264038086,8.405390739440918,4.834582328796387,-0.06920230388641357,0.023631757125258446,-0.008028514683246613
-0.5407639741897583,8.42723560333252,4.957759380340576,-0.06323327869176865,0.015376350842416286,-0.014433872886002064
-0.6220710277557373,8.436957359313965,5.138368606567383,-0.025621432811021805,0.005777040030807257,-0.02258456125855446
-0.696473240852356,8.48151683807373,5.100310325622559,0.03070034086704254,-0.005794493015855551,-0.01710422709584236
-0.6826539039611816,8.477888107299805,4.971061706542969,0.06792821735143661,-0.004328416660428047,-0.007435102481395006
-0.6654252409934998,8.517890930175781,4.738508224487305,0.07553785294294357,0.007051130291074514,-0.008203047327697277
-0.6955059766769409,8.55412769317627,4.618692398071289,0.05797983705997467,0.0007853981805965304,-0.010908307507634163
-0.7377205491065979,8.552547454833984,4.53765344619751,0.02555162087082863,-0.012601276859641075,-0.0023561944253742695
-0.6608188152313232,8.593728065490723,4.530231475830078,-0.0015358896926045418,-0.00808087456971407,0.003508111694827676
-0.6453043818473816,8.563273429870605,4.550209045410156,-0.020577432587742805,0.0031939526088535786,0.005148721393197775
-0.593742847442627,8.539907455444336,4.641629219055176,-0.04703662171959877,0.009634217247366905,-0.00043633230961859226
-0.5792531371116638,8.527475357055664,4.822257041931152,-0.05291838198900223,0.008185594342648983,-0.0024085543118417263
-0.6634236574172974,8.487751960754395,5.003307819366455,-0.0293738916516304,0.002687806962057948,-0.002460914198309183
-0.6607038974761963,8.45874309539795,5.025055885314941,0.002687806962057948,0.0028797932900488377,0.006684611085802317
-0.6086060404777527,8.489360809326172,4.942953586578369,0.035674531012773514,-0.012636183761060238,0.0005061454721726477
-0.5940492749214172,8.471288681030273,4.8415350914001465,0.051801372319459915,-0.02727949619293213,-0.006702064536511898
-0.6238523125648499,8.492359161376953,4.671125411987305,0.05602506920695305,-0.009180432185530663,-0.013439035043120384
-0.6781336665153503,8.538776397705078,4.5906805992126465,0.04199262335896492,0.0010122909443452954,-0.007609635591506958
-0.7083101868629456,8.565296173095703,4.5532636642456055,0.011414453387260437,-0.009267698042094707,-0.007958701811730862
-0.7108193039894104,8.567899703979492,4.623050212860107,-0.014224433340132236,-0.02422516979277134,-0.0022165682166814804
-0.7095551490783691,8.552319526672363,4.677608966827393,-0.0080634206533432,-0.01864011585712433,-0.002914699725806713
-0.8585798740386963,8.71357250213623,4.330267906188965,0.005305801052600145,0.054506633430719376,0.03769911080598831
-0.31704017519950867,8.597684860229492,4.56706428527832,-0.09978047013282776,0.08159413933753967,0.02275909297168255
-0.6967701315879822,8.22673511505127,5.043433666229248,-0.14463543891906738,-0.0996408462524414,-0.043336525559425354
-0.6572466492652893,8.519172668457031,5.3895392417907715,-0.05639158934354782,-0.05605997517704964,-0.005078908056020737
-0.6012797951698303,8.526068687438965,5.241922378540039,0.017435839399695396,0.0019024088978767395,0.00043633230961859226
-0.5937524437904358,8.457881927490234,4.8299665451049805,0.10058332234621048,0.03260274976491928,0.011414453387260437
-0.5161898732185364,8.434782028198242,4.601856708526611,0.049235738813877106,-0.024591689929366112,-0.011641345918178558
-0.5927277207374573,8.492396354675293,4.6086955070495605,0.026284659281373024,-0.02914699912071228,-0.028291787952184677
-0.6977086663246155,8.51510238647461,4.480298042297363,0.06009168550372124,0.008325220085680485,-0.022200588136911392
-0.7734037041664124,8.762472152709961,4.027047157287598,0.037891097366809845,0.13674654066562653,0.011903145350515842
-0.5946526527404785,8.571911811828613,4.265011787414551,-0.14081315696239471,0.027977628633379936,-0.004136430099606514
-0.6639312505722046,8.355926513671875,5.1454267501831055,-0.22155208885669708,-0.15652112662792206,-0.04646066576242447
-0.7855949997901917,8.47070598602295,5.658743381500244,-0.05511749908328056,-0.045779984444379807,-0.034348078072071075
-0.6435709595680237,8.467495918273926,5.057501792907715,0.12688542902469635,0.07339109480381012,0.014905111864209175
-0.5632981657981873,8.426248550415039,4.798640727996826,0.13433799147605896,0.03481931984424591,0.011466813273727894
-0.44472774863243103,8.404595375061035,4.583459377288818,0.063372902572155,-0.03618067502975464,-0.029112091287970543
-0.5394710898399353,8.512908935546875,4.627771377563477,0.04541346803307533,-0.020839231088757515,-0.04387757554650307
-0.6309391856193542,8.566568374633789,4.5443572998046875,0.041172318160533905,0.022794000804424286,-0.03972369432449341
-0.7914559841156006,8.546534538269043,4.800987243652344,-0.0091455252841115,-0.00029670598451048136,-0.052551861852407455
-0.8572773933410645,8.601810455322266,4.865180492401123,0.0002617993741296232,-0.06832963973283768,-0.0411897711455822
-0.9458532929420471,8.623971939086914,4.752260208129883,0.010506882332265377,-0.11091567575931549,-0.03159045800566673
-1.260317325592041,8.675896644592285,4.099419116973877,-0.0007679448463022709,-0.2624451518058777,0.029827676713466644
-0.4523317217826843,8.791786193847656,4.469236850738525,-0.1546536237001419,0.09971065819263458,0.04317944496870041
-0.7973936200141907,8.458465576171875,5.0229010581970215,-0.15824900567531586,-0.08047713339328766,-0.01776745170354843
-0.8175144791603088,8.468147277832031,5.42329740524292,-0.12974777817726135,-0.06417575478553772,0.02419026382267475
-0.3963935971260071,8.365771293640137,4.916828155517578,0.08815658092498779,0.03047344833612442,0.03363249450922012
-0.39930495619773865,8.294778823852539,4.737359046936035,0.0648040771484375,0.003543018363416195,-0.008604473434388638
-0.5351998209953308,8.438928604125977,4.688268184661865,0.039444439113140106,-0.012252211570739746,-0.026965336874127388
-0.5974299311637878,8.362802505493164,5.0658721923828125,-0.17680184543132782,-0.11876965314149857,-0.07127925008535385
-1.0102477073669434,8.460342407226562,5.471056938171387,-0.057595863938331604,-0.06518805027008057,-0.03242821618914604
-0.7434666156768799,8.590136528015137,4.971655368804932,0.1454208344221115,0.061138883233070374,0.034260813146829605
-0.6215443015098572,8.459968566894531,4.503761291503906,0.08424704521894455,0.01603957638144493,0.02768092229962349
-0.5420472621917725,8.439627647399902,4.5658955574035645,0.0009250245057046413,-0.047630034387111664,-0.008813912980258465
-0.5849226117134094,8.516988754272461,4.703514575958252,-0.009494591504335403,-0.045605454593896866,-0.011397000402212143
-0.5362628698348999,8.546753883361816,4.680367469787598,0.011013027280569077,0.0009599310578778386,0.0010471974965184927
-0.44713151454925537,8.48146915435791,4.639943599700928,-0.006457718089222908,0.03361504152417183,-0.014381512999534607
-0.5028972625732422,8.399491310119629,4.823655605316162,-0.020874137058854103,0.01891936920583248,-0.04057890549302101
-0.6722726821899414,8.422130584716797,5.018131732940674,0.010890854522585869,0.01012290921062231,-0.05489060655236244
-0.7719576358795166,8.5307035446167,5.038127899169922,0.07333873212337494,0.03234095126390457,-0.05002113804221153
-0.8544426560401917,8.589064598083496,4.91051721572876,0.11901400238275528,0.07319910824298859,-0.03265510872006416
-0.8916581273078918,8.625216484069824,4.6109161376953125,0.10232865065336227,0.026389379054307938,-0.01638864167034626
-0.8700145483016968,8.658419609069824,4.45700740814209,0.048659779131412506,-0.0478045679628849,-0.0062831854447722435
-0.6615657806396484,8.66048812866211,4.406997203826904,-0.10913543403148651,0.0815068781375885,0.03405137360095978
-0.7209611535072327,8.500757217407227,4.877726078033447,-0.11184069514274597,-0.03267256170511246,0.033283427357673645
-0.6352295875549316,8.503697395324707,5.030725002288818,-0.09375908970832825,-0.035587262362241745,0.03632030263543129
-0.7196778655052185,8.599120140075684,4.55479621887207,0.015585790388286114,-0.029443703591823578,0.02710496261715889
-0.6415311098098755,8.570610046386719,4.468624114990234,-0.01860520988702774,-0.007504915818572044,0.018570303916931152
-0.7133092880249023,8.540040969848633,4.4799723625183105,-0.06148795038461685,-0.018570303916931152,0.016283921897411346
-0.7310550808906555,8.509137153625488,4.590364456176758,-0.0887150838971138,-0.033126350492239,0.025307273492217064
-0.727856457233429,8.578386306762695,4.711367607116699,-0.10306169092655182,-0.020315632224082947,0.030717793852090836
-0.7166132926940918,8.564279556274414,4.77889347076416,-0.11430161446332932,-0.02617993950843811,0.04122467711567879
-0.6780858039855957,8.540020942687988,4.820648193359375,-0.12257447093725204,-0.024155355989933014,0.049637164920568466
-0.6196385025978088,8.514931678771973,4.910363674163818,-0.1172337681055069,-0.019320795312523842,0.0469493567943573
-0.6212570071220398,8.478011131286621,5.035216808319092,-0.09499827027320862,0.006318091880530119,0.03940953314304352
-0.6325384974479675,8.442605972290039,5.071331024169922,-0.05593780055642128,0.00015707963029854,0.05164429172873497
-0.5333898067474365,8.406042098999023,4.995789051055908,-0.04482005536556244,-0.038781214505434036,0.05424483120441437
-0.3849110007286072,8.356654167175293,4.901534080505371,-0.05752605199813843,-0.051626838743686676,0.03237585723400116
-0.3867305815219879,8.333901405334473,4.9524922370910645,-0.04654793068766594,-0.023265238851308823,0.005846852902323008
-0.6990972757339478,8.494235038757324,4.938241958618164,0.0016755161341279745,0.006475171539932489,-0.018099064007401466
-0.6800873279571533,8.4952974319458,4.911465167999268,0.012897983193397522,0.0240506362169981,-0.0013788101496174932
-0.6572849750518799,8.527944564819336,4.876394748687744,-0.0011868239380419254,0.009424777701497078,-0.0013089969288557768
-0.6918284893035889,8.496734619140625,4.974547386169434,-0.00923279207199812,-0.014032446779310703,0.00047123889089562
-0.750706672668457,8.509356498718262,5.049361705780029,0.010384708642959595,-0.015044738538563251,0.016318827867507935
-0.7498447895050049,8.529017448425293,5.045827865600586,0.02338741160929203,-0.003926991019397974,0.027262043207883835
-0.9208003878593445,8.486678123474121,5.134375095367432,0.20099212229251862,-0.2779960334300995,0.06103416532278061
-0.4043327569961548,8.758956909179688,4.19731330871582,0.06433283537626266,0.19650661945343018,0.12610003352165222
0.006837839726358652,8.623963356018066,4.111313343048096,-0.06944665312767029,0.23080234229564667,0.06330309063196182
-0.6636056303977966,8.159592628479004,4.805267810821533,-0.23870867490768433,-0.10735519975423813,-0.0671253651380539
-0.7193426489830017,8.373807907104492,5.677619457244873,-0.12632693350315094,-0.08215264976024628,0.020315632224082947
-0.48925989866256714,8.517333984375,5.765888690948486,-0.007051130291074514,-0.03473205119371414,0.028099801391363144
-0.5379100441932678,8.502059936523438,5.28225040435791,0.1578475832939148,0.051487211138010025,0.04707153141498566
-0.5794733762741089,8.487961769104004,4.837043762207031,0.1256113499403,0.0020420351065695286,0.058398716151714325
-0.5973532795906067,8.458532333374023,4.796141147613525,0.04977678880095482,-0.07405432313680649,0.05602506920695305
-0.5426027178764343,8.460217475891113,4.8304643630981445,0.035150930285453796,-0.08780751377344131,0.0547335259616375
-0.4425921142101288,8.534419059753418,4.7931342124938965,0.02825688011944294,-0.05979498103260994,0.0665144994854927
-0.31445443630218506,8.413262367248535,4.7051520347595215,0.023980824276804924,-0.06195918843150139,0.06457718461751938
-0.20624610781669617,8.331965446472168,4.651876449584961,-0.0009773843921720982,-0.05541420355439186,0.03553490340709686
-0.19748333096504211,8.359258651733398,4.685912132263184,-0.015830136835575104,-0.03300417587161064,0.01961750164628029
-0.328484445810318,8.368281364440918,4.67270565032959,-0.041399210691452026,-0.01679006777703762,-0.00094247778179124
-0.3274405896663666,8.392672538757324,4.7829155921936035,-0.04708898440003395,0.0022689281031489372,-0.018273597583174706
-0.3975811302661896,8.425511360168457,4.868226051330566,-0.040858156979084015,0.014049900695681572,-0.02687807008624077
-0.6016149520874023,8.534008026123047,4.976041793823242,-0.025569073855876923,0.004398229531943798,-0.02342231757938862
-0.644729733467102,8.622688293457031,5.0251994132995605,-0.009878563694655895,-0.020088739693164825,-0.0019198621157556772
-0.6058000326156616,8.570868492126465,5.028254508972168,0.0019024088978767395,-0.018936822190880775,0.01045452244579792
-0.6095541715621948,8.527322769165039,4.9522624015808105,0.004590216092765331,-0.013002702966332436,0.02453932911157608
-0.5832753777503967,8.519824028015137,4.910976886749268,-0.0003316125657875091,-0.009250245057046413,0.03747221827507019
-0.4586811363697052,8.49161148071289,4.913667678833008,-0.025534166023135185,-0.019861847162246704,0.04649557173252106
-0.3587280213832855,8.46986198425293,4.996420860290527,-0.027035150676965714,-0.049759335815906525,0.04014257341623306
-0.3147513270378113,8.41689395904541,4.936776638031006,-0.007382742594927549,-0.04729842394590378,0.03462733328342438
-0.28110799193382263,8.36960220336914,4.88578987121582,0.0015009831404313445,-0.05647885426878929,0.02045525796711445
-0.18345330655574799,8.353388786315918,4.749396800994873,0.03223622962832451,0.013386675156652927,0.00038397242315113544
-0.2331952303647995,8.323528289794922,4.70688533782959,-0.013089969754219055,-0.019879300147294998,-0.018221236765384674
-0.27371469140052795,8.414010047912598,4.828874588012695,-0.033597588539123535,-0.009512044489383698,-0.040020398795604706
-0.4221360385417938,8.516146659851074,4.944639205932617,-0.022567106410861015,0.023492131382226944,-0.04689699783921242
-0.5039411187171936,8.52830982208252,4.956064224243164,-0.016109388321638107,0.028955012559890747,-0.039130281656980515
-0.5467302799224854,8.526318550109863,4.984200954437256,-0.017837265506386757,-0.0066147977486252785,-0.02710496261715889
-0.6024385690689087,8.566032409667969,4.982237815856934,-0.01776745170354843,-0.022357666864991188,-0.012060225009918213
-0.5576286911964417,8.535701751708984,5.007539749145508,-0.009267698042094707,-0.00094247778179124,0.017243852838873863
-0.5152609348297119,8.518991470336914,5.042255401611328,-0.0003490658418741077,0.0005061454721726477,0.025045474991202354
-0.40100961923599243,8.465015411376953,4.98469877243042,0.015620696358382702,-0.011327186599373817,0.03577924892306328
-0.2296326607465744,8.389090538024902,4.900509357452393,0.012147491797804832,-0.0019373154500499368,0.020926497876644135
-0.24045445024967194,8.34532642364502,4.877381324768066,0.004502949304878712,-0.0014486232539638877,0.0021816615480929613
-0.3055671751499176,8.362334251403809,4.8929243087768555,0.013159782625734806,0.011397000402212143,-0.0039618974551558495
-0.4960019588470459,8.493171691894531,4.966369152069092,-0.0015707963611930609,-0.011972958222031593,-0.02206096239387989
-0.47800713777542114,8.468032836914062,4.978330612182617,0.013159782625734806,-0.016929693520069122,-0.0067544239573180676
-0.4358883500099182,8.525331497192383,4.8476738929748535,0.021275563165545464,0.020472712814807892,-0.00013962633966002613
-0.26806437969207764,8.400046348571777,4.885014057159424,-0.0077667152509093285,-0.0005235987482592463,-0.009005898609757423
-0.280638724565506,8.422648429870605,4.936115741729736,-0.012793263420462608,-0.006370451766997576,-0.025324726477265358
-0.39972633123397827,8.42737102508545,4.981088638305664,0.00027925267932005227,-0.0007504915702156723,-0.03286454826593399
-0.6239959597587585,8.437463760375977,5.0793561935424805,0.08993681520223618,-0.014608405530452728,-0.014137166552245617
-0.48063117265701294,8.582283973693848,4.637875080108643,0.07347836345434189,0.09588839113712311,0.024958208203315735
-0.20989486575126648,8.430204391479492,4.575108528137207,-0.07349581271409988,-0.005462880712002516,-0.03504621237516403
-0.4203643500804901,8.270567893981934,4.776700496673584,-0.1206895187497139,-0.0731467455625534,-0.06892304867506027
-0.5965105295181274,8.49106502532959,5.319829940795898,-0.06773623079061508,-0.05852089077234268,-0.03583160787820816
-0.49193182587623596,8.564834594726562,5.186511039733887,0.07325147092342377,0.02241002768278122,0.007522369269281626
-0.35748302936553955,8.477896690368652,4.724430084228516,0.08826129883527756,0.046652652323246,0.01961750164628029
-0.26389849185943604,8.359652519226074,4.568089008331299,0.0005235987482592463,-0.005619960371404886,-0.012775810435414314
-0.3644740879535675,8.422743797302246,4.8141937255859375,-0.04715879634022713,-0.020141098648309708,-0.03586651757359505
-0.41913852095603943,8.461913108825684,5.010766983032227,-0.022567106410861015,0.007679448463022709,-0.036023594439029694
-0.4830158054828644,8.490300178527832,5.048317909240723,0.014364060014486313,0.014625859446823597,-0.025411993265151978
-0.49040910601615906,8.473902702331543,5.002598285675049,0.028291787952184677,0.00617846567183733,-0.023544492200016975
-0.5208633542060852,8.440872192382812,5.019137382507324,0.03796090930700302,0.0015009831404313445,-0.026389379054307938
-0.5237172245979309,8.46999740600586,4.990742206573486,0.05691518634557724,0.004380776546895504,-0.024172810837626457
-0.44633662700653076,8.455046653747559,4.91100549697876,0.07246606796979904,0.008883725851774216,-0.02254965342581272
-0.44850099086761475,8.436945915222168,4.850307464599609,0.089884452521801,0.0190066359937191,-0.03464478626847267
-0.4477061331272125,8.458388328552246,4.711549282073975,0.07147122919559479,-0.00815068744122982,-0.03441789373755455
-0.4278629720211029,8.458876609802246,4.654576778411865,0.03796090930700302,-0.033737216144800186,-0.05092870816588402
-0.642890989780426,8.671635627746582,4.333859443664551,-0.11730358004570007,0.11396999657154083,0.02954842336475849
-0.37013399600982666,8.34667682647705,5.303635597229004,-0.17957693338394165,-0.11660544574260712,-0.026197392493486404
-0.5029738545417786,8.317946434020996,5.530787467956543,-0.1437104046344757,-0.1454382836818695,-0.04700171574950218
