accX,accY,accZ,gyroX,gyroY,gyroZ
3.867593288421631,6.403475284576416,10.436659812927246,-0.433173269033432,-0.0872839167714119,0.5911779403686523
3.1078076362609863,2.9916603565216064,7.402545928955078,-0.8346688151359558,-0.11487757414579391,-1.1303799152374268
1.9734350442886353,3.034238815307617,8.35852336883545,-0.8204443454742432,0.19884535670280457,-1.1395952701568604
0.6662967205047607,3.292659282684326,8.774154663085938,-0.5248379707336426,0.31635838747024536,-1.0738487243652344
-0.0009385270532220602,3.6131949424743652,8.084434509277344,-0.07585200667381287,0.14655528962612152,-0.9824283719062805
-0.2928970456123352,3.7793526649475098,6.722381591796875,0.2545737326145172,-0.06672393530607224,-0.9256877303123474
-0.5341176390647888,4.058918476104736,5.675780296325684,0.34658747911453247,-0.29705503582954407,-0.8815483450889587
-1.1062361001968384,6.087209701538086,10.640608787536621,0.08096582442522049,0.10732029378414154,0.11814133822917938
-1.1104786396026611,6.35200834274292,10.62037181854248,-0.0630587488412857,0.02488839440047741,0.28419196605682373
-0.2602880299091339,6.155750751495361,10.851441383361816,-0.2594780921936035,-0.030682887881994247,0.41772711277008057
-0.025953145697712898,5.288599967956543,11.598864555358887,-0.31871455907821655,-0.22914427518844604,0.4602258801460266
-0.14624741673469543,3.977487087249756,12.707359313964844,-0.08534660190343857,-0.0682772770524025,0.5531646609306335
-0.4650593101978302,3.7134737968444824,12.414443016052246,0.4043404161930084,0.5528679490089417,0.645230770111084
-1.429721474647522,4.3717451095581055,8.392117500305176,0.8655785918235779,0.8348084092140198,0.6988123655319214
-1.6661152839660645,4.463663101196289,6.453771591186523,0.6806085705757141,0.47769662737846375,0.7221823334693909
1.0192307233810425,2.776277780532837,8.353667259216309,-0.34691908955574036,0.027628561481833458,0.6714980006217957
1.3271825313568115,3.0186572074890137,8.443821907043457,-0.31726595759391785,0.4325624108314514,0.6713758111000061
1.5709218978881836,3.2928411960601807,7.7699408531188965,-0.09862855821847916,0.4858472943305969,0.6540272235870361
1.475412368774414,3.132554292678833,7.020480155944824,0.22720696032047272,0.3390476703643799,0.6256656050682068
1.7277038097381592,3.2650301456451416,6.635165691375732,0.38751545548439026,0.3686135411262512,0.5747718214988708
1.839455485343933,4.086164951324463,5.76058292388916,0.588577389717102,0.5321508646011353,0.4355469048023224
1.5267152786254883,5.0530104637146,5.535872936248779,0.5271592736244202,0.4335746765136719,0.372191458940506
1.7493281364440918,5.172950267791748,5.69675350189209,0.4697379171848297,0.39189621806144714,0.3481757342815399
1.7909489870071411,5.009541034698486,6.368882656097412,0.4172907769680023,0.29370400309562683,0.3026575446128845
0.8746976256370544,5.992332458496094,7.761091709136963,0.5223596096038818,0.5311909317970276,0.2249729335308075
1.3550032377243042,6.097418785095215,8.489733695983887,0.37981855869293213,0.18195056915283203,0.011903145350515842
1.2826792001724243,6.924682140350342,8.59974193572998,-0.336935818195343,0.04211479425430298,-0.5050808191299438
1.7041256427764893,6.737264156341553,9.7767333984375,-0.5829399824142456,0.12428489327430725,-0.647499680519104
0.9267666935920715,5.558033466339111,13.079994201660156,-0.4482005536556244,0.21411699056625366,-0.6770830154418945
-0.10843817889690399,5.584714889526367,12.712627410888672,0.04525638744235039,0.10983356833457947,-0.39557886123657227
0.06080314517021179,5.807624340057373,8.931877136230469,0.49583059549331665,-0.6592283248901367,-0.001745329238474369
0.5020545125007629,5.7317280769348145,8.289501190185547,0.557597815990448,-0.8160635828971863,-0.014119713567197323
1.8911319971084595,5.55161714553833,7.003480434417725,0.3873409330844879,-1.2022526264190674,-0.2604729235172272
2.5002455711364746,5.304708003997803,8.148571014404297,-0.7338935136795044,-0.6836280226707458,-0.6300987601280212
1.8376933336257935,4.062615394592285,9.891682624816895,-0.6925989985466003,0.103114053606987,-0.5651376247406006
0.5380058288574219,3.5091238021850586,8.84161376953125,-0.23547981679439545,-0.006056292448192835,-0.5020264983177185
-0.10468406975269318,3.926710844039917,7.269859313964844,0.004345869645476341,-0.2476796805858612,-0.48659780621528625
-0.4160260558128357,4.534330368041992,5.8865275382995605,0.07470009475946426,-0.352573961019516,-0.4876275360584259
-0.523161768913269,4.3807854652404785,5.682656764984131,0.04642575979232788,-0.48404961824417114,-0.4461934268474579
-0.08390240371227264,4.468949794769287,6.099065780639648,0.16742943227291107,-0.1866455078125,-0.3799232840538025
0.0054587796330451965,4.799014091491699,6.286790370941162,0.21032962203025818,-0.02254965342581272,-0.39165186882019043
0.2909433841705322,5.649750709533691,6.100435256958008,0.16193164885044098,0.07953465729951859,-0.5046095848083496
-0.6825293898582458,5.531132221221924,6.702212810516357,0.024783674627542496,0.03190461918711662,-0.49122291803359985
-1.2590723037719727,5.290639877319336,7.726921558380127,-0.060842178761959076,0.08953539282083511,-0.32991957664489746
-1.0702368021011353,5.9373040199279785,9.049315452575684,0.005340707488358021,-0.0003490658418741077,-0.12159708887338638
-0.5860335230827332,6.4424519538879395,9.758076667785645,0.19519762694835663,-0.07503170520067215,0.029932396486401558
-0.6718800067901611,6.338524341583252,9.6976957321167,0.10892599821090698,-0.04461061581969261,0.1431344449520111
-0.9329437613487244,6.408923149108887,9.531335830688477,-0.018186330795288086,0.05686282739043236,0.2862165570259094
-1.0718936920166016,7.1381683349609375,9.439408302307129,-0.2143089771270752,-0.05159193277359009,0.42877504229545593
-0.6457831859588623,7.433852195739746,9.469459533691406,-0.5061105489730835,-0.18697711825370789,0.5379802584648132
-0.18701587617397308,6.893653392791748,10.094892501831055,-0.8558570742607117,-0.335906058549881,0.5319588780403137
-0.4011628329753876,5.381303310394287,13.085039138793945,-0.8470432162284851,-0.3819478452205658,0.6239203214645386
-0.7044985890388489,4.184757709503174,9.744324684143066,0.5552590489387512,1.2938300371170044,0.9365785717964172
-1.0559769868850708,5.0386834144592285,7.176906585693359,0.5734803080558777,1.080498456954956,0.826657772064209
-1.6894826889038086,5.30825138092041,6.077690124511719,0.12922418117523193,0.4740314185619354,0.7855028510093689
-0.6026396751403809,3.255185127258301,8.372504234313965,-0.4412890374660492,0.1388583928346634,0.8928406238555908
0.3199898302555084,2.708292007446289,8.97335433959961,-0.25134485960006714,0.07974409312009811,1.0055888891220093
1.5685659646987915,3.0241830348968506,6.8068013191223145,0.18050195276737213,0.21952751278877258,0.9391093254089355
1.743026614189148,3.4225974082946777,6.0114665031433105,0.24909338355064392,0.25335198640823364,0.7944389581680298
1.6143527030944824,3.746303081512451,5.544645309448242,0.29958575963974,0.314508318901062,0.6800326108932495
1.5379010438919067,4.072623252868652,5.372511863708496,0.283912718296051,0.3026924431324005,0.5959776043891907
1.612446904182434,4.54152250289917,5.62191104888916,0.1860869973897934,0.31780698895454407,0.5782101154327393
2.002682685852051,4.913821220397949,6.187019348144531,0.06206390634179115,0.36013123393058777,0.5356066226959229
2.3339731693267822,5.026434898376465,6.778463363647461,-0.018360864371061325,0.29455921053886414,0.3961024582386017
2.2460579872131348,5.125679016113281,7.270423889160156,-0.06974335759878159,0.2836334705352783,0.2312910258769989
1.738468050956726,5.47652530670166,7.3764777183532715,-0.07845254987478256,0.36280158162117004,0.07044149190187454
0.9709541201591492,5.798105239868164,7.91459846496582,-0.09700539708137512,0.1679355800151825,-0.03932226821780205
0.9918219447135925,5.7522993087768555,8.541390419006348,-0.2108357697725296,-0.13299408555030823,-0.14213961362838745
1.4651076793670654,5.350523471832275,9.496590614318848,-0.389958918094635,-0.233839213848114,-0.23172736167907715
1.6375572681427002,5.02446174621582,10.473894119262695,-0.4968777894973755,-0.1443038284778595,-0.23809781670570374
1.7123616933822632,5.248157024383545,10.730428695678711,-0.4674515426158905,-0.07494443655014038,-0.2110975682735443
1.8997894525527954,6.192612171173096,10.383383750915527,-0.3090628981590271,-0.03942698612809181,-0.2180090695619583
2.178072214126587,6.273086071014404,9.969886779785156,-0.24146629869937897,-0.157254159450531,-0.2759365439414978
1.8830586671829224,4.707986831665039,11.120914459228516,-0.34168311953544617,-0.1881115883588791,-0.4953767955303192
1.8198422193527222,4.289231300354004,9.139586448669434,0.10990338027477264,-0.6346017122268677,-0.5349608659744263
1.5637105703353882,3.83417010307312,8.210714340209961,0.14327408373355865,-0.7416602373123169,-0.5545958280563354
2.40521502494812,3.724592447280884,7.629295825958252,-0.23546236753463745,-0.29305824637413025,-0.6192253828048706
0.9892745018005371,3.0434134006500244,8.841317176818848,-0.46352455019950867,0.22390829026699066,-0.695758044719696
0.12325350195169449,3.02770733833313,8.514087677001953,-0.20067796111106873,-0.004433136433362961,-0.6332752704620361
-0.08402690291404724,3.235208034515381,7.521892070770264,0.03680899366736412,-0.1071457639336586,-0.5740038752555847
-0.09507853537797928,3.474024772644043,6.653141498565674,0.13816025853157043,-0.016353735700249672,-0.5480333566665649
-0.10790187865495682,3.340916872024536,5.731354713439941,0.1756673902273178,-0.06377433240413666,-0.49556878209114075
-0.1281089335680008,4.268152713775635,5.675723075866699,0.2647838890552521,-0.25132742524147034,-0.44596654176712036
-0.4362426996231079,5.163019180297852,6.372474193572998,0.20041616261005402,0.17460273206233978,-0.4006054103374481
-0.31796911358833313,5.241893768310547,6.593372821807861,0.08009316027164459,0.2895152270793915,-0.3897320330142975
-0.29334715008735657,4.9174604415893555,7.486266136169434,-0.06745697557926178,0.37168532609939575,-0.3320139944553375
-0.5860239267349243,4.558090686798096,8.222013473510742,0.02658136375248432,0.23743459582328796,-0.1976236253976822
-0.9120184183120728,5.142026901245117,8.861773490905762,0.3461337089538574,0.17205455899238586,-0.04956734925508499
-0.8230786323547363,5.51215124130249,9.484380722045898,0.46795767545700073,0.3614751398563385,0.010576695203781128
-0.46950292587280273,5.415310382843018,10.033456802368164,0.5786988139152527,0.5875476598739624,0.14742796123027802
-0.3282163143157959,5.591619491577148,10.224639892578125,0.6437821388244629,0.5871636867523193,0.24073326587677002
-0.8129367828369141,6.067223072052002,10.068699836730957,0.5222199559211731,0.5862735509872437,0.3482978940010071
-0.8526326417922974,6.597720623016357,9.757146835327148,0.2232450693845749,0.5257455110549927,0.3962944447994232
-1.2334448099136353,6.896746635437012,9.806228637695312,-0.010262535884976387,0.44116687774658203,0.4412890374660492
-1.1955972909927368,6.857060432434082,10.039069175720215,-0.1269901543855667,0.3139672875404358,0.4947659373283386
-1.7173799276351929,5.535078048706055,10.244503021240234,-0.11918853223323822,0.3954043388366699,0.566307008266449
-2.2462782859802246,4.197322845458984,10.938322067260742,-0.028553586453199387,0.6931226253509521,0.6573782563209534
-2.9491870403289795,4.780167102813721,10.684009552001953,0.028204521164298058,1.140328288078308,0.8471653461456299
-3.001342296600342,5.886632919311523,8.71800708770752,0.06902777403593063,1.25696861743927,0.9634915590286255
-2.2719345092773438,5.304267406463623,8.333832740783691,0.1518087387084961,0.23551473021507263,0.9456194043159485
-1.8549315929412842,4.946334362030029,8.094680786132812,0.11568041890859604,-0.05309291556477547,0.8427322506904602
-1.686935305595398,4.155452728271484,7.059743881225586,-0.0377340167760849,-0.08972737938165665,0.6941348910331726
-1.4156339168548584,3.241136074066162,7.264017105102539,-0.2709798216819763,-0.2644173800945282,0.6289643049240112
-1.057921051979065,3.2242138385772705,8.11335563659668,-0.38379791378974915,-0.3292389214038849,0.7557275891304016
-0.09696516394615173,3.391070604324341,8.446197509765625,-0.3292738199234009,-0.2998999357223511,0.9107477068901062
0.24589407444000244,3.411325454711914,8.278861999511719,-0.22340214252471924,-0.23596851527690887,0.921254575252533
1.0205811262130737,3.3424012660980225,6.2857561111450195,0.2777516841888428,-0.11767009645700455,0.7195817828178406
1.112460970878601,3.6598148345947266,5.6548171043396,0.3450690507888794,-0.15330971777439117,0.5842838883399963
1.2215025424957275,4.210319519042969,5.2544965744018555,0.19942131638526917,-0.09862855821847916,0.4977678954601288
1.5413774251937866,4.5745530128479,5.7677178382873535,-0.09267698228359222,-0.1313360184431076,0.410641074180603
1.576399803161621,4.709107398986816,6.76751708984375,-0.27488934993743896,-0.017837265506386757,0.3263940215110779
1.4136515855789185,5.422857284545898,8.809053421020508,-0.09248499572277069,0.05031784251332283,0.1682148277759552
1.3878612518310547,5.97288179397583,9.051749229431152,0.07562511414289474,0.0230383463203907,0.014643312431871891
1.4831217527389526,5.810526371002197,9.174235343933105,0.132505401968956,-0.16900023818016052,-0.14536847174167633
1.7332870960235596,5.480806350708008,9.550586700439453,0.060039326548576355,-0.31351348757743835,-0.2551496922969818
2.0204474925994873,5.344557285308838,9.831032752990723,-0.033126350492239,-0.26940903067588806,-0.3122219443321228
1.9708205461502075,6.19191312789917,9.712386131286621,-0.0659385398030281,-0.2863038182258606,-0.32765066623687744
1.9185408353805542,6.522456169128418,9.337520599365234,-0.08677776902914047,-0.22588050365447998,-0.35044464468955994
1.7909010648727417,6.109944820404053,9.909725189208984,-0.1932428479194641,-0.0067544239573180676,-0.413590669631958
1.3198658227920532,5.4473161697387695,10.642350196838379,-0.3536560535430908,0.37662458419799805,-0.40051814913749695
1.1907609701156616,5.087256908416748,10.992238998413086,-0.41430625319480896,0.4514119625091553,-0.3624001741409302
1.0524336099624634,4.68739652633667,11.073355674743652,-0.3736226260662079,0.26717498898506165,-0.2892010509967804
1.2791357040405273,4.760190010070801,9.382253646850586,0.10236355662345886,-0.6641850471496582,-0.3421019911766052
1.5145623683929443,4.216868877410889,7.806801795959473,-0.07004006206989288,-0.6760009527206421,-0.4778187870979309
1.5313122272491455,3.6683669090270996,7.815612316131592,-0.3280870020389557,-0.167062908411026,-0.4265235662460327
0.1702851951122284,3.584981679916382,7.489839553833008,-0.21406462788581848,-0.025534166023135185,-0.2295282483100891
0.10413819551467896,3.8149495124816895,6.872890949249268,0.052551861852407455,-0.12747885286808014,-0.2358637899160385
-0.29972532391548157,3.8363728523254395,6.034010410308838,0.2607347369194031,0.06679374724626541,-0.26220080256462097
-0.6310445070266724,4.099763870239258,5.346510887145996,0.3202155530452728,0.08552113175392151,-0.2489013969898224
-0.7807108163833618,4.565454959869385,5.217703819274902,0.23059290647506714,-0.01572541706264019,-0.17098990082740784
-0.6561166048049927,4.825599670410156,5.632454872131348,0.11629128456115723,-0.10213666409254074,-0.1195201501250267
-0.7732887864112854,4.939228534698486,6.471622467041016,-0.009651671163737774,-0.1849350929260254,-0.08693484961986542
-0.7802320122718811,4.999696254730225,7.666559219360352,-0.0915774255990982,-0.21640338003635406,-0.042184606194496155
-0.4566029906272888,5.411891460418701,8.84095287322998,-0.028850292786955833,-0.1298699527978897,0.01333431527018547
-0.26977863907814026,5.167329788208008,9.22754955291748,0.10444050282239914,-0.0022165682166814804,0.017243852838873863
-0.4662659764289856,5.0565056800842285,9.496438026428223,0.15856316685676575,0.025097833946347237,0.024504423141479492
-0.7764970660209656,5.407543659210205,10.398219108581543,0.24593433737754822,0.03429571911692619,0.06927211582660675
-0.49994760751724243,4.958975791931152,10.834097862243652,0.13847441971302032,0.32531192898750305,0.21348866820335388
-0.4555303752422333,5.277701377868652,11.355938911437988,-0.04640830308198929,0.566307008266449,0.3790331482887268
-0.21955786645412445,6.461787223815918,11.012639045715332,-0.10559242218732834,0.5066691040992737,0.5166348814964294
-0.4187746047973633,5.382759094238281,10.198447227478027,-0.21437878906726837,0.022218041121959686,0.5605299472808838
-1.012862205505371,4.606491565704346,11.643528938293457,-0.0625002384185791,0.6255085468292236,0.6484072804450989
-1.5749346017837524,4.311219692230225,11.145746231079102,0.20146335661411285,1.1919552087783813,0.7863929867744446
-0.3541598916053772,3.144850730895996,8.386696815490723,0.11735593527555466,-0.17172294855117798,1.1381641626358032
0.32926976680755615,2.6799638271331787,7.977307319641113,0.24090780317783356,-0.0011344640515744686,1.1768929958343506
0.8181082606315613,2.862440347671509,7.201068878173828,0.4298047721385956,0.1272868663072586,1.2005945444107056
1.5785449743270874,3.1695780754089355,6.079195022583008,0.49501028656959534,0.08115781098604202,1.1217056512832642
2.1469762325286865,3.749032497406006,5.318728446960449,0.3159744143486023,-0.047595128417015076,0.9463174939155579
2.3530309200286865,4.213526725769043,5.642194747924805,0.11630874127149582,-0.026389379054307938,0.7735299468040466
2.3648200035095215,4.139832973480225,6.482645511627197,0.10318386554718018,-0.0504051074385643,0.6439566612243652
2.271608829498291,4.118419170379639,6.588449954986572,0.23113395273685455,-0.05441936478018761,0.5523967146873474
1.8823691606521606,5.11754846572876,6.04559850692749,0.21148154139518738,0.11684979498386383,0.27227136492729187
1.4582698345184326,5.3491058349609375,6.508646488189697,0.11726867407560349,0.06579891592264175,0.2088111937046051
1.8305394649505615,5.707929611206055,6.8590521812438965,0.026633724570274353,-0.09644689410924911,0.08878489583730698
1.753810167312622,6.1203932762146,8.11999225616455,-0.09566149860620499,-0.33368951082229614,-0.029653143137693405
1.948774814605713,5.860459804534912,9.300948143005371,-0.21043434739112854,-0.4449542462825775,-0.019896753132343292
2.6988399028778076,5.541638374328613,10.151962280273438,-0.246580109000206,-0.42577308416366577,-0.03185226023197174
3.1450231075286865,5.98590612411499,9.992086410522461,-0.140533909201622,-0.24401448667049408,-0.2071007639169693
2.1407322883605957,6.622524261474609,9.696612358093262,-0.07770206034183502,-0.007103490177541971,-0.3288723826408386
2.750985622406006,6.913545608520508,10.105685234069824,-0.25045475363731384,-0.1961051970720291,-0.38234928250312805
2.876202344894409,5.918303489685059,11.865863800048828,-0.3977430760860443,0.017208946868777275,-0.4386885166168213
2.3634026050567627,4.867660999298096,12.425236701965332,-0.2903355062007904,-0.009826203808188438,-0.3991917073726654
2.236950397491455,4.885799407958984,11.450489044189453,-0.01539380382746458,-0.37887606024742126,-0.3272841274738312
2.235753297805786,4.9734272956848145,10.755950927734375,0.12157963216304779,-0.5751732587814331,-0.3188716471195221
1.3792707920074463,4.350905895233154,9.89940071105957,0.34264305233955383,-0.7375935912132263,-0.1609891653060913
2.3920469284057617,4.487739562988281,8.892390251159668,0.4093146026134491,-0.6951995491981506,-0.14302973449230194
3.060460090637207,4.9422831535339355,5.456376075744629,0.0884358361363411,-0.08993681520223618,-0.3847927451133728
2.060114622116089,4.3326334953308105,7.643613338470459,-0.36477380990982056,0.5651026964187622,-0.4683067500591278
0.15219460427761078,3.525088310241699,8.879164695739746,-0.38470548391342163,0.75248122215271,-0.3052929937839508
-0.6906217932701111,3.6945881843566895,8.77525806427002,-0.20397663116455078,0.6478487849235535,-0.1704837679862976
-0.29290661215782166,4.426792621612549,7.430798530578613,0.21647319197654724,0.39395570755004883,-0.012636183761060238
0.025148693472146988,4.791745662689209,6.492796897888184,0.34292230010032654,0.15517722070217133,-0.04358087107539177
-0.23895089328289032,4.444021224975586,6.039823532104492,0.4315152168273926,0.025761060416698456,-0.10793115943670273
0.07920976728200912,4.285285472869873,4.920495986938477,0.44285982847213745,0.1258556991815567,-0.23268729448318481
0.10979808866977692,4.92288064956665,4.468413352966309,0.2226341962814331,0.35321974754333496,-0.24296727776527405
-0.20297083258628845,4.979115962982178,5.095426082611084,0.05909684672951698,0.6415480971336365,-0.1667662113904953
0.12479536235332489,5.474313259124756,6.959934711456299,0.46673595905303955,0.6962292790412903,0.289811909198761
0.38711366057395935,5.302304267883301,6.671145915985107,0.6411990523338318,0.8099724054336548,0.30600857734680176
-0.7366670966148376,6.412198543548584,5.8789238929748535,0.024609142914414406,1.0362718105316162,0.2275734841823578
-1.1287511587142944,6.005433559417725,8.720410346984863,-0.3088011145591736,0.7087956666946411,0.21389010548591614
-1.5502263307571411,6.3901143074035645,11.6504545211792,-0.22631683945655823,0.5306673645973206,0.2969154119491577
-1.65383780002594,5.993337631225586,11.590282440185547,-0.0205948855727911,0.42781510949134827,0.43617522716522217
-1.5664782524108887,6.020880699157715,11.542762756347656,0.10442304611206055,0.2154259830713272,0.5212076902389526
-0.5853248238563538,6.798776149749756,10.552376747131348,0.20340067148208618,-0.060842178761959076,0.6096085906028748
-0.2311553806066513,7.58497428894043,8.948538780212402,-0.3147875964641571,-0.2578025758266449,0.4718323051929474
-1.7887941598892212,4.931873321533203,10.17638111114502,-0.09142034500837326,1.2785409688949585,0.9982410669326782
-2.01993989944458,5.450936317443848,8.28933048248291,0.06270968168973923,1.2542983293533325,1.0861183404922485
0.4121953248977661,3.4647257328033447,8.150274276733398,-0.2267008125782013,0.23607324063777924,1.2521166801452637
0.915025532245636,3.4693801403045654,7.617803573608398,-0.06534512341022491,0.182631254196167,1.0901325941085815
2.1337890625,4.687511444091797,6.4319748878479,0.2848028242588043,-0.004764748737215996,0.8103389143943787
2.46803879737854,4.759289741516113,6.242621898651123,0.24474751949310303,0.06745697557926178,0.7495490908622742
2.3780934810638428,4.930264472961426,6.459536552429199,0.14563027024269104,0.2549053430557251,0.6294530034065247
2.303719997406006,5.228428840637207,7.018784046173096,0.03900810703635216,0.3845309317111969,0.4911530911922455
2.125715732574463,5.751035213470459,7.887744903564453,-0.03841469809412956,0.23141320049762726,0.2992192506790161
2.086833953857422,5.852683067321777,9.09913444519043,-0.07731808722019196,-0.12562879920005798,0.11416198313236237
2.6018459796905518,5.475931644439697,10.47325325012207,-0.05187118425965309,-0.43331289291381836,-0.026075219735503197
3.5020945072174072,5.669718265533447,10.676759719848633,-0.002600540639832616,-0.5269323587417603,-0.16521286964416504
4.132181167602539,6.645786285400391,9.83584976196289,0.0052534411661326885,-0.48724356293678284,-0.35929349064826965
4.276503562927246,6.816330432891846,8.705977439880371,-0.1221032366156578,-0.4991118013858795,-0.6529800295829773
3.2821152210235596,5.941450595855713,9.232683181762695,-0.48092547059059143,-0.30457741022109985,-0.8411614298820496
2.399172067642212,5.16022253036499,11.107726097106934,-0.7715402245521545,0.28581511974334717,-0.7321656346321106
2.2141671180725098,4.420098304748535,9.408609390258789,-0.04326671361923218,-0.9141510725021362,-0.5365490913391113
2.3181042671203613,4.125621318817139,8.54710865020752,-0.08930850028991699,-0.6232571005821228,-0.5571439862251282
0.5502545833587646,3.5475268363952637,6.0423808097839355,0.07428121566772461,-0.07956956326961517,-0.7352548241615295
0.07195054739713669,3.7665388584136963,5.165834903717041,0.11287043988704681,-0.14927801489830017,-0.8342673778533936
-0.4556835889816284,4.168879508972168,4.868522644042969,-0.03424336016178131,-0.10074040293693542,-0.8179311156272888
-0.2482595592737198,4.640805244445801,7.502383708953857,-0.2935120165348053,0.08529423922300339,-0.3974114656448364
0.03953305631875992,5.092323303222656,8.454463005065918,-0.24933773279190063,0.002251474652439356,-0.3571292757987976
0.049186479300260544,5.315826892852783,9.142412185668945,-0.1716880351305008,-0.15688765048980713,-0.38180822134017944
-0.04368939250707626,5.280430793762207,9.374218940734863,-0.1359262466430664,-0.21701423823833466,-0.4116359055042267
-0.31216558814048767,4.955231189727783,9.930602073669434,-0.06881833076477051,-0.08503244072198868,-0.4033281207084656
0.6873944401741028,6.306384563446045,10.74837589263916,0.1293463557958603,-0.08119271695613861,0.3376339375972748
0.5548035502433777,5.079557418823242,10.234272956848145,-0.08402015268802643,-0.27930504083633423,0.20722293853759766
-0.8071907162666321,3.838719129562378,7.176111698150635,0.07471754401922226,0.3700447082519531,0.7102617621421814
-0.6051105260848999,3.5215258598327637,7.421775817871094,-0.12487830966711044,0.31410691142082214,0.7084640264511108
-0.12726618349552155,2.6954305171966553,8.157303810119629,-0.3259925842285156,0.2767917513847351,0.7540171146392822
0.35439929366111755,2.3973236083984375,8.523099899291992,-0.19224801659584045,0.30113911628723145,0.7915591597557068
0.6493074893951416,2.7118163108825684,8.31532096862793,0.1526290476322174,0.40025636553764343,0.7923271059989929
0.8981128931045532,3.1066489219665527,7.463473320007324,0.5196194052696228,0.3530626595020294,0.7960970401763916
1.3080097436904907,3.269502639770508,5.784477233886719,0.7890284657478333,0.6704158782958984,0.7862882614135742
2.0696818828582764,4.747290134429932,4.375058650970459,0.3836757242679596,0.05106833204627037,0.390028715133667
1.4239658117294312,5.00083589553833,5.647538661956787,-0.06098180264234543,-0.055658549070358276,0.31864476203918457
1.5764093399047852,4.4625139236450195,6.828627109527588,-0.18706439435482025,-0.08665559440851212,0.2793225049972534
1.76746666431427,4.2743682861328125,7.110577583312988,0.0030717793852090836,-0.10047860443592072,0.17898350954055786
1.7342829704284668,4.463318347930908,7.4759521484375,0.07798130810260773,-0.3750537931919098,0.0031939526088535786
1.4750101566314697,5.720963954925537,8.143762588500977,-0.01335176918655634,-0.4410446882247925,-0.09548696130514145
1.581858515739441,5.641696453094482,8.802963256835938,-0.18624408543109894,-0.7063871026039124,-0.21821852028369904
1.9664630889892578,5.231819152832031,9.449589729309082,-0.2686934471130371,-1.075279951095581,-0.3352428376674652
2.7174665927886963,5.00830602645874,9.938034057617188,-0.2588846981525421,-1.2071744203567505,-0.46294859051704407
3.5178003311157227,5.770360946655273,10.388382911682129,-0.17547540366649628,-1.253879427909851,-0.4982914924621582
3.5926334857940674,6.237268447875977,10.64704418182373,-0.008325220085680485,-0.7826231122016907,-0.5760284662246704
2.8353188037872314,6.287747859954834,10.272045135498047,-0.18010053038597107,-0.12100367993116379,-0.5582610368728638
2.1954541206359863,5.129261016845703,10.200860023498535,-0.5736373662948608,0.16552703082561493,-0.5051332116127014
2.087561845779419,4.774392127990723,10.675535202026367,-0.7050257325172424,0.18931587040424347,-0.45720645785331726
2.1812517642974854,4.254180431365967,11.57895278930664,-0.7394261956214905,-0.06072000414133072,-0.36995744705200195
2.4216103553771973,3.916358470916748,11.587724685668945,-0.42526692152023315,-0.5093569159507751,-0.39615482091903687
2.69130277633667,3.8543102741241455,10.7445068359375,0.03822271153330803,-0.9002583026885986,-0.5770931243896484
2.940816879272461,3.7422327995300293,9.616023063659668,0.3029367923736572,-1.021855354309082,-0.7876670956611633
2.9705147743225098,3.800230026245117,9.155925750732422,0.30316367745399475,-0.9204517602920532,-0.8515985012054443
2.7622861862182617,3.7036287784576416,8.174982070922852,0.03834488242864609,-0.3853512406349182,-0.8349305987358093
2.3794820308685303,3.1598193645477295,8.297508239746094,-0.4029616117477417,0.24237386882305145,-0.7597767114639282
1.3508659601211548,2.7442433834075928,9.182415962219238,-0.6177243590354919,0.6155951023101807,-0.6864205598831177
0.44158655405044556,2.7006306648254395,9.41357135772705,-0.44779911637306213,0.586517870426178,-0.5542118549346924
0.12527421116828918,2.864528179168701,8.494444847106934,-0.07822565734386444,0.21127210557460785,-0.4472406208515167
0.15406207740306854,3.2103753089904785,7.006841659545898,0.270159512758255,-0.14008012413978577,-0.4395960867404938
0.11513236910104752,3.523393154144287,5.4077067375183105,0.4070107936859131,-0.180851012468338,-0.5090776085853577
-0.11611878126859665,3.7808752059936523,4.437307834625244,0.2855009436607361,-0.02569124661386013,-0.4977678954601288
-0.2145683467388153,4.222174644470215,4.4406023025512695,0.04778711497783661,0.14336134493350983,-0.40542253851890564
-0.21478861570358276,3.418421983718872,11.289177894592285,0.025795966386795044,0.6136053800582886,0.8673064708709717
-0.4286961555480957,4.078608512878418,9.991195678710938,0.319168359041214,1.100464940071106,0.9760928153991699
-0.7137019038200378,4.486685752868652,8.648076057434082,0.46553167700767517,1.0821913480758667,0.9545031189918518
-1.424013614654541,4.288723945617676,8.127663612365723,0.3349461257457733,0.8493469953536987,0.9316741824150085
-1.7058016061782837,3.5347321033477783,8.040390014648438,-0.031014500185847282,0.3845134973526001,0.9409419298171997
1.3576655387878418,2.5971531867980957,6.115279197692871,0.48658034205436707,0.27523842453956604,0.987175703048706
1.3072245121002197,3.1045994758605957,5.050778865814209,0.47773152589797974,0.24921555817127228,0.9132435321807861
1.2905991077423096,3.464869499206543,4.857863903045654,0.36473891139030457,0.22397810220718384,0.8753699064254761
1.6787759065628052,3.8918704986572266,5.118985176086426,0.2454107403755188,0.2660928964614868,0.8153828978538513
2.0139737129211426,4.161208629608154,5.533938407897949,0.10100220143795013,0.26822221279144287,0.6994057893753052
1.864048719406128,4.384922981262207,6.542155742645264,0.02200860157608986,0.16030849516391754,0.6176196336746216
2.0854835510253906,5.356968402862549,8.314143180847168,0.21642082929611206,-0.15189599990844727,0.19657643139362335
1.929726481437683,5.36936092376709,8.98744010925293,0.14622367918491364,-0.5273337960243225,0.06002187356352806
2.448760747909546,5.258749008178711,9.242950439453125,0.07991862297058105,-1.0388548374176025,-0.01731366664171219
3.051812171936035,4.9524827003479,9.505115509033203,-0.009372417815029621,-1.2996593713760376,-0.07452555745840073
5.297668933868408,6.691554069519043,8.611454963684082,-0.19090411067008972,-1.0027964115142822,-0.3372848629951477
6.339050769805908,6.949859619140625,9.312583923339844,-0.46209338307380676,-0.3168121576309204,-0.6863507032394409
4.452573299407959,4.832073211669922,11.20644474029541,-0.9200328588485718,0.31443852186203003,-0.7168939709663391
2.7914953231811523,3.2889435291290283,15.193814277648926,-1.0841810703277588,0.9770352840423584,-0.4591961205005646
1.7721784114837646,3.3309569358825684,15.060103416442871,-0.702948808670044,1.0240719318389893,-0.05372123420238495
1.442966103553772,3.34836745262146,13.942739486694336,-0.3735353648662567,0.799674928188324,0.11049679666757584
1.609420657157898,3.4746761322021484,11.549781799316406,0.33599331974983215,0.2252521961927414,0.1843416690826416
1.9890930652618408,3.546483039855957,9.437053680419922,0.8350178599357605,-0.24954716861248016,-0.03504621237516403
2.0447630882263184,3.9500207901000977,7.984250545501709,0.8603251576423645,-0.43935173749923706,-0.2583611011505127
2.187830924987793,4.013333320617676,7.0059990882873535,0.39652135968208313,-0.09354964643716812,-0.3675139844417572
2.008878707885742,3.40529203414917,6.776950359344482,-0.23076742887496948,0.3966958820819855,-0.31557297706604004
1.4149539470672607,3.0670106410980225,8.482733726501465,-0.4784471094608307,0.21416935324668884,-0.39591047167778015
0.8502097129821777,3.215029716491699,8.171603202819824,-0.07751007378101349,0.04911356419324875,-0.47944194078445435
0.5747807621955872,3.0649898052215576,6.8118672370910645,0.2722190022468567,-0.12681561708450317,-0.599712610244751
0.13716860115528107,3.280841588973999,5.933913707733154,0.3793298602104187,-0.2433687150478363,-0.6751631498336792
0.1324663907289505,3.9636104106903076,5.618846416473389,0.2211855798959732,-0.3763802647590637,-0.669927179813385
-0.7076493501663208,4.323516368865967,6.094554901123047,-0.041573744267225266,-0.045640360563993454,-0.37753215432167053
-0.6147735118865967,4.5894927978515625,6.5748701095581055,-0.04942772537469864,0.003455751808360219,-0.25705209374427795
-0.05014415830373764,4.859865188598633,7.151796340942383,0.014468779787421227,-0.022846359759569168,-0.14055135846138
0.15689681470394135,5.394136428833008,7.73912239074707,0.0898495465517044,-0.07784168422222137,-0.13631021976470947
0.23901793360710144,5.784285545349121,8.287481307983398,0.15344934165477753,-0.02577851340174675,-0.18418459594249725
0.4875169098377228,5.543055534362793,10.788599014282227,0.24959953129291534,-0.15660838782787323,-0.3140021860599518
0.9605153799057007,5.199928283691406,12.075281143188477,0.2892185151576996,-0.3603581190109253,-0.29023081064224243
0.38794684410095215,4.982295036315918,12.0385160446167,0.31087803840637207,-0.45406484603881836,-0.10177014768123627
-0.721459150314331,5.0427632331848145,11.308389663696289,0.38008034229278564,-0.16699309647083282,0.3444407284259796
-0.42980706691741943,5.672658443450928,10.263818740844727,0.49155452847480774,0.09262461960315704,0.7812093496322632
0.8490222096443176,6.0904083251953125,10.268377304077148,0.49872782826423645,-0.2419898957014084,0.8157145380973816
1.645908236503601,6.541504859924316,11.206807136535645,0.6310936212539673,-0.573201060295105,0.7095112204551697
1.8817179203033447,5.946717739105225,11.097479820251465,0.8574802875518799,-0.6528578400611877,0.6088581085205078
1.339890956878662,5.212205410003662,9.874358177185059,1.0732553005218506,-0.1987231820821762,0.6230476498603821
1.054329752922058,5.266180515289307,8.124157905578613,1.048768401145935,0.2462484985589981,0.7066488862037659
1.0734163522720337,5.421209812164307,6.819576740264893,0.8357334733009338,0.37147587537765503,0.6846752166748047
0.42925161123275757,5.46257209777832,6.58719539642334,0.5343325734138489,0.34840261936187744,0.603115975856781
0.1979813128709793,4.557774543762207,6.371832370758057,0.16865116357803345,0.20184732973575592,0.5669876337051392
0.7764874696731567,3.8620004653930664,6.8260602951049805,-0.35985198616981506,0.18996164202690125,0.5941275358200073
