accX,accY,accZ,gyroX,gyroY,gyroZ
-0.33105000853538513,3.3439502716064453,9.067950248718262,0.07672499865293503,0.0849749967455864,-0.12457499653100967
-0.17295001447200775,3.283950090408325,9.13800048828125,-0.10656250268220901,0.036024998873472214,-0.09033749997615814
-0.25394999980926514,3.1840500831604004,9.616950035095215,-0.2433750033378601,0.007974999956786633,-0.06710000336170197
-0.13199999928474426,3.05400013923645,10.144050598144531,-0.2690874934196472,0.0017874999903142452,-0.03162499889731407
-0.019050000235438347,2.8720500469207764,10.438050270080566,-0.17737500369548798,0.014024999924004078,-0.02186249941587448
0.025050001218914986,2.7769501209259033,10.372950553894043,-0.03932499885559082,0.028737500309944153,-0.035337500274181366
0.018000001087784767,2.7810001373291016,10.189050674438477,0.01924999989569187,0.027499999850988388,-0.045099999755620956
0.027000000700354576,2.9010000228881836,9.769950866699219,0.09253749996423721,0.017737500369548798,-0.0658624991774559
0.12300000339746475,3.085050106048584,9.315000534057617,0.07672499865293503,0.005499999970197678,-0.08786249905824661
-0.05295000225305557,3.198000192642212,9.523050308227539,0.05843750014901161,0.03478749841451645,-0.09886249899864197
-0.06495000422000885,3.2530500888824463,9.628950119018555,0.08524999767541885,0.04221250116825104,-0.08304999768733978
-0.003000000026077032,3.246000051498413,9.44895076751709,0.10353749990463257,0.04221250116825104,-0.059812501072883606
0.025050001218914986,3.198000192642212,9.319950103759766,0.10353749990463257,0.04221250116825104,-0.03904999792575836
0.003000000026077032,3.2149500846862793,9.379950523376465,0.11329999566078186,0.05926249921321869,-0.02433750033378601
0.1399500072002411,3.114000082015991,9.352950096130371,0.18053749203681946,0.10078749805688858,0.01347499992698431
0.4339500069618225,2.997000217437744,9.013050079345703,0.2367749959230423,0.13983750343322754,0.029424998909235
0.4339500069618225,2.9730000495910645,8.920050621032715,0.23058749735355377,0.148499995470047,0.01966249942779541
0.37005001306533813,3.0610501766204834,8.860050201416016,0.17448750138282776,0.1387374997138977,-0.002337499987334013
0.33105000853538513,3.106950044631958,9.028050422668457,0.147537499666214,0.141075000166893,-0.004812499973922968
0.2880000174045563,3.057000160217285,9.454050064086914,0.17201249301433563,0.1765500009059906,-0.002337499987334013
0.2569500207901001,3.0400500297546387,9.337050437927246,0.2623499929904938,0.1985500007867813,-0.007287499960511923
0.018000001087784767,3.100050210952759,8.926950454711914,0.3063499927520752,0.22426250576972961,-0.020624998956918716
-0.37095001339912415,3.2410502433776855,8.680950164794922,0.27101248502731323,0.284074991941452,-0.004812499973922968
-0.42705002427101135,3.255000114440918,8.664000511169434,0.22824999690055847,0.3218874931335449,0.015949999913573265
-0.5680500268936157,3.2190001010894775,9.021000862121582,0.12072499841451645,0.3866499960422516,0.04166249930858612
-0.5610000491142273,3.1020002365112305,9.552000045776367,0.06324999779462814,0.3353624939918518,0.05871250107884407
-0.6370500326156616,3.058950185775757,9.355950355529785,0.04496249929070473,0.20954999327659607,0.040424998849630356
-0.9649500250816345,3.2340002059936523,9.17400074005127,-0.02227500081062317,0.10449999570846558,0.023237500339746475
-1.068000078201294,3.2100000381469727,9.223950386047363,-0.08332499861717224,0.05926249921321869,0.030662499368190765
-1.0660500526428223,3.058950185775757,9.291000366210938,-0.057612501084804535,0.09955000132322311,0.015949999913573265
-1.1899501085281372,3.0640501976013184,9.382050514221191,-0.02708750031888485,0.12402500212192535,-0.010862499475479126
-1.5210000276565552,3.2310001850128174,9.490050315856934,0.027775000780820847,0.08978749811649323,-0.07081250101327896
-2.284050226211548,3.7290000915527344,8.458050727844238,0.11096250265836716,-0.1190750002861023,-0.11604999750852585
-2.3830502033233643,4.426050186157227,5.044050216674805,-0.3716624975204468,-0.39160001277923584,-0.10257499665021896
-1.6240500211715698,4.114950180053711,8.31195068359375,-0.5439500212669373,0.07507500052452087,0.07095000147819519
-1.5570000410079956,3.5209500789642334,10.480950355529785,-0.1518000066280365,0.5919374823570251,0.12223749607801437
-1.9180500507354736,3.885000228881836,9.571050643920898,0.267300009727478,0.5429875254631042,0.15895000100135803
-1.758000135421753,3.8970000743865967,9.547050476074219,0.22206249833106995,0.48922500014305115,0.15771250426769257
-2.2170000076293945,3.892050266265869,8.784000396728516,0.027912499383091927,0.15578749775886536,0.07947500050067902
-2.632050037384033,4.359000205993652,8.527050018310547,-0.2849000096321106,-0.12773749232292175,0.08442500233650208
-1.5640500783920288,3.5400002002716064,9.700950622558594,-0.45842498540878296,-0.1667875051498413,0.21752500534057617
-1.533000111579895,3.322050094604492,9.922950744628906,-0.2116124927997589,-0.04455000162124634,0.15399999916553497
-1.7310000658035278,3.4399502277374268,9.580950736999512,0.020487500354647636,0.05197500064969063,0.0929500013589859
-1.7740501165390015,3.576000213623047,9.006000518798828,0.10848750174045563,0.08249999582767487,0.07947500050067902
-1.8030000925064087,3.4900500774383545,8.635050773620605,0.04619999974966049,0.06297499686479568,0.08195000141859055
-1.675950050354004,3.2989501953125,8.884050369262695,-0.06379999965429306,0.03355000168085098,0.06476250290870667
-1.5730500221252441,3.3390002250671387,9.367950439453125,-0.08332499861717224,0.021312499418854713,0.00494999997317791
-1.585050106048584,3.2910001277923584,9.532950401306152,0.018012499436736107,0.04097500070929527,-0.05609999969601631
-1.9210500717163086,3.547950267791748,8.866950035095215,0.22453749179840088,0.13626250624656677,-0.1368124932050705
-2.313000202178955,3.745950222015381,8.54699993133545,0.2404875010251999,0.2217874974012375,-0.1073874980211258
-2.3080501556396484,3.7510502338409424,8.748000144958496,0.21353749930858612,0.2633124887943268,-0.07562500238418579
-1.9759501218795776,3.535950183868408,9.271950721740723,0.18548749387264252,0.23759999871253967,-0.045099999755620956
-2.5530002117156982,3.7990500926971436,9.351000785827637,0.2087250053882599,-0.04455000162124634,-0.10862500220537186
-2.6509501934051514,4.543950080871582,6.6499505043029785,-0.040562499314546585,-0.2120250016450882,-0.15991249680519104
-2.11395001411438,4.335000038146973,8.79104995727539,-0.11261250078678131,0.14231249690055847,0.020899999886751175
-2.233950138092041,3.574050188064575,9.909000396728516,0.12430000305175781,0.40012499690055847,0.08195000141859055
-2.362950086593628,3.6100502014160156,9.925950050354004,0.3137750029563904,0.3133625090122223,0.09418749809265137
-2.1289501190185547,3.6379501819610596,9.334050178527832,0.30153748393058777,0.08002500236034393,0.10147500038146973
-2.0160000324249268,3.718050241470337,8.676000595092773,0.12677499651908875,-0.1447875052690506,0.059950001537799835
-2.067000150680542,3.8370001316070557,8.665950775146484,0.04001250118017197,-0.2046000063419342,0.03423750028014183
-2.1310501098632812,3.9310503005981445,8.697000503540039,-0.021037500351667404,-0.24488750100135803,0.02694999985396862
-2.1030001640319824,3.873000144958496,8.767050743103027,-0.05403750017285347,-0.2363625019788742,0.050187498331069946
-1.9300501346588135,3.6499502658843994,8.719050407409668,-0.006324999965727329,-0.1471250057220459,0.07342500239610672
-1.8919501304626465,3.466050148010254,8.860050201416016,0.05101250112056732,-0.07026249915361404,0.0611874982714653
-1.924950122833252,3.427950143814087,8.881950378417969,0.07177499681711197,-0.06655000150203705,0.050187498331069946
-1.968000054359436,3.4210500717163086,8.688000679016113,0.06696250289678574,-0.09707500040531158,0.03189999982714653
-1.9519500732421875,3.38700008392334,9.049050331115723,-0.19085000455379486,-0.03973750025033951,0.018424998968839645
-1.675950050354004,3.306000232696533,9.061050415039062,-0.17489999532699585,-0.03849999979138374,0.030662499368190765
-1.5349500179290771,3.2890501022338867,9.025050163269043,-0.1859000027179718,-0.03973750025033951,0.03189999982714653
-1.2499500513076782,3.138000249862671,9.045000076293945,-0.22990000247955322,-0.017737500369548798,0.02694999985396862
-1.072950005531311,3.037950038909912,9.480000495910645,-0.23485000431537628,0.03849999979138374,0.01347499992698431
-0.9600000381469727,3.1309502124786377,9.586050033569336,-0.1518000066280365,0.05444999784231186,-0.0010999999940395355
-0.9270000457763672,3.2220001220703125,9.370050430297852,-0.10037499666213989,0.05926249921321869,0.00013749999925494194
-0.6520500183105469,3.3889501094818115,9.010950088500977,-0.04179999977350235,0.09226249903440475,0.020899999886751175
-0.5320500135421753,3.4800002574920654,9.364950180053711,-0.02474999986588955,0.1765500009059906,0.032999999821186066
-0.8380500674247742,3.595050096511841,9.72195053100586,-0.006324999965727329,0.16307500004768372,0.018424998968839645
-0.9630000591278076,3.7129502296447754,9.67905044555664,-0.010037500411272049,0.03726249933242798,0.03918749839067459
-0.09795000404119492,3.4450502395629883,9.70995044708252,0.1097249984741211,-0.07507500052452087,0.0672374963760376
-0.3160500228404999,3.696000099182129,9.364950180053711,0.1695374995470047,-0.09226249903440475,0.02447500079870224
-0.17805001139640808,3.7129502296447754,9.163949966430664,0.1340624988079071,-0.15936249494552612,0.037950001657009125
0.19995000958442688,3.6379501819610596,9.217050552368164,0.10724999755620956,-0.20583750307559967,0.03671250119805336
0.556950032711029,3.535950183868408,9.255000114440918,0.15125000476837158,-0.2046000063419342,0.006187499966472387
0.7339500188827515,3.5209500789642334,8.997000694274902,0.22082500159740448,-0.15936249494552612,-0.05004999786615372
0.597000002861023,3.636000156402588,8.767050743103027,0.2563000023365021,-0.09707500040531158,-0.10986249893903732
0.29295000433921814,3.967050075531006,8.721000671386719,0.21601249277591705,-0.04207500070333481,-0.13433749973773956
0.34095001220703125,3.934950113296509,8.914950370788574,0.12925000488758087,-0.060499999672174454,-0.10862500220537186
0.5539500117301941,3.6030001640319824,9.18600082397461,0.06324999779462814,-0.09831249713897705,-0.12333749979734421
0.5879999995231628,3.43500018119812,9.210000038146973,0.06324999779462814,-0.1093124970793724,-0.20157499611377716
0.11100000888109207,3.6379501819610596,9.271950721740723,0.09019999951124191,-0.07631249725818634,-0.2796750068664551
-0.38100001215934753,3.90405011177063,9.717000007629395,0.12553749978542328,-0.06283749639987946,-0.2662000060081482
-0.20400001108646393,3.765000104904175,9.871050834655762,0.21353749930858612,-0.13255000114440918,-0.19910000264644623
0.23295001685619354,3.6030001640319824,9.258000373840332,0.3125374913215637,-0.2046000063419342,-0.20391249656677246
0.46095001697540283,3.696000099182129,8.356950759887695,0.3258749842643738,-0.20212499797344208,-0.28338751196861267
0.4129500091075897,3.832050085067749,8.070000648498535,0.28558748960494995,-0.16802500188350677,-0.32615000009536743
0.08205000311136246,4.134000301361084,8.395950317382812,0.1695374995470047,-0.0775500014424324,-0.37619999051094055
-0.37095001339912415,4.279950141906738,9.214950561523438,0.11219999939203262,-0.08855000138282776,-0.3639625012874603
-0.3379500210285187,4.234950065612793,9.127950668334961,0.1597750037908554,-0.1691250056028366,-0.33219999074935913
-0.05295000225305557,4.246950149536133,8.55405044555664,0.21848750114440918,-0.13983750343322754,-0.31638750433921814
-0.5770500302314758,5.014950275421143,5.596950054168701,0.21353749930858612,-0.0030249999836087227,-0.31638750433921814
-0.6799500584602356,4.552950382232666,7.954950332641602,-0.06132499873638153,0.1545500010251999,-0.13791249692440033
0.5329500436782837,3.5239500999450684,10.206000328063965,-0.0882750004529953,-0.007974999956786633,-0.1746249943971634
-0.3160500228404999,4.0219502449035645,9.619050025939941,0.0034374999813735485,-0.19112500548362732,-0.32862499356269836
-0.4650000333786011,4.1579999923706055,9.214950561523438,0.04619999974966049,-0.13983750343322754,-0.3041499853134155
-0.31200000643730164,4.141050338745117,9.12600040435791,0.10477499663829803,-0.020075000822544098,-0.28091248869895935
-0.2880000174045563,4.129050254821777,9.159000396728516,0.15125000476837158,0.07026249915361404,-0.24667499959468842
-0.4050000309944153,4.065000057220459,9.064050674438477,0.14396250247955322,0.028737500309944153,-0.21615000069141388
-0.34800001978874207,4.04295015335083,9.142950057983398,0.0705375000834465,-0.05073750019073486,-0.19167499244213104
-0.34005001187324524,3.8560502529144287,9.43695068359375,0.03396249935030937,-0.11550000309944153,-0.17957499623298645
-0.30000001192092896,3.763050079345703,9.454050064086914,0.0424874983727932,-0.14726249873638153,-0.17957499623298645
-0.3450000286102295,3.748950242996216,9.19800090789795,0.07919999957084656,-0.19731250405311584,-0.1905750036239624
-0.40995001792907715,3.718050241470337,8.890950202941895,0.11329999566078186,-0.18136249482631683,-0.19538749754428864
-0.5460000038146973,3.7320001125335693,8.638050079345703,0.13048750162124634,-0.1190750002861023,-0.18809999525547028
-0.9649500250816345,3.7510502338409424,8.860050201416016,0.10353749990463257,-0.06283749639987946,-0.15757499635219574
-1.0320000648498535,4.110000133514404,5.022000312805176,0.0387750007212162,-0.06407500058412552,-0.12333749979734421
-1.8990000486373901,3.9900002479553223,6.60705041885376,-0.20666250586509705,0.5418875217437744,0.07576250284910202
-0.7900500297546387,2.479950189590454,9.592950820922852,-0.25437501072883606,0.30607500672340393,0.002474999986588955
-1.308000087738037,3.0709500312805176,10.564950942993164,-0.17861250042915344,-0.22536249458789825,-0.2576749920845032
-2.16195011138916,3.864000082015991,10.114950180053711,-0.1163249984383583,-0.5186499953269958,-0.29686251282691956
-1.8250501155853271,3.925950288772583,8.796000480651855,-0.033275000751018524,-0.46970000863075256,-0.23938749730587006
-1.8679500818252563,4.113000392913818,8.854949951171875,0.09501250088214874,-0.018975000828504562,-0.2186249941587448
-2.143050193786621,4.266000270843506,8.745000839233398,0.21230000257492065,0.30855000019073486,-0.1685750037431717
-2.5480501651763916,4.231950283050537,8.677950859069824,0.17572499811649323,0.3573625087738037,-0.11715000122785568
-2.656050205230713,4.351950168609619,8.57295036315918,0.011962499469518661,0.20336249470710754,-0.09281250089406967
-2.8500001430511475,4.624950408935547,8.829000473022461,-0.11261250078678131,0.03244999796152115,-0.09404999762773514
-2.3519999980926514,4.672950267791748,8.13705062866211,0.0681999996304512,0.1802625060081482,0.11976250261068344
-2.098050117492676,4.5360002517700195,8.170949935913086,-0.03932499885559082,0.15207499265670776,0.1467124968767166
-2.044950008392334,4.34505033493042,8.704950332641602,-0.11508750170469284,0.13378749787807465,0.12952500581741333
-2.1409502029418945,4.2870001792907715,8.893950462341309,-0.11261250078678131,0.09102500230073929,0.09542500227689743
-2.265000104904175,4.381050109863281,8.854949951171875,-0.10037499666213989,0.05197500064969063,0.07823749631643295
-2.3710501194000244,4.431000232696533,8.677950859069824,-0.0882750004529953,0.03849999979138374,0.08071249723434448
-2.2990500926971436,4.393050193786621,8.700000762939453,-0.057612501084804535,0.058024998754262924,0.09542500227689743
-2.3010001182556152,4.2870001792907715,8.755050659179688,0.0009624999947845936,0.07631249725818634,0.10147500038146973
-2.1790502071380615,4.1579999923706055,8.721000671386719,0.06324999779462814,0.06297499686479568,0.10642500221729279
-2.067000150680542,4.192049980163574,8.356950759887695,0.1097249984741211,0.027499999850988388,0.09418749809265137
-2.0500500202178955,4.326000213623047,7.930950164794922,0.09143749624490738,0.022549999877810478,0.0929500013589859
-1.971000075340271,4.453050136566162,7.788000583648682,0.010724999941885471,0.016499999910593033,0.09776250272989273
-1.984950065612793,4.483950138092041,7.990950584411621,-0.0943249985575676,-0.04097500070929527,0.09418749809265137
-1.9800001382827759,4.432950019836426,8.211000442504883,-0.1578499972820282,-0.09226249903440475,0.08442500233650208
-2.1859500408172607,4.522050380706787,8.138999938964844,-0.18479999899864197,-0.10573749989271164,0.08071249723434448
-2.3400001525878906,4.600950241088867,8.185050010681152,-0.2213750034570694,-0.08002500236034393,0.11247500032186508
-2.281949996948242,4.539000034332275,8.748000144958496,-0.2311374992132187,-0.017737500369548798,0.15771250426769257
-2.236950159072876,4.394999980926514,9.258000373840332,-0.1321374922990799,-0.0042624999769032,0.18576249480247498
-2.0470499992370605,4.2370500564575195,9.058950424194336,-0.040562499314546585,-0.07273750007152557,0.17599999904632568
-2.083050012588501,4.394999980926514,8.626049995422363,-0.01979999989271164,-0.1447875052690506,0.10876250267028809
-2.395050048828125,4.80495023727417,8.23799991607666,-0.04661250114440918,-0.13626250624656677,0.08676250278949738
-2.485950231552124,4.836000442504883,8.254050254821777,-0.10779999941587448,-0.10807500034570694,0.14547500014305115
-2.5600500106811523,4.753950119018555,8.731050491333008,-0.17489999532699585,-0.11178749799728394,0.201712504029274
-2.3680500984191895,4.563000202178955,9.246000289916992,-0.20432500541210175,-0.19978749752044678,0.2554749846458435
-1.7479500770568848,4.165050029754639,9.331950187683105,-0.16513749957084656,-0.27912500500679016,0.2639999985694885
-1.4800500869750977,4.033950328826904,9.094950675964355,-0.01732499897480011,-0.23883749544620514,0.1942874938249588
-1.5540000200271606,4.126950263977051,8.656949996948242,0.13296249508857727,-0.10573749989271164,0.17476250231266022
-1.516050100326538,4.085999965667725,8.511000633239746,0.1732500046491623,-0.03231250122189522,0.1942874938249588
-0.016950000077486038,2.740950107574463,9.283950805664062,-0.5084750056266785,-0.31817498803138733,0.10642500221729279
0.25005000829696655,2.638050079345703,9.874950408935547,-0.4351874887943268,-0.2681249976158142,0.02199999988079071
0.36000001430511475,2.5660500526428223,9.957000732421875,-0.33137500286102295,-0.2143625020980835,-0.01209999993443489
0.5689499974250793,2.6040000915527344,9.880050659179688,-0.07479999959468842,-0.0873124971985817,-0.08910000324249268
0.47805002331733704,2.817000150680542,9.705000877380371,0.15248750150203705,0.02502499893307686,-0.17957499623298645
0.21195000410079956,3.1500000953674316,9.394050598144531,0.3100624978542328,0.09473749995231628,-0.21986250579357147
-0.08895000070333481,3.4420502185821533,8.932050704956055,0.3051125109195709,0.08373750001192093,-0.20157499611377716
-0.2569500207901001,3.6120002269744873,8.797950744628906,0.23058749735355377,0.0494999997317791,-0.17957499623298645
-0.6130500435829163,3.9160501956939697,8.890950202941895,0.009487500414252281,-0.045787498354911804,-0.10009999573230743
-0.5220000147819519,3.7680001258850098,9.159000396728516,-0.18232500553131104,-0.13859999179840088,0.02199999988079071
-0.17805001139640808,3.4300501346588135,9.696000099182129,-0.2703250050544739,-0.1667875051498413,0.10395000129938126
-0.11805000901222229,3.2700002193450928,10.201050758361816,-0.21656249463558197,-0.19112500548362732,0.12718750536441803
-0.14400000870227814,3.2989501953125,9.969000816345215,-0.07851249724626541,-0.21931250393390656,0.1467124968767166
0.19995000958442688,3.223950147628784,9.282000541687012,0.037675000727176666,-0.17531250417232513,0.17847499251365662
0.5350500345230103,3.1930501461029053,8.872050285339355,0.0705375000834465,-0.08483749628067017,0.16871249675750732
0.5879999995231628,3.235950231552124,8.980050086975098,0.04124999791383743,-0.028737500309944153,0.12952500581741333
0.3940500319004059,3.2719502449035645,9.130949974060059,0.030249999836087227,-0.014024999924004078,0.0929500013589859
0.11400000751018524,3.2890501022338867,9.064050674438477,0.011962499469518661,-0.04455000162124634,0.07342500239610672
-0.13199999928474426,3.555000066757202,9.067950248718262,-0.06132499873638153,-0.04455000162124634,0.09542500227689743
-0.09795000404119492,3.516000270843506,9.183000564575195,-0.08084999769926071,-0.03849999979138374,0.11852499842643738
0.05400000140070915,3.307950258255005,9.38700008392334,-0.09184999763965607,-0.03726249933242798,0.14794999361038208
-0.4720500111579895,4.048050403594971,7.4569501876831055,-0.07108750194311142,0.14602500200271606,0.14794999361038208
-0.33105000853538513,3.4830002784729004,8.950950622558594,-0.07961250096559525,0.2780250012874603,0.28600001335144043
0.7429500222206116,2.7310500144958496,10.381050109863281,-0.09927500039339066,0.05678749829530716,0.2675749957561493
0.8749500513076782,2.757000207901001,9.616950035095215,-0.0943249985575676,-0.24488750100135803,0.08442500233650208
0.5059500336647034,3.5089502334594727,8.901000022888184,-0.050324998795986176,-0.17159999907016754,0.006187499966472387
0.2959500253200531,3.6100502014160156,8.556000709533691,0.04124999791383743,0.07273750007152557,0.057475000619888306
0.2050500065088272,3.598050117492676,8.716950416564941,0.0681999996304512,0.23759999871253967,0.08566249907016754
-0.016950000077486038,3.6700501441955566,8.854949951171875,0.011962499469518661,0.21078750491142273,0.09171249717473984
0.20205001533031464,3.5929501056671143,9.187950134277344,-0.15056249499320984,0.06778749823570251,0.1381874978542328
0.3360000252723694,3.544950246810913,9.23805046081543,-0.14932499825954437,0.0775500014424324,0.13571250438690186
0.37905001640319824,3.4900500774383545,9.364950180053711,-0.11879999935626984,0.11797499656677246,0.11371249705553055
0.3169500231742859,3.4639501571655273,9.351000785827637,-0.09679999947547913,0.13626250624656677,0.10147500038146973
0.23595000803470612,3.43500018119812,9.267000198364258,-0.06984999775886536,0.1704999953508377,0.08799999952316284
0.0990000069141388,3.454050064086914,9.681000709533691,-0.0625625029206276,0.19978749752044678,0.08318749815225601
0.09000000357627869,3.4420502185821533,9.904050827026367,-0.04675000160932541,0.1825999915599823,0.07947500050067902
0.1570500135421753,3.4420502185821533,9.724950790405273,-0.0002749999985098839,0.11550000309944153,0.05142499879002571
0.08700000494718552,3.496950149536133,9.454050064086914,0.02419999986886978,0.08978749811649323,-0.004812499973922968
-0.08895000070333481,3.733950138092041,9.394050598144531,0.04372499883174896,0.09955000132322311,-0.032862499356269836
-0.11505000293254852,3.8179502487182617,9.057000160217285,0.07796250283718109,0.11797499656677246,-0.02433750033378601
-0.11505000293254852,3.9619503021240234,8.920050621032715,0.08153750002384186,0.16307500004768372,-0.006049999967217445
-0.16095000505447388,4.0410003662109375,8.98905086517334,0.06201250106096268,0.16073749959468842,0.032999999821186066
-0.027000000700354576,3.9430501461029053,8.854949951171875,0.03396249935030937,0.11797499656677246,0.07699999958276749
0.17100000381469727,3.8680500984191895,8.665950775146484,-0.003987499978393316,0.10573749989271164,0.08923749625682831
0.030000001192092896,3.8970000743865967,8.752050399780273,-0.02956249937415123,0.13378749787807465,0.08195000141859055
-0.08895000070333481,3.957000255584717,8.88705062866211,-0.03684999793767929,0.16802500188350677,0.09652499854564667
-0.1969500035047531,3.8989500999450684,9.076050758361816,-0.008799999952316284,0.20707499980926514,0.12952500581741333
-0.25394999980926514,3.835050106048584,9.163949966430664,0.005912499967962503,0.2143625020980835,0.14547500014305115
-0.32100000977516174,3.8200502395629883,9.181050300598145,0.03148749843239784,0.19126249849796295,0.1699499934911728
-0.36195001006126404,3.7890002727508545,8.88900089263916,0.04372499883174896,0.2046000063419342,0.1882375031709671
-0.3739500045776367,3.796950101852417,8.81505012512207,0.037675000727176666,0.2461249977350235,0.19552500545978546
-0.283050000667572,3.763050079345703,8.953950881958008,-0.02474999986588955,0.31212499737739563,0.2040500044822693
-0.3930000066757202,3.595050096511841,9.370050430297852,-0.10037499666213989,0.3451249897480011,0.18576249480247498
-0.7980000376701355,3.3990001678466797,9.799050331115723,-0.1358499974012375,0.30483749508857727,0.1699499934911728
-1.01295006275177,3.255000114440918,9.837000846862793,-0.14313749969005585,0.20102499425411224,0.17352500557899475
-0.9940500259399414,3.1690502166748047,9.757950782775879,-0.142037495970726,0.15097500383853912,0.17971250414848328
-0.831000030040741,2.9850001335144043,9.634050369262695,-0.10656250268220901,0.10573749989271164,0.1722874939441681
-0.8500500321388245,2.9820001125335693,9.375,-0.0002749999985098839,0.10449999570846558,0.12952500581741333
-1.1179500818252563,3.198000192642212,8.949000358581543,0.10353749990463257,0.14726249873638153,0.10147500038146973
-1.2049500942230225,3.0640501976013184,9.067950248718262,0.1280124932527542,0.2595999836921692,0.12828749418258667
-1.1350500583648682,3.0180001258850098,9.058950424194336,0.13901250064373016,0.2498375028371811,0.08195000141859055
-1.5450000762939453,3.385050058364868,9.034950256347656,0.11948750168085098,0.2657875120639801,0.0147124994546175
-1.9999500513076782,3.787050247192383,9.207000732421875,0.05224999785423279,0.26936250925064087,0.006187499966472387
-2.2729501724243164,3.892050266265869,9.468000411987305,-0.028324998915195465,0.24736249446868896,0.047712501138448715
-2.224950075149536,3.658050060272217,9.829950332641602,-0.0625625029206276,0.19002500176429749,0.08676250278949738
-2.1910500526428223,3.4639501571655273,10.038000106811523,-0.0002749999985098839,0.10202500224113464,0.10147500038146973
-1.8870000839233398,3.325050115585327,9.439949989318848,0.12925000488758087,0.04468749836087227,0.10271249711513519
-1.8490500450134277,3.3919501304626465,8.761950492858887,0.22577500343322754,0.06544999778270721,0.07699999958276749
-1.9560000896453857,3.5089502334594727,8.503050804138184,0.24158750474452972,0.0775500014424324,0.06847500056028366
-2.221950054168701,3.7320001125335693,8.29995059967041,0.20748749375343323,0.09226249903440475,0.08318749815225601
-2.1289501190185547,3.7129502296447754,8.398050308227539,0.1317249983549118,0.08373750001192093,0.13571250438690186
-2.0380501747131348,3.6070501804351807,8.620950698852539,0.09253749996423721,0.08002500236034393,0.15399999916553497
-1.9900500774383545,3.6120002269744873,8.683050155639648,0.06696250289678574,0.05444999784231186,0.1527625024318695
-2.0350501537323,3.6289501190185547,8.721000671386719,0.037675000727176666,0.026262499392032623,0.1405249983072281
-2.233950138092041,3.7200002670288086,8.640000343322754,-0.0015124999918043613,-0.0030249999836087227,0.1307625025510788
-2.8570501804351807,4.52400016784668,5.464950084686279,-0.35337498784065247,-0.30841249227523804,0.18095000088214874
-1.297950029373169,3.088050127029419,10.078950881958008,-0.519474983215332,0.1447875052690506,0.25657498836517334
-1.4389500617980957,2.908050060272217,11.389050483703613,-0.10284999758005142,0.1069749966263771,0.07466249912977219
-2.203050136566162,3.8490002155303955,9.636000633239746,0.17682500183582306,-0.12155000120401382,0.007424999959766865
-1.6050000190734863,3.970950126647949,8.671050071716309,0.1634874939918518,-0.10202500224113464,-0.002337499987334013
-1.798050045967102,4.146000385284424,8.475000381469727,0.12677499651908875,-0.0873124971985817,-0.07081250101327896
-1.971000075340271,4.267950057983398,8.494050025939941,0.07672499865293503,-0.0873124971985817,-0.08304999768733978
-1.9800001382827759,4.25100040435791,8.40000057220459,0.04743750020861626,-0.13983750343322754,-0.07328750193119049
-2.111999988555908,4.302000045776367,8.347949981689453,0.05472499877214432,-0.14602500200271606,-0.05857500061392784
-2.143050193786621,4.387950420379639,8.55405044555664,0.06943749636411667,-0.09707500040531158,-0.014574999921023846
-1.7839500904083252,4.219950199127197,8.155950546264648,0.03272499889135361,-0.14836250245571136,0.040424998849630356
-1.741050124168396,4.144050121307373,8.43600082397461,-0.030799999833106995,-0.09955000132322311,0.03918749839067459
-1.7359501123428345,4.05495023727417,8.797950744628906,-0.05403750017285347,-0.09226249903440475,0.03671250119805336
-1.662000060081482,3.892050266265869,9.313050270080566,-0.05156249925494194,-0.1313125044107437,0.01718750037252903
-1.4899500608444214,3.6979501247406006,9.490050315856934,-0.01251249946653843,-0.20707499980926514,-0.030524998903274536
-1.4269500970840454,3.7200002670288086,9.355950355529785,0.05596249923110008,-0.2633124887943268,-0.10986249893903732
-1.4299501180648804,3.9310503005981445,9.073050498962402,0.11453749984502792,-0.27431249618530273,-0.15991249680519104
-1.4269500970840454,4.026000022888184,8.961000442504883,0.12677499651908875,-0.2656500041484833,-0.170912504196167
-1.39395010471344,4.04295015335083,9.037050247192383,0.11948750168085098,-0.24736249446868896,-0.17710000276565552
-1.284000039100647,3.970950126647949,9.16200065612793,0.1097249984741211,-0.25341248512268066,-0.18314999341964722
-1.0870500802993774,3.844050168991089,9.523050308227539,0.10724999755620956,-0.31212499737739563,-0.22962500154972076
-1.0609500408172607,3.8110501766204834,9.5110502243042,0.12553749978542328,-0.3548874855041504,-0.2626250088214874
-0.9769500494003296,3.8419501781463623,9.267000198364258,0.17806249856948853,-0.3951750099658966,-0.32243749499320984
-0.9150000214576721,3.957000255584717,8.749950408935547,0.21601249277591705,-0.3548874855041504,-0.35667499899864197
-0.8530500531196594,4.000050067901611,8.503050804138184,0.19030000269412994,-0.24255000054836273,-0.35791251063346863
-0.856950044631958,3.934950113296509,8.829000473022461,0.12306249886751175,-0.16802500188350677,-0.3431999981403351
-0.6400500535964966,3.775050163269043,9.169050216674805,0.05719999969005585,-0.20336249470710754,-0.32491248846054077
-0.453000009059906,3.7800002098083496,9.315000534057617,0.011962499469518661,-0.2498375028371811,-0.32862499356269836
-0.5100000500679016,3.664950132369995,9.571050643920898,-0.0015124999918043613,-0.26083749532699585,-0.3102000057697296
-0.49800002574920654,3.5400002002716064,9.744000434875488,0.04867500066757202,-0.25341248512268066,-0.2956250011920929
-0.5250000357627869,3.5089502334594727,9.301050186157227,0.18301250040531158,-0.2523125112056732,-0.273624986410141
-0.004950000438839197,3.4039502143859863,8.568000793457031,0.16830000281333923,-0.2778874933719635,-0.22343750298023224
0.1660500019788742,3.43500018119812,8.269050598144531,0.14396250247955322,-0.2046000063419342,-0.2283875048160553
0.018000001087784767,3.564000129699707,8.527050018310547,0.04977500066161156,-0.16183750331401825,-0.22343750298023224
-0.06495000422000885,3.595050096511841,8.731050491333008,-0.008799999952316284,-0.1825999915599823,-0.210099995136261
0.04905000329017639,3.5500502586364746,9.1360502243042,-0.10903749614953995,-0.2595999836921692,-0.17338749766349792
0.3550500273704529,3.394050121307373,9.298050880432129,-0.13337500393390656,-0.3158375024795532,-0.1611499935388565
0.556950032711029,3.2910001277923584,9.480000495910645,-0.08084999769926071,-0.3059374988079071,-0.17710000276565552
0.6949500441551208,3.267000198364258,9.169050216674805,0.02667500078678131,-0.28888750076293945,-0.210099995136261
0.739050030708313,3.427950143814087,8.736000061035156,0.09129999577999115,-0.2400749921798706,-0.24667499959468842
0.6520500183105469,3.487950086593628,8.496000289916992,0.09748750180006027,-0.22783750295639038,-0.2601499855518341
0.3840000033378601,3.7219502925872803,8.367000579833984,0.02667500078678131,-0.20954999327659607,-0.2601499855518341
0.24795001745224,3.744000196456909,8.580000877380371,-0.10903749614953995,-0.2583625018596649,-0.21738749742507935
0.47505003213882446,3.5809502601623535,8.878950119018555,-0.2153249979019165,-0.2998875081539154,-0.17833749949932098
0.7000500559806824,3.4009501934051514,9.118950843811035,-0.23732499778270721,-0.2938374876976013,-0.18191249668598175
0.7339500188827515,3.4110002517700195,9.322050094604492,-0.21889999508857727,-0.2644124925136566,-0.19538749754428864
0.5640000104904175,3.415950059890747,9.6739501953125,-0.14313749969005585,-0.23759999871253967,-0.22591249644756317
0.46095001697540283,3.5520002841949463,9.514050483703613,-0.052799999713897705,-0.2633124887943268,-0.24310000240802765
0.5059500336647034,3.646050214767456,8.985000610351562,-0.011274999938905239,-0.255887508392334,-0.2381500005722046
0.5230500102043152,3.6600000858306885,8.87700080871582,-0.013749999925494194,-0.22288750112056732,-0.22962500154972076
0.5760000348091125,3.544950246810913,9.103950500488281,-0.03684999793767929,-0.17036250233650208,-0.2186249941587448
0.6240000128746033,3.394050121307373,9.279000282287598,-0.06503749638795853,-0.19236250221729279,-0.23938749730587006
0.5779500007629395,3.330000162124634,9.271950721740723,-0.08208750188350677,-0.23154999315738678,-0.2796750068664551
0.1879500150680542,3.496950149536133,9.70995044708252,-0.03684999793767929,-0.14959999918937683,-0.282150000333786
0.3270000219345093,3.4710001945495605,9.751049995422363,-0.011274999938905239,-0.16307500004768372,-0.29067498445510864
0.3910500109195709,3.44700026512146,9.765000343322754,0.03148749843239784,-0.16307500004768372,-0.31267499923706055
0.35805001854896545,3.4900500774383545,9.657000541687012,0.05953750014305115,-0.16431249678134918,-0.32491248846054077
0.29805001616477966,3.658050060272217,9.358050346374512,0.08401250094175339,-0.17159999907016754,-0.33096250891685486
0.2689500153064728,3.724950075149536,9.294000625610352,0.07919999957084656,-0.17407499253749847,-0.31872498989105225
0.33105000853538513,3.684000253677368,9.19800090789795,0.08043749630451202,-0.17407499253749847,-0.28943750262260437
0.4540500342845917,3.5929501056671143,9.057000160217285,0.09624999761581421,-0.16060000658035278,-0.2796750068664551
0.4729500114917755,3.6310501098632812,9.037050247192383,0.10119999945163727,-0.14602500200271606,-0.282150000333786
0.4420500099658966,3.6720001697540283,9.009000778198242,0.08401250094175339,-0.15207499265670776,-0.2784374952316284
0.3720000088214874,3.6889500617980957,8.934000015258789,0.04001250118017197,-0.19483749568462372,-0.2723875045776367
0.31200000643730164,3.7320001125335693,8.926950454711914,0.010724999941885471,-0.2180749922990799,-0.26743748784065247
0.21900001168251038,3.7390501499176025,9.058950424194336,-0.025849999859929085,-0.22659999132156372,-0.24667499959468842
0.2740500271320343,3.715050220489502,9.15000057220459,-0.02474999986588955,-0.21078750491142273,-0.23567499220371246
0.41805002093315125,3.5910000801086426,9.222000122070312,0.010724999941885471,-0.16307500004768372,-0.2283875048160553
0.5470499992370605,3.466050148010254,9.231000900268555,0.08043749630451202,-0.08855000138282776,-0.2503874897956848
0.5400000214576721,3.43500018119812,9.030000686645508,0.14396250247955322,-0.03973750025033951,-0.2919124960899353
0.31200000643730164,3.5929501056671143,8.740050315856934,0.15125000476837158,-0.007974999956786633,-0.32491248846054077
-0.028950002044439316,3.7819502353668213,8.721000671386719,0.07796250283718109,-0.022549999877810478,-0.30896249413490295
0.8890500664710999,3.4999501705169678,9.270000457763672,0.08524999767541885,0.018975000828504562,-0.2796750068664551
0.6739500164985657,3.576000213623047,9.121050834655762,0.15496249496936798,0.058024998754262924,-0.31638750433921814
0.45600003004074097,3.5910000801086426,8.79104995727539,0.1597750037908554,0.07026249915361404,-0.3102000057697296
0.24300001561641693,3.627000093460083,8.829000473022461,0.08648750185966492,0.060499999672174454,-0.29067498445510864
-0.5730000138282776,4.0219502449035645,7.05495023727417,-0.011274999938905239,0.027499999850988388,-0.25286251306533813
-0.7090500593185425,4.122000217437744,7.428000450134277,-0.17379999160766602,0.1802625060081482,-0.09515000134706497
0.9850500226020813,2.7649500370025635,9.895050048828125,-0.2213750034570694,0.2180749922990799,-0.032862499356269836
0.9520500302314758,2.5129501819610596,10.921950340270996,-0.10408750176429749,0.0494999997317791,-0.2626250088214874
-0.21300001442432404,3.4330501556396484,9.96405029296875,0.03519999980926514,0.0042624999769032,-0.36272498965263367
-0.6660000085830688,3.9430501461029053,9.949950218200684,0.0999625027179718,0.16431249678134918,-0.24062499403953552
-0.5650500059127808,3.7609500885009766,9.9660005569458,0.12072499841451645,0.19236250221729279,-0.15991249680519104
-0.031050002202391624,3.3610501289367676,9.820050239562988,0.09019999951124191,0.11426249891519547,-0.07686249911785126
0.22095000743865967,3.3100502490997314,9.484950065612793,0.027775000780820847,-0.023787500336766243,-0.11604999750852585
0.039000000804662704,3.487950086593628,9.12405014038086,0.004674999974668026,-0.0835999995470047,-0.16238750517368317
-0.3330000042915344,3.6670501232147217,8.937000274658203,0.021724998950958252,-0.05073750019073486,-0.14781250059604645
-0.5580000281333923,3.7579500675201416,8.748000144958496,0.05596249923110008,-0.007974999956786633,-0.08057499676942825
-0.5370000004768372,3.736950159072876,8.61405086517334,0.05596249923110008,0.0019249999895691872,-0.04152499884366989
-0.4939500093460083,3.715050220489502,8.491050720214844,0.002199999988079071,-0.007974999956786633,0.002474999986588955
-0.37605002522468567,3.7680001258850098,8.568000793457031,-0.07851249724626541,-0.040837500244379044,0.01966249942779541
-0.34800001978874207,3.3889501094818115,8.932050704956055,-0.10161250084638596,-0.026262499392032623,-0.05857500061392784
-0.8500500321388245,3.4999501705169678,8.884050369262695,-0.09679999947547913,0.021449999883770943,-0.1270499974489212
-1.4149500131607056,3.696000099182129,9.271950721740723,-0.13832500576972961,0.03973750025033951,-0.14657500386238098
-1.6950000524520874,3.8970000743865967,9.823050498962402,-0.1835625022649765,-0.07507500052452087,-0.14409999549388885
-1.6740000247955322,3.957000255584717,9.880050659179688,-0.1835625022649765,-0.16307500004768372,-0.14162500202655792
-1.3669500350952148,4.002000331878662,9.39900016784668,-0.10903749614953995,-0.26936250925064087,-0.15138749778270721
-1.2019500732421875,4.085999965667725,8.767050743103027,0.027775000780820847,-0.1691250056028366,-0.1746249943971634
-1.2310500144958496,4.219950199127197,8.704950332641602,0.15125000476837158,0.03244999796152115,-0.18562500178813934
-1.4970000982284546,4.2709503173828125,9.067950248718262,0.22824999690055847,0.10449999570846558,-0.19415000081062317
-1.702950119972229,4.52400016784668,8.82194995880127,0.2428250014781952,0.017737500369548798,-0.19167499244213104
-1.7290500402450562,4.693950176239014,8.197050094604492,0.14396250247955322,-0.0835999995470047,-0.16362500190734863
-1.6519501209259033,4.7659502029418945,8.151000022888184,-0.008799999952316284,-0.09226249903440475,-0.13791249692440033
-1.6669501066207886,4.71405029296875,8.719050407409668,-0.1260875016450882,-0.028737500309944153,-0.12086249887943268
-1.7890501022338867,4.515000343322754,9.601950645446777,-0.14685000479221344,-0.014024999924004078,-0.1331000030040741
-2.0929501056671143,4.575000286102295,9.856050491333008,-0.060087498277425766,-0.0812624990940094,-0.16362500190734863
-2.116950035095215,4.79295015335083,9.355950355529785,0.05596249923110008,-0.13007499277591705,-0.1428624987602234
-1.6570501327514648,4.692000389099121,8.808000564575195,0.14630000293254852,-0.09707500040531158,-0.0976250022649765
-1.225950002670288,4.43595027923584,8.43600082397461,0.2232999950647354,-0.048262499272823334,-0.10257499665021896
-1.1929500102996826,4.351950168609619,8.166000366210938,0.25382500886917114,-0.022549999877810478,-0.13791249692440033
-1.2739500999450684,4.369050025939941,7.98900032043457,0.2367749959230423,-0.03849999979138374,-0.14533749222755432
-1.2600001096725464,4.302000045776367,7.852050304412842,0.16706250607967377,-0.058024998754262924,-0.11962500214576721
-1.1950500011444092,4.146000385284424,8.017050743103027,0.0742499977350235,-0.07259999960660934,-0.09886249899864197
-1.1089500188827515,4.026000022888184,8.223000526428223,0.009487500414252281,-0.06902500241994858,-0.09281250089406967
-1.0870500802993774,3.8610002994537354,8.788050651550293,-0.023512499406933784,-0.04702499881386757,-0.09886249899864197
-1.2310500144958496,3.775050163269043,9.193050384521484,-0.014987500384449959,-0.10683749616146088,-0.13557499647140503
-1.2690000534057617,3.7510502338409424,9.130949974060059,-0.011274999938905239,-0.16788749396800995,-0.15262499451637268
-1.3150500059127808,3.753000259399414,8.767050743103027,-0.013749999925494194,-0.2583625018596649,-0.170912504196167
-1.2960000038146973,3.756000280380249,8.641950607299805,-0.028324998915195465,-0.27059999108314514,-0.17710000276565552
-1.0230000019073486,3.736950159072876,8.688000679016113,-0.013749999925494194,-0.2644124925136566,-0.18438750505447388
-0.7470000386238098,3.68595027923584,8.320950508117676,0.01924999989569187,-0.2656500041484833,-0.22591249644756317
-1.0249500274658203,3.7009501457214355,8.530050277709961,-0.050324998795986176,-0.2180749922990799,-0.32243749499320984
-1.0800000429153442,3.6889500617980957,8.689949989318848,-0.09308750182390213,-0.28283751010894775,-0.33096250891685486
-0.7999500632286072,3.7770001888275146,8.33595085144043,-0.15661250054836273,-0.358599990606308,-0.33467498421669006
-0.3859500288963318,3.765000104904175,8.175000190734863,-0.2470874935388565,-0.30483749508857727,-0.3297249972820282
-0.24495001137256622,3.514050245285034,8.53695011138916,-0.2971374988555908,-0.15578749775886536,-0.3359124958515167
-0.48405003547668457,3.346050262451172,9.407999992370605,-0.31790000200271606,-0.07631249725818634,-0.35667499899864197
-0.5749500393867493,3.3610501289367676,10.105050086975098,-0.31542500853538513,-0.1667875051498413,-0.35667499899864197
-0.48600003123283386,3.346050262451172,10.16295051574707,-0.29218751192092896,-0.2498375028371811,-0.35062500834465027
-0.06705000251531601,3.4399502277374268,9.720000267028809,-0.19208750128746033,-0.34017500281333923,-0.345674991607666
0.1399500072002411,3.643050193786621,9.157050132751465,-0.06861250102519989,-0.2546499967575073,-0.35791251063346863
0.09000000357627869,3.967050075531006,9.009000778198242,0.010724999941885471,-0.11178749799728394,-0.345674991607666
0.13500000536441803,4.171950340270996,9.175950050354004,0.010724999941885471,-0.06159999966621399,-0.2956250011920929
0.13500000536441803,4.194000244140625,9.265050888061523,-0.0625625029206276,-0.16431249678134918,-0.24914999306201935
0.18495000898838043,4.206000328063965,9.258000373840332,-0.10903749614953995,-0.23759999871253967,-0.22343750298023224
0.2760000228881836,4.174950122833252,8.994000434875488,-0.17256249487400055,-0.3255999982357025,-0.1746249943971634
0.6450000405311584,4.170000076293945,9.17400074005127,-0.1896124929189682,-0.2583625018596649,-0.1331000030040741
0.9540000557899475,3.985950231552124,9.516000747680664,-0.12361250072717667,-0.172837495803833,-0.12815000116825104
0.9010500311851501,3.9900002479553223,9.420000076293945,-0.040562499314546585,-0.1545500010251999,-0.16733749210834503
0.753000020980835,4.093050003051758,9.265050888061523,-0.056512501090765,-0.19236250221729279,-0.17586250603199005
0.9160500168800354,4.0570502281188965,9.604950904846191,-0.10408750176429749,-0.23512500524520874,-0.15633749961853027
1.4280000925064087,3.865950107574463,9.732000350952148,-0.040562499314546585,-0.23388749361038208,-0.16609999537467957
1.593000054359436,3.7390501499176025,9.41295051574707,0.08772499859333038,-0.14959999918937683,-0.24062499403953552
1.1650500297546387,3.805950164794922,9.121050834655762,0.16830000281333923,-0.04702499881386757,-0.30896249413490295
0.6810000538825989,3.873000144958496,9.355950355529785,0.12430000305175781,-0.04097500070929527,-0.31638750433921814
0.45795002579689026,3.8970000743865967,9.729000091552734,0.05348749831318855,-0.15702499449253082,-0.2919124960899353
0.7720500230789185,3.7819502353668213,9.660000801086426,0.04619999974966049,-0.26936250925064087,-0.27114999294281006
-0.7500000596046448,5.57295036315918,6.088050365447998,0.04619999974966049,0.029975000768899918,-0.2564375102519989
0.6880500316619873,3.5089502334594727,9.163949966430664,-0.0015124999918043613,0.0017874999903142452,-0.08910000324249268
1.495050072669983,3.2749502658843994,10.030950546264648,0.05596249923110008,-0.22783750295639038,-0.2576749920845032
0.6480000019073486,4.045950412750244,8.712000846862793,0.08524999767541885,-0.21078750491142273,-0.3371500074863434
0.45600003004074097,4.069050312042236,9.103950500488281,0.13048750162124634,-0.017737500369548798,-0.2516250014305115
0.6670500040054321,3.8970000743865967,9.067950248718262,0.19030000269412994,0.031212499365210533,-0.18562500178813934
0.9610500335693359,3.8680500984191895,8.707050323486328,0.1634874939918518,0.021449999883770943,-0.18438750505447388
0.8770500421524048,3.9019501209259033,8.869950294494629,0.08401250094175339,0.009212499484419823,-0.2003374993801117
0.8340000510215759,3.95205020904541,9.058950424194336,0.05224999785423279,-0.016499999910593033,-0.1966249942779541
0.8970000147819519,3.9210002422332764,9.17400074005127,0.0742499977350235,-0.0030249999836087227,-0.17833749949932098
1.002000093460083,3.7890002727508545,9.271950721740723,0.11948750168085098,0.007974999956786633,-0.1685750037431717
1.1290500164031982,3.7729501724243164,9.064050674438477,0.15606249868869781,-0.0030249999836087227,-0.1746249943971634
1.2820500135421753,3.6670501232147217,8.64900016784668,0.15001249313354492,-0.009212499484419823,-0.19415000081062317
1.300950050354004,3.604950189590454,8.716950416564941,0.10724999755620956,0.007974999956786633,-0.23691250383853912
1.2079501152038574,3.6120002269744873,8.83395004272461,0.09748750180006027,0.0006874999962747097,-0.26138749718666077
0.9949500560760498,3.7390501499176025,8.824049949645996,0.11096250265836716,0.0006874999962747097,-0.297962486743927
0.7069500088691711,4.000050067901611,9.021000862121582,0.1340624988079071,0.029975000768899918,-0.29067498445510864
0.7429500222206116,4.033950328826904,8.986950874328613,0.15606249868869781,0.03726249933242798,-0.24914999306201935
0.8179500102996826,3.9930002689361572,8.973000526428223,0.15853749215602875,0.048262499272823334,-0.2320999950170517
0.9439500570297241,3.873000144958496,8.830950736999512,0.14272500574588776,0.04468749836087227,-0.22110000252723694
0.781950056552887,3.8590502738952637,8.872050285339355,0.09377499669790268,0.03478749841451645,-0.234437495470047
0.3340500295162201,3.957000255584717,8.958000183105469,0.030249999836087227,-0.010312499478459358,-0.22714999318122864
-0.003000000026077032,3.970950126647949,9.181050300598145,-0.03932499885559082,-0.05678749829530716,-0.1746249943971634
0.022950001060962677,3.7290000915527344,9.303000450134277,-0.06984999775886536,-0.11426249891519547,-0.10986249893903732
0.17595000565052032,3.516000270843506,9.061050415039062,-0.06132499873638153,-0.12759999930858612,-0.0976250022649765
0.13005000352859497,3.4180500507354736,9.028050422668457,-0.06379999965429306,-0.10078749805688858,-0.1331000030040741
-0.15405000746250153,3.415950059890747,9.032999992370605,-0.0845625028014183,-0.09955000132322311,-0.1966249942779541
-0.6010500192642212,3.4420502185821533,9.166950225830078,-0.11508750170469284,-0.15207499265670776,-0.24062499403953552
-0.7810500264167786,3.4780502319335938,9.265050888061523,-0.12856249511241913,-0.1825999915599823,-0.2540999948978424
-0.9169500470161438,3.4729502201080322,9.38895034790039,-0.09927500039339066,-0.2241249978542328,-0.2784374952316284
-0.8790000677108765,3.5430002212524414,9.070950508117676,0.008249999955296516,-0.2241249978542328,-0.32862499356269836
-1.2139500379562378,3.907050132751465,8.307000160217285,0.12196250259876251,-0.16788749396800995,-0.4067249894142151
-1.7509500980377197,4.527000427246094,7.773000240325928,0.15001249313354492,-0.05073750019073486,-0.40191251039505005
-1.8130500316619873,4.6780500411987305,7.7440505027771,0.07796250283718109,0.03973750025033951,-0.29919999837875366
-1.7239500284194946,4.623000144958496,7.840050220489502,0.01924999989569187,0.05073750019073486,-0.2540999948978424
-1.5730500221252441,4.546050071716309,8.022000312805176,-0.13103750348091125,0.015262499451637268,-0.20886249840259552
-1.6950000524520874,4.603050231933594,8.295000076293945,-0.2751374840736389,-0.045787498354911804,-0.19415000081062317
-1.8630000352859497,4.642050266265869,8.587050437927246,-0.38513749837875366,-0.0873124971985817,-0.1648624986410141
-1.9039500951766968,4.62000036239624,9.15000057220459,-0.43642500042915344,-0.07259999960660934,-0.11604999750852585
-1.758000135421753,4.455000400543213,9.729000091552734,-0.3777124881744385,-0.05555000156164169,-0.06338749825954437
-1.4110500812530518,4.266000270843506,9.811050415039062,-0.2213750034570694,-0.058024998754262924,-0.05252499878406525
-1.0489500761032104,4.394999980926514,8.59695053100586,0.029012499377131462,-0.0030249999836087227,-0.1293874979019165
-1.0060499906539917,4.480950355529785,8.379000663757324,0.007012499962002039,0.021449999883770943,-0.13186250627040863
-0.9750000238418579,4.431000232696533,8.26395034790039,-0.04908749833703041,0.012924999929964542,-0.11962500214576721
-0.8929500579833984,4.453050136566162,8.414999961853027,-0.1200374960899353,-0.0042624999769032,-0.12581250071525574
-0.7429500222206116,4.41195011138916,8.56095027923584,-0.14561249315738678,-0.012787500396370888,-0.13433749973773956
-0.4819500148296356,4.218000411987305,8.575050354003906,-0.14932499825954437,-0.0042624999769032,-0.1611499935388565
-0.44805002212524414,4.050000190734863,8.61405086517334,-0.13708749413490295,0.0030249999836087227,-0.21986250579357147
-0.6540000438690186,4.012050151824951,8.587050437927246,-0.1260875016450882,0.017737500369548798,-0.25891250371932983
-0.7500000596046448,4.000050067901611,8.728050231933594,-0.13103750348091125,0.014024999924004078,-0.26496249437332153
-0.6709500551223755,3.95205020904541,8.992050170898438,-0.13461250066757202,-0.022549999877810478,-0.26743748784065247
-0.4939500093460083,3.873000144958496,9.030000686645508,-0.12361250072717667,-0.048262499272823334,-0.27114999294281006
-0.24495001137256622,3.7270500659942627,9.022950172424316,-0.06627500057220459,-0.06173750013113022,-0.32120001316070557
-0.3330000042915344,3.828000068664551,8.79104995727539,0.0034374999813735485,-0.04221250116825104,-0.3969624936580658
-0.7999500632286072,4.1509504318237305,8.629950523376465,0.008249999955296516,-0.029975000768899918,-0.4409624934196472
-1.152000069618225,4.378050327301025,8.8410005569458,-0.060087498277425766,-0.08002500236034393,-0.41401249170303345
-0.9649500250816345,4.278000354766846,9.010950088500977,-0.12113749980926514,-0.17407499253749847,-0.35420000553131104
-0.6780000329017639,4.105050086975098,9.034950256347656,-0.14079999923706055,-0.21683749556541443,-0.3359124958515167
-0.5530500411987305,3.9469501972198486,9.325050354003906,-0.1200374960899353,-0.19607499241828918,-0.3529624938964844
-0.6319500207901001,3.9780001640319824,9.447000503540039,-0.05403750017285347,-0.17902499437332153,-0.3932499885559082
-0.9720000624656677,4.105050086975098,9.37695026397705,-0.02474999986588955,-0.1863124966621399,-0.4104374945163727
-1.2619500160217285,4.110000133514404,9.801000595092773,-0.04661250114440918,-0.2363625019788742,-0.38472500443458557
-1.0630500316619873,3.9430501461029053,9.9660005569458,-0.021037500351667404,-0.3293125033378601,-0.3676750063896179
-0.9390000700950623,3.8830502033233643,9.97095012664795,0.015675000846385956,-0.3573625087738037,-0.3774375021457672
-0.7810500264167786,3.895050287246704,9.577950477600098,0.12925000488758087,-0.358599990606308,-0.42625001072883606
-0.9529500603675842,4.05495023727417,9.270000457763672,0.22824999690055847,-0.2633124887943268,-0.45925000309944153
-1.2499500513076782,4.13700008392334,9.282000541687012,0.2550624907016754,-0.20336249470710754,-0.44343748688697815
-1.284000039100647,4.090950012207031,9.289050102233887,0.25382500886917114,-0.20102499425411224,-0.4152500033378601
-1.1059499979019165,3.853950262069702,9.349050521850586,0.22948749363422394,-0.23154999315738678,-0.36038750410079956
-0.8119500279426575,3.5089502334594727,9.065999984741211,0.2172500044107437,-0.27431249618530273,-0.3419624865055084
-0.6520500183105469,3.1600501537323,8.728050231933594,0.2232999950647354,-0.23154999315738678,-0.35048750042915344
-0.7260000109672546,2.9440500736236572,8.27400016784668,0.23553749918937683,-0.13859999179840088,-0.3591499924659729
-0.6130500435829163,3.078000068664551,8.56095027923584,0.15001249313354492,-0.060499999672174454,-0.36038750410079956
-0.6160500049591064,3.175950050354004,9.303000450134277,0.07919999957084656,-0.08607500046491623,-0.38472500443458557
-0.7210500240325928,3.327000141143799,9.406050682067871,0.07548750191926956,-0.18012499809265137,-0.43601250648498535
-1.0470000505447388,3.81600022315979,9.235950469970703,0.09501250088214874,-0.1825999915599823,-0.45691248774528503
-1.276050090789795,4.122000217437744,9.178950309753418,0.11948750168085098,-0.12155000120401382,-0.39214998483657837
-1.141950011253357,4.207950115203857,9.11205005645752,0.14024999737739563,-0.05073750019073486,-0.28091248869895935
-1.015950083732605,4.120050430297852,9.1399507522583,0.11948750168085098,-0.03973750025033951,-0.17338749766349792
-0.690000057220459,3.8400001525878906,8.910000801086426,0.05224999785423279,-0.0775500014424324,-0.0695749968290329
-0.37605002522468567,3.412950277328491,9.178950309753418,-0.047849997878074646,-0.11302500218153,-0.0010999999940395355
-0.004950000438839197,3.126000165939331,9.516000747680664,-0.07851249724626541,-0.1545500010251999,0.018424998968839645
0.286050021648407,2.9230501651763916,9.531000137329102,-0.008799999952316284,-0.1667875051498413,-0.002337499987334013
0.286050021648407,2.829000234603882,9.166950225830078,0.08277499675750732,-0.1508374959230423,-0.04262499883770943
0.33900001645088196,2.9010000228881836,8.64900016784668,0.12072499841451645,-0.11055000126361847,-0.06228749826550484
0.3769500255584717,2.9800500869750977,8.659049987792969,0.11219999939203262,-0.07383749634027481,-0.06462500244379044
0.5710500478744507,3.0640501976013184,8.962950706481934,0.09872499853372574,-0.03478749841451645,-0.06338749825954437
0.597000002861023,3.2220001220703125,8.970000267028809,0.08524999767541885,-0.04455000162124634,-0.08428750187158585
0.5520000457763672,3.3820502758026123,8.85105037689209,0.04001250118017197,-0.04702499881386757,-0.09404999762773514
0.4729500114917755,3.492000102996826,8.772000312805176,-0.03451250120997429,-0.04331250116229057,-0.08428750187158585
0.5250000357627869,3.504000186920166,9.032999992370605,-0.11384999752044678,-0.014024999924004078,-0.05128749832510948
0.5640000104904175,3.3490500450134277,9.352950096130371,-0.15537500381469727,0.0017874999903142452,-0.035337500274181366
0.4729500114917755,3.3490500450134277,9.648000717163086,-0.17489999532699585,-0.018975000828504562,-0.04386249929666519
0.33105000853538513,3.4489500522613525,9.777000427246094,-0.142037495970726,-0.09831249713897705,-0.037812501192092896
0.5160000324249268,3.604950189590454,8.896050453186035,0.08772499859333038,0.0849749967455864,-0.023099999874830246
0.3910500109195709,3.655050277709961,8.982000350952148,0.06324999779462814,0.060499999672174454,-0.030524998903274536
0.31995001435279846,3.7290000915527344,8.767050743103027,0.018012499436736107,0.0042624999769032,-0.0170499999076128
0.2639999985694885,3.7699501514434814,8.736000061035156,-0.02708750031888485,0.03726249933242798,0.01223750039935112
0.30300000309944153,3.6739501953125,9.064050674438477,-0.038087498396635056,0.12402500212192535,0.05623750016093254
0.3910500109195709,3.5089502334594727,9.472949981689453,0.008249999955296516,0.18383750319480896,0.08318749815225601
0.3630000054836273,3.466050148010254,9.382050514221191,0.0705375000834465,0.18754999339580536,0.08318749815225601
0.28395000100135803,3.579000234603882,8.946000099182129,0.0705375000834465,0.1765500009059906,0.09171249717473984
0.1660500019788742,3.664950132369995,8.929950714111328,-0.005087499972432852,0.18383750319480896,0.13571250438690186
0.3169500231742859,3.5190000534057617,9.25005054473877,-0.05884999781847,0.18507499992847443,0.1882375031709671
0.4990500211715698,3.397050142288208,9.580950736999512,-0.030799999833106995,0.1863124966621399,0.20281249284744263
0.4510500133037567,3.4680001735687256,9.454050064086914,0.06943749636411667,0.18507499992847443,0.1882375031709671
0.18495000898838043,3.6739501953125,8.881950378417969,0.13653749227523804,0.23154999315738678,0.20776249468326569
0.10905000567436218,3.741000175476074,8.506050109863281,0.09253749996423721,0.2853125035762787,0.27252501249313354
0.22395001351833344,3.598050117492676,8.51294994354248,-0.043037500232458115,0.29631251096725464,0.3250499963760376
0.10395000129938126,3.4300501346588135,8.88900089263916,-0.1993750035762787,0.2620750069618225,0.32999998331069946
-0.3859500288963318,3.454050064086914,9.672000885009766,-0.29961249232292175,0.22055000066757202,0.32628750801086426
-0.5250000357627869,3.295950174331665,9.98805046081543,-0.2983750104904175,0.1387374997138977,0.3531000018119812
-0.4600500166416168,3.1429500579833984,9.904050827026367,-0.22384999692440033,0.10821250081062317,0.33976250886917114
-0.5560500025749207,3.1120500564575195,9.672000885009766,-0.09927500039339066,0.1313125044107437,0.2932874858379364
-0.9769500494003296,3.3610501289367676,9.255000114440918,0.005912499967962503,0.16431249678134918,0.25905001163482666
-1.2120000123977661,3.454050064086914,8.974950790405273,0.0644875019788742,0.20350000262260437,0.2895750105381012
-1.0420500040054321,3.2629501819610596,8.635050773620605,0.07796250283718109,0.2180749922990799,0.32010000944137573
-0.9769500494003296,3.0900001525878906,8.748000144958496,0.06201250106096268,0.24502499401569366,0.3018124997615814
-1.1179500818252563,3.226950168609619,8.6850004196167,0.04619999974966049,0.2572624981403351,0.25905001163482666
-1.533000111579895,3.5520002841949463,8.6850004196167,-0.010037500411272049,0.2718375027179718,0.24076250195503235
-1.76295006275177,3.676950216293335,8.620950698852539,-0.056512501090765,0.2730749845504761,0.25052499771118164
-1.810050129890442,3.6700501441955566,8.878950119018555,-0.1798499971628189,0.26083749532699585,0.3091000020503998
-1.6240500211715698,3.424950122833252,9.375,-0.24832500517368317,0.20473749935626984,0.3190000057220459
-1.453950047492981,3.4009501934051514,9.777000427246094,-0.22866250574588776,0.15702499449253082,0.26881250739097595
-1.363050103187561,3.484950065612793,9.838950157165527,-0.17379999160766602,0.14973749220371246,0.23704999685287476
-1.336050033569336,3.5620501041412354,9.523050308227539,-0.008799999952316284,0.15826250612735748,0.17104999721050262
-1.308000087738037,3.825000286102295,8.692950248718262,0.1060125008225441,0.24131250381469727,0.11247500032186508
-1.276050090789795,3.967050075531006,8.587050437927246,0.1377750039100647,0.3854124844074249,0.07466249912977219
-1.2000000476837158,3.907050132751465,9.175950050354004,0.14272500574588776,0.4465999901294708,0.02199999988079071
-1.6930500268936157,4.033950328826904,9.576000213623047,0.17448750138282776,0.32436248660087585,-0.06104999780654907
-2.890050172805786,4.752000331878662,8.938950538635254,0.147537499666214,0.015262499451637268,-0.07809999585151672
-2.8810501098632812,5.140050411224365,5.968050479888916,-0.32284998893737793,-0.38046249747276306,0.06971249729394913
-1.207050085067749,4.216050148010254,8.664000511169434,-0.47671249508857727,-0.0005499999970197678,0.2750000059604645
-1.1880000829696655,3.2700002193450928,10.978950500488281,-0.010037500411272049,0.5246999859809875,0.24076250195503235
-1.9369500875473022,3.492000102996826,9.886950492858887,0.5018749833106995,0.469837486743927,0.17104999721050262
-1.8390001058578491,3.8800501823425293,8.773950576782227,0.4725874960422516,0.3903625011444092,0.1979999989271164
-1.6600500345230103,3.643050193786621,7.957950592041016,0.1377750039100647,0.08978749811649323,0.19923749566078186
-1.4350500106811523,3.5329501628875732,8.455950736999512,-0.22384999692440033,-0.09226249903440475,0.1467124968767166
-1.6429500579833984,3.5190000534057617,9.375,-0.3301374912261963,-0.15207499265670776,0.10023749619722366
-1.7650500535964966,3.576000213623047,9.724950790405273,-0.18713749945163727,-0.10807500034570694,0.08799999952316284
-1.7239500284194946,3.741000175476074,9.289050102233887,0.030249999836087227,-0.012787500396370888,0.10023749619722366
-1.6810500621795654,3.8680500984191895,8.707050323486328,0.13529999554157257,0.07644999772310257,0.12347500026226044
-1.615950107574463,3.9310503005981445,8.419950485229492,0.05953750014305115,0.045787498354911804,0.1405249983072281
-1.6600500345230103,3.934950113296509,8.665950775146484,-0.11027500033378601,-0.058024998754262924,0.1405249983072281
-1.8820500373840332,3.90405011177063,8.982000350952148,-0.22261250019073486,-0.1765500009059906,0.15399999916553497
-1.8889501094818115,3.8970000743865967,9.057000160217285,-0.23856249451637268,-0.19483749568462372,0.16871249675750732
-1.8490500450134277,3.80400013923645,9.1360502243042,-0.21285000443458557,-0.16183750331401825,0.21147499978542328
-1.6879501342773438,3.6600000858306885,9.364950180053711,-0.12732499837875366,-0.08002500236034393,0.23952500522136688
-1.602000117301941,3.5089502334594727,9.259950637817383,-0.035750001668930054,-0.05678749829530716,0.23952500522136688
-1.5250500440597534,3.4420502185821533,8.913000106811523,-0.005087499972432852,-0.06655000150203705,0.2199999988079071
-1.5210000276565552,3.4300501346588135,8.788050651550293,-0.02956249937415123,-0.06902500241994858,0.18947499990463257
-1.6000500917434692,3.5020501613616943,8.737950325012207,-0.07961250096559525,-0.09831249713897705,0.1662375032901764
-1.6090500354766846,3.5209500789642334,8.743050575256348,-0.10656250268220901,-0.12031249701976776,0.16499999165534973
-1.5090000629425049,3.5430002212524414,8.756999969482422,-0.13832500576972961,-0.13859999179840088,0.17352500557899475
-1.2649500370025635,3.4710001945495605,8.767050743103027,-0.14685000479221344,-0.08978749811649323,0.18328750133514404
-1.1710500717163086,3.258000135421753,9.085050582885742,-0.1223749965429306,0.018975000828504562,0.17352500557899475
-1.1970000267028809,3.1840500831604004,9.364950180053711,-0.07356250286102295,0.09473749995231628,0.15399999916553497
-1.1710500717163086,3.1879501342773438,9.361050605773926,-0.06503749638795853,0.10202500224113464,0.15771250426769257
-0.999000072479248,3.0490500926971436,9.343950271606445,-0.1260875016450882,0.07878749817609787,0.1699499934911728
-0.987000048160553,2.9350502490997314,9.583050727844238,-0.1676124930381775,0.07273750007152557,0.17476250231266022
-0.8290500640869141,2.650050163269043,10.021050453186035,-0.20913749933242798,0.0006874999962747097,0.17971250414848328
-0.4939500093460083,2.3140501976013184,9.91395092010498,-0.17737500369548798,-0.08483749628067017,0.15771250426769257
-0.2850000262260437,2.2930500507354736,9.547050476074219,-0.047849997878074646,-0.017737500369548798,0.12594999372959137
-0.28005000948905945,2.3809502124786377,9.325050354003906,0.11948750168085098,0.11550000309944153,0.1307625025510788
-0.25200000405311584,2.7169501781463623,9.193050384521484,0.18053749203681946,0.15207499265670776,0.1344749927520752
-0.027000000700354576,3.058950185775757,9.067950248718262,0.14396250247955322,0.06297499686479568,0.13199999928474426
0.18105000257492065,3.1810500621795654,8.866950035095215,0.1097249984741211,0.015262499451637268,0.12952500581741333
0.527999997138977,3.3990001678466797,8.728050231933594,0.025437500327825546,0.010449999943375587,0.09542500227689743
0.5089499950408936,3.5239500999450684,8.878950119018555,-0.02708750031888485,0.031212499365210533,0.06476250290870667
0.11595000326633453,3.8520002365112305,10.21500015258789,-0.13103750348091125,0.07026249915361404,0.025712499395012856
-0.027000000700354576,3.8110501766204834,10.72800064086914,-0.05156249925494194,0.06902500241994858,0.030662499368190765
-0.17295001447200775,3.696000099182129,10.657950401306152,0.07548750191926956,0.08373750001192093,0.052662499248981476
-0.10605000704526901,3.544950246810913,10.515000343322754,0.1280124932527542,0.08249999582767487,0.07095000147819519
0.26205000281333923,3.1740002632141113,10.330050468444824,0.21353749930858612,0.06778749823570251,0.07576250284910202
0.5490000247955322,3.037950038909912,10.084050178527832,0.3235374987125397,0.021449999883770943,0.01966249942779541
0.5520000457763672,3.2790000438690186,9.552000045776367,0.4553999900817871,0.010449999943375587,-0.047575000673532486
0.15000000596046448,3.5929501056671143,8.175000190734863,0.4811125099658966,0.014024999924004078,-0.02186249941587448
0.0799500048160553,3.832050085067749,7.981050491333008,0.3503499925136566,0.0006874999962747097,0.018424998968839645
0.13005000352859497,3.8989500999450684,8.187000274658203,0.23801249265670776,0.007974999956786633,0.07699999958276749
0.2689500153064728,3.8869502544403076,8.27595043182373,0.16101250052452087,0.029975000768899918,0.12223749607801437
0.21705001592636108,3.8560502529144287,8.403000831604004,0.11577499657869339,0.04221250116825104,0.1344749927520752
-0.22800001502037048,3.8080501556396484,8.824049949645996,0.002199999988079071,0.027499999850988388,0.16499999165534973
-0.36705002188682556,3.775050163269043,9.48705005645752,-0.11261250078678131,-0.0812624990940094,0.2199999988079071
0.11595000326633453,3.6030001640319824,9.720000267028809,-0.12856249511241913,-0.15812499821186066,0.2578125
0.7030500173568726,3.4180500507354736,8.84595012664795,0.30153748393058777,0.09721250087022781,0.07699999958276749
-1.0230000019073486,4.795050144195557,5.632950305938721,0.16706250607967377,0.08373750001192093,0.06599999964237213
-0.27300000190734863,3.9499502182006836,8.380949974060059,-0.2690874934196472,0.16431249678134918,0.24323749542236328
0.9970500469207764,3.0349502563476562,10.579050064086914,-0.22632500529289246,0.012787500396370888,0.18576249480247498
0.22905001044273376,3.6150002479553223,10.570050239562988,0.08277499675750732,0.05197500064969063,0.04895000159740448
-0.012000000104308128,3.8590502738952637,9.95205020904541,0.20858749747276306,0.11055000126361847,0.059950001537799835
0.2670000195503235,3.7680001258850098,9.760050773620605,0.32958748936653137,0.29878750443458557,0.1564749926328659
-0.012000000104308128,3.892050266265869,8.890950202941895,0.04977500066161156,0.007974999956786633,0.09542500227689743
-0.07905000448226929,4.01894998550415,9.040050506591797,-0.0015124999918043613,-0.021312499418854713,0.1699499934911728
0.11100000888109207,3.90405011177063,9.070950508117676,0.011962499469518661,0.0006874999962747097,0.21504999697208405
0.40800002217292786,3.658050060272217,8.898000717163086,0.08277499675750732,0.0849749967455864,0.23828749358654022
0.10605000704526901,3.748950242996216,8.704950332641602,0.10848750174045563,0.17902499437332153,0.19304999709129333
-0.5460000038146973,3.994950294494629,8.917950630187988,0.05348749831318855,0.17531250417232513,0.18700000643730164
-0.8410500288009644,3.96405029296875,8.785950660705566,-0.043037500232458115,0.05555000156164169,0.25423750281333923
-0.6949500441551208,3.775050163269043,8.475000381469727,-0.1200374960899353,-0.023787500336766243,0.32010000944137573
-0.5920500159263611,3.7080001831054688,8.494050025939941,-0.16279999911785126,0.014024999924004078,0.36410000920295715
-0.597000002861023,3.676950216293335,8.605950355529785,-0.19580000638961792,0.09350000321865082,0.3750999867916107
-0.7980000376701355,3.6100502014160156,8.932050704956055,-0.256850004196167,0.12031249701976776,0.3605250120162964
-1.1470500230789185,3.496950149536133,9.40095043182373,-0.34718748927116394,0.048262499272823334,0.3310999870300293
-1.3510500192642212,3.409050226211548,10.045050621032715,-0.3741374909877777,-0.09226249903440475,0.29823750257492065
-1.2169500589370728,4.540950298309326,8.26395034790039,0.21601249277591705,0.27059999108314514,0.11495000123977661
-1.3320000171661377,4.539000034332275,8.197050094604492,0.05719999969005585,0.20707499980926514,0.11618749797344208
-1.4659500122070312,4.6870503425598145,8.563050270080566,-0.14313749969005585,0.0775500014424324,0.12594999372959137
-1.1539500951766968,4.546050071716309,8.680950164794922,-0.2116124927997589,-0.0017874999903142452,0.16747500002384186
-0.9079500436782837,4.318050384521484,8.793000221252441,-0.14561249315738678,0.08249999582767487,0.17476250231266022
-0.8380500674247742,4.206000328063965,8.970000267028809,-0.021037500351667404,0.19978749752044678,0.14300000667572021
-1.1209501028060913,4.315950393676758,8.962950706481934,0.07301250100135803,0.25478750467300415,0.09171249717473984
-1.423050045967102,4.488000392913818,8.878950119018555,0.05719999969005585,0.19483749568462372,0.08071249723434448
-1.2450000047683716,4.488000392913818,8.85300064086914,0.002199999988079071,0.11426249891519547,0.0989999994635582
-1.1880000829696655,4.465050220489502,8.87700080871582,0.03272499889135361,0.09721250087022781,0.08195000141859055
-1.1779500246047974,4.414050102233887,9.004050254821777,0.06572499871253967,0.09102500230073929,0.10999999940395355
-0.9559500217437744,4.393050193786621,8.970000267028809,0.1023000031709671,0.08002500236034393,0.12718750536441803
-0.7860000133514404,4.371000289916992,8.997000694274902,0.15496249496936798,0.09226249903440475,0.12347500026226044
-0.7980000376701355,4.4070000648498535,8.692950248718262,0.1915374994277954,0.0873124971985817,0.10023749619722366
-1.0470000505447388,4.503000259399414,8.419950485229492,0.14877499639987946,0.07631249725818634,0.08676250278949738
-1.746000051498413,4.692000389099121,8.800050735473633,0.03148749843239784,0.0006874999962747097,0.0989999994635582
-1.8439500331878662,4.729950428009033,9.178950309753418,-0.04675000160932541,-0.10807500034570694,0.17352500557899475
-1.437000036239624,4.405050277709961,9.415950775146484,-0.011274999938905239,-0.12155000120401382,0.22728750109672546
-1.2859500646591187,4.1010003089904785,9.547050476074219,0.12430000305175781,-0.0835999995470047,0.1979999989271164
-1.3000500202178955,4.218000411987305,8.487000465393066,0.27211248874664307,-0.05431250110268593,0.1564749926328659
-2.490000009536743,5.494050025939941,6.552000522613525,0.18782499432563782,0.46736249327659607,0.2700499892234802
-1.1470500230789185,3.3199501037597656,9.030000686645508,0.05472499877214432,0.2560249865055084,0.3750999867916107
-0.42705002427101135,3.1720502376556396,9.994950294494629,0.002199999988079071,-0.26317501068115234,0.13323749601840973
-1.5109500885009766,4.570050239562988,8.54699993133545,-0.03932499885559082,-0.42570000886917114,0.025712499395012856
-1.336050033569336,4.479000091552734,8.515049934387207,-0.0002749999985098839,-0.1545500010251999,0.1467124968767166
-0.9289500713348389,4.258950233459473,8.83905029296875,0.12196250259876251,0.11921250075101852,0.2102375030517578
-0.7260000109672546,4.024050235748291,8.756999969482422,0.1597750037908554,0.14354999363422394,0.18205000460147858
-0.9079500436782837,4.07895040512085,8.383950233459473,0.05719999969005585,0.006737499963492155,0.10147500038146973
-1.0009500980377197,4.222949981689453,8.167950630187988,-0.021037500351667404,-0.04702499881386757,0.08071249723434448
-1.1160000562667847,4.3969502449035645,8.344950675964355,-0.15056249499320984,-0.010312499478459358,0.10147500038146973
-1.01295006275177,4.0980000495910645,9.106950759887695,-0.16279999911785126,0.12278749793767929,0.1625249981880188
-0.856950044631958,3.6940500736236572,9.538050651550293,-0.07851249724626541,0.19373749196529388,0.18576249480247498
-0.7620000243186951,3.5430002212524414,9.556950569152832,-0.03203750029206276,0.19249999523162842,0.17723749577999115
-0.6439500451087952,3.4900500774383545,9.298050880432129,0.04372499883174896,0.13750000298023224,0.14176249504089355
-0.5080500245094299,3.696000099182129,8.756999969482422,0.07672499865293503,0.10573749989271164,0.11618749797344208
-0.19905000925064087,3.9499502182006836,8.515049934387207,0.0644875019788742,0.1545500010251999,0.11976250261068344
-0.04605000093579292,4.029000282287598,8.40000057220459,0.03272499889135361,0.22426250576972961,0.12828749418258667
-0.024000000208616257,4.0219502449035645,8.707050323486328,-0.025987500324845314,0.2475000023841858,0.13928750157356262
0.09000000357627869,3.9880502223968506,9.166950225830078,-0.04675000160932541,0.18273749947547913,0.14794999361038208
0.32895001769065857,3.9690001010894775,8.970000267028809,0.020487500354647636,0.08855000138282776,0.1467124968767166
0.22905001044273376,4.102950096130371,8.187000274658203,0.09129999577999115,0.10944999754428864,0.1381874978542328
-0.05100000277161598,4.4670000076293945,8.10105037689209,0.03396249935030937,0.18507499992847443,0.18095000088214874
0.27195000648498535,4.383000373840332,8.58495044708252,-0.08208750188350677,0.1802625060081482,0.28228750824928284
0.6570000052452087,3.957000255584717,8.986950874328613,-0.16637499630451202,0.10326249897480011,0.3067624866962433
0.736050009727478,3.864000082015991,9.12405014038086,-0.18837499618530273,0.05926249921321869,0.2810499966144562
0.7600500583648682,3.8800501823425293,9.26205062866211,-0.1993750035762787,0.027499999850988388,0.24447499215602875
0.6480000019073486,4.077000141143799,9.607050895690918,-0.16885000467300415,0.020212499424815178,0.18576249480247498
0.5610000491142273,4.165050029754639,9.616950035095215,-0.1200374960899353,0.03726249933242798,0.16871249675750732
0.583050012588501,4.2970499992370605,9.38895034790039,-0.003987499978393316,0.10202500224113464,0.15152500569820404
0.5710500478744507,4.339950084686279,9.214950561523438,0.04372499883174896,0.14231249690055847,0.14423750340938568
0.4440000355243683,4.546050071716309,9.025050163269043,0.07919999957084656,0.19002500176429749,0.13695000112056732
0.3820500075817108,4.6180500984191895,8.932050704956055,0.06077500060200691,0.16926249861717224,0.14423750340938568
0.49695003032684326,4.675050258636475,8.937000274658203,-0.028324998915195465,0.08978749811649323,0.17723749577999115
0.7620000243186951,4.522050380706787,8.860050201416016,-0.1297999918460846,-0.016499999910593033,0.1979999989271164
0.9280500411987305,4.417050361633301,8.872050285339355,-0.1639000028371811,-0.03849999979138374,0.1979999989271164
0.9970500469207764,4.189050197601318,9.052050590515137,-0.16513749957084656,-0.009212499484419823,0.1845249980688095
0.8820000290870667,4.105050086975098,9.282000541687012,-0.09679999947547913,0.036024998873472214,0.16376249492168427
0.8410500288009644,4.110000133514404,9.265050888061523,-0.025849999859929085,0.029975000768899918,0.15152500569820404
0.973050057888031,4.062000274658203,9.306000709533691,0.011962499469518661,0.011687500402331352,0.13695000112056732
0.5470499992370605,4.171950340270996,8.56605052947998,0.09624999761581421,-0.04455000162124634,-0.04386249929666519
0.5299500226974487,4.1770501136779785,8.83905029296875,0.07548750191926956,0.006737499963492155,-0.004812499973922968
0.6760500073432922,4.0219502449035645,8.854949951171875,0.07177499681711197,0.018975000828504562,0.01347499992698431
0.9919500350952148,3.7200002670288086,8.854949951171875,0.030249999836087227,0.017737500369548798,-0.015812499448657036
0.5879999995231628,3.7990500926971436,9.091950416564941,-0.08937499672174454,-0.07878749817609787,-0.13557499647140503
0.5160000324249268,3.825000286102295,9.361050605773926,-0.10037499666213989,-0.0812624990940094,-0.13433749973773956
0.6499500274658203,3.715050220489502,9.46095085144043,-0.005087499972432852,-0.058024998754262924,-0.12086249887943268
0.9709500670433044,3.6220502853393555,8.82705020904541,0.08772499859333038,-0.04207500070333481,-0.14409999549388885
0.9919500350952148,3.724950075149536,8.719050407409668,0.09019999951124191,0.020212499424815178,-0.20391249656677246
0.7840500473976135,3.80400013923645,8.898000717163086,0.05953750014305115,0.010449999943375587,-0.24186250567436218
0.781950056552887,3.7890002727508545,8.829000473022461,0.04743750020861626,-0.03726249933242798,-0.2564375102519989
0.8100000619888306,3.748950242996216,8.700000762939453,0.04977500066161156,-0.03973750025033951,-0.2626250088214874
0.597000002861023,3.8110501766204834,8.464950561523438,0.0644875019788742,0.010449999943375587,-0.273624986410141
0.24000000953674316,3.967050075531006,8.532000541687012,0.04372499883174896,0.08373750001192093,-0.2516250014305115
0.08205000311136246,3.9400501251220703,8.997000694274902,-0.010037500411272049,0.09831249713897705,-0.20886249840259552
0.06105000153183937,3.8230502605438232,9.351000785827637,-0.040562499314546585,0.05555000156164169,-0.19415000081062317
0.027000000700354576,3.8230502605438232,9.279000282287598,-0.03684999793767929,0.03849999979138374,-0.19415000081062317
-0.07695000618696213,3.813000202178955,9.109050750732422,-0.04675000160932541,0.036024998873472214,-0.1929125040769577
-0.14205001294612885,3.753000259399414,8.992050170898438,-0.07961250096559525,0.060499999672174454,-0.20886249840259552
-0.5920500159263611,3.765000104904175,9.169050216674805,-0.1297999918460846,0.08855000138282776,-0.2441999912261963
-1.0350000858306885,3.7699501514434814,9.319950103759766,-0.1676124930381775,0.027499999850988388,-0.23333749175071716
-0.9720000624656677,3.598050117492676,9.15195083618164,-0.1993750035762787,-0.11783749610185623,-0.2149125039577484
-0.6250500082969666,3.544950246810913,8.902950286865234,-0.18232500553131104,-0.18507499992847443,-0.2516250014305115
-0.49800002574920654,3.544950246810913,8.80305004119873,-0.07851249724626541,-0.12278749793767929,-0.3199625015258789
-0.8620500564575195,3.805950164794922,8.689949989318848,0.0705375000834465,0.026262499392032623,-0.38596248626708984
-1.4149500131607056,4.180050373077393,8.43600082397461,0.15125000476837158,0.13255000114440918,-0.3957250118255615
-1.6429500579833984,4.3470001220703125,8.302050590515137,0.09143749624490738,0.16554999351501465,-0.3517250120639801
-1.67205011844635,4.285050392150879,8.377050399780273,-0.057612501084804535,0.11797499656677246,-0.3139125108718872
-1.6950000524520874,4.062000274658203,9.190950393676758,-0.26413750648498535,-0.005499999970197678,-0.30291250348091125
-1.915950059890747,4.1509504318237305,9.625950813293457,-0.23608750104904175,-0.017737500369548798,-0.31872498989105225
-2.2390501499176025,4.5960001945495605,9.624000549316406,-0.11027500033378601,-0.0042624999769032,-0.28696250915527344
-1.7890501022338867,4.564949989318848,9.028050422668457,0.022962499409914017,0.043449997901916504,-0.19786250591278076
-1.2790501117706299,4.3090500831604,8.941950798034668,0.07177499681711197,0.10326249897480011,-0.1868624985218048
-1.1830500364303589,4.1509504318237305,9.231000900268555,0.0681999996304512,0.043449997901916504,-0.2638624906539917
-2.1000001430511475,4.5360002517700195,7.881000518798828,0.04743750020861626,-0.11783749610185623,-0.37014999985694885
-4.138050079345703,6.2410502433776855,6.436950206756592,-0.19456249475479126,0.12773749232292175,-0.16362500190734863
-1.9489500522613525,4.0570502281188965,9.753000259399414,-0.32394999265670776,0.06173750013113022,0.04166249930858612
-1.6330500841140747,3.6220502853393555,10.692000389099121,-0.13708749413490295,-0.2400749921798706,-0.10615000128746033
-2.7780001163482666,4.672950267791748,9.082950592041016,0.015675000846385956,-0.2864125072956085,-0.08786249905824661
-2.1100502014160156,4.186950206756592,8.664000511169434,0.03519999980926514,-0.1350249946117401,0.045237500220537186
-1.8079501390457153,4.04295015335083,8.53695011138916,0.08772499859333038,0.03726249933242798,0.05623750016093254
-1.7860500812530518,3.9619503021240234,8.403000831604004,0.05224999785423279,0.06173750013113022,0.040424998849630356
-1.9609501361846924,4.038000106811523,8.431950569152832,-0.04908749833703041,-0.012787500396370888,0.03918749839067459
-1.64805006980896,3.873000144958496,8.776050567626953,-0.1223749965429306,-0.05431250110268593,0.0611874982714653
-1.2960000038146973,3.813000202178955,9.18600082397461,-0.0845625028014183,-0.053075000643730164,0.03189999982714653
-1.224000096321106,3.8970000743865967,8.878950119018555,0.020487500354647636,-0.031075000762939453,-0.018287500366568565
-1.363050103187561,4.04295015335083,8.338050842285156,0.05843750014901161,-0.0042624999769032,-0.04028749838471413
-1.7389501333236694,4.189050197601318,8.218950271606445,-0.002749999985098839,0.009212499484419823,-0.02928750030696392
-1.9009500741958618,4.255949974060059,8.53695011138916,-0.02956249937415123,0.048262499272823334,0.037950001657009125
-1.6570501327514648,4.084050178527832,8.755050659179688,-0.04179999977350235,0.08002500236034393,0.0989999994635582
-1.5640500783920288,3.933000087738037,8.938950538635254,-0.060087498277425766,0.03726249933242798,0.10395000129938126
-1.4940000772476196,3.922950267791748,8.67300033569336,-0.0882750004529953,-0.010312499478459358,0.09652499854564667
-1.7890501022338867,3.9589502811431885,8.974950790405273,-0.1297999918460846,-0.007974999956786633,0.0929500013589859
-1.9039500951766968,4.05495023727417,9.246000289916992,-0.10532499849796295,-0.03355000168085098,0.11371249705553055
-1.8649500608444214,4.090950012207031,8.824049949645996,-0.045512501150369644,-0.0518375001847744,0.13571250438690186
-2.662950038909912,5.014950275421143,7.8949503898620605,0.04001250118017197,0.2498375028371811,0.17104999721050262
-1.6840500831604004,4.387950420379639,8.866950035095215,-0.030799999833106995,0.2595999836921692,0.3115749955177307
-1.3290001153945923,3.813000202178955,9.133049964904785,-0.1676124930381775,-0.04455000162124634,0.233474999666214
-2.007000207901001,4.249050140380859,9.205050468444824,-0.2470874935388565,-0.15812499821186066,0.16871249675750732
-2.0689501762390137,4.483950138092041,9.181050300598145,-0.12361250072717667,-0.007974999956786633,0.25657498836517334
-1.8030000925064087,4.351950168609619,9.327000617980957,-0.02708750031888485,0.0849749967455864,0.32257500290870667
-1.1830500364303589,4.01894998550415,8.982000350952148,0.0999625027179718,0.148499995470047,0.3568125069141388
-1.0470000505447388,4.038000106811523,8.479050636291504,0.07672499865293503,0.0849749967455864,0.30799999833106995
-1.1020500659942627,4.052999973297119,8.391000747680664,0.025437500327825546,0.04702499881386757,0.2872374951839447
-1.0470000505447388,3.973950147628784,8.569950103759766,-0.055275000631809235,0.0017874999903142452,0.2675749957561493
-0.9919500350952148,3.8560502529144287,8.85300064086914,-0.050324998795986176,0.031212499365210533,0.24447499215602875
-0.987000048160553,3.876000165939331,8.934000015258789,-0.003987499978393316,0.05678749829530716,0.21381250023841858
-1.0780500173568726,3.9280502796173096,8.86305046081543,0.015675000846385956,0.04702499881386757,0.19552500545978546
-0.9750000238418579,3.925950288772583,8.733000755310059,-0.002749999985098839,0.026262499392032623,0.18576249480247498
-0.9049500226974487,3.885000228881836,8.878950119018555,-0.01251249946653843,0.0494999997317791,0.17971250414848328
-0.9679500460624695,3.745950222015381,9.265050888061523,0.013199999928474426,0.13750000298023224,0.15771250426769257
-0.9919500350952148,3.6529502868652344,9.339000701904297,0.05719999969005585,0.18383750319480896,0.11371249705553055
-1.0249500274658203,3.6700501441955566,9.106950759887695,0.05596249923110008,0.1765500009059906,0.07576250284910202
-1.1040000915527344,3.555000066757202,9.045000076293945,0.002199999988079071,0.17902499437332153,0.05142499879002571
-1.516050100326538,3.6979501247406006,9.6670503616333,-0.008799999952316284,0.13255000114440918,0.029424998909235
-1.423050045967102,3.634050130844116,9.847050666809082,0.08648750185966492,0.014024999924004078,0.07823749631643295
-0.6970500349998474,3.504000186920166,9.10200023651123,0.2330625057220459,-0.0518375001847744,0.09652499854564667
-0.29205000400543213,3.658050060272217,8.167950630187988,0.3283500075340271,0.06655000150203705,0.07947500050067902
-0.5320500135421753,3.775050163269043,8.167950630187988,0.2745875120162964,0.20707499980926514,0.08552499860525131
-0.5770500302314758,3.8779501914978027,8.569950103759766,0.11453749984502792,0.20350000262260437,0.11976250261068344
-0.40005001425743103,3.8080501556396484,9.229050636291504,-0.02227500081062317,0.17531250417232513,0.15028749406337738
-0.45795002579689026,3.796950101852417,9.454050064086914,-0.0906125009059906,0.17173749208450317,0.14423750340938568
-0.6850500106811523,3.7390501499176025,9.910950660705566,-0.17613749206066132,0.14973749220371246,0.1344749927520752
-0.931950032711029,3.796950101852417,10.621950149536133,-0.20308749377727509,0.06297499686479568,0.13199999928474426
-0.8839500546455383,3.7819502353668213,10.870950698852539,-0.142037495970726,0.0042624999769032,0.1527625024318695
-0.20595000684261322,3.4450502395629883,9.895050048828125,0.12553749978542328,0.018975000828504562,0.1882375031709671
0.22095000743865967,3.4330501556396484,8.97705078125,0.43463748693466187,0.30607500672340393,0.1527625024318695
0.05400000140070915,3.5089502334594727,8.677950859069824,0.5726875066757202,0.494174987077713,0.10271249711513519
-0.05295000225305557,3.68595027923584,8.31195068359375,0.4871625006198883,0.3793624937534332,0.062424998730421066
-0.14400000870227814,3.9930002689361572,8.029050827026367,0.26124998927116394,0.16926249861717224,0.052662499248981476
-0.06495000422000885,4.0410003662109375,7.870950222015381,0.010724999941885471,0.017737500369548798,0.08676250278949738
-0.028950002044439316,3.895050287246704,8.419950485229492,-0.1798499971628189,0.022687500342726707,0.10999999940395355
0.07500000298023224,3.8230502605438232,9.385050773620605,-0.008799999952316284,0.2595999836921692,0.032999999821186066
-0.3520500063896179,4.213050365447998,9.11400032043457,0.05101250112056732,0.24860000610351562,-0.010862499475479126
-0.5100000500679016,4.2870001792907715,8.785950660705566,-0.02474999986588955,0.1508374959230423,0.018424998968839645
-0.6319500207901001,4.255949974060059,8.869950294494629,-0.13103750348091125,0.0775500014424324,0.037950001657009125
-0.6040500402450562,4.219950199127197,8.946000099182129,-0.16032500565052032,0.05926249921321869,0.06971249729394913
-0.5560500025749207,4.126950263977051,9.11205005645752,-0.11384999752044678,0.12155000120401382,0.08071249723434448
-0.5850000381469727,4.165050029754639,9.175950050354004,-0.03203750029206276,0.17902499437332153,0.08799999952316284
-0.5770500302314758,4.168050289154053,8.98905086517334,0.0424874983727932,0.2217874974012375,0.10752499848604202
-0.7380000352859497,4.206000328063965,8.824049949645996,0.05596249923110008,0.2180749922990799,0.13323749601840973
-0.7900500297546387,4.351950168609619,8.788050651550293,0.011962499469518661,0.16554999351501465,0.18095000088214874
-0.7549500465393066,4.4070000648498535,8.707050323486328,-0.01484999991953373,0.14231249690055847,0.21147499978542328
-0.7159500122070312,4.359000205993652,8.697000503540039,-0.08084999769926071,0.15578749775886536,0.27252501249313354
-0.7429500222206116,4.147950172424316,8.857950210571289,-0.142037495970726,0.21312500536441803,0.31404998898506165
-1.152000069618225,3.922950267791748,9.523050308227539,-0.20666250586509705,0.2583625018596649,0.32133749127388
-1.6840500831604004,3.876000165939331,9.954000473022461,-0.256850004196167,0.1825999915599823,0.32257500290870667
-2.004000186920166,3.7770001888275146,10.207950592041016,-0.2616625130176544,0.05678749829530716,0.3543374836444855
-1.966050148010254,3.6790502071380615,10.050000190734863,-0.23732499778270721,-0.006737499963492155,0.3702875077724457
-1.7340000867843628,3.507000207901001,9.504000663757324,-0.16032500565052032,-0.07631249725818634,0.3763374984264374
-1.5640500783920288,3.3820502758026123,9.12600040435791,-0.07356250286102295,-0.04455000162124634,0.3568125069141388
-1.699950098991394,3.4300501346588135,9.013050079345703,-0.006324999965727329,0.0030249999836087227,0.32133749127388
-1.6909500360488892,3.5089502334594727,8.929950714111328,0.029012499377131462,0.011549999937415123,0.32010000944137573
-1.5450000762939453,3.5209500789642334,8.499000549316406,0.0424874983727932,0.06407500058412552,0.32381248474121094
-1.5970500707626343,3.427950143814087,8.392950057983398,0.0009624999947845936,0.19359999895095825,0.31404998898506165
-1.9920001029968262,3.394050121307373,9.255000114440918,-0.08332499861717224,0.2461249977350235,0.2993375062942505
-2.1100502014160156,3.3130502700805664,9.622050285339355,-0.11261250078678131,0.09473749995231628,0.29081249237060547
-1.912950038909912,3.4039502143859863,9.307950019836426,-0.07851249724626541,-0.0005499999970197678,0.2700499892234802
-1.8199501037597656,3.4830002784729004,8.653950691223145,0.008249999955296516,0.03231250122189522,0.24928750097751617
-2.0089499950408936,3.7200002670288086,8.27595043182373,0.04619999974966049,0.1387374997138977,0.23828749358654022
-2.1409502029418945,3.835050106048584,8.403000831604004,-0.011274999938905239,0.13378749787807465,0.25052499771118164
-2.014050006866455,3.8010001182556152,8.416950225830078,-0.04908749833703041,0.09102500230073929,0.25423750281333923
-1.615950107574463,3.6670501232147217,8.551050186157227,-0.0906125009059906,0.017737500369548798,0.21381250023841858
-1.7100000381469727,3.8200502395629883,8.455950736999512,-0.045512501150369644,0.04702499881386757,0.1247124969959259
-2.116950035095215,4.222949981689453,8.202000617980957,-0.010037500411272049,0.1313125044107437,0.08566249907016754
-3.3160500526428223,5.377050399780273,6.367950439453125,-0.3484250009059906,0.1387374997138977,0.22481249272823334
-1.2690000534057617,3.6220502853393555,10.026000022888184,-0.5647125244140625,0.10326249897480011,0.2957625091075897
-1.5210000276565552,3.5400002002716064,11.14905071258545,-0.21889999508857727,0.045787498354911804,0.11618749797344208
