accX,accY,accZ,gyroX,gyroY,gyroZ
-0.10618150234222412,4.2571306228637695,7.503293514251709,-0.31382277607917786,0.4252260625362396,-1.722741961479187
-0.5108676552772522,3.8383865356445312,8.204689979553223,-0.24052110314369202,0.13751699030399323,-1.890725016593933
0.19770696759223938,3.0840492248535156,7.965108394622803,-0.23624517023563385,-0.05123481526970863,-1.8644585609436035
0.6598208546638489,2.437688112258911,8.037192344665527,-0.10979979485273361,0.20898611843585968,-1.7441216707229614
3.9182469844818115,1.5687943696975708,9.62901782989502,-0.005955760832875967,0.5046361684799194,-1.5077236890792847
3.609273910522461,6.761518478393555,8.757730484008789,0.0587940476834774,0.7587486505508423,-0.4228590130805969
-1.9474585056304932,3.25663161277771,9.136096000671387,0.4271349310874939,-0.15568970143795013,-0.9652913808822632
-1.4518451690673828,3.8790645599365234,8.709874153137207,0.5376983284950256,-0.42751672863960266,-1.006829023361206
-0.8318049907684326,4.642673969268799,8.245368003845215,0.6299362182617188,-0.6602495312690735,-0.9768974781036377
-0.5156532526016235,4.7096734046936035,9.013762474060059,0.5395308136940002,-0.5814502239227295,-0.9604045748710632
-0.6735795736312866,4.858027935028076,7.3283185958862305,0.2151709496974945,-0.49593162536621094,-0.941468358039856
-1.2625130414962769,4.580460548400879,8.542376518249512,0.25121092796325684,-0.5154787302017212,-0.9695672988891602
-1.1596217155456543,4.700101852416992,8.793622970581055,0.18279604613780975,-0.5289173722267151,-1.0245435237884521
-0.5706881880760193,5.114359378814697,8.259724617004395,-0.0010689827613532543,-0.5454102754592896,-1.004996418952942
-0.5467599630355835,5.040181636810303,8.111370086669922,-0.2026485800743103,-0.36398860812187195,-0.9335273504257202
-0.8581260442733765,4.877170562744141,7.881359577178955,-0.22463907301425934,-0.24792763590812683,-0.8980981707572937
-1.0399805307388306,4.802993297576904,7.850253105163574,-0.15622419118881226,-0.2778591513633728,-0.8877137899398804
-1.04715895652771,4.7264227867126465,7.816753387451172,-0.04810422286391258,-0.35360419750213623,-0.8718317747116089
-0.8147560954093933,4.781457901000977,8.116155624389648,0.16874656081199646,-0.5600705742835999,-0.7423321604728699
-0.5084748268127441,5.3440704345703125,8.274081230163574,0.21944688260555267,-0.6498651504516602,-0.6433748602867126
-0.47258245944976807,6.02901554107666,8.479864120483398,0.2017323076725006,-0.643756628036499,-0.43018919229507446
-0.6879364848136902,5.8612189292907715,8.6907320022583,0.06734590977430344,-0.5173112750053406,-0.47539186477661133
-0.3577269911766052,5.590830326080322,8.522934913635254,-0.05787777900695801,-0.3841465711593628,-0.5059342384338379
-0.39601215720176697,5.281857013702393,8.233403205871582,-0.033443886786699295,-0.2815242409706116,-0.44546034932136536
-0.247358039021492,5.370391368865967,8.348258972167969,0.07467607408761978,-0.1074327602982521,-0.4106420576572418
-0.4989035129547119,5.265107154846191,8.43440055847168,0.19256959855556488,0.023288551717996597,-0.35627666115760803
-1.0304092168807983,5.305785179138184,9.020941734313965,0.27564483880996704,-0.02435753494501114,-0.41797223687171936
-0.9897312521934509,5.167001247406006,9.136096000671387,0.3599417507648468,-0.2381540685892105,-0.4888305068016052
-0.7501499056816101,5.013860702514648,8.970691680908203,0.409420371055603,-0.33466795086860657,-0.48455458879470825
-1.145264744758606,5.473581790924072,8.386544227600098,0.7020162343978882,0.06421531736850739,-0.32695600390434265
-1.3677972555160522,5.662614822387695,8.321938514709473,0.5810684561729431,0.055052608251571655,-0.4027010500431061
-1.2290135622024536,5.574080467224121,9.562018394470215,0.4253024160861969,0.11308310180902481,-0.4387410581111908
-0.5850451588630676,5.028217792510986,9.100203514099121,0.47172680497169495,-0.08605311065912247,-0.06184828653931618
-1.8346967697143555,4.444069862365723,9.241379737854004,0.3605526089668274,0.11674818396568298,-0.06245913356542587
-2.134098768234253,4.429712772369385,9.059226989746094,0.3171824514865875,0.044668205082416534,-0.11987877637147903
-2.1053848266601562,4.759922504425049,9.001798629760742,0.14675605297088623,-0.07200361788272858,-0.2047865390777588
-1.973779559135437,4.755136966705322,8.94676399230957,-0.11957334727048874,-0.2662530541419983,-0.2793098986148834
-1.5092729330062866,4.530211448669434,7.936394691467285,-0.29061058163642883,-0.6040515899658203,-0.33917292952537537
-1.3630115985870361,4.283451557159424,7.215855598449707,-0.13484452664852142,-0.5509078502655029,-0.3434488773345947
-1.2505489587783813,4.173381805419922,7.244569778442383,0.12965233623981476,-0.4623350203037262,-0.3452814221382141
-1.540379524230957,4.276273250579834,7.994121551513672,0.32817769050598145,-0.2760266065597534,-0.34100547432899475
-1.76051926612854,4.463212490081787,8.52054214477539,0.2976353168487549,-0.16301986575126648,-0.3458922505378723
-1.6671991348266602,4.645066738128662,8.398508071899414,0.06490252166986465,-0.11293038725852966,-0.3348970115184784
-1.571486234664917,4.930111885070801,8.082655906677246,-0.13545538485050201,-0.17890189588069916,-0.31596073508262634
-1.4590235948562622,5.013860702514648,7.072286605834961,-0.0975828468799591,-0.2381540685892105,-0.2939702570438385
-1.5954145193099976,4.944468975067139,7.1488566398620605,0.08994726091623306,-0.21799612045288086,-0.23960483074188232
-1.7437695264816284,4.992325305938721,7.802396297454834,0.18218518793582916,-0.19417306780815125,-0.22433365881443024
-1.7461622953414917,5.135894775390625,8.166404724121094,0.09544488787651062,-0.14469444751739502,-0.23166382312774658
-1.7102699279785156,5.222036361694336,8.075477600097656,0.01969982497394085,-0.13003410398960114,-0.23655059933662415
-1.7437695264816284,5.300999641418457,7.881359577178955,-0.0859767496585846,-0.11415208131074905,-0.2579302489757538
-1.815554141998291,5.36560583114624,7.733004570007324,-0.05726693198084831,-0.19783815741539001,-0.28908345103263855
-1.6719847917556763,5.406283855438232,7.299604415893555,0.0984991192817688,-0.1624090075492859,-0.34283801913261414
-1.784447431564331,5.672185897827148,7.816753387451172,0.16752485930919647,-0.07505785673856735,-0.34222719073295593
-1.9570298194885254,5.767899036407471,8.068299293518066,0.11499200016260147,-0.012140588834881783,-0.33978378772735596
-2.299203395843506,5.808577060699463,7.89332389831543,0.0594048947095871,0.01046075951308012,-0.3367295563220978
-2.433201551437378,6.163013935089111,9.155238151550293,-0.0841442123055458,-0.2118876427412033,-0.3190149664878845
-1.7581263780593872,6.232405662536621,8.113762855529785,-0.23196925222873688,-0.3591018319129944,-0.3348970115184784
-1.9450657367706299,6.335297107696533,7.58943510055542,-0.2845021188259125,-0.3926984369754791,-0.3104631304740906
-1.9040886163711548,6.27786922454834,7.5702924728393555,-0.3223746418952942,-0.45500484108924866,-0.2848075330257416
-1.882553219795227,6.364010810852051,8.168797492980957,-0.35597124695777893,-0.5435777306556702,-0.22189027070999146
-1.72941255569458,6.330511569976807,8.058727264404297,-0.35658207535743713,-0.6181010603904724,-0.19440214335918427
-1.8634105920791626,6.1965131759643555,7.895716667175293,-0.26373329758644104,-0.5814502239227295,-0.17180079221725464
-1.3872389793395996,6.1534423828125,8.08504867553711,-0.13240113854408264,-0.4464530050754547,-0.19256959855556488
-1.4470595121383667,6.019145488739014,8.331509590148926,-0.12934690713882446,-0.3542150557041168,-0.18768282234668732
-1.609771490097046,5.653043270111084,8.544769287109375,-0.05115845799446106,-0.31084489822387695,-0.1760767251253128
-1.4159528017044067,5.370391368865967,8.707481384277344,0.11377029865980148,-0.2503710091114044,-0.1510319858789444
-1.3510475158691406,5.279464244842529,8.941978454589844,0.2011214643716812,-0.2919086217880249,-0.09239064902067184
-1.4470595121383667,5.480760097503662,8.906085968017578,0.2298312783241272,-0.40430453419685364,-0.1107160672545433
-1.2577273845672607,5.643472194671631,8.688339233398438,0.20906247198581696,-0.5167004466056824,-0.18279604613780975
-0.714257538318634,5.48793888092041,8.733802795410156,0.07834116369485855,-0.5331932902336121,-0.27747735381126404
0.1378864049911499,5.245964527130127,8.57348346710205,-0.12079504877328873,-0.4916556775569916,-0.2817533016204834
0.22642084956169128,5.260321617126465,8.585447311401367,-0.2020377367734909,-0.3566584289073944,-0.22433365881443024
-0.33379876613616943,4.082454681396484,9.420842170715332,-0.3083251416683197,-0.308401495218277,-0.18523943424224854
-0.18753747642040253,3.4887354373931885,9.205488204956055,-0.31443363428115845,-0.3566584289073944,-0.21394924819469452
0.14027923345565796,3.5030922889709473,8.657232284545898,-0.2838912606239319,-0.33772218227386475,-0.254265159368515
0.5784648656845093,3.8958144187927246,8.980263710021973,-0.2588465213775635,-0.3169533610343933,-0.27503398060798645
0.1666002720594406,4.37228536605835,7.718647480010986,-0.2716743052005768,-0.1611873209476471,-0.21394924819469452
0.13549357652664185,4.28823709487915,8.008478164672852,-0.12751436233520508,-0.07444700598716736,-0.17974179983139038
0.2910270392894745,4.096811294555664,7.491329669952393,0.1382041871547699,0.10514208674430847,-0.12659808993339539
0.2838485836982727,4.120739459991455,8.144868850708008,0.3110739588737488,0.217537984251976,-0.11865708231925964
0.11156535893678665,4.192524433135986,8.702695846557617,0.3318427801132202,0.2212030589580536,-0.11865708231925964
0.16899310052394867,4.393820762634277,9.298808097839355,0.2176143378019333,0.14912308752536774,-0.125987246632576
0.19770696759223938,4.408177375793457,9.37298583984375,-0.02733541466295719,0.10880716890096664,-0.1253764033317566
0.2910270392894745,4.400999069213867,9.193523406982422,-0.1629435122013092,0.09109259396791458,-0.12659808993339539
0.355932354927063,4.4344987869262695,8.563912391662598,-0.32787227630615234,0.09659022092819214,-0.08383878320455551
0.25752753019332886,4.556532382965088,8.003692626953125,-0.2918322682380676,0.07337802648544312,-0.0007635590736754239
0.06370890140533447,4.4584269523620605,7.539186000823975,-0.10552386194467545,0.11063970625400543,0.06642963737249374
-0.10857433080673218,4.448855400085449,7.65164852142334,-0.012675080448389053,0.1008661538362503,0.06887302547693253
-0.11096715182065964,4.611567497253418,7.835896015167236,0.049020491540431976,0.058717694133520126,0.04993676394224167
0.0852443054318428,4.752744197845459,8.348258972167969,0.05329642444849014,-0.0035887276753783226,0.032222192734479904
0.10677970945835114,4.771886348724365,8.597412109375,-0.012675080448389053,-0.00908635277301073,0.03527642786502838
0.054137613624334335,4.824528694152832,8.479864120483398,-0.18676654994487762,0.044668205082416534,0.05238015204668045
-0.027218356728553772,4.798207759857178,8.353044509887695,-0.2557922899723053,0.10025530308485031,0.04871506989002228
-0.18753747642040253,4.812564373016357,8.245368003845215,-0.3199312388896942,0.19004985690116882,0.009620844386518002
-0.28115665912628174,4.8675994873046875,8.216653823852539,-0.2655658423900604,0.20043425261974335,-0.039857782423496246
-0.1540379524230957,4.886742115020752,8.228617668151855,-0.12018419802188873,0.12163496017456055,-0.07956285774707794
0.1666002720594406,5.090431213378906,7.934001445770264,0.04963133856654167,0.07032378762960434,-0.056961506605148315
0.2072782665491104,5.3440704345703125,7.666005611419678,0.20784078538417816,0.18699561059474945,-0.014813045971095562
0.00867398176342249,5.56450891494751,8.07069206237793,0.3202366828918457,0.3494809865951538,0.004734066314995289
-0.24017956852912903,5.614758491516113,8.482256889343262,0.35505497455596924,0.378190815448761,0.004734066314995289
-0.33858439326286316,5.7032928466796875,8.602197647094727,0.3110739588737488,0.33054471015930176,-0.019088976085186005
-0.4462614357471466,5.796612739562988,8.439186096191406,0.2029540091753006,0.3378748893737793,-0.03008422814309597
-0.5108676552772522,5.839683532714844,8.381758689880371,0.21211670339107513,0.34642675518989563,-0.04169032722711563
-0.6735795736312866,5.832505226135254,8.259724617004395,0.2951919436454773,0.38552096486091614,-0.0331384651362896
-0.7908278703689575,5.787041664123535,8.367402076721191,0.3312319219112396,0.3733040392398834,-0.0331384651362896
-0.7692924737930298,5.693721294403076,8.635697364807129,0.3446705639362335,0.2981698215007782,-0.05757235363125801
-0.6879364848136902,5.547759532928467,9.095118522644043,0.2518217861652374,0.24991288781166077,-0.06917845457792282
-0.6807580590248108,5.782256126403809,9.509376525878906,0.1113269105553627,0.18394137918949127,-0.03680354729294777
-0.8533403873443604,5.763113498687744,8.630910873413086,0.036192700266838074,0.22242476046085358,0.03955236077308655
-1.1644073724746704,5.799005508422852,8.216653823852539,0.14064757525920868,0.15950748324394226,0.09086353331804276
-1.2553346157073975,5.825326919555664,8.700303077697754,0.2927485406398773,0.07398887723684311,0.09697200357913971
-1.2529417276382446,5.4158549308776855,9.198308944702148,0.27197974920272827,-0.04146125912666321,0.09147437661886215
-1.425524115562439,4.673780918121338,9.282057762145996,0.14858859777450562,-0.061619218438863754,0.08964183181524277
-1.4685949087142944,4.439284324645996,9.148059844970703,0.00259610079228878,0.028786176815629005,0.07681404054164886
-1.6360924243927002,4.506283283233643,8.740981101989746,-0.07498150318861008,0.12163496017456055,0.08842013776302338
-1.7676976919174194,4.163810729980469,8.491828918457031,0.012369656935334206,0.14667969942092896,0.08903098851442337
-1.8035900592803955,4.06331205368042,8.671588897705078,0.14614520967006683,0.07704310864210129,0.07314895838499069
-1.8921245336532593,4.163810729980469,8.599804878234863,0.18707197904586792,0.007406522985547781,0.09513945877552032
-1.8083757162094116,4.408177375793457,8.491828918457031,0.14309096336364746,-0.06039752438664436,0.10491301864385605
-1.7581263780593872,4.52781867980957,8.262117385864258,0.12293300777673721,-0.07566870748996735,0.11285403370857239
-1.8490537405014038,4.561318397521973,8.015656471252441,0.11377029865980148,-0.05673243850469589,0.14400723576545715
-2.2082762718200684,4.575675010681152,7.5535430908203125,0.11804623156785965,0.09720107167959213,0.14400723576545715
-2.2561326026916504,4.2020955085754395,9.478269577026367,-0.10979979485273361,-0.13003410398960114,0.07314895838499069
-1.8011972904205322,4.216452598571777,8.841479301452637,-0.3339807391166687,-0.11170869320631027,-0.014813045971095562
-1.724626898765564,4.530211448669434,7.9316086769104,-0.43415969610214233,0.04222481697797775,-0.0050394898280501366
-1.7341982126235962,4.53499698638916,8.006085395812988,-0.45676103234291077,-0.007253811229020357,0.01817270554602146
-1.7892330884933472,4.731208801269531,8.231010437011719,-0.42072105407714844,-0.173404261469841,0.026724567636847496
-1.8873388767242432,4.769493579864502,8.595019340515137,-0.44637662172317505,-0.26075541973114014,0.04443913698196411
-1.827518343925476,4.79102897644043,7.934001445770264,-0.4665345847606659,-0.31328830122947693,0.06887302547693253
-1.674377679824829,4.695316314697266,7.412067413330078,-0.3981196880340576,-0.226547971367836,0.0841442123055458
-1.5260226726531982,4.802993297576904,7.321139812469482,-0.27717193961143494,-0.255257785320282,0.07009471952915192
-1.2529417276382446,4.930111885070801,8.7505521774292,-0.3968980014324188,-0.11659546941518784,0.007177455350756645
-1.0328021049499512,4.939683437347412,8.0922269821167,-0.3761292099952698,-0.1740151196718216,0.02489202655851841
-1.0088738203048706,4.848456859588623,7.63729190826416,-0.16844113171100616,-0.09338327497243881,0.07864658534526825
-1.2242279052734375,4.7958149909973145,7.6875410079956055,0.09361234307289124,-0.01885990984737873,0.11407572776079178
-1.0399805307388306,5.497509956359863,8.606983184814453,0.26464956998825073,-0.015194825828075409,0.04443913698196411
-1.0184451341629028,5.660222053527832,8.673981666564941,0.20600824058055878,-0.10560022294521332,0.037108972668647766
-0.9299107193946838,5.700900077819824,8.037192344665527,0.21944688260555267,-0.10315682739019394,0.042606595903635025
-1.1404790878295898,5.791827201843262,8.522934913635254,0.30191126465797424,0.04100312292575836,0.005344913341104984
-1.07826566696167,5.789434432983398,8.752944946289062,0.2811424434185028,0.05322006717324257,-0.00992626789957285
-1.1476575136184692,5.911468505859375,8.7505521774292,0.28847262263298035,0.06482616811990738,0.009009997360408306
-1.2242279052734375,5.8612189292907715,8.82951545715332,0.3049654960632324,0.04405735805630684,0.005344913341104984
-1.0304092168807983,5.401497840881348,8.982656478881836,0.31534990668296814,0.02817532978951931,0.0022906772792339325
-1.0639088153839111,5.305785179138184,9.181559562683105,0.3184041380882263,0.0745997205376625,0.031000498682260513
-1.1021939516067505,5.6554365158081055,9.004191398620605,0.2915268540382385,0.11369394510984421,0.06032116711139679
-0.9203394055366516,5.820540904998779,8.269295692443848,0.3239017724990845,-0.01885990984737873,0.03588727489113808
-0.9179465770721436,6.0263237953186035,8.599804878234863,0.36482852697372437,-0.23265644907951355,-0.058183200657367706
-0.5252245664596558,5.6099724769592285,8.980263710021973,0.32512345910072327,-0.26197710633277893,-0.1785201132297516
-0.4103690981864929,4.903491973876953,9.535696983337402,0.15958385169506073,-0.10926530510187149,-0.2176143378019333
-0.5300102233886719,4.393820762634277,9.926026344299316,-0.043828289955854416,0.1295759677886963,-0.21394924819469452
-0.6400800347328186,4.389034748077393,9.59791088104248,-0.16783028841018677,0.2444152534008026,-0.23532891273498535
-0.5443671345710754,4.271487712860107,8.762516975402832,-0.06581879407167435,0.16195088624954224,-0.254265159368515
-0.47976094484329224,4.269094467163086,7.9005022048950195,0.20845162868499756,0.11674818396568298,-0.2151709496974945
-0.15164513885974884,4.47278356552124,7.567899703979492,0.4362976551055908,0.25479966402053833,-0.2029540091753006
-0.4893322288990021,5.0377888679504395,8.319544792175293,0.2829749882221222,0.2554105222225189,-0.2548760175704956
-0.6616154313087463,5.059324264526367,8.254939079284668,0.025808297097682953,0.15217731893062592,-0.2689255177974701
-0.6759724020957947,4.688137531280518,8.482256889343262,-0.3993414044380188,0.06849125027656555,-0.36666107177734375
-0.625723123550415,4.647459983825684,8.40329360961914,-0.4653128981590271,0.13568444550037384,-0.33856210112571716
-0.5611169338226318,4.874777793884277,8.42722225189209,-0.43477052450180054,0.09109259396791458,-0.26281702518463135
-0.5826523303985596,5.164608478546143,8.149654388427734,-0.3504736125469208,-0.0823880210518837,-0.22127941250801086
-0.7022934556007385,5.121537685394287,7.661220073699951,-0.23868857324123383,-0.23265644907951355,-0.20784078538417816
-0.6735795736312866,5.224429130554199,7.697112083435059,-0.19409671425819397,-0.250981867313385,-0.1882936656475067
-0.7046862840652466,5.2746782302856445,7.8287177085876465,-0.27472856640815735,-0.20639002323150635,-0.16141638159751892
-0.7597211599349976,5.37278413772583,7.77607536315918,-0.35597124695777893,-0.10926530510187149,-0.15836215019226074
-0.7932206988334656,5.420640468597412,7.823931694030762,-0.34131091833114624,-0.09765920788049698,-0.17241163551807404
-0.8051848411560059,5.4158549308776855,7.8454670906066895,-0.2295258641242981,-0.11476293206214905,-0.18340688943862915
-0.7740781307220459,5.480760097503662,7.76889705657959,-0.06826218217611313,-0.0811663269996643,-0.17118994891643524
-0.7740781307220459,5.523830890655518,7.898109436035156,0.06856760382652283,0.030007870867848396,-0.1388150453567505
-0.9897312521934509,5.854040622711182,8.796015739440918,0.11682453751564026,0.006184828467667103,-0.04413371533155441
-1.0304092168807983,5.6793646812438965,8.748159408569336,0.16752485930919647,0.05444176122546196,-0.025808297097682953
-1.0064810514450073,5.458925724029541,8.757730484008789,0.2530434727668762,0.037948887795209885,0.0022906772792339325
-1.0256235599517822,5.332106113433838,8.666803359985352,0.3092414140701294,-0.00908635277301073,0.03833066672086716
-1.1548360586166382,5.48793888092041,8.422436714172363,0.31657159328460693,0.019623467698693275,0.04810422286391258
-1.5379867553710938,5.940182209014893,8.410472869873047,0.20845162868499756,0.22486814856529236,-0.05390727147459984
-1.8873388767242432,5.293820858001709,9.087940216064453,0.15775130689144135,0.19860170781612396,-0.07834116369485855
-2.1221346855163574,4.499104976654053,9.669994354248047,0.10460758954286575,0.12285665422677994,-0.058183200657367706
-2.191526412963867,4.127918243408203,9.863813400268555,0.07345438003540039,0.052609220147132874,-0.024586603045463562
-2.189133644104004,4.13270378112793,9.260522842407227,0.09605573117733002,-0.013362283818423748,0.005344913341104984
-2.0503499507904053,4.053740501403809,8.57348346710205,0.20539739727973938,-0.05856497958302498,0.027946261689066887
-1.906481385231018,4.24995231628418,7.682755470275879,0.42041563987731934,-0.06223006546497345,0.09391776472330093
-2.7972097396850586,4.182952880859375,7.424330234527588,0.6366555690765381,-0.027411770075559616,0.0981936976313591
-1.8634105920791626,4.884349346160889,6.92393159866333,0.8021951913833618,-0.13125580549240112,0.11346487700939178
-1.76051926612854,4.563711166381836,6.940680980682373,0.8877137899398804,-0.25770118832588196,0.2038702666759491
-1.6169499158859253,4.860421180725098,7.134500026702881,1.1101385354995728,-0.11720632016658783,0.15561333298683167
-0.8509475588798523,5.423033237457275,7.208677291870117,1.2164260149002075,-0.2124984860420227,0.2826695740222931
-0.9155537486076355,5.03061056137085,7.591827869415283,1.0221002101898193,0.07704310864210129,0.44698747992515564
-1.6839489936828613,4.716851711273193,8.496614456176758,0.6116108298301697,0.3629196286201477,0.4934118688106537
-2.4284157752990723,5.2507500648498535,8.798408508300781,0.008704573847353458,0.4826456904411316,0.4140017330646515
-2.3350958824157715,5.8133625984191895,7.666005611419678,-0.27656111121177673,-0.5692332983016968,-0.26159533858299255
-2.282453775405884,5.753541946411133,7.251748085021973,-0.4121691882610321,-0.5325824618339539,-0.32939937710762024
-1.7270197868347168,5.9545392990112305,7.395317554473877,-0.6620057225227356,-0.4342360496520996,-0.4124746024608612
-1.394417405128479,6.299404621124268,7.230212688446045,-0.8037222623825073,-0.4214082658290863,-0.40758782625198364
-1.1045867204666138,6.366403579711914,7.1799635887146,-0.7682931423187256,-0.40552622079849243,-0.30130040645599365
-1.0663015842437744,6.34726095199585,7.098607540130615,-0.6949914693832397,-0.3737621605396271,-0.22311195731163025
-1.3414762020111084,6.129514217376709,7.002894401550293,-0.48791423439979553,-0.16851748526096344,-0.06612421572208405
-1.4877375364303589,6.052944183349609,7.024429798126221,-0.3761292099952698,-0.05673243850469589,-0.01175880990922451
-1.578664779663086,6.0625152587890625,7.127321243286133,-0.15744587779045105,0.10636378079652786,0.04504998400807381
-1.5451651811599731,6.1534423828125,7.213462829589844,-0.05115845799446106,0.12224581092596054,0.0725381150841713
-1.578664779663086,6.3616180419921875,7.301997184753418,0.12354385852813721,0.05932854115962982,0.12873606383800507
-1.6504493951797485,6.397510528564453,7.522436141967773,0.1913478970527649,0.025121092796325684,0.14461809396743774
-1.693520188331604,6.371189594268799,7.610970497131348,0.18768282234668732,0.03306210786104202,0.14889401197433472
-1.9016958475112915,6.442974090576172,7.761718273162842,0.1632489264011383,0.05077667906880379,0.1507265567779541
-2.112563371658325,6.594020843505859,8.147261619567871,0.1516428291797638,-0.03962871432304382,0.13240113854408264
-2.1699910163879395,6.675376892089844,8.037192344665527,0.0984991192817688,-0.24670593440532684,0.05482354015111923
-1.547558069229126,6.562615394592285,7.472187042236328,0.01847812905907631,-0.3279486298561096,-0.01847812905907631
-1.0351948738098145,6.625127792358398,6.900003433227539,0.08017370104789734,-0.2778591513633728,0.03405473381280899
-0.49651068449020386,6.380760669708252,6.504888534545898,0.32939937710762024,0.026342788711190224,0.2044811248779297
-1.0112667083740234,6.61794900894165,7.28046178817749,0.6232169270515442,0.42400434613227844,0.42072105407714844
-1.8705891370773315,6.213263034820557,7.929215908050537,0.7374453544616699,0.6487961411476135,0.4628695249557495
-2.2322044372558594,6.273083686828613,8.142476081848145,0.6537593007087708,0.6274164915084839,0.37796175479888916
-1.6863417625427246,6.6107707023620605,8.784051895141602,0.462564080953598,0.5296809077262878,0.27411770820617676
-1.5308083295822144,6.773482799530029,7.024429798126221,0.45706647634506226,0.3262687921524048,0.23807771503925323
-1.0974082946777344,6.969694137573242,7.06271505355835,0.5224271416664124,0.43622130155563354,0.27717193961143494
-1.5068800449371338,6.646663188934326,7.613363265991211,0.5010474920272827,0.5064687132835388,0.2582356929779053
-1.6217355728149414,6.335297107696533,8.614161491394043,0.32634514570236206,0.47165045142173767,0.1525591015815735
-1.7868403196334839,5.753541946411133,8.496614456176758,0.09727742522954941,0.2822877764701843,0.02733541466295719
-1.2529417276382446,6.206084728240967,8.19511890411377,-0.0065666078589856625,0.24869118630886078,-0.03680354729294777
-1.6145570278167725,5.897111415863037,8.345866203308105,-0.22586077451705933,0.33054471015930176,-0.001374406274408102
-1.547558069229126,5.691328525543213,7.733004570007324,-0.2289150059223175,0.4020138382911682,-0.04046862944960594
-1.7509479522705078,5.30339241027832,7.890930652618408,-0.10613471269607544,0.5999283790588379,0.02733541466295719
-1.7126628160476685,5.348855972290039,7.639684677124023,-0.013896775431931019,0.7782957553863525,0.062153708189725876
-1.5284154415130615,5.5692949295043945,7.1249284744262695,0.1113269105553627,0.8790855407714844,0.11590826511383057
-1.5212370157241821,5.717649936676025,6.93828821182251,0.17485502362251282,0.8864157199859619,0.13423368334770203
-1.6360924243927002,5.854040622711182,6.748956203460693,0.2793098986148834,0.8913025259971619,0.15500248968601227
-2.1149561405181885,6.02393102645874,6.9358954429626465,0.30740886926651,1.0415709018707275,0.1507265567779541
-2.299203395843506,5.796612739562988,7.670791149139404,0.19928891956806183,0.9914814829826355,0.10674555599689484
-2.531606435775757,5.705685615539551,7.486543655395508,0.19623468816280365,0.6671215891838074,0.021226942539215088
-2.885744094848633,6.105586051940918,7.361817836761475,0.24632415175437927,0.39834877848625183,-0.06734590977430344
-2.840280532836914,6.067300796508789,7.498507976531982,0.20600824058055878,0.35436776280403137,-0.10888352245092392
-3.7094733715057373,6.3376898765563965,8.666803359985352,-0.09025268256664276,0.17600037157535553,-0.23716144263744354
-3.386143207550049,5.949753284454346,8.448758125305176,-0.2515163719654083,0.09170344471931458,-0.30252209305763245
-3.690330743789673,6.483652114868164,7.929215908050537,-0.29794076085090637,-0.0017561858985573053,-0.33917292952537537
-2.8115665912628174,6.761518478393555,7.878966808319092,-0.21242213249206543,-0.3010713458061218,-0.35138988494873047
-2.2082762718200684,7.007979393005371,7.843074321746826,-0.4158342778682709,-0.5240305662155151,-0.30985227227211
-2.143670082092285,6.883552551269531,7.510472297668457,-0.733474850654602,-0.6284855008125305,-0.21089501678943634
-2.8043880462646484,6.792625427246094,7.926823139190674,-0.9093988537788391,-0.8465579152107239,-0.14858859777450562
-2.7326035499572754,6.438188552856445,7.862216949462891,-0.927724301815033,-1.184356451034546,-0.20051060616970062
-2.1699910163879395,6.1534423828125,7.680362701416016,-0.9619317054748535,-1.3095802068710327,-0.30313295125961304
-1.04715895652771,5.583651542663574,7.855038642883301,-1.2508624792099,-0.9644514918327332,-0.31657159328460693
-0.49172505736351013,5.8133625984191895,8.357830047607422,-1.4817627668380737,-1.129991054534912,-0.3232909142971039
-1.0375877618789673,5.406283855438232,7.2182488441467285,-1.5025315284729004,-0.8282325267791748,-0.13331741094589233
-1.1620144844055176,4.9755754470825195,7.165606498718262,-1.3968549966812134,-0.6498651504516602,-0.11560284346342087
-1.0136594772338867,5.059324264526367,7.2589263916015625,-1.0724951028823853,-0.5032618045806885,-0.12781979143619537
-0.7094719409942627,5.234000205993652,7.443472862243652,-0.7017107605934143,-0.4476746916770935,-0.12720894813537598
-0.6185446381568909,5.234000205993652,7.917252063751221,-0.41827765107154846,-0.4330143630504608,-0.09116895496845245
-0.5395814776420593,5.109573841094971,8.254939079284668,-0.23624517023563385,-0.46722179651260376,-0.051463883370161057
-0.3768695592880249,5.128716468811035,8.889336585998535,-0.13179029524326324,-0.4458421468734741,-0.03436015918850899
-0.24257239699363708,5.260321617126465,8.623732566833496,-0.0988045409321785,-0.42873841524124146,-0.016645587980747223
0.0038883367087692022,5.2411789894104,8.238189697265625,-0.07498150318861008,-0.22899135947227478,0.0462716780602932
-0.24975086748600006,4.8436713218688965,8.453543663024902,-0.007177455350756645,-0.010308047756552696,0.07498150318861008
-0.2186441719532013,4.910969257354736,8.616554260253906,0.06551336497068405,0.09231429547071457,0.024281177669763565
-0.21146570146083832,4.96121883392334,8.69791030883789,0.10033166408538818,0.15584240853786469,-0.0068720318377017975
-0.22821545600891113,5.016253471374512,9.140881538391113,0.14125843346118927,0.24930204451084137,-0.008093725889921188
-0.2186441719532013,5.028217792510986,9.334700584411621,0.10949437320232391,0.26212984323501587,0.0841442123055458
-0.6544370055198669,4.59721040725708,9.492626190185547,0.01847812905907631,0.34337252378463745,0.15988926589488983
-0.9705886840820312,5.025825023651123,8.731410026550293,-0.034665580838918686,0.31649523973464966,0.03833066672086716
-0.9729815125465393,4.774279594421387,8.740981101989746,0.06734590977430344,0.31527355313301086,-0.025808297097682953
-1.023230791091919,4.396213531494141,9.078369140625,0.17485502362251282,0.3116084635257721,-0.08017370104789734
-0.9442676305770874,3.984348773956299,9.246166229248047,0.2835858464241028,0.31527355313301086,-0.1119377613067627
-0.8772686123847961,3.438486099243164,9.554840087890625,0.36971530318260193,0.3219928741455078,-0.1620272397994995
-0.905982494354248,3.2518460750579834,9.648159980773926,0.41736137866973877,0.3384857475757599,-0.20845162868499756
-0.9658030271530151,3.249453067779541,9.585947036743164,0.44668206572532654,0.3256579339504242,-0.2573194205760956
-1.0710872411727905,3.242274761199951,9.566803932189941,0.4411844313144684,0.2609081268310547,-0.28664007782936096
-1.3127623796463013,3.232703447341919,9.416056632995605,0.4253024160861969,0.09475768357515335,-0.2921377122402191
-1.4781662225723267,3.438486099243164,9.097810745239258,0.40636613965034485,-0.08544225990772247,-0.3245126008987427
-1.6671991348266602,3.7929229736328125,8.882157325744629,0.4014793634414673,-0.29496288299560547,-0.3874298632144928
-1.7078771591186523,3.8551363945007324,8.707481384277344,0.4039227366447449,-0.41407808661460876,-0.4277457892894745
-1.583450436592102,3.775874137878418,8.676374435424805,0.3984251320362091,-0.6358156204223633,-0.5065450668334961
-1.389631748199463,3.7471601963043213,8.63330364227295,0.33978378772735596,-0.7476006746292114,-0.5609105229377747
-1.4015958309173584,3.819244146347046,8.870193481445312,0.2279987335205078,-0.7237776517868042,-0.6281036734580994
-1.4470595121383667,3.835993766784668,8.934800148010254,0.1656923145055771,-0.7195017337799072,-0.6623111367225647
-1.4925230741500854,3.6849467754364014,9.087940216064453,0.06551336497068405,-0.727442741394043,-0.7429429888725281
-1.4111671447753906,3.3690943717956543,9.437591552734375,-0.04932591691613197,-0.7897491455078125,-0.8504521250724792
-1.236191987991333,3.3068809509277344,9.241379737854004,-0.15805672109127045,-0.9216921329498291,-0.9622371196746826
-1.169192910194397,3.3882367610931396,8.94676399230957,-0.1892099380493164,-0.9656731486320496,-1.0043855905532837
-1.150050401687622,3.6131622791290283,8.405686378479004,-0.18004722893238068,-0.9736141562461853,-1.078908920288086
-1.1979068517684937,3.538984775543213,8.348258972167969,-0.09697200357913971,-0.9039775729179382,-1.1711468696594238
-1.205085277557373,3.3236305713653564,8.343473434448242,0.009315420873463154,-0.8838196396827698,-1.268271565437317
-0.9777671694755554,3.4815568923950195,8.503792762756348,0.04718795046210289,-0.8942040205001831,-1.389830231666565
-0.9538389444351196,3.835993766784668,8.767302513122559,0.024586603045463562,-0.9394067525863647,-1.4930634498596191
-0.8003991842269897,3.8455650806427,8.547162055969238,0.001374406274408102,-1.0059890747070312,-1.5828579664230347
-0.7549355626106262,3.4552359580993652,8.563912391662598,0.06001574173569679,-0.9888853430747986,-1.640277624130249
-0.5994020700454712,3.3236305713653564,8.915657043457031,0.15530791878700256,-0.986441969871521,-1.7160226106643677
-0.9873384237289429,3.3547372817993164,9.621838569641113,0.21028417348861694,-1.0444724559783936,-1.770388126373291
-1.0710872411727905,3.328416347503662,9.463912963867188,0.19745637476444244,-1.1813021898269653,-1.8577392101287842
-0.90358966588974,3.22552490234375,8.841479301452637,0.2145601063966751,-1.1782480478286743,-1.926764965057373
-0.8318049907684326,3.2446675300598145,8.262117385864258,0.30252209305763245,-1.0346988439559937,-1.9518096446990967
-1.1093723773956299,3.3882367610931396,8.865407943725586,0.4161396920681,-0.9082534909248352,-2.007396697998047
-1.461416482925415,3.634697675704956,9.662816047668457,0.45950984954833984,-0.9504019618034363,-2.109408378601074
-1.4997016191482544,3.6083765029907227,10.036096572875977,0.411863774061203,-1.1415971517562866,-2.193781614303589
-1.0495518445968628,3.4983067512512207,10.01456069946289,0.29091599583625793,-1.3535611629486084,-2.240206003189087
-0.534795880317688,3.651447296142578,9.81117057800293,0.14797775447368622,-1.4067049026489258,-2.222491502761841
-0.3194418251514435,3.751945972442627,9.035298347473145,0.027029991149902344,-1.351117730140686,-2.0984129905700684
-0.8294121623039246,3.3643085956573486,8.544769287109375,0.011147962883114815,-1.1470948457717896,-1.9823520183563232
-1.2864413261413574,3.1079776287078857,8.616554260253906,0.08078455179929733,-1.083566665649414,-1.9945690631866455
-1.51166570186615,3.4576287269592285,8.06112003326416,0.18340688943862915,-1.0383639335632324,-2.0684814453125
-1.4063814878463745,3.5844483375549316,9.241379737854004,0.26037365198135376,-1.1568683385849,-2.127199172973633
-1.231406331062317,3.7160534858703613,9.760921478271484,0.21394924819469452,-1.4128133058547974,-2.2188262939453125
-0.534795880317688,4.0680975914001465,8.547162055969238,-0.0022906772792339325,-1.3486744165420532,-2.232264995574951
-0.1540379524230957,3.8024942874908447,8.41286563873291,-0.27839362621307373,-1.0023239850997925,-2.0965805053710938
-0.10857433080673218,3.7016966342926025,8.872586250305176,-0.42072105407714844,-0.8740460872650146,-2.001288414001465
-0.16121642291545868,4.0202412605285645,8.949156761169434,-0.3590254783630371,-0.9247463941574097,-1.9420361518859863
-0.12771691381931305,4.321736812591553,8.515756607055664,-0.20631365478038788,-0.9601755142211914,-1.8650693893432617
-0.041575293987989426,4.5206403732299805,8.190332412719727,-0.08231166750192642,-0.9192487597465515,-1.7673338651657104
-0.041575293987989426,4.71445894241333,8.381758689880371,0.0038177953101694584,-0.7689803242683411,-1.6964755058288574
-0.03678964823484421,4.712066173553467,8.781659126281738,0.031916771084070206,-0.7280535697937012,-1.6494402885437012
0.3846462368965149,4.774279594421387,7.948358535766602,0.06856760382652283,-0.7262210249900818,-1.5999616384506226
0.06849455088376999,4.415356159210205,9.506983757019043,0.20967331528663635,-0.676742434501648,-1.5126105546951294
0.13070793449878693,4.37228536605835,9.8207426071167,0.2915268540382385,-0.652919352054596,-1.4026579856872559
0.43489551544189453,4.700101852416992,9.047262191772461,0.36543938517570496,-0.5881695747375488,-1.310420036315918
0.3846462368965149,4.707280158996582,8.17119026184082,0.4424061179161072,-0.6388698816299438,-1.238340139389038
0.7794619798660278,4.810171604156494,7.39771032333374,0.49677154421806335,-0.6804074645042419,-1.2224581241607666
1.0070792436599731,4.869992256164551,7.017251491546631,0.5883986353874207,-0.3969743549823761,-1.187639832496643
0.91136634349823,5.147858619689941,6.533602237701416,0.7826480269432068,0.15217731893062592,-1.0905150175094604
-0.09661021083593369,4.855635166168213,6.4187469482421875,1.0630269050598145,0.817389965057373,-0.959793746471405
-0.40319061279296875,5.37278413772583,8.159226417541504,1.3954042196273804,1.4814573526382446,-0.881605327129364
-0.5635097622871399,6.2036919593811035,8.398508071899414,1.5157411098480225,1.2230689525604248,-0.8565605878829956
-1.4207384586334229,6.234798431396484,9.11695384979248,1.5065784454345703,0.9701017737388611,-0.8547280430793762
-1.705484390258789,6.160621166229248,9.966704368591309,1.3544774055480957,0.8485432267189026,-0.8669449687004089
-2.119741678237915,6.39511775970459,9.59073257446289,0.8913788795471191,0.60909104347229,-0.8467870354652405
-2.3590240478515625,6.397510528564453,9.148059844970703,0.7136223316192627,0.5406761765480042,-0.826018214225769
-2.1460628509521484,6.366403579711914,8.542376518249512,0.5920637249946594,0.43744298815727234,-0.7869240045547485
-1.8729819059371948,6.373582363128662,8.104190826416016,0.6610894203186035,0.2712925374507904,-0.6946860551834106
-2.0742781162261963,6.160621166229248,7.620542049407959,0.8559496998786926,0.008017370477318764,-0.6232169270515442
-2.0288145542144775,6.328118801116943,7.230212688446045,1.0453124046325684,-0.24792763590812683,-0.6128324866294861
-2.0527427196502686,6.342475414276123,7.024429798126221,1.1412917375564575,-0.2803025245666504,-0.5645755529403687
-2.3805594444274902,6.170192241668701,7.098607540130615,1.1651147603988647,-0.22227205336093903,-0.5395308136940002
-2.940778970718384,6.151049613952637,7.469794273376465,1.110749363899231,-0.2625879645347595,-0.6555918455123901
-3.103790044784546,6.364010810852051,7.39771032333374,0.9622371196746826,-0.35360419750213623,-0.8247964978218079
-4.092324733734131,7.118049144744873,9.423234939575195,0.3703261613845825,-0.5588488578796387,-0.8736643195152283
-4.140181541442871,6.620342254638672,8.020442008972168,0.013591351918876171,-1.1318236589431763,-1.0691354274749756
