accX,accY,accZ,gyroX,gyroY,gyroZ
-0.9573933482170105,3.441904306411743,9.685303688049316,-0.43015384674072266,-0.539795458316803,0.2137504667043686
-1.3877463340759277,3.5356037616729736,9.525657653808594,-0.3983888626098633,-0.4237310290336609,0.2797239124774933
-1.3168108463287354,3.618807077407837,9.373126983642578,-0.40168753266334534,-0.4591786861419678,0.38268089294433594
-1.0762702226638794,3.4642086029052734,9.44448471069336,-0.39306560158729553,-0.49530699849128723,0.4106934368610382
-0.8119791150093079,3.2743005752563477,8.943367958068848,-0.40830233693122864,-0.5887519121170044,0.4375191330909729
-0.45023441314697266,3.3610377311706543,8.824146270751953,-0.5325697660446167,-0.6882182359695435,0.44057345390319824
-0.2201899290084839,3.290935516357422,8.936817169189453,-0.5920854806900024,-0.6783047318458557,0.4276929199695587
0.11651142686605453,2.9289608001708984,9.338766098022461,-0.5977752804756165,-0.5187991261482239,0.3781779408454895
0.3972746729850769,2.726698637008667,9.616339683532715,-0.4896521270275116,-0.21389010548591614,0.3321536183357239
0.4682196378707886,2.694808006286621,9.659368515014648,-0.4369780719280243,-0.04225442185997963,0.31260591745376587
0.19495505094528198,2.0332517623901367,9.905378341674805,-0.3237760365009308,-0.1313011199235916,0.23036600649356842
0.9846776723861694,1.706510305404663,9.960769653320312,-0.27111944556236267,-0.5889788269996643,0.0501258559525013
1.1622412204742432,2.208028554916382,9.77196216583252,-0.293756365776062,-0.43938663601875305,-0.16249015927314758
0.9207716584205627,2.3241376876831055,9.894986152648926,-0.2785545587539673,-0.27111944556236267,-0.2226167470216751
0.2647029161453247,2.31890869140625,9.792160034179688,-0.15990707278251648,0.009110618382692337,-0.20120155811309814
0.053591810166835785,2.4061150550842285,9.648469924926758,-0.08658578246831894,0.040020398795604706,-0.14636331796646118
-0.08426631987094879,2.662907600402832,9.754006385803223,0.02816961333155632,-0.012653636746108532,-0.06237806752324104
0.12979446351528168,2.7873964309692383,9.608880043029785,0.04984660446643829,0.03159045800566673,-0.054995324462652206
-0.09776961803436279,2.8686652183532715,9.549243927001953,0.04738568887114525,0.0018325956771150231,-0.1189616397023201
-0.1226310059428215,2.8397817611694336,9.43227481842041,0.05740387737751007,-0.11494738608598709,-0.18797196447849274
-0.07827123999595642,2.8359127044677734,9.530973434448242,0.06703809648752213,-0.14700908958911896,-0.1892111450433731
-0.14514607191085815,2.7038581371307373,9.486517906188965,0.08419468253850937,-0.1480737328529358,-0.16582372784614563
-0.08689036220312119,2.648350954055786,9.334178924560547,0.05993460491299629,-0.11690215021371841,-0.1287703961133957
0.009404423646628857,2.651702880859375,9.288372039794922,0.04056145250797272,-0.09826203435659409,-0.12061970680952072
-0.06562985479831696,2.673633575439453,9.426393508911133,0.002024581888690591,-0.0411897711455822,-0.07616616785526276
0.017707515507936478,2.6878457069396973,9.544523239135742,0.014119713567197323,0.030176742002367973,-0.016842426732182503
0.10849563777446747,2.689406633377075,9.422811508178711,0.032794736325740814,0.0040317103266716,0.004468042869120836
0.42649349570274353,2.8640685081481934,9.336697578430176,-0.05661848187446594,-0.1800307184457779,-0.003403391921892762
0.4899015426635742,2.8343515396118164,10.121018409729004,-0.07663740962743759,-0.047769661992788315,-0.08473573625087738
0.42814069986343384,2.572148323059082,10.090018272399902,0.07831292599439621,0.281748503446579,-0.16343262791633606
-0.019699491560459137,2.2870659828186035,8.263883590698242,0.2575407922267914,-0.18989181518554688,-0.13638003170490265
-0.16583198308944702,2.781095027923584,9.969225883483887,0.3821223974227905,-0.36824703216552734,0.06890559941530228
0.6600239276885986,3.2350261211395264,9.547568321228027,0.129625603556633,0.22361157834529877,0.060842178761959076
0.6383324265480042,3.093088150024414,9.550996780395508,0.014713125303387642,0.3284360468387604,0.030194196850061417
0.22540929913520813,2.62064528465271,9.52663516998291,-0.08365362882614136,0.408511757850647,0.026476643979549408
-0.05033569410443306,2.365720272064209,9.723102569580078,0.10384708642959595,0.1811826229095459,0.106011301279068
0.1625567078590393,2.9642131328582764,10.202622413635254,0.3280695378780365,0.3698701858520508,0.09443976730108261
-0.14762647449970245,2.97619366645813,9.488747596740723,0.3023608326911926,0.4776093363761902,0.02551671303808689
-0.19841226935386658,2.952855110168457,9.209487915039062,0.2957983911037445,0.3796963691711426,0.04092797264456749
-0.06531381607055664,3.011340618133545,8.996585845947266,0.28733354806900024,0.19254472851753235,0.038641590625047684
0.01907699927687645,3.0232062339782715,9.233363151550293,0.27745500206947327,0.25331708788871765,0.010873401537537575
-0.05398445948958397,3.0357422828674316,9.186120986938477,0.2638763189315796,0.37231364846229553,0.01539380382746458
-0.16999788582324982,3.083559274673462,9.213951110839844,0.21724113821983337,0.507524311542511,0.07883652299642563
-0.10325712710618973,3.144965648651123,9.018220901489258,0.17277014255523682,0.5769186019897461,0.11746066063642502
-0.35687968134880066,3.280333995819092,9.010367393493652,0.14041173458099365,0.5376137495040894,0.08559094369411469
-0.7531391978263855,3.302006244659424,9.071372032165527,0.11157889664173126,0.4191757142543793,0.03534291684627533
-0.9669318199157715,3.3407156467437744,9.096464157104492,0.1341809183359146,0.22046999633312225,0.02254965342581272
-0.9362477660179138,3.347295045852661,8.996136665344238,0.14306463301181793,0.1252622753381729,0.03445279970765114
-0.8142679929733276,3.4239954948425293,8.12708854675293,0.19835667312145233,-0.19406315684318542,0.0691499412059784
-0.5239662528038025,3.303730010986328,9.529536247253418,0.14250613749027252,0.10393435508012772,0.0008552113431505859
-0.6409947872161865,3.3487889766693115,8.899200439453125,0.05209807679057121,-0.03125884756445885,-0.013002702966332436
-0.6893576979637146,3.3261301517486572,9.17696475982666,-0.02241002768278122,-0.037053339183330536,-0.007155850064009428
-0.6118717193603516,3.3781704902648926,9.35884952545166,0.027523841708898544,-0.06860889494419098,0.004084070213139057
-0.5373354554176331,3.4064221382141113,9.2865629196167,-0.055518921464681625,-0.0024085543118417263,-0.02972295694053173
-0.5822889804840088,3.097282886505127,9.229034423828125,-0.032393310219049454,-0.002146754879504442,-0.016807520762085915
-0.5775293111801147,3.081050157546997,9.184731483459473,-0.01111774705350399,0.012897983193397522,-0.002373647876083851
-0.5220413208007812,3.320441484451294,9.169849395751953,-0.03741985931992531,0.020490165799856186,0.007609635591506958
-0.5683547258377075,3.3193211555480957,9.236618995666504,-0.07449065148830414,0.015550883486866951,-0.003263765713199973
-0.7538095712661743,3.1776323318481445,9.292786598205566,-0.056356679648160934,-0.0103672556579113,0.0024085543118417263
-0.6574573516845703,3.2227964401245117,9.090641021728516,0.00518362782895565,-0.04297000542283058,0.02555162087082863
-0.48234543204307556,3.2204596996307373,9.645626068115234,-0.16526523232460022,-0.11814133822917938,-0.052464596927165985
-0.49365565180778503,2.9879252910614014,9.867635726928711,-0.06555456668138504,-0.12882275879383087,-0.06169738993048668
-0.3866922855377197,3.087801694869995,9.746430397033691,-0.017837265506386757,-0.0890117883682251,-0.055344391614198685
-0.28482380509376526,3.1536614894866943,9.324410438537598,0.021868975833058357,-0.1131846010684967,-0.05572836101055145
-0.590802788734436,3.2837624549865723,9.570879936218262,-0.014451325871050358,-0.1734159141778946,-0.043476153165102005
-0.5304497480392456,3.2089579105377197,9.826713562011719,0.04930555075407028,-0.11009536683559418,0.014137166552245617
-0.259636789560318,3.238358736038208,9.581700325012207,0.15135495364665985,0.0057246801443398,0.03738495334982872
-0.13004344701766968,3.326321840286255,8.848078727722168,0.1465727537870407,0.15257668495178223,0.004852015525102615
-0.662149965763092,3.261601686477661,8.316939353942871,0.07285004109144211,-0.05324999615550041,0.0031939526088535786
-0.5679237842559814,3.3598501682281494,9.014734268188477,-0.11911872029304504,-0.20645499229431152,-0.01696459949016571
-0.3962307870388031,3.28013277053833,9.65471363067627,-0.15563100576400757,-0.15763813257217407,-0.04401720315217972
-0.34639307856559753,2.9773428440093994,9.660603523254395,-0.04392993822693825,-0.06387905031442642,-0.048293258994817734
-0.31628361344337463,3.05493426322937,9.426949501037598,-0.010698867961764336,-0.06435029208660126,-0.05017821490764618
-0.23987026512622833,3.2550032138824463,9.035209655761719,-0.07216936349868774,-0.1731017529964447,-0.08773770183324814
-0.3619075119495392,3.207301139831543,9.206817626953125,-0.15161675214767456,-0.2529680132865906,-0.12603022158145905
-0.30740591883659363,3.1634297370910645,9.468579292297363,-0.14104005694389343,-0.311593621969223,-0.11248646676540375
-0.0709928646683693,3.128953456878662,9.5862398147583,-0.09807004779577255,-0.1806066632270813,-0.1013861745595932
-0.14541423320770264,3.0518600940704346,9.515677452087402,-0.04996877536177635,-0.07616616785526276,-0.06965608894824982
-0.22901016473770142,3.0275638103485107,9.457633018493652,-0.03125884756445885,-0.09414306282997131,-0.04965461790561676
-0.18727445602416992,3.024135112762451,9.4343900680542,-0.021537363529205322,-0.12288863211870193,-0.0303861815482378
-0.05768110603094101,3.095597267150879,9.541450500488281,-0.03090978041291237,-0.10098475217819214,-0.008115780539810658
-0.17298585176467896,3.114032745361328,9.557480812072754,-0.028152160346508026,-0.0570373609662056,-0.01851794309914112
-0.19190962612628937,3.065258026123047,9.473223686218262,-0.005235987715423107,-0.053215090185403824,-0.012985249981284142
-0.14220599830150604,3.055432081222534,9.422879219055176,0.00548033369705081,-0.06647959351539612,-0.00921533815562725
-0.11920250952243805,3.0903587341308594,9.381192207336426,0.02214822731912136,-0.07960446923971176,-0.006981316953897476
-0.07376056164503098,3.1015446186065674,9.362602233886719,0.02200860157608986,-0.023719023913145065,0.0013788101496174932
-0.048382025212049484,3.063926935195923,9.430827140808105,0.006440265104174614,0.0017278759041801095,0.004485496319830418
-0.057288456708192825,3.0582287311553955,9.51352310180664,0.004328416660428047,-0.0011519172694534063,0.00331612559966743
-0.15609236061573029,3.084641456604004,9.635952949523926,0.02741912193596363,-0.017924530431628227,-0.005515240598469973
-0.11650185286998749,3.110048770904541,9.47097396850586,0.07206464558839798,-0.00427605677396059,-0.009197885170578957
-0.01922065019607544,3.1439027786254883,9.155282974243164,0.06188937649130821,-0.011170106939971447,-0.01572541706264019
-0.0673057958483696,3.1105563640594482,9.219965934753418,0.011885692365467548,-0.03560471534729004,-0.020210912451148033
-0.046907197684049606,3.0879645347595215,9.357211112976074,-0.010995574295520782,0.015742870047688484,-0.0044156829826533794
0.018895039334893227,3.0353591442108154,9.511933326721191,0.09780824929475784,0.08274605870246887,0.022846359759569168
0.013599065132439137,3.143002510070801,9.176094055175781,0.13082988560199738,0.09517280012369156,0.010070549324154854
-0.02825157903134823,3.169166326522827,9.072856903076172,0.09604547172784805,0.013700834475457668,-0.01944296807050705
-0.07149086147546768,3.170976400375366,9.187068939208984,-0.07443828880786896,-0.043336525559425354,-0.051539573818445206
-0.08386409282684326,3.0813374519348145,9.483614921569824,-0.10126399993896484,-0.062203533947467804,-0.04871213808655739
-0.13300268352031708,2.999790906906128,9.746413230895996,-0.015376350842416286,0.03309144079685211,-0.061365775763988495
-0.07307103276252747,3.0507683753967285,9.458264350891113,0.03508111834526062,0.12950342893600464,-0.04080579802393913
-0.18198804557323456,3.176875591278076,8.636488914489746,0.023177972063422203,0.038117989897727966,-0.020961403846740723
-0.4069376587867737,3.2117257118225098,9.003787994384766,-0.08684758096933365,-0.2638414204120636,-0.03659955412149429
-0.15171577036380768,3.1665327548980713,9.910490989685059,-0.07089527696371078,-0.16051793098449707,-0.005305801052600145
0.0350702665746212,3.0009305477142334,10.036283493041992,0.04230678081512451,0.09819222241640091,0.020699605345726013
0.013886368833482265,2.945653200149536,9.736135482788086,0.11803662031888962,0.2318320870399475,0.02422516979277134
-0.18134640157222748,3.269176959991455,8.999506950378418,0.10299187898635864,0.06717772036790848,0.026459190994501114
-0.045231256633996964,3.1679117679595947,9.296455383300781,-0.0760265439748764,-0.11760028451681137,0.018081611022353172
-0.0070868367329239845,3.087648630142212,9.481040000915527,-0.023527037352323532,-0.024207716807723045,0.001658062799833715
-0.026010606437921524,2.9751977920532227,9.349137306213379,0.011746065691113472,0.014398965984582901,-0.0011344640515744686
-0.09460926800966263,3.2219345569610596,9.037958145141602,-0.01621410809457302,-0.13170254230499268,-0.02324778586626053
-0.10740388184785843,3.236673355102539,9.122502326965332,-0.06201154738664627,-0.19289378821849823,-0.03309144079685211
-0.047500960528850555,3.1090047359466553,9.525139808654785,-0.09234537184238434,-0.21821852028369904,-0.028379052877426147
-0.052337247878313065,3.027362585067749,9.800453186035156,-0.0030717793852090836,-0.18823376297950745,-0.021467549726366997
0.10142795741558075,3.125955820083618,9.686078071594238,0.146328404545784,0.004747295752167702,0.042010076344013214
-0.01289038173854351,3.218506097793579,9.289511680603027,0.1419650763273239,0.02736676298081875,0.06188937649130821
0.10361146926879883,3.30260968208313,9.140132904052734,0.09468410909175873,-0.008621926419436932,0.08021533489227295
0.1540525108575821,3.236060380935669,9.379755020141602,0.06407103687524796,0.03769911080598831,0.04921828582882881
-0.012105083093047142,3.1941235065460205,9.463685989379883,0.06209881603717804,0.10002481937408447,0.047280970960855484
0.06956592202186584,3.217988967895508,9.308666229248047,0.035325463861227036,0.15310028195381165,0.052778758108615875
-0.021547814831137657,3.194161891937256,9.300860404968262,0.040596358478069305,0.11269591003656387,0.05752605199813843
-0.019996371120214462,3.305616617202759,9.3046236038208,0.040369465947151184,0.07504915446043015,0.04628613218665123
-0.030799008905887604,3.2899012565612793,9.283746719360352,0.04516912251710892,0.07913322746753693,0.03525565192103386
-0.0016759411664679646,3.2881102561950684,9.338947296142578,0.052324969321489334,0.13041099905967712,0.042184606194496155
0.06592673808336258,3.2864534854888916,9.318376541137695,0.046355944126844406,0.12995721399784088,0.05085889250040054
-0.03891056403517723,3.2739462852478027,9.471404075622559,0.06716027110815048,0.07822565734386444,0.06602580845355988
-0.049828123301267624,3.285524606704712,9.376603126525879,0.10791371017694473,0.10862929373979568,0.06454227864742279
-0.05552632361650467,3.2408008575439453,8.857732772827148,0.14191271364688873,0.14583970606327057,0.0570373609662056
-0.29609569907188416,3.262320041656494,8.525694847106934,0.2053728997707367,0.05230751633644104,0.07812093943357468
-0.13768574595451355,3.8086671829223633,8.946653366088867,-0.009005898609757423,-0.12431979924440384,0.014852751977741718
0.018406622111797333,3.6879324913024902,9.488134384155273,-0.2304183691740036,-0.08580038696527481,-0.08358381688594818
-0.07089709490537643,3.1185529232025146,9.729891777038574,-0.05382595211267471,0.00010471975838299841,-0.12424998730421066
0.010323797352612019,3.378716468811035,8.87700080871582,-0.0038397242315113544,-0.07642796635627747,-0.11833332479000092
-0.12333011627197266,3.358135938644409,9.002305030822754,-0.13210396468639374,-0.2667386829853058,-0.08614945411682129
-0.2885779142379761,3.2956950664520264,9.679191589355469,-0.14189526438713074,-0.21165607869625092,-0.018936822190880775
-0.06109044700860977,3.215632915496826,9.75174617767334,-0.015201817266643047,-0.0858178362250328,0.03865904361009598
0.11482591181993484,3.2322871685028076,9.334332466125488,0.05539675056934357,0.004206243436783552,0.04098033159971237
0.11086110770702362,3.2555012702941895,8.707979202270508,0.0032463124953210354,-0.07325147092342377,0.030141836032271385
0.08142200857400894,3.28290057182312,8.922786712646484,-0.0898495465517044,-0.16978563368320465,0.008779006078839302
0.09257898479700089,3.2357730865478516,9.381287574768066,-0.1370781660079956,-0.13351768255233765,-0.0021293016616255045
0.18087714910507202,3.201775312423706,9.759885787963867,-0.09267698228359222,-0.119834303855896,-0.009773843921720982
0.17817647755146027,2.998689651489258,9.905654907226562,-0.0013089969288557768,-0.0679631233215332,-0.02267182618379593
0.08434293419122696,3.0446391105651855,9.36150074005127,0.09498082101345062,-0.03632030263543129,-0.00930260494351387
0.19155527651309967,3.3898160457611084,8.903059959411621,0.10835003852844238,-0.2580992877483368,0.027750734239816666
0.44529277086257935,3.502889394760132,9.242240905761719,-0.143431156873703,0.021066123619675636,0.05984733998775482
0.29784825444221497,3.2750954627990723,9.593795776367188,-0.23453734815120697,0.13035863637924194,0.05757841095328331
0.22921128571033478,3.1252567768096924,9.791289329528809,-0.16861626505851746,0.06473426520824432,0.06932447850704193
0.28321489691734314,2.8763458728790283,9.966497421264648,0.008255407214164734,0.02652900479733944,0.06230825558304787
0.3004339933395386,3.50748610496521,9.598756790161133,0.10910052806138992,0.528730034828186,0.055658549070358276
0.2269032746553421,3.32949161529541,9.21239948272705,0.08506734669208527,0.5478588342666626,0.014678219333291054
0.08028236776590347,3.291328191757202,9.057150840759277,0.09957103431224823,0.4795815646648407,-0.011484266258776188
-0.33405816555023193,3.2403221130371094,8.911591529846191,0.09611528366804123,0.30232593417167664,-0.020350538194179535
-0.3842885196208954,3.27300763130188,8.764473915100098,0.140533909201622,0.3387334942817688,0.037891097366809845
-0.288482129573822,3.333925724029541,8.79343318939209,0.03881612420082092,0.0342782661318779,0.05510004609823227
-0.17742949724197388,3.251086473464966,9.610028266906738,-0.24040165543556213,0.033021628856658936,-0.008953538723289967
-0.17850209772586823,3.0901384353637695,10.058979034423828,-0.11674506962299347,0.004904375411570072,-0.013526301831007004
-0.15705004334449768,2.98221755027771,10.097029685974121,-0.01432915311306715,0.059376101940870285,-0.024905849248170853
-0.23312820494174957,3.1813385486602783,9.224868774414062,0.055571284145116806,0.04038691893219948,-0.007103490177541971
-0.13605768978595734,3.3273751735687256,9.233372688293457,0.0011868239380419254,-0.14943508803844452,-0.02946115843951702
-0.3754395544528961,3.186241865158081,9.554465293884277,0.0728849470615387,-0.02830924093723297,-0.027838001027703285
-0.28652846813201904,3.2066116333007812,9.30758285522461,0.11515682190656662,0.1247212290763855,0.021327923983335495
-0.038307227194309235,3.2807743549346924,8.815718650817871,0.1143539696931839,0.05867796763777733,0.03309144079685211
0.07232404500246048,3.2711689472198486,9.201251983642578,0.07745771110057831,0.027384215965867043,0.03925245627760887
-0.3893067538738251,3.2551660537719727,9.552289962768555,0.16997762024402618,-0.11360348016023636,0.09384635090827942
-0.20449355244636536,3.2557790279388428,9.657952308654785,0.19832175970077515,-0.00905825849622488,0.12749630212783813
0.05581362918019295,3.3421905040740967,9.503409385681152,0.16756905615329742,0.25474825501441956,0.15247195959091187
0.058926090598106384,3.504699230194092,9.200486183166504,0.0892735943198204,0.4150218367576599,0.07658504694700241
-0.16346651315689087,3.356785535812378,9.044672012329102,0.033021628856658936,0.4257381558418274,0.010419615544378757
-0.25556665658950806,3.3278253078460693,8.910634994506836,0.008272860199213028,0.3897843658924103,0.015219271183013916
-0.12402921915054321,3.276120185852051,9.034433364868164,0.0032114058267325163,0.3119077980518341,-0.027628561481833458
-0.46905282139778137,3.432030439376831,9.42915153503418,0.007435102481395006,0.29593801498413086,-0.11191051453351974
-0.632931113243103,3.30349063873291,9.923210144042969,0.08068656921386719,0.2542944848537445,-0.1048419252038002
-0.9134166240692139,3.333312749862671,9.783827781677246,0.15601497888565063,0.2738945186138153,-0.08930850028991699
-1.1112064123153687,3.603551149368286,9.662240982055664,0.19231782853603363,0.18310248851776123,0.010925761424005032
-0.8010041117668152,3.6158957481384277,9.340632438659668,0.19563394784927368,0.18079864978790283,-0.010698867961764336
-0.9084462523460388,3.6254725456237793,9.220348358154297,0.1938362717628479,0.24464279413223267,0.006021386012434959
-0.9643365144729614,3.646493434906006,9.296130180358887,0.19865337014198303,0.28412213921546936,0.01432915311306715
-1.055871605873108,3.702489137649536,9.250543594360352,0.2068215161561966,0.33019885420799255,0.019111355766654015
-1.1382800340652466,3.7649106979370117,8.891960144042969,0.15976743400096893,0.2606998383998871,0.02843141369521618
-1.0894670486450195,3.8312206268310547,8.625465393066406,0.06724753230810165,0.08614945411682129,0.013962633907794952
-1.1490923166275024,3.8107070922851562,8.762222290039062,0.0012042771559208632,-0.06094689667224884,0.003944444004446268
-1.1254279613494873,3.6744961738586426,9.24946117401123,0.021868975833058357,-0.11417943984270096,0.00830776710063219
-0.9382684826850891,3.6106762886047363,9.270502090454102,0.04824090003967285,-0.10133381932973862,0.007470009382814169
-0.7350103259086609,3.5901052951812744,9.071773529052734,0.07997098565101624,-0.05927138030529022,-0.00013962633966002613
-0.7617008686065674,3.6650149822235107,8.871121406555176,0.057299159467220306,-0.02724459022283554,0.0011868239380419254
-0.7798202037811279,3.7100069522857666,8.849898338317871,0.03516838327050209,-0.00783652812242508,0.005811946466565132
-0.8623626828193665,3.753878355026245,8.897361755371094,-0.01780235767364502,0.08573057502508163,0.02419026382267475
-0.8031588792800903,3.861713171005249,8.877680778503418,-0.048973940312862396,0.17954201996326447,0.004398229531943798
-1.0532572269439697,3.736525058746338,9.157428741455078,-0.02963569015264511,-0.0038920841179788113,0.0016231562476605177
-0.910696804523468,3.7564640045166016,9.545165061950684,0.008639379404485226,-0.009529497474431992,0.003263765713199973
-0.8992334008216858,3.735682249069214,9.568513870239258,0.029775317758321762,0.02733185514807701,-0.0009948377264663577
-0.8685876131057739,3.728001832962036,9.233756065368652,0.05281366407871246,0.15041247010231018,0.018343409523367882
-1.0284340381622314,3.9742214679718018,8.786787033081055,-0.16556192934513092,-0.16798794269561768,-0.033423054963350296
-1.1378108263015747,3.71199893951416,9.25541877746582,-0.19531980156898499,-0.19048523902893066,-0.04228932783007622
-0.947826087474823,3.6163265705108643,9.213568687438965,-0.1477595716714859,-0.1318945288658142,-0.002775073517113924
-0.8070087432861328,3.6814870834350586,8.926799774169922,-0.1313709318637848,-0.13524556159973145,0.024748768657445908
-0.8576030135154724,3.721997022628784,8.827470779418945,-0.19437731802463531,-0.2379232794046402,0.006003932561725378
-0.9468109607696533,3.7210872173309326,8.784029006958008,-0.24120450019836426,-0.28824111819267273,-0.0007330382941290736
-0.9037153124809265,3.629034996032715,8.922309875488281,-0.32854077219963074,-0.3712664246559143,-0.002251474652439356
-0.7752520442008972,3.5499210357666016,9.404098510742188,-0.3537607789039612,-0.3718423843383789,-0.017610372975468636
-0.7052551507949829,3.4649269580841064,9.638213157653809,-0.3451388478279114,-0.3360806107521057,-0.028902651742100716
-0.6690644025802612,3.251967430114746,9.89016056060791,-0.26370179653167725,-0.22134265303611755,-0.028780478984117508
-0.7699081897735596,3.131960391998291,9.617450714111328,-0.13000957667827606,-0.17158332467079163,0.007278022821992636
-0.6864367723464966,3.2713029384613037,9.355630874633789,-0.05867796763777733,-0.18783234059810638,0.04052654653787613
-0.5379675030708313,3.363546848297119,9.11091423034668,-0.08517206460237503,-0.21504200994968414,0.04274311289191246
-0.4190331697463989,3.3062965869903564,8.905731201171875,-0.20945696532726288,-0.2727949619293213,0.01581268385052681
-0.3192141056060791,3.306583881378174,9.057839393615723,-0.2888345420360565,-0.27316147089004517,0.0033335788175463676
-0.1894771158695221,3.2251620292663574,9.378203392028809,-0.2863212525844574,-0.17095500230789185,-0.02839650772511959
-0.13249512016773224,3.333667039871216,9.540511131286621,-0.25506240129470825,-0.08981464058160782,-0.04098033159971237
-0.4849790632724762,2.9117610454559326,9.783426284790039,-0.14496704936027527,0.039933133870363235,-0.039793506264686584
-0.3709384500980377,2.898343801498413,9.647272109985352,-0.0036477381363511086,0.042760565876960754,0.012287117540836334
-0.37731659412384033,3.0860397815704346,9.378692626953125,0.04014257341623306,-0.008255407214164734,0.03579670190811157
-0.3556825816631317,3.1550023555755615,9.294626235961914,-0.02165953628718853,-0.05201081186532974,0.02015855349600315
-0.4122719466686249,3.121742010116577,9.424708366394043,-0.0731467455625534,-0.0938987135887146,0.0010995573829859495
-0.3823539912700653,3.0246620178222656,9.59965705871582,-0.07082545757293701,-0.08857546001672745,0.003403391921892762
-0.3815016746520996,3.0387685298919678,9.189290046691895,-0.015515976585447788,-0.0391826406121254,0.00022689280740451068
-0.19249381124973297,3.0820939540863037,9.178468704223633,-0.05256931856274605,0.002722713630646467,0.0016406094655394554
-0.22352266311645508,3.000528335571289,9.393285751342773,-0.058398716151714325,0.008726646192371845,-0.01310742273926735
-0.4628949463367462,3.0168375968933105,9.384810447692871,-0.02741912193596363,-0.03464478626847267,-0.013805554248392582
-0.4960019588470459,3.0996100902557373,9.440022468566895,-0.006440265104174614,-0.08881980180740356,0.0016057029133662581
-0.1601816713809967,3.0584776401519775,9.286764144897461,0.01682497374713421,-0.16090190410614014,0.005777040030807257
0.059922076761722565,3.032419204711914,8.916333198547363,-0.037315137684345245,-0.1091703474521637,-0.009616764262318611
0.09165003895759583,3.059981107711792,8.785934448242188,-0.14097024500370026,-0.030839968472719193,-0.012304571457207203
-0.16737385094165802,3.025676965713501,9.098895072937012,-0.22575834393501282,-0.08677776902914047,-0.020542524755001068
-0.3083156943321228,3.0055465698242188,9.194012641906738,-0.3153984546661377,-0.18126989901065826,0.06611306965351105
-0.25739583373069763,3.0224976539611816,9.129867553710938,-0.3692243993282318,-0.19572122395038605,0.09807004779577255
0.16158945858478546,2.589817523956299,9.49991512298584,-0.3882659375667572,-0.4228932857513428,0.08906415104866028
0.21115900576114655,2.4043242931365967,9.877958297729492,-0.27602383494377136,-0.35843825340270996,0.0910363718867302
0.41424477100372314,2.652574300765991,10.296177864074707,-0.20587903261184692,-0.12578587234020233,0.061767201870679855
0.2981259822845459,2.4806034564971924,10.413972854614258,-0.1005135104060173,0.06356488913297653,0.00376991112716496
0.16065092384815216,2.3937036991119385,10.393420219421387,-0.03174753859639168,0.1362229436635971,0.0021816615480929613
0.008370128460228443,2.497410774230957,9.763957977294922,0.05721189081668854,0.14500194787979126,0.03249803185462952
0.1027304008603096,2.701061725616455,9.34790325164795,0.05225515738129616,0.10409143567085266,0.02975786291062832
0.1008533462882042,2.7333545684814453,9.192902565002441,0.022776545956730843,0.05405284836888313,0.012095131911337376
0.049473781138658524,2.5534064769744873,9.375924110412598,0.0119555052369833,-0.03473205119371414,-0.039531707763671875
-0.0412377268075943,2.5071792602539062,9.51086139678955,0.07751007378101349,-0.07721336930990219,-0.046879544854164124
0.15666697919368744,2.6289196014404297,9.400880813598633,0.10522589832544327,-0.003577925032004714,-0.04698426276445389
0.10563217103481293,2.6896653175354004,9.276115417480469,0.09300859272480011,-0.005864306353032589,-0.05434955283999443
0.09144892543554306,2.6992995738983154,9.336572647094727,0.05354670062661171,0.01080358773469925,-0.037664204835891724
0.23743775486946106,2.70036244392395,9.401790618896484,0.01621410809457302,0.02644173800945282,-0.03525565192103386
0.09784623235464096,2.5831902027130127,9.475455284118652,-0.02410299703478813,0.03272492438554764,-0.03153809905052185
0.0194313395768404,2.6570944786071777,9.500527381896973,-0.03033382259309292,0.011135200969874859,-0.021764256060123444
0.07237192243337631,2.6478145122528076,9.560248374938965,-0.02998475730419159,0.023666664958000183,-0.005986479111015797
0.040347084403038025,2.548560619354248,9.651813507080078,-0.008133234456181526,-0.0038222710136324167,0.006702064536511898
0.07254430651664734,2.576611042022705,9.724777221679688,0.05061454698443413,0.03836233541369438,0.017121680080890656
-0.013005303218960762,2.695497512817383,9.456138610839844,0.07693411409854889,0.02649409882724285,0.026982789859175682
-0.016864756122231483,2.7141339778900146,9.40871524810791,0.04286528751254082,-0.008220500312745571,0.019285887479782104
0.08017702400684357,2.6344261169433594,9.543957710266113,0.01860520988702774,-0.011484266258776188,0.017243852838873863
0.07234319299459457,2.6788434982299805,9.537992477416992,0.013788101263344288,0.05134758725762367,0.002251474652439356
0.08506119251251221,2.6895503997802734,9.568455696105957,-0.0011519172694534063,0.05771803855895996,0.005689773242920637
-0.007862557657063007,2.7463791370391846,9.575044631958008,-0.009128072299063206,0.0941779688000679,0.0015533430268988013
-0.042003873735666275,2.63521146774292,9.86042308807373,0.007906341925263405,0.19072957336902618,-0.0027925267349928617
-0.05906016379594803,2.607927083969116,9.49885082244873,0.027750734239816666,0.19348719716072083,0.012339477427303791
-0.1530756801366806,2.522291421890259,8.967367172241211,0.25164157152175903,-0.18327702581882477,0.008656833320856094
0.05714480206370354,2.987044334411621,9.210227012634277,0.2920284867286682,-0.28098055720329285,0.07037167251110077
0.26352497935295105,3.0392186641693115,9.169917106628418,-0.02808234840631485,0.1042834222316742,-0.050108402967453
-0.12803232669830322,2.6638078689575195,8.921283721923828,-0.21247638761997223,0.1495048999786377,-0.06443755328655243
-0.011185710318386555,2.576227903366089,9.29666519165039,-0.11571533232927322,-0.13226105272769928,-0.0030717793852090836
0.027504587545990944,2.776766300201416,10.059123039245605,0.02577851340174675,-0.25441664457321167,0.005497787147760391
0.08691909164190292,2.780836343765259,10.417181968688965,0.05555383116006851,0.033335790038108826,-0.0005410520825535059
-0.05116887763142586,2.4446330070495605,9.65796947479248,0.20840977132320404,0.3684215545654297,0.0524122379720211
-0.17667292058467865,2.493043899536133,8.964561462402344,0.34889131784439087,0.39877283573150635,0.07368779927492142
-0.012373234145343304,2.9785494804382324,8.496868133544922,0.27553513646125793,0.01820378378033638,0.06557202339172363
0.09262686967849731,3.053622245788574,8.58857536315918,-0.1304982602596283,-0.08487536013126373,0.0009599310578778386
-0.11369584500789642,3.2515461444854736,9.146625518798828,-0.4081976115703583,-0.19420278072357178,-0.00331612559966743
-0.02353021316230297,2.3636515140533447,10.598604202270508,-0.2784672677516937,-0.10171778500080109,-0.09201376140117645
0.21293070912361145,2.426054000854492,10.219170570373535,0.041399210691452026,-0.19594810903072357,-0.13665927946567535
-0.04244440421462059,2.7842745780944824,9.497817039489746,0.1978330761194229,-0.4207290709018707,-0.14966198801994324
0.19674591720104218,2.8049604892730713,9.417075157165527,0.13959142565727234,-0.5372123122215271,-0.10718066990375519
0.419301301240921,2.87267804145813,9.552873611450195,-0.05665338784456253,-0.18298031389713287,-0.10590657591819763
0.26527753472328186,2.653512716293335,9.392415046691895,-0.1351233869791031,0.04113740846514702,-0.10351547598838806
0.27948951721191406,2.5607998371124268,9.155943870544434,0.008412486873567104,-0.048520151525735855,-0.049357909709215164
0.24997380375862122,2.7125251293182373,9.697943687438965,0.14550809562206268,0.02768092229962349,0.050422560423612595
0.19212989509105682,3.2315304279327393,9.351377487182617,0.06960373371839523,0.029164452105760574,0.06497860699892044
0.5034814476966858,2.551558017730713,9.185661315917969,-0.17749997973442078,0.00062831852119416,-0.008133234456181526
0.369875431060791,2.6953251361846924,9.809685707092285,-0.09114108979701996,0.03577924892306328,0.010332348756492138
0.19673633575439453,2.7870709896087646,9.995917320251465,0.06841690838336945,0.03529055789113045,0.017086774110794067
0.3498694598674774,2.4933693408966064,10.51289176940918,0.28735101222991943,-0.08937831223011017,0.01310742273926735
0.09109458327293396,3.0465450286865234,9.392692565917969,0.7117452621459961,0.5147848725318909,0.007819075137376785
-0.027150245383381844,2.9456725120544434,7.860317230224609,0.3922976553440094,0.18409733474254608,-0.1077042669057846
0.45819273591041565,2.8605153560638428,7.777228832244873,-0.042498767375946045,-0.3110525906085968,-0.12749630212783813
0.4667448103427887,3.2009708881378174,9.130105972290039,-0.44739770889282227,-0.42064180970191956,-0.08717919886112213
0.10812214761972427,3.2077322006225586,9.702387809753418,-0.520317554473877,-0.22793999314308167,-0.00855211354792118
0.3734380006790161,2.342975378036499,10.344282150268555,-0.19580848515033722,0.05031784251332283,-0.04286528751254082
0.2819986343383789,2.7966957092285156,10.284869194030762,-0.01958259381353855,-0.06347762793302536,-0.17722073197364807
-0.09164045751094818,3.0712625980377197,9.626089096069336,0.025795966386795044,-0.031293753534555435,-0.18369589745998383
0.143240287899971,2.757363796234131,9.161795616149902,-0.006928957067430019,-0.04040437191724777,-0.135402649641037
0.20178331434726715,2.8549609184265137,8.876541137695312,-0.049811698496341705,-0.0161268413066864,-0.06230825558304787
-0.015840038657188416,2.8990907669067383,9.342567443847656,0.005235987715423107,0.1180715262889862,-0.006981316953897476
0.31268271803855896,2.898669481277466,9.350343704223633,-0.18732619285583496,-0.0581892766058445,0.11739084869623184
0.7339185476303101,2.8674204349517822,9.858977317810059,-0.35697218775749207,0.08374089747667313,-0.00062831852119416
0.10479899495840073,2.8039164543151855,10.077491760253906,-0.25307273864746094,0.17603391408920288,-0.05775294452905655
0.13417105376720428,2.7187116146087646,10.037020683288574,-0.0837932601571083,0.0052534411661326885,-0.05913175642490387
0.04671566188335419,2.6707892417907715,9.858211517333984,0.1281595230102539,-0.18592992424964905,-0.057159531861543655
-0.22287143766880035,2.540832042694092,9.503812789916992,0.37980109453201294,-0.6657907366752625,0.08426449447870255
0.8138657212257385,3.187783718109131,9.3734712600708,0.08079128712415695,0.04717624932527542,-0.018046705052256584
0.1225065067410469,2.8520400524139404,9.250591278076172,-0.10951940715312958,0.322013258934021,-0.07044149190187454
-0.02727474458515644,2.7948665618896484,8.645299911499023,-0.14187781512737274,0.27288222312927246,-0.015969762578606606
0.005410895682871342,2.7829527854919434,9.501495361328125,0.009826203808188438,-0.04571017250418663,0.03848451003432274
0.20757727324962616,2.889878034591675,9.869397163391113,0.060964349657297134,0.003298672381788492,0.05953317880630493
0.28186455368995667,2.90866756439209,9.721092224121094,0.09941395372152328,0.19591321051120758,0.04105014353990555
-0.2297763228416443,2.756549596786499,8.884815216064453,0.3551046848297119,0.4127354621887207,0.04879940673708916
-0.20966501533985138,3.1224985122680664,8.859733581542969,0.08824384957551956,-0.17229890823364258,0.05305800959467888
0.38651034235954285,2.9933745861053467,9.02065372467041,-0.23787091672420502,-0.38606682419776917,0.060929443687200546
0.3833882808685303,2.877772808074951,10.60604476928711,-0.25963518023490906,-0.020839231088757515,0.03162536770105362
0.25262656807899475,2.8668839931488037,10.281641006469727,0.07785914093255997,0.3605501055717468,-0.007627088576555252
-0.19144035875797272,3.003066301345825,9.275222778320312,0.2272418737411499,-0.05075417459011078,0.0009773843921720982
0.016864756122231483,2.9685513973236084,8.82962417602539,0.1713738739490509,-0.20875883102416992,0.07543312758207321
0.5373929142951965,3.0145103931427,10.296045303344727,0.13500121235847473,0.08520697057247162,0.1874832659959793
0.596338152885437,2.995605945587158,10.97771167755127,0.32819169759750366,0.5285380482673645,0.19401079416275024
0.41530779004096985,2.9590320587158203,9.779834747314453,0.5102295279502869,0.8785987496376038,0.20235347747802734
-0.0688476637005806,3.176367998123169,8.539754867553711,0.4841717779636383,0.8190655708312988,0.17283995449543
-0.9099115133285522,3.5111446380615234,8.090705871582031,0.25940829515457153,0.2805791199207306,0.1417207419872284
-1.0326191186904907,3.730855703353882,8.482599258422852,0.13056808710098267,-0.028640853241086006,0.10508627444505692
-0.7502853274345398,3.8261256217956543,9.16077995300293,0.04197516664862633,-0.19275416433811188,0.05710717290639877
-0.20657171308994293,3.5108094215393066,9.937823295593262,0.015550883486866951,-0.022706734016537666,0.010506882332265377
-0.22070707380771637,3.285754442214966,9.972107887268066,0.14929546415805817,0.1921083927154541,0.02042035199701786
-0.22730550169944763,3.231492280960083,9.266144752502441,0.23696334660053253,0.269025057554245,0.06555456668138504
-0.2638314366340637,3.3054442405700684,8.914340019226074,0.1791754961013794,0.17524850368499756,0.08890707045793533
-0.4851227104663849,3.4592669010162354,9.203856468200684,0.11655309051275253,0.05363396927714348,0.07782422751188278
-0.18051321804523468,3.5306429862976074,9.028085708618164,0.16924457252025604,0.07829546928405762,0.11274827271699905
-0.12944011390209198,3.5332956314086914,8.795568466186523,0.1261523962020874,0.08038986474275589,0.08731882274150848
-0.13355813920497894,3.4825003147125244,8.856201171875,0.05712462589144707,0.04054399952292442,0.057246800512075424
-0.1992933452129364,3.4461658000946045,8.97331428527832,0.01935570128262043,-0.005078908056020737,0.04539601504802704
-0.4378420114517212,3.485603094100952,9.278421401977539,0.029286624863743782,-0.06232570856809616,0.049497537314891815
-0.30550968647003174,3.5449986457824707,9.443449020385742,0.06099925562739372,-0.05838126316666603,0.04583234712481499
-0.17275601625442505,3.58186936378479,9.428107261657715,0.06663667410612106,0.0013264502631500363,0.0423416867852211
-0.09714712202548981,3.5785365104675293,9.21131706237793,0.0821002870798111,0.136502206325531,0.03450515866279602
-0.4992580711841583,3.7115583419799805,9.038783073425293,0.1272868663072586,0.2505594789981842,0.018151424825191498
-0.547084629535675,3.7640583515167236,8.859800338745117,0.08417722582817078,0.16863371431827545,0.012391837313771248
-0.505617082118988,3.7530739307403564,9.092029571533203,0.04862487316131592,0.11887437850236893,0.002600540639832616
-0.4500332772731781,3.599452257156372,8.280624389648438,0.07414158433675766,0.19978784024715424,0.012531463988125324
-0.600341260433197,3.543494939804077,9.009602546691895,-0.1606924682855606,-0.119816854596138,-0.019338248297572136
-0.4195694625377655,3.4742355346679688,9.73762035369873,-0.12028808891773224,-0.09096655994653702,-0.0006806784076616168
-0.5638919472694397,3.646752119064331,9.738232612609863,0.0073129297234117985,0.038117989897727966,0.003403391921892762
