accX,accY,accZ,gyroX,gyroY,gyroZ
-1.800439715385437,4.443638324737549,7.603984832763672,0.1451764851808548,0.03438298776745796,0.1120501384139061
-1.5131354331970215,3.9647979736328125,8.130708694458008,0.1451764851808548,0.03438298776745796,0.1120501384139061
-1.0438719987869263,3.4380736351013184,9.002198219299316,0.1451764851808548,0.03438298776745796,0.1120501384139061
-0.5267243981361389,3.0550012588500977,9.442731857299805,0.1451764851808548,0.03438298776745796,0.1120501384139061
-0.15322890877723694,2.806004285812378,9.586383819580078,0.1451764851808548,0.03438298776745796,0.1120501384139061
-0.4692635238170624,2.5282769203186035,9.835380554199219,0.1451764851808548,0.03438298776745796,0.1120501384139061
-0.28730419278144836,2.5474305152893066,10.15141487121582,0.1451764851808548,0.03438298776745796,0.1120501384139061
-1.2545616626739502,3.265691041946411,9.241618156433105,-0.2555510997772217,-0.1341983675956726,-0.23001694679260254
-0.6607996821403503,2.806004285812378,9.576807022094727,-0.31180307269096375,-0.06698573380708694,-0.09929177910089493
-0.49799394607543945,2.557007312774658,9.710882186889648,-0.2678207755088806,-0.02542944625020027,-0.07117452472448349
-0.4405331015586853,2.2601263523101807,10.304644584655762,-0.15542156994342804,-0.18303267657756805,-0.12372639030218124
-0.49799394607543945,2.518700122833252,10.41956615447998,-0.06743951886892319,-0.17327629029750824,-0.1921432912349701
-0.6607996821403503,2.451662540435791,10.228029251098633,0.0705811157822609,-0.055972710251808167,-0.23122121393680573
-0.8523358106613159,2.432508945465088,9.835380554199219,0.236736461520195,0.008761553093791008,-0.2422167956829071
-0.9481038451194763,2.5474305152893066,9.720458984375,0.40046578645706177,-0.052324969321489334,-0.2324604094028473
-1.2737152576446533,2.691082715988159,9.47146224975586,0.4505392909049988,-0.13782864809036255,-0.2532298266887665
-1.3982137441635132,3.1699230670928955,9.193734169006348,0.4493524730205536,-0.21237166225910187,-0.24345597624778748
-1.522712230682373,3.3710360527038574,9.107542991638184,0.4444480836391449,-0.246580109000206,-0.2226865589618683
-1.3886369466781616,3.44765043258667,9.011775016784668,0.45668286085128784,-0.13784609735012054,-0.18847811222076416
-1.1779472827911377,3.485957622528076,8.9064302444458,0.43589597940444946,-0.11707668751478195,-0.1664869636297226
-1.091755986213684,3.5625722408294678,8.935160636901855,0.3943222463130951,-0.12316788733005524,-0.16769123077392578
-0.9385270476341248,3.5242648124694824,8.992621421813965,0.3637789785861969,-0.09384635090827942,-0.16769123077392578
-0.5171475410461426,3.380612850189209,9.040505409240723,0.407796174287796,-0.45549601316452026,-0.1457175314426422
-0.6512228846549988,3.3901896476745605,9.509769439697266,0.3589095175266266,-0.37484437227249146,-0.15425220131874084
-0.6991068720817566,3.3901896476745605,9.586383819580078,0.327127069234848,-0.17448055744171143,-0.14814354479312897
-0.5841852426528931,3.4093432426452637,9.289502143859863,0.3320663571357727,-0.06332054734230042,-0.11395254731178284
-0.038307227194309235,3.3710360527038574,9.011775016784668,0.3784746527671814,-0.021781709045171738,0.02042035199701786
0.22026655077934265,3.1890766620635986,8.935160636901855,0.3686833381652832,0.030752701684832573,0.03752457723021507
0.009576806798577309,3.246537446975708,8.370129585266113,0.16222836077213287,0.03073524869978428,-0.01377064734697342
0.009576806798577309,3.3231520652770996,8.379706382751465,0.016807520762085915,-0.12683308124542236,-0.06873106211423874
0.028730420395731926,3.466804027557373,8.494627952575684,-0.07478735595941544,-0.05841616913676262,-0.14814354479312897
-1.0342950820922852,3.428496837615967,8.35097599029541,0.24651029706001282,-0.0009948377264663577,-0.13348278403282166
0.05746084079146385,3.2561142444610596,7.95832633972168,0.20987583696842194,0.22621212899684906,-0.09440486133098602
-0.09576806426048279,3.227383852005005,9.040505409240723,-0.2946988344192505,-0.712041974067688,-0.3533942699432373
1.1300631761550903,2.9879636764526367,8.877699851989746,-0.3191159963607788,-0.9551838040351868,-0.37051594257354736
1.359906554222107,2.7772738933563232,8.638279914855957,-0.41807615756988525,-0.7914718985557556,-0.5403364896774292
1.158793568611145,2.7964274883270264,9.059659004211426,-0.4242022633552551,-0.7352548241615295,-0.5073323249816895
1.37906014919281,2.8155810832977295,9.691728591918945,-0.39243727922439575,-0.6876073479652405,-0.4609065353870392
1.5418659448623657,2.8155810832977295,9.749189376831055,-0.30569443106651306,-0.5617691278457642,-0.3644073009490967
0.47884035110473633,2.786850690841675,10.362105369567871,0.05225515738129616,-0.5043478012084961,-0.13226105272769928
0.8140285611152649,2.978386878967285,8.111555099487305,0.5287125706672668,-0.30031880736351013,-0.16891296207904816
1.2258312702178955,3.2752678394317627,7.795520782470703,0.2880316972732544,-0.9551663398742676,-0.04185299575328827
2.1356279850006104,2.6623523235321045,8.734047889709473,-0.1370956152677536,-0.36995744705200195,-0.03698352724313736
0.9097966551780701,2.3367409706115723,9.940725326538086,-0.5219232439994812,0.22132520377635956,-0.08218755573034286
0.689530074596405,2.030282974243164,10.54406452178955,-0.5488187670707703,0.30808553099632263,0.036302849650382996
1.2449848651885986,2.2218191623687744,11.233593940734863,-0.36189401149749756,0.4669104814529419,0.126710906624794
0.5841852426528931,2.078166961669922,10.591948509216309,0.19889771938323975,1.0068979263305664,0.19634954631328583
-0.019153613597154617,2.4133553504943848,10.390835762023926,0.2709449231624603,0.5316447615623474,0.11449360102415085
0.43095630407333374,2.3367409706115723,10.017339706420898,0.19273671507835388,-0.04986405745148659,0.058311451226472855
0.8236053586006165,2.499546527862549,9.720458984375,0.3980048894882202,0.20179496705532074,0.12917181849479675
0.4692635238170624,2.786850690841675,9.53849983215332,0.5787860751152039,0.5402143001556396,0.1878148764371872
0.15322890877723694,3.07415509223938,8.83939266204834,0.692424476146698,0.7075913548469543,0.3038792610168457
0.22026655077934265,3.313575267791748,8.216899871826172,0.5702688694000244,0.6599438786506653,0.34053120017051697
0.727837324142456,3.428496837615967,8.504204750061035,0.4004308879375458,0.5096710324287415,0.34541812539100647
0.028730420395731926,3.265691041946411,8.762778282165527,0.45298275351524353,1.0716670751571655,0.42727404832839966
-1.015141487121582,3.687070608139038,9.030928611755371,0.4297349750995636,0.9763720631599426,0.4040611684322357
0.3256114423274994,3.4380736351013184,8.322244644165039,0.13896311819553375,0.320302814245224,0.24401448667049408
-0.3926490843296051,3.687070608139038,8.523358345031738,0.1414589285850525,-0.023003440350294113,0.19024088978767395
-0.49799394607543945,3.600879430770874,8.9064302444458,-0.006352998316287994,-0.11096803098917007,0.1719149351119995
0.028730420395731926,3.734954595565796,8.83939266204834,-0.014940018765628338,-0.1903630644083023,0.23912756145000458
-0.8523358106613159,4.003105163574219,8.14028549194336,-0.050387654453516006,0.24333380162715912,0.27577948570251465
-0.7757213711738586,4.146757125854492,8.02536392211914,-0.15053464472293854,0.24211207032203674,0.287996768951416
-1.436521053314209,4.683058738708496,7.65186882019043,-0.1273392289876938,0.15659093856811523,0.28188812732696533
-1.0055646896362305,5.219359874725342,7.086836814880371,-0.022270401939749718,0.006318091880530119,0.2928836941719055
-0.8140285611152649,4.654327869415283,8.877699851989746,-0.662422239780426,-0.26979300379753113,-0.029653143137693405
-2.250549554824829,4.63517427444458,11.473014831542969,-0.8445124626159668,0.07962191849946976,-0.16280430555343628
-2.0685901641845703,4.644751071929932,10.72602367401123,-0.29225537180900574,0.005096361506730318,0.016772614791989326
-1.656787633895874,5.305551052093506,9.193734169006348,0.10845475643873215,0.01731366664171219,0.11082840710878372
-2.0015525817871094,4.970362663269043,7.479485988616943,0.5103866457939148,0.3618416488170624,0.20980602502822876
-1.656787633895874,5.640739440917969,7.038952827453613,0.15732397139072418,0.41804125905036926,0.10229374468326569
-2.3942017555236816,5.7556610107421875,7.1921820640563965,-0.13587388396263123,0.056409042328596115,-0.04796164855360985
-1.7812861204147339,5.085284233093262,8.389283180236816,-0.5243842005729675,-0.7230550050735474,-0.08340928703546524
-0.4596867263317108,4.4532151222229,9.232041358947754,-0.6710093021392822,-0.996705174446106,-0.14447835087776184
-0.7948749661445618,4.031835556030273,9.77791976928711,-0.6087010502815247,-0.7609111666679382,-0.288642555475235
-0.49799394607543945,3.7828385829925537,9.461885452270508,-0.15056955814361572,-0.6741683483123779,-0.14447835087776184
-0.2298433631658554,3.667917013168335,9.184157371520996,-0.07482226192951202,-0.6289643049240112,-0.10049606114625931
-0.20111294090747833,3.6391866207122803,8.973467826843262,0.02658136375248432,-0.5874254703521729,-0.00031415926059708
-0.13407529890537262,3.7253777980804443,8.322244644165039,0.06447245925664902,-0.4017398953437805,0.1731366664171219
-0.28730419278144836,3.907337188720703,8.676587104797363,0.1976061761379242,0.4363672137260437,0.23546236753463745
-0.7852981686592102,3.5434184074401855,8.753201484680176,0.3332182466983795,0.7405781149864197,0.2892185151576996
-0.2968810200691223,3.8115692138671875,9.528923034667969,0.136537104845047,0.52433180809021,0.21102775633335114
-1.139639973640442,3.706224203109741,8.944737434387207,0.3380877375602722,0.6526309847831726,0.17559757828712463
-0.9481038451194763,3.734954595565796,8.370129585266113,0.3650006949901581,0.4669104814529419,0.1829279512166977
-1.0055646896362305,4.213795185089111,8.485051155090332,0.3430095613002777,0.5035623908042908,0.20125392079353333
-1.3503297567367554,3.6966474056243896,7.805097579956055,0.16830210387706757,0.20668189227581024,0.13039354979991913
-1.8579005002975464,4.079719543457031,8.887276649475098,-0.1725432425737381,-0.578873336315155,-0.02719222940504551
-1.522712230682373,4.108449935913086,9.41400146484375,-0.08702211827039719,-0.7071550488471985,-0.08950048685073853
-0.689530074596405,3.706224203109741,9.337387084960938,0.03754203021526337,-0.6228381991386414,-0.15547393262386322
-1.1013327836990356,3.648763418197632,8.925583839416504,0.22574087977409363,-0.559325635433197,-0.27031660079956055
-1.359906554222107,3.6104562282562256,8.379706382751465,0.24645794928073883,-0.6167295575141907,-0.27031660079956055
-1.37906014919281,3.993528366088867,8.312667846679688,0.27089256048202515,-0.8403062224388123,-0.20923006534576416
-0.2585737705230713,3.5913026332855225,8.810662269592285,0.296601265668869,-1.0663437843322754,-0.07972663640975952
-0.17238251864910126,3.4955344200134277,8.973467826843262,0.060789816081523895,-0.27344071865081787,0.12795008718967438
-1.139639973640442,3.667917013168335,8.820239067077637,-0.11025244742631912,0.30197685956954956,0.18659314513206482
-1.3407529592514038,3.4380736351013184,8.322244644165039,-0.16523031890392303,0.35206782817840576,0.2794446647167206
-0.7374141216278076,3.687070608139038,8.647856712341309,0.0045553091913461685,0.34842008352279663,0.36130061745643616
-0.9385270476341248,3.4380736351013184,8.580819129943848,0.2880316972732544,0.7784517407417297,0.3649657964706421
-1.9919757843017578,3.5242648124694824,8.743624687194824,0.04611159861087799,0.18469074368476868,0.14627604186534882
-1.1971008777618408,3.294421434402466,9.222464561462402,-0.025970499962568283,-0.24288001656532288,0.12550662457942963
-0.9672574996948242,3.3039982318878174,9.519346237182617,0.22938862442970276,0.041748274117708206,0.14871950447559357
-0.7757213711738586,3.4763808250427246,9.327810287475586,0.4150741994380951,0.21156881749629974,0.16460199654102325
-1.6280571222305298,4.51067590713501,8.676587104797363,0.15243706107139587,0.36917203664779663,0.05951572582125664
-1.522712230682373,4.7405195236206055,9.35654067993164,0.14386749267578125,0.38261106610298157,0.19636699557304382
-0.4405331015586853,4.51067590713501,9.040505409240723,0.19394098222255707,0.2653249502182007,0.3038792610168457
1.0821791887283325,4.63517427444458,7.996633529663086,0.06810274720191956,0.1028347983956337,0.20980602502822876
1.0055646896362305,4.520252704620361,7.575253963470459,-0.08948303014039993,0.12238248437643051,0.08518952131271362
0.2777273952960968,5.037400245666504,6.866570472717285,-0.21528635919094086,0.06496115773916245,0.019198622554540634
0.181959331035614,5.410895824432373,8.303091049194336,-0.20917770266532898,0.5035623908042908,0.06806784123182297
0.4692635238170624,5.200206279754639,9.126696586608887,-0.1615476757287979,0.2042384296655655,0.12550662457942963
1.3694833517074585,5.219359874725342,8.197746276855469,-0.380219966173172,-0.13294172286987305,0.1218414381146431
0.4118026793003082,5.027823448181152,10.5344877243042,-0.5659579038619995,-0.16348499059677124,0.20003218948841095
1.3024457693099976,5.20978307723999,8.379706382751465,0.07176794111728668,-0.14882422983646393,0.17804104089736938
1.2258312702178955,4.788403511047363,8.398859977722168,0.028989918529987335,-0.18912388384342194,0.10107201337814331
1.4652514457702637,4.481945514678955,8.111555099487305,-0.008848818950355053,-0.19402825832366943,0.058311451226472855
1.599326729774475,3.907337188720703,8.561665534973145,-0.08707447350025177,-0.23799309134483337,-0.06750933825969696
1.072602391242981,4.338293552398682,8.226476669311523,0.09374163299798965,0.490140825510025,-0.060178954154253006
1.8195933103561401,3.9839515686035156,7.661445617675781,-0.06016149744391441,0.02586578018963337,-0.11271335929632187
2.0398597717285156,4.089296340942383,7.814674377441406,-0.1725432425737381,-0.10117673873901367,-0.2629862129688263
1.8770540952682495,4.20421838760376,7.987056732177734,-0.23486895859241486,-0.03153809905052185,-0.41081559658050537
0.2968810200691223,4.797980308532715,8.523358345031738,-0.20923006534576416,0.17615607380867004,-0.379050612449646
0.7086837291717529,4.32871675491333,8.753201484680176,-0.26537731289863586,0.008761553093791008,-0.3167423605918884
0.2777273952960968,4.434061527252197,9.174580574035645,-0.26541221141815186,-0.12072442471981049,-0.3546159863471985
0.1628057211637497,4.424484729766846,9.251194953918457,-0.2275385707616806,-0.08651597052812576,-0.32529446482658386
0.31603461503982544,4.261679172515869,9.251194953918457,-0.1676563322544098,0.00020943951676599681,-0.25565582513809204
0.3447650372982025,4.261679172515869,8.437167167663574,-0.17376497387886047,-0.206245556473732,-0.23855160176753998
0.08619125932455063,4.146757125854492,8.40843677520752,-0.2934945523738861,-0.3113143742084503,-0.2067866027355194
0.35434186458587646,3.581725835800171,8.647856712341309,-0.459684818983078,-0.4346916973590851,-0.13959142565727234
0.6799532771110535,2.9017724990844727,8.83939266204834,-0.7871260643005371,-0.6998072266578674,-0.14081315696239471
1.1492167711257935,2.451662540435791,9.461885452270508,-0.9410291910171509,-0.8708669543266296,-0.27031660079956055
1.072602391242981,2.403778553009033,10.218452453613281,-0.8139517307281494,-0.8391019701957703,-0.43647193908691406
-0.047884032130241394,2.7293899059295654,8.552088737487793,0.07052875310182571,0.32276374101638794,-0.43158501386642456
-0.43095630407333374,2.6240451335906982,8.379706382751465,0.08155923336744308,0.5609837174415588,-0.3643898367881775
-0.8427590131759644,2.786850690841675,8.762778282165527,-0.04673991724848747,0.480366975069046,-0.3631681203842163
-1.3311761617660522,2.9017724990844727,9.634267807006836,-0.20923006534576416,0.18592992424964905,-0.3729419410228729
-1.6376339197158813,2.873042106628418,10.20887565612793,-0.15791739523410797,0.04543092101812363,-0.3033033311367035
-1.359906554222107,2.8634653091430664,10.20887565612793,-0.0357094369828701,0.020978856831789017,-0.1872389167547226
-1.1683704853057861,2.920926094055176,9.739612579345703,0.12796753644943237,-0.0034382985904812813,-0.10049606114625931
-1.2066776752471924,3.4572272300720215,8.9064302444458,0.15973253548145294,-0.06574655324220657,-0.055292028933763504
-1.1492167711257935,3.44765043258667,9.21288776397705,0.15604989230632782,-0.03396410867571831,-0.04796164855360985
-1.1683704853057861,3.3518824577331543,9.481039047241211,0.17928022146224976,0.029530970379710197,-0.04185299575328827
-1.1683704853057861,3.332728862762451,9.519346237182617,0.217153862118721,0.1028347983956337,-0.019861847162246704
-1.3120225667953491,3.093308687210083,9.490615844726562,0.2183581441640854,0.055204764008522034,-0.019861847162246704
-1.235408067703247,3.00711727142334,9.337387084960938,0.2281494438648224,-0.0950680822134018,-0.011309733614325523
-1.139639973640442,3.1890766620635986,9.2033109664917,0.24645794928073883,-0.16224581003189087,-0.0015358896926045418
-1.0055646896362305,3.648763418197632,9.375694274902344,0.3283138871192932,-0.24898867309093475,0.028989918529987335
-0.8236053586006165,3.533841609954834,9.375694274902344,0.42723914980888367,-0.296636164188385,0.07543312758207321
-0.6129156351089478,3.533841609954834,9.097966194152832,0.36133551597595215,0.14437364041805267,0.09862855821847916
-1.0055646896362305,3.706224203109741,8.753201484680176,0.18294541537761688,0.26776841282844543,0.11573278158903122
-0.9672574996948242,3.840299606323242,8.628703117370605,-0.01984439417719841,0.23722514510154724,0.16093680262565613
-0.9097966551780701,3.8115692138671875,8.743624687194824,-0.1273392289876938,0.19690804183483124,0.18903660774230957
-0.871489405632019,3.648763418197632,8.647856712341309,-0.16524776816368103,0.2848900854587555,0.2281319797039032
-0.7469909191131592,3.6583402156829834,8.494627952575684,-0.20556487143039703,0.299550861120224,0.20491909980773926
-0.9768342971801758,4.271255970001221,8.858546257019043,-0.09559167921543121,0.4669104814529419,0.14505431056022644
-1.4652514457702637,4.003105163574219,8.810662269592285,0.2672099173069,0.8493295907974243,0.17559757828712463
-1.3407529592514038,3.773261785507202,8.647856712341309,0.36618754267692566,0.5768836736679077,0.06686356663703918
-1.6950948238372803,4.1180267333984375,8.35097599029541,0.22202333807945251,-0.03029891662299633,-0.10782644152641296
-1.436521053314209,3.9264907836914062,8.628703117370605,0.1108807697892189,-0.2526713013648987,-0.1420348882675171
-0.2777273952960968,3.9264907836914062,8.810662269592285,0.02410299703478813,-0.6888116598129272,-0.1212654784321785
-0.07661445438861847,3.2848446369171143,9.155426979064941,-0.10780898481607437,-0.23190189898014069,0.031433381140232086
-0.9576807022094727,3.5051112174987793,9.232041358947754,-0.36562901735305786,0.13095206022262573,-0.03206169977784157
-0.6703764796257019,3.6104562282562256,9.576807022094727,-0.3228510022163391,-0.03885103017091751,0.016772614791989326
-0.6512228846549988,4.20421838760376,9.059659004211426,0.03754203021526337,0.19081684947013855,0.019216075539588928
-1.0438719987869263,4.185064792633057,8.676587104797363,-0.025970499962568283,0.09307841211557388,-0.10904817283153534
-0.8331822156906128,3.9456443786621094,9.078812599182129,-0.15423475205898285,-0.20991075038909912,-0.13470451533794403
-0.9097966551780701,3.9264907836914062,9.433155059814453,-0.12369148433208466,-0.22212804853916168,-0.12737412750720978
-0.9576807022094727,4.022258758544922,9.557653427124023,0.005777040030807257,-0.12803734838962555,-0.05651376023888588
-0.9576807022094727,4.041412353515625,9.423578262329102,0.02410299703478813,-0.020525071769952774,-0.023527037352323532
-0.8619126081466675,3.869029998779297,8.9064302444458,-0.10784389078617096,0.0014486232539638877,-0.056496307253837585
-0.8140285611152649,3.6391866207122803,9.672574996948242,-0.27642524242401123,-0.17201964557170868,-0.1261523962020874
-0.6416460275650024,3.5721490383148193,10.065223693847656,-0.2972121238708496,-0.4530176520347595,-0.16891296207904816
-0.3447650372982025,3.4572272300720215,10.457873344421387,-0.16278685629367828,-0.5898689031600952,-0.21045179665088654
-0.10534487664699554,3.332728862762451,10.15141487121582,0.05342452973127365,-0.5483126640319824,-0.2422167956829071
-0.1628057211637497,3.380612850189209,8.59997272491455,0.2928836941719055,-0.1756848394870758,-0.20434315502643585
-0.038307227194309235,3.380612850189209,8.121131896972656,0.1523672491312027,-0.16713273525238037,-0.17502161860466003
-0.047884032130241394,3.265691041946411,8.456320762634277,-0.08463101834058762,-0.19889771938323975,-0.17379988729953766
-0.08619125932455063,3.0358476638793945,9.126696586608887,-0.2580818235874176,-0.20991075038909912,-0.17502161860466003
0.08619125932455063,2.920926094055176,10.773907661437988,0.053389620035886765,-0.1207069680094719,-0.21532127261161804
0.2106897532939911,2.853888511657715,10.046070098876953,0.3087138235569,-0.11458086222410202,-0.23364722728729248
0.181959331035614,3.026270866394043,8.523358345031738,0.40774381160736084,0.016091935336589813,-0.2324429452419281
0.009576806798577309,2.9879636764526367,7.680599212646484,0.3087661862373352,0.042987458407878876,-0.21411699056625366
0.0,3.0837318897247314,8.705317497253418,0.02897246554493904,0.010000736452639103,-0.1762433499097824
0.12449848651885986,3.00711727142334,8.9064302444458,0.03874630853533745,-0.004642575979232788,-0.13714797794818878
0.2106897532939911,2.806004285812378,8.820239067077637,0.07543312758207321,-0.014433872886002064,-0.10538297891616821
0.3064578175544739,2.6815059185028076,8.513781547546387,0.07176794111728668,-0.00954695139080286,-0.0809483677148819
0.4118026793003082,2.7006595134735107,9.299078941345215,-0.10416124761104584,0.11506956070661545,0.08885471522808075
0.4213795065879822,2.691082715988159,9.404424667358398,-0.03206169977784157,0.12482594698667526,0.07419394701719284
0.5746083855628967,2.7485435009002686,9.097966194152832,0.04853760451078415,-0.0009773843921720982,0.049759335815906525
0.9385270476341248,2.82515811920166,8.973467826843262,-0.00031415926059708,0.034435346722602844,0.049759335815906525
1.0821791887283325,2.7772738933563232,9.682151794433594,0.04485496133565903,0.28733354806900024,0.08765043318271637
0.8523358106613159,2.853888511657715,9.35654067993164,0.026546457782387733,0.43271946907043457,0.03387684002518654
0.4213795065879822,3.1890766620635986,9.174580574035645,-0.052866023033857346,0.45959755778312683,0.05342452973127365
-0.06703764945268631,2.557007312774658,8.5903959274292,0.20980602502822876,0.6660699844360352,0.14383257925510406
-0.3926490843296051,3.3231520652770996,8.293514251708984,-0.11150908470153809,0.28611183166503906,0.005777040030807257
-0.10534487664699554,2.8155810832977295,9.011775016784668,-0.5781926512718201,-0.8170933127403259,-0.19823449850082397
0.8619126081466675,2.853888511657715,8.83939266204834,-0.4096287786960602,-1.133521556854248,-0.24097761511802673
0.9672574996948242,2.7293899059295654,9.251194953918457,-0.2923251986503601,-0.23921482264995575,-0.13226105272769928
0.5841852426528931,2.8443117141723633,10.141838073730469,-0.674691915512085,0.09916960448026657,-0.1212654784321785
0.6799532771110535,2.738966703414917,10.888829231262207,-0.7663391828536987,-0.2257757931947708,-0.025970499962568283
1.0342950820922852,2.9496564865112305,11.099518775939941,-0.2128778100013733,0.08817403018474579,0.1572716236114502
0.9385270476341248,3.1316158771514893,9.576807022094727,0.08028514683246613,0.5121319890022278,0.176819309592247
-0.24899697303771973,3.2082302570343018,9.02135181427002,-0.02963569015264511,0.4156152606010437,0.12061970680952072
0.047884032130241394,3.045424461364746,9.605537414550781,-0.15304791927337646,0.06986553221940994,0.09862855821847916
0.6703764796257019,3.064578056335449,9.758766174316406,-0.0907396674156189,0.06620033830404282,0.11451105028390884
0.6033388376235962,3.093308687210083,9.892841339111328,0.03263765573501587,0.18104299902915955,0.0912981703877449
0.009576806798577309,3.485957622528076,9.586383819580078,0.29042279720306396,0.32154199481010437,0.10964158177375793
0.1628057211637497,3.533841609954834,9.279925346374512,0.3857352137565613,0.32276374101638794,0.20125392079353333
0.6416460275650024,3.5913026332855225,8.772355079650879,0.3747047483921051,0.37163296341896057,0.2330363541841507
0.6224924325942993,3.687070608139038,9.002198219299316,0.2574535310268402,0.451045423746109,0.1621585339307785
0.1628057211637497,3.7158010005950928,9.787496566772461,0.2745403051376343,0.5695533156394958,0.1523846983909607
-0.2106897532939911,3.687070608139038,10.304644584655762,0.41381755471229553,0.6208660006523132,0.1927018016576767
0.0,3.6104562282562256,9.710882186889648,0.6019989848136902,0.5609837174415588,0.25012314319610596
0.3256114423274994,3.7924153804779053,7.7763671875,0.6544984579086304,0.6514092087745667,0.2733360230922699
-0.08619125932455063,3.8786067962646484,7.383718013763428,0.07906341552734375,0.6416354179382324,0.18903660774230957
-0.8236053586006165,4.376600742340088,7.163451671600342,-0.23368212580680847,0.664848268032074,0.207362562417984
