accX,accY,accZ,gyroX,gyroY,gyroZ
1.3540384769439697,6.4788665771484375,9.052047729492188,-0.2199813723564148,1.272700309753418,-0.5997756719589233
1.308574914932251,6.263512134552002,9.626625061035156,-0.15767495334148407,0.487761527299881,-0.6895701885223389
1.0166505575180054,6.476473808288574,7.953144073486328,-0.16439427435398102,-0.0925433561205864,-0.7262210249900818
0.06610172241926193,5.846862316131592,8.472685813903809,-0.3659738600254059,-0.25319617986679077,-0.5906129479408264
-0.15643078088760376,5.131109237670898,7.996514320373535,-0.5663317441940308,-0.145687073469162,-0.41591063141822815
0.1737787425518036,4.525425910949707,8.506185531616211,-0.7416449189186096,0.11453386396169662,-0.20883341133594513
0.38225340843200684,3.8814573287963867,8.283653259277344,-0.896189272403717,0.2208212912082672,-0.006642963737249374
0.26949164271354675,3.7710886001586914,8.391329765319824,-0.9878163933753967,0.37597647309303284,0.1680593490600586
-0.2306082844734192,4.259523391723633,9.212666511535645,-1.0091960430145264,0.37292224168777466,0.38185590505599976
-0.3409772217273712,4.170989036560059,8.30279541015625,-0.8515974283218384,0.31977853178977966,0.4253024160861969
-0.13489536941051483,4.314558506011963,7.902894973754883,-0.4032355546951294,0.5164713859558105,0.32810133695602417
-0.09421738982200623,4.293023109436035,8.238189697265625,0.22967857122421265,0.6374191045761108,0.3751365840435028
-0.022432712838053703,4.4584269523620605,9.016156196594238,0.6548282504081726,0.5201364159584045,0.46012070775032043
0.3774677813053131,5.162215709686279,8.97787094116211,0.70308518409729,0.21654535830020905,0.3476484417915344
0.5952146053314209,5.574080467224121,8.063512802124023,0.5057815313339233,0.027793550863862038,0.14851224422454834
0.7316055297851562,5.779862880706787,7.95553731918335,0.2999260127544403,0.29839888215065,0.1265217363834381
0.14506487548351288,5.827719688415527,8.343473434448242,0.15332266688346863,0.5592306852340698,0.1656159609556198
-0.259621262550354,5.403890609741211,8.44157886505127,0.10262233763933182,0.4443913698196411,0.18821731209754944
-0.32662028074264526,5.042574405670166,8.436793327331543,0.1172826737165451,0.14202198386192322,0.1662268042564392
0.0062811593525111675,5.004289627075195,8.080263137817383,0.13316470384597778,-0.025961007922887802,0.09414683282375336
0.06131608039140701,5.174180030822754,8.099405288696289,0.12278030067682266,0.09498675167560577,0.09903360903263092
-0.07746763527393341,5.284249782562256,8.20229721069336,0.12522368133068085,0.16584503650665283,0.10269869863986969
-0.3720839321613312,5.471189022064209,8.515756607055664,0.11361759155988693,0.17928366363048553,0.07337802648544312
-0.25692933797836304,5.56450891494751,8.781659126281738,0.03596363216638565,0.06994201242923737,0.0293970238417387
0.2192423790693283,5.511867046356201,8.388936996459961,0.006032116711139679,-0.027182703837752342,0.047111593186855316
0.11395817995071411,5.260321617126465,8.204689979553223,0.10323318839073181,0.027182703837752342,0.058717694133520126
-0.0726819857954979,5.18614387512207,8.453543663024902,0.182643324136734,0.11575555801391602,0.0361163429915905
-0.3194418251514435,5.370391368865967,8.714659690856934,0.14049486815929413,0.05528167635202408,0.011682453565299511
-0.3290131092071533,5.370391368865967,8.482256889343262,-0.012293301522731781,-0.07360709458589554,-0.030466007068753242
-0.08464609831571579,5.279464244842529,8.063512802124023,-0.10636378079652786,-0.14018943905830383,-0.03779617324471474
0.28624141216278076,5.188536643981934,7.905287742614746,-0.039170581847429276,-0.15484978258609772,-0.03840702027082443
0.39421752095222473,5.1789655685424805,7.926823139190674,0.03229855000972748,-0.05405998229980469,-0.027411770075559616
0.6454638838768005,5.269892692565918,7.919644832611084,0.25594499707221985,0.0784938707947731,0.06055023521184921
0.3439682424068451,5.253142833709717,8.013263702392578,0.4190412163734436,0.037567105144262314,0.13873867690563202
-0.4223332107067108,6.1342997550964355,7.843074321746826,-0.3867426812648773,-0.6740699410438538,-0.3823140263557434
1.3588241338729858,5.583651542663574,7.632505893707275,-0.036727190017700195,-0.9520054459571838,-0.4476746916770935
0.9759725332260132,5.598008632659912,7.014858722686768,0.14171656966209412,-0.7400414347648621,-0.3022930324077606
0.3655036687850952,5.712863922119141,7.716254711151123,0.21562908589839935,-0.353985995054245,-0.1996707022190094
0.6239284873008728,5.724828243255615,8.118548393249512,0.1319430023431778,-0.29229041934013367,-0.15263545513153076
0.5162515044212341,6.1103715896606445,8.018049240112305,-0.04772244393825531,-0.32222193479537964,-0.11476293206214905
0.5784648656845093,6.1725850105285645,7.6875410079956055,-0.22242476046085358,-0.2354816198348999,-0.06528430432081223
0.6789634227752686,5.916254043579102,7.309175968170166,-0.24869118630886078,-0.07605048269033432,-0.019470756873488426
0.5952146053314209,5.7750773429870605,7.220641613006592,-0.0886492058634758,-0.013744063675403595,0.02145601063966751
0.5545366406440735,5.822933673858643,7.139285564422607,0.09956810623407364,-0.041232191026210785,0.020845163613557816
0.7435696125030518,5.84446907043457,7.661220073699951,0.1710372269153595,-0.041232191026210785,-0.0017561858985573053
0.6957131624221802,5.944967746734619,7.718647480010986,0.10689827054738998,0.03573456406593323,0.014736690558493137
0.6143572330474854,6.050550937652588,7.795217990875244,0.054899897426366806,0.1291942000389099,0.047111593186855316
0.4085744619369507,6.02393102645874,7.8693952560424805,0.052456509321928024,0.168899267911911,0.08254073560237885
0.39182472229003906,6.0625152587890625,7.826324462890625,0.06711684167385101,0.17500774562358856,0.08987089991569519
0.5210371017456055,6.007181167602539,7.926823139190674,0.059175826609134674,0.19944162666797638,0.08131904155015945
0.4372883439064026,5.952146530151367,7.802396297454834,0.05856497958302498,0.19394400715827942,0.07032378762960434
0.3415754437446594,5.949753284454346,7.656434059143066,0.07505785673856735,0.17684027552604675,0.06116108223795891
0.25752753019332886,5.935396671295166,7.5463643074035645,0.07566870748996735,0.1298050433397293,0.05810684710741043
0.2718844711780548,5.877968788146973,7.268497943878174,0.0811663269996643,0.07971556484699249,0.04283566400408745
-0.05832505226135254,6.1103715896606445,8.681160926818848,0.09712471067905426,0.0021379655227065086,0.0031305921729654074
0.3080759048461914,6.572186470031738,9.075976371765137,-0.10941801220178604,-0.2092151790857315,-0.04512634128332138
-0.43908295035362244,6.213263034820557,8.803194046020508,-0.45210331678390503,-0.07971556484699249,-0.10987614840269089
-0.3696911036968231,6.320940017700195,8.599804878234863,-0.6658998727798462,-0.0528382882475853,-0.24853847920894623
0.7124629616737366,6.122335910797119,7.881359577178955,-0.6103127598762512,-0.24159009754657745,-0.2638096511363983
1.1171491146087646,5.531009674072266,7.780860900878906,-0.4441623091697693,-0.34971004724502563,-0.17157171666622162
0.8994022011756897,5.088038444519043,7.807182312011719,-0.3232145607471466,-0.37597647309303284,-0.09155073016881943
0.600000262260437,5.200500965118408,7.421937465667725,-0.23036576807498932,-0.2727433145046234,-0.05306735634803772
0.597607433795929,5.545366287231445,7.596613883972168,-0.19554747641086578,-0.09743013978004456,-0.03840702027082443
0.7268198728561401,5.822933673858643,7.70668363571167,-0.17294612526893616,0.008857285603880882,0.014125842601060867
0.6717849373817444,5.631507873535156,7.548757076263428,-0.06360447406768799,0.05772506445646286,0.08009734749794006
0.5497509837150574,5.418247699737549,7.83111047744751,0.08483141660690308,0.07543963938951492,0.08254073560237885
0.4468596279621124,5.3368916511535645,7.871788501739502,0.18019993603229523,0.02473931387066841,0.05138752609491348
0.6095715761184692,5.588437080383301,8.72901725769043,0.1575985997915268,0.03451287001371384,7.635590736754239e-05
0.5066801905632019,5.662614822387695,8.03958511352539,-0.0361163429915905,0.10231691598892212,0.05199837312102318
0.4085744619369507,5.624329566955566,8.07069206237793,-7.635590736754239e-05,0.06016845628619194,0.05688514932990074
0.4205385744571686,5.499902725219727,7.974978923797607,0.05673243850469589,0.027182703837752342,0.04405735805630684
0.41575294733047485,5.497509956359863,7.929215908050537,0.07322531193494797,0.025961007922887802,0.006184828467667103
0.5593222975730896,5.624329566955566,7.936394691467285,0.06284090876579285,0.1719534993171692,-0.005421269219368696
0.631106972694397,5.830112457275391,8.28126049041748,0.04695888236165047,0.20249587297439575,0.044668205082416534
0.5186443328857422,5.827719688415527,8.06112003326416,0.07872293889522552,0.17989452183246613,0.11063970625400543
0.1498505175113678,5.504688262939453,6.900003433227539,0.1966928243637085,0.1951656937599182,0.1540098637342453
0.1666002720594406,5.696114540100098,8.891729354858398,0.3390202224254608,0.06444438546895981,0.07643226534128189
0.7603194117546082,5.96171760559082,8.60459041595459,0.11239589750766754,0.03634541109204292,0.03855973482131958
0.6167500615119934,5.7272210121154785,7.309175968170166,-0.193104088306427,0.34421244263648987,0.10330954194068909
0.4995017349720001,5.686542987823486,7.287640571594238,-0.1668376624584198,0.41323816776275635,0.15828579664230347
0.5928218364715576,5.645864963531494,7.5942206382751465,0.0823880210518837,0.2238755226135254,0.22425730526447296
0.7459624409675598,5.55015230178833,7.945965766906738,0.16676130890846252,0.145687073469162,0.2590755820274353
0.3415754437446594,5.583651542663574,7.740182876586914,0.16248537600040436,0.2208212912082672,0.3000023663043976
0.21684955060482025,5.674578666687012,7.814360618591309,0.19974705576896667,0.41445985436439514,0.29389387369155884
0.07806584239006042,5.8923258781433105,8.087441444396973,0.21746163070201874,0.5073086619377136,0.2981698215007782
0.025423740968108177,6.112764358520508,8.360222816467285,0.16798299551010132,0.5109737515449524,0.30244573950767517
-0.11575279384851456,6.050550937652588,8.487042427062988,0.11300674080848694,0.44255882501602173,0.31893861293792725
-0.1779661774635315,5.794219970703125,8.219046592712402,0.1423274129629135,0.3014531135559082,0.2987806797027588
-0.125324085354805,5.576473236083984,7.699504852294922,0.2376195788383484,0.24342262744903564,0.22792237997055054
-1.0112667083740234,6.033801555633545,9.322735786437988,0.3017585575580597,0.16523417830467224,0.07765395939350128
-0.43190449476242065,6.706483840942383,8.963513374328613,0.018249060958623886,-0.0522274412214756,-0.10315682739019394
-0.12771691381931305,6.256333827972412,7.620542049407959,-0.24869118630886078,-0.0778830274939537,-0.14530529081821442
0.5186443328857422,5.980860233306885,7.433901786804199,-0.25357797741889954,-0.07421794533729553,-0.1611873209476471
0.5569294691085815,5.708078384399414,8.673981666564941,-0.24013933539390564,-0.1957765519618988,-0.07689040154218674
0.4205385744571686,5.3177490234375,6.9598236083984375,-0.15217731893062592,-0.25380703806877136,-0.0035887276753783226
0.38225340843200684,5.291428089141846,6.564708709716797,-0.03184041380882263,-0.05650337040424347,0.02145601063966751
0.06131608039140701,5.43499755859375,6.784848690032959,0.26938363909721375,0.1951656937599182,0.05077667906880379
-0.28115665912628174,6.067300796508789,8.429615020751953,0.5106683373451233,0.09865183383226395,0.023288551717996597
0.7124629616737366,6.474080562591553,9.121739387512207,0.29687178134918213,-0.037567105144262314,-0.004810422193259001
0.25274190306663513,6.287440776824951,7.407281398773193,-0.08254073560237885,0.19394400715827942,0.07643226534128189
-0.23778675496578217,5.964110374450684,7.407281398773193,-0.05932854115962982,0.22876229882240295,0.07887565344572067
-0.020039889961481094,5.8851470947265625,7.943572998046875,0.02557922899723053,-0.033291175961494446,0.022066857665777206
0.37507495284080505,5.712863922119141,8.022834777832031,-0.023288551717996597,-0.17806197702884674,0.022066857665777206
0.38225340843200684,5.598008632659912,7.453044414520264,0.004810422193259001,-0.12797249853610992,0.05077667906880379
0.3032902777194977,5.820540904998779,7.33549690246582,0.10934165865182877,0.1438545286655426,0.0892600566148758
0.16899310052394867,6.1534423828125,7.534400463104248,0.20219044387340546,0.324054479598999,0.1527881771326065
0.06849455088376999,6.256333827972412,8.075477600097656,0.23334364593029022,0.3637595474720001,0.19860170781612396
0.24077777564525604,6.234798431396484,7.864609718322754,0.1844758689403534,0.28496024012565613,0.2315874695777893
0.37028929591178894,6.050550937652588,7.453044414520264,0.2339545041322708,0.20738264918327332,0.2816769480705261
-0.015254244208335876,6.064908027648926,8.379365921020508,0.183865025639534,0.3313846290111542,0.23830679059028625
-0.5060819983482361,6.3137617111206055,8.030014038085938,0.022524992004036903,0.3411581814289093,0.1937149316072464
-0.6041877269744873,6.167799472808838,7.847859859466553,-0.034283801913261414,0.23242738842964172,0.1814979910850525
-0.1899302899837494,5.818148136138916,7.654041290283203,0.21685077250003815,0.08338065445423126,0.16989189386367798
0.07806584239006042,6.265905380249023,7.771289825439453,0.21685077250003815,0.22876229882240295,0.1533990204334259
-0.3720839321613312,6.656234264373779,7.120142936706543,0.3127537965774536,0.19944162666797638,0.0886492058634758
0.011066804639995098,7.3935227394104,8.28843879699707,0.20341213047504425,-0.13957859575748444,0.01046075951308012
-0.3433700501918793,6.7208404541015625,6.763313293457031,-0.1143047958612442,-0.11086877435445786,-0.023746687918901443
-0.592223584651947,6.778268337249756,7.096214771270752,-0.19982340931892395,-0.1963873952627182,-0.12759071588516235
-0.7860422134399414,6.706483840942383,7.596613883972168,-0.2456369549036026,-0.4828747510910034,-0.2271588295698166
-0.1013958603143692,5.96171760559082,7.608577728271484,-0.299391508102417,-0.8255600929260254,-0.30412557721138
0.4253242313861847,6.096014976501465,7.2110700607299805,-0.1918824017047882,-0.7015580534934998,-0.42873841524124146
0.13549357652664185,6.6418776512146,7.649255752563477,-0.058717694133520126,-0.39918869733810425,-0.48371466994285583
-0.21385852992534637,6.663413047790527,8.049156188964844,0.01763821393251419,-0.30878329277038574,-0.4201865494251251
-0.0008973084622994065,6.330511569976807,7.99172830581665,0.08299887180328369,-0.3906368315219879,-0.3163425326347351
0.666999340057373,6.057729721069336,7.469794273376465,0.13988402485847473,-0.47737714648246765,-0.22288289666175842
1.1602199077606201,5.959324836730957,7.122535705566406,0.16553960740566254,-0.29412296414375305,-0.10193513333797455
1.002293586730957,6.151049613952637,7.1799635887146,0.1447708010673523,-0.09987352788448334,-0.07994463294744492
0.0852443054318428,6.399903297424316,7.306783199310303,0.054899897426366806,0.19394400715827942,-0.04390464723110199
0.07328019291162491,6.732804775238037,7.28046178817749,0.004810422193259001,0.2501419484615326,0.013514995574951172
0.20488543808460236,6.442974090576172,7.239784240722656,0.04818057641386986,0.1328592747449875,0.06055023521184921
0.31046873331069946,6.33290433883667,7.203891754150391,0.0420721061527729,0.18050536513328552,0.05444176122546196
0.13310076296329498,6.421438694000244,7.354639530181885,0.03718532621860504,0.29412296414375305,0.025731941685080528
-0.18514464795589447,6.670591354370117,7.51286506652832,0.08857285231351852,0.3423798978328705,0.022066857665777206
-0.32662028074264526,6.792625427246094,7.610970497131348,0.14843589067459106,0.25808295607566833,0.08070819079875946
-0.39122650027275085,6.521937370300293,7.7593255043029785,0.17470231652259827,0.057114217430353165,0.07398887723684311
-0.20189441740512848,6.509973049163818,7.5080790519714355,0.16859383881092072,-0.12675081193447113,0.008017370477318764
-0.3720839321613312,6.787839412689209,6.9598236083984375,-0.1546207070350647,-0.2226538211107254,-0.13675342500209808
-0.5060819983482361,6.5267229080200195,7.213462829589844,-0.23464170098304749,-0.2373141646385193,-0.22899135947227478
-0.3696911036968231,6.407081604003906,8.022834777832031,-0.4062897861003876,-0.3527642786502838,-0.3676536977291107
-0.45104706287384033,6.280261993408203,8.376973152160645,-0.6249731183052063,-0.4718795120716095,-0.47149771451950073
0.3005983531475067,6.399903297424316,7.950751304626465,-0.8112815022468567,-0.5653391480445862,-0.5564054846763611
0.31046873331069946,6.306583404541016,7.2110700607299805,-0.7367581725120544,-0.34604495763778687,-0.486768901348114
0.1618146300315857,6.136693000793457,7.524828910827637,-0.5223507881164551,-0.21715620160102844,-0.4085804522037506
-0.024825535714626312,5.866004943847656,8.96112060546875,-0.5987066626548767,-0.34726667404174805,-0.2674747407436371
0.14745768904685974,5.791827201843262,7.950751304626465,-0.642076849937439,-0.49020493030548096,-0.27236151695251465
0.4707878530025482,5.566901683807373,7.795217990875244,-0.5302917957305908,-0.44011545181274414,-0.2686964273452759
0.5760720372200012,5.760720729827881,7.979764461517334,-0.3219928741455078,-0.46516019105911255,-0.16668494045734406
0.5330012440681458,5.444568634033203,8.08504867553711,-0.299391508102417,-0.3662029206752777,-0.03779617324471474
0.6789634227752686,5.645864963531494,8.467900276184082,-0.36047622561454773,-0.25502872467041016,0.011071606539189816
0.4205385744571686,5.334498882293701,8.216653823852539,-0.3775799572467804,-0.19150061905384064,0.056274302303791046
0.15942180156707764,5.18614387512207,8.242975234985352,-0.3378748893737793,-0.22570806741714478,0.014125842601060867
0.03978067636489868,5.1789655685424805,8.262117385864258,-0.2682383060455322,-0.3399364948272705,-0.05978667363524437
0.37028929591178894,5.119144916534424,7.864609718322754,-0.23708508908748627,-0.29595550894737244,-0.1624090075492859
0.6741777658462524,5.210072040557861,7.890930652618408,-0.2309766262769699,-0.15912571549415588,-0.17584764957427979
0.6885347366333008,5.2028937339782715,8.16401195526123,-0.194325789809227,-0.07482878863811493,-0.12636902928352356
0.5808576941490173,5.1550374031066895,8.369794845581055,-0.15889663994312286,-0.06139015033841133,-0.07750124484300613
0.6789634227752686,5.109573841094971,8.245368003845215,-0.1295759677886963,-0.05650337040424347,-0.03962871432304382
0.7268198728561401,5.131109237670898,8.305188179016113,-0.12163496017456055,0.007024743594229221,-0.0023670331574976444
0.5282155871391296,5.02343225479126,8.39611530303955,-0.11858072131872177,0.006413896102458239,0.005573981441557407
0.43489551544189453,5.104787826538086,8.365009307861328,-0.11369394510984421,0.008246437646448612,-0.019470756873488426
0.41575294733047485,5.131109237670898,8.57348346710205,-0.12530004978179932,-0.0009162708884105086,-0.03352024406194687
0.4731806814670563,4.922933578491211,8.453543663024902,-0.11552648991346359,-0.0656660795211792,-0.05428905040025711
0.4707878530025482,4.834099769592285,8.362615585327148,-0.07093463838100433,-0.10292776674032211,-0.07444700598716736
0.5665007829666138,4.893920421600342,8.262117385864258,-0.03184041380882263,-0.12064233422279358,-0.0811663269996643
0.8009973764419556,4.96121883392334,8.271688461303711,-0.011682453565299511,-0.09620844572782516,-0.0811663269996643
0.8057830333709717,5.157430171966553,8.307580947875977,0.006642963737249374,0.003970507066696882,-0.054899897426366806
0.6789634227752686,5.140680313110352,8.467900276184082,0.013973130844533443,0.0528382882475853,-0.010918894782662392
0.5928218364715576,5.0377888679504395,8.28126049041748,0.03962871432304382,0.041232191026210785,0.024510245770215988
0.4827519655227661,4.884349346160889,8.360222816467285,0.045737188309431076,0.010689826682209969,0.03855973482131958
0.5210371017456055,4.896313190460205,8.465507507324219,-0.0165692325681448,0.018630841746926308,0.030007870867848396
0.5521438121795654,4.922933578491211,8.384151458740234,-0.047111593186855316,0.03817795217037201,0.037948887795209885
0.6550351977348328,5.080859661102295,8.264510154724121,-0.03733803704380989,0.08276980370283127,0.0623827762901783
0.600000262260437,5.033003330230713,8.2788667678833,0.028633465990424156,0.08643488585948944,0.0745997205376625
0.49232324957847595,5.004289627075195,8.336295127868652,0.10384403169155121,0.05405998229980469,0.07215633243322372
0.35832518339157104,4.9516472816467285,8.393722534179688,0.16859383881092072,0.050394900143146515,0.061771929264068604
0.39900317788124084,4.9995036125183105,8.566305160522461,0.20585553348064423,0.07360709458589554,0.047111593186855316
0.5186443328857422,5.100002288818359,8.508578300476074,0.2107423096895218,0.08460234850645065,0.052609220147132874
0.6119644045829773,5.212464809417725,8.534899711608887,0.1692046970129013,0.09315420687198639,0.06665870547294617
0.4731806814670563,5.238786220550537,8.62612533569336,0.09956810623407364,0.0778830274939537,0.061771929264068604
0.3655036687850952,5.308177947998047,8.640482902526855,0.029855160042643547,0.04550812020897865,0.03489464893937111
0.4085744619369507,5.267499923706055,8.508578300476074,-0.00129805039614439,0.007635590620338917,0.0165692325681448
0.5641079545021057,5.169394016265869,8.319544792175293,0.015194825828075409,-0.024128466844558716,0.017180079594254494
0.6813562512397766,5.083252429962158,8.314759254455566,0.020692450925707817,0.021685076877474785,0.04100312292575836
0.7387840151786804,5.073681354522705,8.058727264404297,0.007253811229020357,0.055892523378133774,0.058717694133520126
0.6382854580879211,5.073681354522705,7.986942768096924,0.02557922899723053,0.13591352105140686,0.10453123599290848
0.24795624613761902,5.327320575714111,8.372187614440918,0.10628741979598999,0.19394400715827942,0.11186140775680542
0.48514479398727417,5.444568634033203,8.628518104553223,0.10995250940322876,0.18111620843410492,0.07643226534128189
0.5641079545021057,5.12393045425415,8.341080665588379,0.09345962852239609,0.11453386396169662,0.11796987801790237
0.4612165689468384,5.071288585662842,7.704290866851807,0.1435490995645523,0.20188501477241516,0.12163496017456055
0.10199406743049622,5.011467933654785,8.07069206237793,0.2229592502117157,0.36192700266838074,0.10880716890096664
-0.6185446381568909,5.272285461425781,8.645268440246582,0.37200596928596497,0.2501419484615326,0.06055023521184921
0.3607180118560791,5.772684574127197,9.377771377563477,0.3640649616718292,-0.13530266284942627,-0.03901786729693413
0.631106972694397,5.9784674644470215,9.23180866241455,-0.048333290964365005,-0.03451287001371384,-0.04085041210055351
0.25752753019332886,5.653043270111084,8.877371788024902,-0.3140518367290497,0.09559759497642517,-0.04023956134915352
0.04935196787118912,5.425426006317139,8.429615020751953,-0.5779378414154053,0.1053711548447609,-0.08483141660690308
0.24556341767311096,5.0449676513671875,8.458329200744629,-0.5040253400802612,-0.14080029726028442,-0.11598462611436844
0.6143572330474854,4.956432819366455,8.40329360961914,-0.41117656230926514,-0.2855710983276367,-0.12392564117908478
0.7507480978965759,4.877170562744141,7.814360618591309,-0.3494809865951538,-0.2086043357849121,-0.05123481526970863
0.4468596279621124,4.7024946212768555,7.33549690246582,-0.09842276573181152,-0.04611896723508835,-0.0017561858985573053
0.2838485836982727,4.829314231872559,7.718647480010986,0.28098973631858826,-0.03817795217037201,-0.010918894782662392
0.22881366312503815,5.219643592834473,8.872586250305176,0.46546560525894165,-0.04978405311703682,-0.03352024406194687
0.47796630859375,5.389533996582031,8.831908226013184,0.2907632887363434,0.02473931387066841,-0.03474193811416626
0.5282155871391296,5.449354648590088,8.805587768554688,0.02680092304944992,0.12858334183692932,-0.007253811229020357
0.5330012440681458,5.353641510009766,8.824729919433594,-0.14423631131649017,0.06139015033841133,0.004963133949786425
0.7316055297851562,5.332106113433838,8.276473999023438,-0.24258272349834442,-0.002748812548816204,0.05566345527768135
0.3607180118560791,4.997110843658447,7.685148239135742,-0.1533990204334259,0.06261184066534042,0.12530004978179932
-0.05114658549427986,4.649852752685547,6.856932163238525,0.14660334587097168,0.05344913527369499,0.11552648991346359
-0.16839489340782166,4.980361461639404,8.760123252868652,0.47646087408065796,-0.02901524491608143,-0.0035887276753783226
0.7890332937240601,5.6099724769592285,9.157630920410156,0.33230090141296387,-0.05894676223397255,-0.05306735634803772
0.48035913705825806,5.547759532928467,8.532505989074707,-0.06971294432878494,0.25625041127204895,0.030007870867848396
0.07567301392555237,5.3608198165893555,8.793622970581055,-0.2205922156572342,0.21593450009822845,0.03489464893937111
0.5066801905632019,5.207679271697998,8.678768157958984,-0.17477867007255554,-0.05772506445646286,0.0165692325681448
0.6550351977348328,5.097609519958496,8.391329765319824,-0.16195088624954224,-0.13347013294696808,0.031229566782712936
0.2431706041097641,5.071288585662842,8.0922269821167,-0.141182079911232,-0.1188097894191742,0.07398887723684311
0.06131608039140701,5.059324264526367,7.701898097991943,-0.043446511030197144,-0.07543963938951492,0.01779092662036419
0.372682124376297,4.946861743927002,8.28843879699707,0.07872293889522552,-0.00030542362947016954,-0.010308047756552696
0.5138586759567261,5.12393045425415,8.080263137817383,0.14110571146011353,0.005803049076348543,0.027564482763409615
0.4492524564266205,5.308177947998047,8.290831565856934,0.1832541823387146,0.1053711548447609,0.04222481697797775
0.46360939741134644,5.334498882293701,8.678768157958984,0.18814095854759216,0.1682884246110916,0.07643226534128189
0.42293140292167664,5.286642551422119,8.381758689880371,0.20280128717422485,0.09620844572782516,0.09597937762737274
0.41575294733047485,5.265107154846191,7.692326545715332,0.2742704153060913,0.08215895295143127,0.10453123599290848
0.22163519263267517,5.059324264526367,7.599006652832031,0.3811686933040619,0.12675081193447113,0.10636378079652786
-0.1301097273826599,5.24835729598999,7.349853992462158,0.42576053738594055,0.12308572232723236,0.08742751181125641
-0.22103698551654816,5.748756408691406,9.509376525878906,0.3946073353290558,-0.02229592576622963,0.011682453565299511
0.18574285507202148,6.09122896194458,9.624231338500977,0.0011453386396169662,-0.11086877435445786,-0.03229855000972748
-0.28115665912628174,5.779862880706787,8.52772045135498,-0.44721654057502747,-0.010689826682209969,-0.1086544543504715
0.2503490746021271,5.660222053527832,8.57348346710205,-0.562666654586792,-0.09559759497642517,-0.20455747842788696
0.597607433795929,5.387141227722168,8.367402076721191,-0.48936501145362854,-0.3295520842075348,-0.23204560577869415
0.6478567123413086,5.131109237670898,8.027621269226074,-0.3922402858734131,-0.41262730956077576,-0.17890189588069916
0.6478567123413086,4.788636207580566,7.977371692657471,-0.2890070974826813,-0.36253786087036133,-0.08971819281578064
0.49232324957847595,4.546961307525635,7.65164852142334,-0.11369394510984421,-0.2886253297328949,-0.05428905040025711
0.5952146053314209,4.848456859588623,7.505686283111572,0.1313321590423584,-0.15057384967803955,-0.07444700598716736
0.494716078042984,5.224429130554199,8.231010437011719,0.31031039357185364,-0.03573456406593323,-0.07933378964662552
0.3678964674472809,5.222036361694336,8.479864120483398,0.3396310806274414,-0.03390202298760414,-0.08666395395994186
0.719641387462616,5.746363639831543,8.934800148010254,0.23823043704032898,-0.07177454978227615,-0.10987614840269089
0.7052844762802124,5.643472194671631,8.7505521774292,-0.011071606539189816,0.037567105144262314,-0.04818057641386986
0.5832505226135254,5.401497840881348,8.599804878234863,-0.16989189386367798,0.018019994720816612,0.00129805039614439
0.5665007829666138,5.033003330230713,8.159226417541504,-0.18577392399311066,-0.042453885078430176,0.02817532978951931
0.39421752095222473,4.855635166168213,7.833503246307373,-0.09292513877153397,-0.03695625811815262,0.026342788711190224
0.4588237404823303,5.0377888679504395,7.476972579956055,0.09895725548267365,-0.008857285603880882,-0.008475505746901035
0.4133601188659668,5.181358337402344,7.163213729858398,0.31092125177383423,0.03145863488316536,-0.0164165198802948
0.9209375977516174,5.662614822387695,8.384151458740234,0.53143709897995,0.038788799196481705,-0.006642963737249374
1.679761528968811,5.928217887878418,8.72183895111084,0.46851983666419983,0.13896775245666504,0.12041326612234116
1.2535399198532104,5.535795211791992,7.677969455718994,0.26694026589393616,0.4614951014518738,0.3397074341773987
0.6981059908866882,5.329713344573975,7.182356357574463,0.3524588644504547,0.6850652098655701,0.4894413650035858
0.4827519655227661,5.521438121795654,7.773682594299316,0.4984513521194458,0.6960604786872864,0.5407525300979614
0.2431706041097641,5.3679986000061035,7.742575645446777,0.49173203110694885,0.5824428796768188,0.5798467397689819
-0.22103698551654816,5.296213626861572,7.486543655395508,0.5027272701263428,0.5079194903373718,0.5028799772262573
-0.7094719409942627,5.854040622711182,8.166404724121094,0.41537612676620483,0.5488462448120117,0.33054471015930176
-1.2074781656265259,6.155835151672363,7.5535430908203125,0.33291175961494446,0.5378510355949402,0.25479966402053833
-0.7094719409942627,6.833303451538086,10.23021411895752,0.21318569779396057,0.1957765519618988,0.05566345527768135
0.125922292470932,6.541079998016357,9.150452613830566,-0.17722205817699432,-0.03451287001371384,-0.010918894782662392
-0.12771691381931305,6.067300796508789,7.819146156311035,-0.3665847182273865,-0.002748812548816204,-0.06711684167385101
0.5018945336341858,5.935396671295166,7.816753387451172,0.49417543411254883,0.35948359966278076,0.17172443866729736
0.355932354927063,5.913861274719238,7.969893932342529,0.5870242118835449,0.4321744441986084,0.2682383060455322
0.09242277592420578,5.789434432983398,8.393722534179688,0.5436540842056274,0.4431696832180023,0.2981698215007782
0.07088737189769745,5.820540904998779,8.391329765319824,0.45385950803756714,0.4340069890022278,0.2847311794757843
0.5784648656845093,5.964110374450684,7.565506935119629,0.3005368411540985,0.5274665951728821,0.2828986346721649
0.1091725304722786,5.870790481567383,7.426723480224609,0.32313820719718933,0.6239804625511169,0.36902809143066406
-0.34576287865638733,5.96171760559082,7.558328628540039,0.4080459773540497,0.6923953890800476,0.38429927825927734
-0.656829833984375,6.273083686828613,8.106583595275879,0.38605546951293945,0.6331431865692139,0.35742199420928955
-0.6903293132781982,6.591628074645996,8.259724617004395,0.24250635504722595,0.4559974670410156,0.3000023663043976
-0.3601198196411133,6.589235305786133,8.19272518157959,0.07566870748996735,0.3246653079986572,0.18638476729393005
-0.06550352275371552,6.311368942260742,7.95553731918335,0.031076854094862938,0.16645587980747223,0.11735902726650238
-0.3529413342475891,6.103193283081055,7.536793231964111,0.1588202863931656,0.14813046157360077,0.1008661538362503
-0.5060819983482361,6.131906986236572,7.462615489959717,0.2736595869064331,0.16401249170303345,0.09475768357515335
-0.3002992272377014,6.158228397369385,7.261319637298584,0.32008397579193115,0.19333316385746002,0.08437328040599823
-0.6329016089439392,6.5578293800354,8.197511672973633,0.2736595869064331,0.14996300637722015,0.03306210786104202
-0.2835494875907898,6.919445037841797,8.293224334716797,0.03474193811416626,-0.12552911043167114,-0.043293800204992294
-0.3601198196411133,7.134799003601074,7.778468132019043,-0.1424037665128708,-0.12369657307863235,-0.06345175951719284
