accX,accY,accZ,gyroX,gyroY,gyroZ
-0.112762451171875,-0.073516845703125,9.558013916015625,0.0003204345703125,1.52587890625e-05,0.0
-0.1055755615234375,-0.0687255859375,9.555618286132812,0.0003204345703125,0.001068115234375,0.0
-0.1199493408203125,-0.073516845703125,9.555618286132812,0.0003204345703125,1.52587890625e-05,0.0
-0.1103668212890625,-0.075897216796875,9.55322265625,0.0003204345703125,1.52587890625e-05,0.0
-0.1151580810546875,-0.0782928466796875,9.558013916015625,0.0003204345703125,1.52587890625e-05,0.0
-0.122344970703125,-0.0711212158203125,9.56280517578125,0.0003204345703125,0.001068115234375,0.0
-0.1151580810546875,-0.0830841064453125,9.567596435546875,-0.000732421875,1.52587890625e-05,0.0
-0.112762451171875,-0.0878753662109375,9.558013916015625,0.0013885498046875,1.52587890625e-05,0.0
-0.112762451171875,-0.075897216796875,9.558013916015625,-0.000732421875,1.52587890625e-05,0.0
-0.122344970703125,-0.0711212158203125,9.57476806640625,0.0003204345703125,1.52587890625e-05,0.0
-0.1199493408203125,-0.0782928466796875,9.57476806640625,0.0003204345703125,1.52587890625e-05,0.0
-0.1271209716796875,-0.073516845703125,9.579559326171875,0.0003204345703125,1.52587890625e-05,0.0
-0.1199493408203125,-0.0615386962890625,9.589141845703125,0.0003204345703125,0.001068115234375,0.0
-0.1199493408203125,-0.0663299560546875,9.572372436523438,0.0003204345703125,1.52587890625e-05,0.0
-0.1199493408203125,-0.0806884765625,9.565200805664062,0.0003204345703125,1.52587890625e-05,0.0
-0.122344970703125,-0.073516845703125,9.589141845703125,-0.000732421875,1.52587890625e-05,0.0
-0.122344970703125,-0.0711212158203125,9.57476806640625,0.0003204345703125,1.52587890625e-05,0.0
-0.1151580810546875,-0.075897216796875,9.5843505859375,0.0003204345703125,1.52587890625e-05,0.0
-0.1199493408203125,-0.075897216796875,9.57476806640625,0.0003204345703125,1.52587890625e-05,0.0
-0.112762451171875,-0.063934326171875,9.5843505859375,0.0003204345703125,1.52587890625e-05,0.0
-0.112762451171875,-0.073516845703125,9.5843505859375,0.0003204345703125,1.52587890625e-05,0.0
-0.1055755615234375,-0.0615386962890625,9.579559326171875,0.0003204345703125,-0.0010528564453125,0.0010528564453125
-0.1103668212890625,-0.073516845703125,9.577163696289062,0.0003204345703125,1.52587890625e-05,0.0
-0.1175537109375,-0.0830841064453125,9.586746215820312,0.0003204345703125,1.52587890625e-05,0.0
-0.1175537109375,-0.063934326171875,9.577163696289062,0.0003204345703125,1.52587890625e-05,-0.001068115234375
-0.124725341796875,-0.075897216796875,9.586746215820312,-0.000732421875,1.52587890625e-05,-0.001068115234375
-0.1175537109375,-0.075897216796875,9.5843505859375,0.0003204345703125,1.52587890625e-05,-0.001068115234375
-0.1199493408203125,-0.073516845703125,9.59393310546875,0.0003204345703125,1.52587890625e-05,0.0
-0.112762451171875,-0.0711212158203125,9.586746215820312,0.0003204345703125,1.52587890625e-05,0.0
-0.122344970703125,-0.0782928466796875,9.60589599609375,0.0003204345703125,1.52587890625e-05,0.0
-0.1199493408203125,-0.0878753662109375,9.596328735351562,0.0003204345703125,1.52587890625e-05,0.0
-0.1271209716796875,-0.0830841064453125,9.591537475585938,0.0003204345703125,1.52587890625e-05,0.0
-0.122344970703125,-0.0687255859375,9.591537475585938,0.0003204345703125,0.001068115234375,0.0
-0.122344970703125,-0.085479736328125,9.5843505859375,-0.000732421875,1.52587890625e-05,0.0
-0.124725341796875,-0.0830841064453125,9.596328735351562,-0.000732421875,1.52587890625e-05,0.0
-0.112762451171875,-0.0663299560546875,9.598709106445312,0.0003204345703125,1.52587890625e-05,0.0
-0.1295166015625,-0.0687255859375,9.59393310546875,-0.000732421875,1.52587890625e-05,0.0
-0.112762451171875,-0.0687255859375,9.598709106445312,0.0003204345703125,1.52587890625e-05,0.0
-0.1151580810546875,-0.0711212158203125,9.59393310546875,0.0003204345703125,1.52587890625e-05,0.0
-0.1175537109375,-0.0711212158203125,9.603500366210938,0.0003204345703125,1.52587890625e-05,0.0
-0.1367034912109375,-0.09027099609375,9.572372436523438,0.0003204345703125,-0.0010528564453125,0.0
-0.124725341796875,-0.0782928466796875,9.639419555664062,0.0024566650390625,-0.00531005859375,-0.00213623046875
-0.1151580810546875,-0.073516845703125,9.591537475585938,-0.001800537109375,0.0042724609375,0.0010528564453125
-0.112762451171875,-0.0711212158203125,9.586746215820312,-0.001800537109375,0.0042724609375,0.0010528564453125
-0.1271209716796875,-0.0663299560546875,9.59393310546875,-0.000732421875,0.001068115234375,0.0
-0.1151580810546875,-0.0687255859375,9.591537475585938,-0.000732421875,1.52587890625e-05,0.0
-0.1175537109375,-0.073516845703125,9.613082885742188,-0.000732421875,1.52587890625e-05,0.0
-0.112762451171875,-0.075897216796875,9.601104736328125,0.0003204345703125,-0.0010528564453125,0.0
-0.1151580810546875,-0.073516845703125,9.603500366210938,-0.000732421875,1.52587890625e-05,0.0010528564453125
-0.1199493408203125,-0.0663299560546875,9.608291625976562,-0.000732421875,1.52587890625e-05,0.0
-0.1271209716796875,-0.075897216796875,9.608291625976562,-0.000732421875,1.52587890625e-05,0.0010528564453125
-0.1271209716796875,-0.0615386962890625,9.613082885742188,-0.000732421875,1.52587890625e-05,0.0
-0.1151580810546875,-0.0806884765625,9.608291625976562,0.0003204345703125,1.52587890625e-05,0.0
-0.1175537109375,-0.085479736328125,9.615478515625,0.0003204345703125,0.001068115234375,0.0
-0.1175537109375,-0.0711212158203125,9.603500366210938,0.0003204345703125,1.52587890625e-05,0.0
-0.1151580810546875,-0.0806884765625,9.60589599609375,0.0003204345703125,1.52587890625e-05,0.0
-0.1151580810546875,-0.073516845703125,9.617874145507812,-0.000732421875,-0.0010528564453125,0.0
-0.122344970703125,-0.0806884765625,9.617874145507812,0.0003204345703125,1.52587890625e-05,0.0
-0.122344970703125,-0.0711212158203125,9.608291625976562,0.0003204345703125,-0.0010528564453125,0.0
-0.122344970703125,-0.075897216796875,9.603500366210938,0.0003204345703125,1.52587890625e-05,0.0
-0.1175537109375,-0.073516845703125,9.613082885742188,0.0003204345703125,1.52587890625e-05,0.0
-0.1295166015625,-0.0663299560546875,9.610687255859375,0.0003204345703125,1.52587890625e-05,0.0
-0.1055755615234375,-0.0878753662109375,9.747161865234375,-0.0050048828125,-0.01702880859375,-0.00213623046875
-0.112762451171875,-0.09027099609375,9.665756225585938,0.0003204345703125,1.52587890625e-05,-0.001068115234375
-0.124725341796875,-0.075897216796875,9.596328735351562,0.0024566650390625,0.0074615478515625,0.0
-0.1175537109375,-0.073516845703125,9.59393310546875,0.0013885498046875,0.005340576171875,0.0
-0.1151580810546875,-0.075897216796875,9.622665405273438,0.0003204345703125,0.001068115234375,0.0
-0.112762451171875,-0.0782928466796875,9.625045776367188,0.0003204345703125,1.52587890625e-05,-0.001068115234375
-0.1055755615234375,-0.0830841064453125,9.613082885742188,0.0003204345703125,1.52587890625e-05,0.0
-0.1103668212890625,-0.0711212158203125,9.610687255859375,0.0003204345703125,1.52587890625e-05,0.0
-0.124725341796875,-0.063934326171875,9.610687255859375,-0.000732421875,1.52587890625e-05,0.0
-0.1103668212890625,-0.0615386962890625,9.60589599609375,0.0003204345703125,1.52587890625e-05,0.0
-0.1103668212890625,-0.0782928466796875,9.615478515625,0.0003204345703125,1.52587890625e-05,0.0
-0.134307861328125,-0.0687255859375,9.615478515625,0.0003204345703125,1.52587890625e-05,0.0
-0.1151580810546875,-0.1046295166015625,9.48858642578125,0.0003204345703125,1.52587890625e-05,0.0
-0.1007843017578125,-0.107025146484375,9.512527465820312,0.0003204345703125,1.52587890625e-05,0.0
-0.1271209716796875,-0.0687255859375,9.56280517578125,0.0003204345703125,1.52587890625e-05,0.0
-0.1103668212890625,-0.073516845703125,9.617874145507812,0.0003204345703125,0.001068115234375,0.0
-0.112762451171875,-0.0687255859375,9.629837036132812,0.0003204345703125,1.52587890625e-05,-0.001068115234375
-0.1175537109375,-0.073516845703125,9.644210815429688,0.0003204345703125,1.52587890625e-05,0.0
-0.124725341796875,-0.073516845703125,9.625045776367188,-0.000732421875,1.52587890625e-05,0.0
-0.124725341796875,-0.0806884765625,9.625045776367188,-0.000732421875,1.52587890625e-05,0.0
-0.1175537109375,-0.075897216796875,9.620269775390625,-0.000732421875,1.52587890625e-05,0.0
-0.1199493408203125,-0.0663299560546875,9.613082885742188,0.0003204345703125,0.001068115234375,0.0
-0.1175537109375,-0.075897216796875,9.617874145507812,0.0003204345703125,1.52587890625e-05,-0.001068115234375
-0.1175537109375,-0.0806884765625,9.615478515625,0.0003204345703125,1.52587890625e-05,0.0
-0.1175537109375,-0.0663299560546875,9.601104736328125,-0.000732421875,1.52587890625e-05,0.0
-0.122344970703125,-0.0830841064453125,9.617874145507812,-0.000732421875,1.52587890625e-05,0.0
-0.112762451171875,-0.073516845703125,9.632232666015625,0.0003204345703125,1.52587890625e-05,0.0
-0.10797119140625,-0.0782928466796875,9.622665405273438,0.0003204345703125,1.52587890625e-05,0.0
-0.1151580810546875,-0.0782928466796875,9.620269775390625,0.0003204345703125,1.52587890625e-05,0.0
-0.1151580810546875,-0.0806884765625,9.615478515625,0.0003204345703125,1.52587890625e-05,0.0
-0.124725341796875,-0.073516845703125,9.617874145507812,0.0003204345703125,1.52587890625e-05,0.0
-0.1199493408203125,-0.0711212158203125,9.613082885742188,0.0003204345703125,-0.0010528564453125,0.0010528564453125
-0.1271209716796875,-0.0687255859375,9.610687255859375,0.0003204345703125,1.52587890625e-05,0.0010528564453125
-0.1175537109375,-0.0782928466796875,9.625045776367188,0.0003204345703125,-0.0010528564453125,0.0010528564453125
-0.1175537109375,-0.0663299560546875,9.617874145507812,0.0003204345703125,1.52587890625e-05,0.0010528564453125
-0.1175537109375,-0.075897216796875,9.620269775390625,0.0003204345703125,1.52587890625e-05,0.0
-0.1151580810546875,-0.075897216796875,9.615478515625,0.0003204345703125,1.52587890625e-05,0.0
-0.1199493408203125,-0.075897216796875,9.617874145507812,0.0003204345703125,0.001068115234375,0.0
-0.1319122314453125,-0.0663299560546875,9.617874145507812,0.0003204345703125,1.52587890625e-05,0.0
-0.1295166015625,-0.063934326171875,9.617874145507812,0.0013885498046875,-0.0010528564453125,0.0
-0.1271209716796875,-0.073516845703125,9.62744140625,0.0003204345703125,1.52587890625e-05,0.0
-0.1271209716796875,-0.0711212158203125,9.617874145507812,0.0003204345703125,1.52587890625e-05,0.0
-0.122344970703125,-0.0782928466796875,9.622665405273438,-0.000732421875,1.52587890625e-05,0.0
-0.122344970703125,-0.0782928466796875,9.617874145507812,0.0003204345703125,1.52587890625e-05,0.0
-0.1175537109375,-0.0687255859375,9.608291625976562,-0.000732421875,1.52587890625e-05,0.0
-0.1271209716796875,-0.0806884765625,9.622665405273438,0.0003204345703125,1.52587890625e-05,0.0
-0.124725341796875,-0.075897216796875,9.625045776367188,0.0003204345703125,1.52587890625e-05,0.0
-0.112762451171875,-0.0806884765625,9.617874145507812,0.0003204345703125,1.52587890625e-05,0.0
-0.1175537109375,-0.0878753662109375,9.625045776367188,0.0003204345703125,1.52587890625e-05,0.0
-0.124725341796875,-0.0687255859375,9.620269775390625,-0.000732421875,1.52587890625e-05,0.0
-0.124725341796875,-0.073516845703125,9.632232666015625,-0.000732421875,1.52587890625e-05,0.0
-0.1199493408203125,-0.0806884765625,9.620269775390625,0.0109710693359375,0.0106658935546875,0.0
-0.1151580810546875,-0.0687255859375,9.6466064453125,-0.00286865234375,-0.0021209716796875,-0.001068115234375
-0.112762451171875,-0.0830841064453125,9.613082885742188,-0.003936767578125,-0.0042572021484375,0.0
-0.1103668212890625,-0.0711212158203125,9.629837036132812,-0.003936767578125,-0.0042572021484375,0.0010528564453125
-0.1175537109375,-0.0711212158203125,9.62744140625,-0.000732421875,-0.0010528564453125,0.0
-0.122344970703125,-0.0663299560546875,9.634628295898438,-0.000732421875,1.52587890625e-05,0.0
-0.1199493408203125,-0.0806884765625,9.617874145507812,-0.000732421875,-0.0010528564453125,0.0
-0.1151580810546875,-0.0711212158203125,9.608291625976562,-0.000732421875,-0.0010528564453125,0.0
-0.1175537109375,-0.0806884765625,9.617874145507812,-0.000732421875,1.52587890625e-05,0.0
-0.1271209716796875,-0.0711212158203125,9.625045776367188,-0.000732421875,1.52587890625e-05,0.0
-0.122344970703125,-0.0711212158203125,9.625045776367188,0.0003204345703125,0.001068115234375,0.0
-0.1199493408203125,-0.0663299560546875,9.625045776367188,0.0003204345703125,1.52587890625e-05,0.0
-0.0720672607421875,-0.054351806640625,9.704055786132812,0.0003204345703125,1.52587890625e-05,0.0
-0.02178955078125,-0.0352020263671875,9.804611206054688,0.0003204345703125,0.001068115234375,0.0
-0.060089111328125,-0.020843505859375,9.799835205078125,0.0003204345703125,1.52587890625e-05,0.0
-0.1103668212890625,-0.0615386962890625,9.677719116210938,0.0003204345703125,1.52587890625e-05,0.0
-0.1175537109375,-0.05914306640625,9.66815185546875,0.0003204345703125,1.52587890625e-05,0.0
-0.112762451171875,-0.0711212158203125,9.656173706054688,0.0003204345703125,1.52587890625e-05,0.0
-0.1199493408203125,-0.073516845703125,9.629837036132812,-0.000732421875,1.52587890625e-05,0.0
-0.112762451171875,-0.073516845703125,9.625045776367188,-0.000732421875,0.001068115234375,0.0
-0.1175537109375,-0.0687255859375,9.610687255859375,0.0003204345703125,1.52587890625e-05,0.0
-0.1151580810546875,-0.0615386962890625,9.620269775390625,0.0003204345703125,1.52587890625e-05,0.0
-0.1175537109375,-0.075897216796875,9.613082885742188,0.0003204345703125,1.52587890625e-05,0.0
-0.1319122314453125,-0.0663299560546875,9.62744140625,0.0003204345703125,1.52587890625e-05,0.0
-0.1151580810546875,-0.073516845703125,9.622665405273438,0.0003204345703125,1.52587890625e-05,-0.001068115234375
-0.1199493408203125,-0.0782928466796875,9.601104736328125,0.0003204345703125,1.52587890625e-05,0.0010528564453125
-0.10797119140625,-0.0687255859375,9.66815185546875,0.0024566650390625,-0.0074462890625,-0.00213623046875
-0.1199493408203125,-0.0782928466796875,9.629837036132812,-0.000732421875,0.00213623046875,0.0
-0.10797119140625,-0.0615386962890625,9.608291625976562,-0.000732421875,0.0042724609375,0.0010528564453125
-0.124725341796875,-0.075897216796875,9.617874145507812,-0.000732421875,0.001068115234375,0.0
-0.1175537109375,-0.075897216796875,9.632232666015625,0.0003204345703125,1.52587890625e-05,0.0
-0.122344970703125,-0.0830841064453125,9.634628295898438,0.0003204345703125,0.001068115234375,0.0
-0.1175537109375,-0.0687255859375,9.620269775390625,0.0003204345703125,1.52587890625e-05,0.0
-0.122344970703125,-0.0782928466796875,9.629837036132812,-0.000732421875,-0.0010528564453125,0.0
-0.124725341796875,-0.073516845703125,9.625045776367188,-0.000732421875,1.52587890625e-05,0.0
-0.112762451171875,-0.075897216796875,9.617874145507812,-0.000732421875,0.001068115234375,0.0
-0.10797119140625,-0.0663299560546875,9.615478515625,-0.000732421875,1.52587890625e-05,0.0
-0.112762451171875,-0.0830841064453125,9.639419555664062,-0.000732421875,1.52587890625e-05,0.0
-0.2037353515625,-0.0974578857421875,9.514923095703125,0.0003204345703125,1.52587890625e-05,0.0
-0.2420501708984375,-0.1190032958984375,9.423934936523438,-0.000732421875,1.52587890625e-05,0.0
-0.13909912109375,-0.0711212158203125,9.59393310546875,0.0003204345703125,-0.0010528564453125,0.0
-0.124725341796875,-0.073516845703125,9.601104736328125,0.0003204345703125,1.52587890625e-05,0.0
-0.1151580810546875,-0.0806884765625,9.613082885742188,0.0013885498046875,1.52587890625e-05,0.0
-0.122344970703125,-0.073516845703125,9.620269775390625,0.0003204345703125,1.52587890625e-05,0.0
-0.112762451171875,-0.0806884765625,9.625045776367188,0.0003204345703125,0.001068115234375,0.0
-0.1103668212890625,-0.0782928466796875,9.629837036132812,0.0003204345703125,0.001068115234375,0.0
-0.10797119140625,-0.073516845703125,9.634628295898438,-0.000732421875,1.52587890625e-05,0.0
-0.122344970703125,-0.063934326171875,9.629837036132812,0.0003204345703125,1.52587890625e-05,0.0
-0.10797119140625,-0.0663299560546875,9.62744140625,0.0003204345703125,1.52587890625e-05,0.0
-0.1007843017578125,-0.0806884765625,9.610687255859375,0.0003204345703125,1.52587890625e-05,0.0
-0.13909912109375,-0.0615386962890625,9.455062866210938,-0.000732421875,-0.00531005859375,0.0
-0.1055755615234375,-0.075897216796875,9.677719116210938,0.0013885498046875,0.005340576171875,0.0
-0.112762451171875,-0.073516845703125,9.60589599609375,0.0013885498046875,0.005340576171875,0.0
-0.1103668212890625,-0.073516845703125,9.622665405273438,-0.000732421875,0.001068115234375,0.0
-0.1271209716796875,-0.0687255859375,9.615478515625,-0.000732421875,0.001068115234375,0.0
-0.1151580810546875,-0.075897216796875,9.634628295898438,0.0003204345703125,1.52587890625e-05,0.0
-0.1103668212890625,-0.0663299560546875,9.620269775390625,0.0003204345703125,1.52587890625e-05,0.0
-0.1151580810546875,-0.0687255859375,9.62744140625,-0.000732421875,1.52587890625e-05,0.0
-0.1199493408203125,-0.0830841064453125,9.629837036132812,0.0003204345703125,0.001068115234375,0.0
-0.1175537109375,-0.075897216796875,9.617874145507812,0.0003204345703125,0.001068115234375,0.0
-0.1103668212890625,-0.075897216796875,9.62744140625,0.0003204345703125,1.52587890625e-05,0.0
-0.143890380859375,-0.0711212158203125,9.632232666015625,0.0003204345703125,1.52587890625e-05,0.0
-0.2276763916015625,-0.09027099609375,9.493377685546875,0.0003204345703125,1.52587890625e-05,0.0
-0.1367034912109375,-0.0830841064453125,9.60589599609375,0.0003204345703125,-0.0010528564453125,0.0
-0.1319122314453125,-0.0806884765625,9.596328735351562,0.0003204345703125,1.52587890625e-05,0.0
-0.1175537109375,-0.0782928466796875,9.603500366210938,0.0003204345703125,1.52587890625e-05,0.0
-0.122344970703125,-0.0806884765625,9.610687255859375,0.0003204345703125,1.52587890625e-05,0.0
-0.122344970703125,-0.0711212158203125,9.632232666015625,-0.000732421875,1.52587890625e-05,0.0
-0.1103668212890625,-0.0687255859375,9.634628295898438,0.0003204345703125,1.52587890625e-05,0.0
-0.1295166015625,-0.073516845703125,9.632232666015625,0.0003204345703125,1.52587890625e-05,0.0
-0.1175537109375,-0.0830841064453125,9.634628295898438,-0.000732421875,1.52587890625e-05,0.0
-0.122344970703125,-0.085479736328125,9.625045776367188,0.0003204345703125,1.52587890625e-05,0.0
-0.1151580810546875,-0.0663299560546875,9.625045776367188,0.0003204345703125,1.52587890625e-05,0.0
-0.1103668212890625,-0.0806884765625,9.625045776367188,0.0003204345703125,1.52587890625e-05,0.0
-0.1103668212890625,-0.0711212158203125,9.601104736328125,0.0003204345703125,0.001068115234375,0.0
-0.1175537109375,-0.0711212158203125,9.60589599609375,0.0013885498046875,1.52587890625e-05,0.0
-0.1175537109375,-0.0711212158203125,9.632232666015625,0.0013885498046875,1.52587890625e-05,0.0010528564453125
-0.112762451171875,-0.0782928466796875,9.62744140625,0.0003204345703125,1.52587890625e-05,0.0
-0.112762451171875,-0.0711212158203125,9.613082885742188,0.0003204345703125,1.52587890625e-05,0.0
-0.1199493408203125,-0.0782928466796875,9.620269775390625,-0.000732421875,1.52587890625e-05,0.0
-0.1175537109375,-0.075897216796875,9.608291625976562,0.0003204345703125,0.001068115234375,0.0
-0.1199493408203125,-0.0687255859375,9.651382446289062,0.0003204345703125,1.52587890625e-05,0.0
-0.1175537109375,-0.0687255859375,9.610687255859375,0.0003204345703125,1.52587890625e-05,0.0
-0.112762451171875,-0.0782928466796875,9.608291625976562,0.0003204345703125,1.52587890625e-05,0.0
-0.1295166015625,-0.063934326171875,9.63702392578125,0.0013885498046875,0.001068115234375,0.0010528564453125
-0.1295166015625,-0.075897216796875,9.670547485351562,0.0003204345703125,1.52587890625e-05,0.0
-0.1271209716796875,-0.0687255859375,9.617874145507812,0.0003204345703125,1.52587890625e-05,0.0
-0.1199493408203125,-0.073516845703125,9.663360595703125,-0.000732421875,-0.0010528564453125,0.0
-0.112762451171875,-0.0711212158203125,9.622665405273438,0.0003204345703125,1.52587890625e-05,0.0
-0.1175537109375,-0.0711212158203125,9.644210815429688,0.0003204345703125,1.52587890625e-05,0.0
-0.1199493408203125,-0.0806884765625,9.62744140625,0.0003204345703125,1.52587890625e-05,0.0
-0.1199493408203125,-0.0711212158203125,9.622665405273438,0.0003204345703125,1.52587890625e-05,0.0
-0.1199493408203125,-0.0782928466796875,9.62744140625,0.0003204345703125,1.52587890625e-05,0.0
-0.10797119140625,-0.0830841064453125,9.632232666015625,0.0003204345703125,1.52587890625e-05,0.0
-0.1199493408203125,-0.0782928466796875,9.629837036132812,0.0003204345703125,1.52587890625e-05,0.0
-0.1151580810546875,-0.0830841064453125,9.622665405273438,0.0003204345703125,1.52587890625e-05,0.0
-0.112762451171875,-0.0711212158203125,9.598709106445312,0.00885009765625,0.0095977783203125,-0.001068115234375
-0.124725341796875,-0.0663299560546875,9.620269775390625,-0.000732421875,-0.0010528564453125,0.0
-0.124725341796875,-0.0615386962890625,9.596328735351562,-0.0050048828125,-0.0042572021484375,0.0
-0.1103668212890625,-0.075897216796875,9.641815185546875,-0.00286865234375,-0.0031890869140625,0.0
-0.1103668212890625,-0.0711212158203125,9.632232666015625,-0.001800537109375,-0.0010528564453125,0.0
-0.1175537109375,-0.073516845703125,9.629837036132812,0.000274658203125,-4.57763671875e-05,1.52587890625e-05
-0.112762451171875,-0.0782928466796875,9.620269775390625,0.000274658203125,-4.57763671875e-05,1.52587890625e-05
-0.1175537109375,-0.073516845703125,9.625045776367188,0.000274658203125,-4.57763671875e-05,0.001068115234375
-0.1175537109375,-0.075897216796875,9.634628295898438,0.000274658203125,-4.57763671875e-05,0.001068115234375
-0.1175537109375,-0.075897216796875,9.617874145507812,0.000274658203125,-4.57763671875e-05,1.52587890625e-05
-0.1151580810546875,-0.075897216796875,9.634628295898438,-0.0007781982421875,-4.57763671875e-05,1.52587890625e-05
-0.1175537109375,-0.0687255859375,9.62744140625,-0.0007781982421875,-4.57763671875e-05,1.52587890625e-05
-0.10797119140625,-0.0399932861328125,9.766311645507812,-0.0007781982421875,-4.57763671875e-05,0.001068115234375
-0.1319122314453125,-0.0304107666015625,9.727996826171875,-0.0007781982421875,-4.57763671875e-05,1.52587890625e-05
-0.1175537109375,-0.075897216796875,9.672943115234375,0.000274658203125,-4.57763671875e-05,1.52587890625e-05
-0.1199493408203125,-0.0782928466796875,9.625045776367188,-0.0007781982421875,-4.57763671875e-05,1.52587890625e-05
-0.1295166015625,-0.0687255859375,9.610687255859375,-0.0007781982421875,-4.57763671875e-05,1.52587890625e-05
-0.1151580810546875,-0.0806884765625,9.615478515625,0.000274658203125,-4.57763671875e-05,1.52587890625e-05
-0.1055755615234375,-0.085479736328125,9.613082885742188,0.000274658203125,-4.57763671875e-05,-0.0010528564453125
-0.1151580810546875,-0.0878753662109375,9.629837036132812,0.000274658203125,-4.57763671875e-05,1.52587890625e-05
-0.112762451171875,-0.073516845703125,9.62744140625,-0.0007781982421875,-0.0011138916015625,-0.0010528564453125
-0.1103668212890625,-0.073516845703125,9.629837036132812,-0.0007781982421875,-4.57763671875e-05,1.52587890625e-05
-0.124725341796875,-0.0711212158203125,9.625045776367188,-0.0007781982421875,-4.57763671875e-05,1.52587890625e-05
-0.1151580810546875,-0.0663299560546875,9.615478515625,0.000274658203125,-4.57763671875e-05,1.52587890625e-05
-0.1103668212890625,-0.075897216796875,9.622665405273438,0.000274658203125,-4.57763671875e-05,1.52587890625e-05
-0.124725341796875,-0.0711212158203125,9.622665405273438,0.000274658203125,-4.57763671875e-05,1.52587890625e-05
-0.1199493408203125,-0.075897216796875,9.632232666015625,0.000274658203125,-4.57763671875e-05,1.52587890625e-05
-0.124725341796875,-0.0711212158203125,9.622665405273438,0.000274658203125,-0.0011138916015625,1.52587890625e-05
-0.1199493408203125,-0.05914306640625,9.486190795898438,-0.0007781982421875,-0.0117645263671875,-0.0010528564453125
-0.1103668212890625,-0.073516845703125,9.687301635742188,0.000274658203125,0.0020751953125,1.52587890625e-05
-0.112762451171875,-0.0687255859375,9.598709106445312,0.0013427734375,0.0095367431640625,0.001068115234375
-0.1199493408203125,-0.073516845703125,9.610687255859375,-0.0007781982421875,0.0020751953125,1.52587890625e-05
-0.1151580810546875,-0.075897216796875,9.617874145507812,0.000274658203125,0.001007080078125,1.52587890625e-05
-0.1199493408203125,-0.0687255859375,9.629837036132812,0.000274658203125,-4.57763671875e-05,1.52587890625e-05
-0.1175537109375,-0.0711212158203125,9.629837036132812,0.000274658203125,-4.57763671875e-05,1.52587890625e-05
-0.112762451171875,-0.073516845703125,9.620269775390625,0.000274658203125,-4.57763671875e-05,1.52587890625e-05
-0.1199493408203125,-0.0830841064453125,9.63702392578125,0.000274658203125,-4.57763671875e-05,1.52587890625e-05
-0.112762451171875,-0.073516845703125,9.622665405273438,0.000274658203125,-4.57763671875e-05,1.52587890625e-05
-0.1199493408203125,-0.0711212158203125,9.62744140625,0.000274658203125,-4.57763671875e-05,1.52587890625e-05
-0.103179931640625,-0.0663299560546875,9.63702392578125,-0.0007781982421875,-4.57763671875e-05,0.001068115234375
-0.01220703125,-0.0399932861328125,9.809402465820312,0.000274658203125,-4.57763671875e-05,1.52587890625e-05
-0.0888214111328125,-0.0567474365234375,9.706451416015625,-0.0007781982421875,-4.57763671875e-05,1.52587890625e-05
-0.10797119140625,-0.0567474365234375,9.663360595703125,-0.0007781982421875,-4.57763671875e-05,1.52587890625e-05
-0.1151580810546875,-0.0711212158203125,9.653778076171875,-0.0007781982421875,-4.57763671875e-05,0.001068115234375
-0.1271209716796875,-0.0687255859375,9.62744140625,0.000274658203125,-4.57763671875e-05,1.52587890625e-05
-0.1271209716796875,-0.063934326171875,9.629837036132812,0.000274658203125,-4.57763671875e-05,1.52587890625e-05
-0.1367034912109375,-0.0711212158203125,9.62744140625,0.000274658203125,0.001007080078125,1.52587890625e-05
-0.122344970703125,-0.075897216796875,9.613082885742188,-0.0007781982421875,-4.57763671875e-05,1.52587890625e-05
-0.1199493408203125,-0.0782928466796875,9.608291625976562,0.000274658203125,-4.57763671875e-05,1.52587890625e-05
-0.10797119140625,-0.0782928466796875,9.632232666015625,-0.0007781982421875,-4.57763671875e-05,0.001068115234375
-0.1175537109375,-0.0711212158203125,9.62744140625,-0.0007781982421875,-4.57763671875e-05,1.52587890625e-05
-0.124725341796875,-0.073516845703125,9.62744140625,0.000274658203125,-4.57763671875e-05,-0.0010528564453125
-0.1199493408203125,-0.0711212158203125,9.632232666015625,0.000274658203125,-4.57763671875e-05,1.52587890625e-05
-0.1151580810546875,-0.0687255859375,9.632232666015625,0.000274658203125,-4.57763671875e-05,1.52587890625e-05
-0.1199493408203125,-0.0687255859375,9.634628295898438,0.000274658203125,-4.57763671875e-05,1.52587890625e-05
-0.112762451171875,-0.0782928466796875,9.617874145507812,0.000274658203125,-4.57763671875e-05,1.52587890625e-05
-0.1175537109375,-0.0806884765625,9.622665405273438,0.000274658203125,-4.57763671875e-05,1.52587890625e-05
-0.1199493408203125,-0.0806884765625,9.62744140625,0.000274658203125,0.001007080078125,1.52587890625e-05
-0.122344970703125,-0.073516845703125,9.632232666015625,-0.0007781982421875,-4.57763671875e-05,1.52587890625e-05
-0.112762451171875,-0.0806884765625,9.620269775390625,-0.0007781982421875,-4.57763671875e-05,1.52587890625e-05
-0.1151580810546875,-0.0782928466796875,9.632232666015625,0.000274658203125,-4.57763671875e-05,1.52587890625e-05
-0.1175537109375,-0.073516845703125,9.629837036132812,0.000274658203125,-4.57763671875e-05,1.52587890625e-05
-0.112762451171875,-0.0615386962890625,9.62744140625,0.000274658203125,-4.57763671875e-05,1.52587890625e-05
-0.1151580810546875,-0.0663299560546875,9.634628295898438,0.000274658203125,-4.57763671875e-05,1.52587890625e-05
-0.1175537109375,-0.073516845703125,9.625045776367188,0.000274658203125,-4.57763671875e-05,1.52587890625e-05
-0.1151580810546875,-0.0711212158203125,9.62744140625,-0.0007781982421875,-4.57763671875e-05,1.52587890625e-05
-0.1175537109375,-0.0687255859375,9.617874145507812,-0.0007781982421875,-4.57763671875e-05,1.52587890625e-05
-0.124725341796875,-0.0782928466796875,9.625045776367188,0.000274658203125,-4.57763671875e-05,1.52587890625e-05
-0.1199493408203125,-0.0711212158203125,9.625045776367188,0.000274658203125,-4.57763671875e-05,1.52587890625e-05
-0.1103668212890625,-0.0830841064453125,9.62744140625,0.000274658203125,-4.57763671875e-05,1.52587890625e-05
-0.1271209716796875,-0.0711212158203125,9.629837036132812,0.000274658203125,-4.57763671875e-05,-0.0010528564453125
-0.1175537109375,-0.0711212158203125,9.63702392578125,0.000274658203125,-4.57763671875e-05,1.52587890625e-05
-0.112762451171875,-0.063934326171875,9.634628295898438,0.000274658203125,-0.0011138916015625,1.52587890625e-05
-0.1151580810546875,-0.073516845703125,9.622665405273438,0.000274658203125,-4.57763671875e-05,1.52587890625e-05
-0.122344970703125,-0.0830841064453125,9.620269775390625,0.000274658203125,-4.57763671875e-05,1.52587890625e-05
-0.1295166015625,-0.073516845703125,9.620269775390625,0.000274658203125,-4.57763671875e-05,-0.0010528564453125
-0.124725341796875,-0.0687255859375,9.632232666015625,0.000274658203125,-4.57763671875e-05,1.52587890625e-05
-0.1175537109375,-0.0687255859375,9.622665405273438,0.000274658203125,-4.57763671875e-05,1.52587890625e-05
-0.1271209716796875,-0.073516845703125,9.610687255859375,-0.0007781982421875,-4.57763671875e-05,1.52587890625e-05
-0.1175537109375,-0.0830841064453125,9.613082885742188,0.000274658203125,-4.57763671875e-05,1.52587890625e-05
-0.10797119140625,-0.073516845703125,9.629837036132812,0.000274658203125,-0.0011138916015625,1.52587890625e-05
-0.1151580810546875,-0.0782928466796875,9.625045776367188,0.000274658203125,-0.0011138916015625,1.52587890625e-05
-0.124725341796875,-0.073516845703125,9.62744140625,0.000274658203125,-4.57763671875e-05,-0.0010528564453125
-0.1175537109375,-0.0711212158203125,9.625045776367188,0.000274658203125,-4.57763671875e-05,1.52587890625e-05
-0.1175537109375,-0.0830841064453125,9.622665405273438,-0.0007781982421875,-4.57763671875e-05,1.52587890625e-05
-0.1175537109375,-0.075897216796875,9.625045776367188,0.000274658203125,-0.0011138916015625,1.52587890625e-05
-0.1199493408203125,-0.085479736328125,9.625045776367188,-0.0007781982421875,-4.57763671875e-05,1.52587890625e-05
-0.1151580810546875,-0.0806884765625,9.632232666015625,-0.0007781982421875,-4.57763671875e-05,1.52587890625e-05
-0.1271209716796875,-0.063934326171875,9.62744140625,0.000274658203125,-4.57763671875e-05,1.52587890625e-05
-0.112762451171875,-0.09027099609375,9.63702392578125,0.000274658203125,-4.57763671875e-05,1.52587890625e-05
-0.1151580810546875,-0.0687255859375,9.625045776367188,0.000274658203125,-0.0011138916015625,1.52587890625e-05
-0.1175537109375,-0.0782928466796875,9.62744140625,-0.0007781982421875,-4.57763671875e-05,1.52587890625e-05
-0.1271209716796875,-0.075897216796875,9.62744140625,0.000274658203125,-4.57763671875e-05,1.52587890625e-05
-0.122344970703125,-0.0711212158203125,9.620269775390625,-0.0007781982421875,-4.57763671875e-05,1.52587890625e-05
-0.1175537109375,-0.0711212158203125,9.62744140625,-0.0007781982421875,-4.57763671875e-05,1.52587890625e-05
-0.1103668212890625,-0.075897216796875,9.625045776367188,0.000274658203125,-4.57763671875e-05,0.001068115234375
-0.112762451171875,-0.073516845703125,9.620269775390625,0.000274658203125,-4.57763671875e-05,1.52587890625e-05
-0.1271209716796875,-0.073516845703125,9.622665405273438,0.000274658203125,-4.57763671875e-05,1.52587890625e-05
-0.1103668212890625,-0.075897216796875,9.62744140625,0.000274658203125,-4.57763671875e-05,1.52587890625e-05
-0.1103668212890625,-0.0711212158203125,9.634628295898438,-0.0007781982421875,-4.57763671875e-05,1.52587890625e-05
-0.112762451171875,-0.0711212158203125,9.632232666015625,0.000274658203125,-4.57763671875e-05,1.52587890625e-05
-0.1199493408203125,-0.075897216796875,9.625045776367188,-0.0007781982421875,0.001007080078125,1.52587890625e-05
-0.124725341796875,-0.0830841064453125,9.62744140625,-0.0007781982421875,-4.57763671875e-05,1.52587890625e-05
-0.10797119140625,-0.0782928466796875,9.629837036132812,-0.0007781982421875,-4.57763671875e-05,1.52587890625e-05
-0.1151580810546875,-0.0663299560546875,9.6466064453125,0.000274658203125,-4.57763671875e-05,1.52587890625e-05
-0.1151580810546875,-0.0615386962890625,9.603500366210938,0.000274658203125,-4.57763671875e-05,1.52587890625e-05
-0.1199493408203125,-0.0806884765625,9.641815185546875,0.000274658203125,-0.0011138916015625,1.52587890625e-05
-0.1151580810546875,-0.0830841064453125,9.634628295898438,-0.0007781982421875,-4.57763671875e-05,1.52587890625e-05
-0.1199493408203125,-0.075897216796875,9.641815185546875,0.000274658203125,-0.0021820068359375,-0.0010528564453125
-0.1175537109375,-0.073516845703125,9.625045776367188,-0.0007781982421875,-0.0021820068359375,1.52587890625e-05
-0.1055755615234375,-0.075897216796875,9.63702392578125,0.000274658203125,-0.0021820068359375,1.52587890625e-05
-0.10797119140625,-0.073516845703125,9.63702392578125,0.000274658203125,-0.0011138916015625,1.52587890625e-05
-0.112762451171875,-0.063934326171875,9.634628295898438,0.000274658203125,0.0020751953125,1.52587890625e-05
-0.1175537109375,-0.0782928466796875,9.596328735351562,0.0013427734375,0.003143310546875,1.52587890625e-05
-0.1175537109375,-0.075897216796875,9.620269775390625,0.0013427734375,0.0020751953125,1.52587890625e-05
-0.124725341796875,-0.0687255859375,9.62744140625,0.000274658203125,-4.57763671875e-05,1.52587890625e-05
-0.1199493408203125,-0.073516845703125,9.632232666015625,0.000274658203125,-4.57763671875e-05,1.52587890625e-05
-0.1103668212890625,-0.0806884765625,9.622665405273438,0.000274658203125,-4.57763671875e-05,1.52587890625e-05
-0.124725341796875,-0.0711212158203125,9.62744140625,0.000274658203125,-4.57763671875e-05,1.52587890625e-05
-0.1175537109375,-0.0782928466796875,9.615478515625,-0.0007781982421875,-4.57763671875e-05,1.52587890625e-05
-0.1199493408203125,-0.073516845703125,9.62744140625,0.000274658203125,-4.57763671875e-05,1.52587890625e-05
-0.112762451171875,-0.0663299560546875,9.622665405273438,0.000274658203125,-4.57763671875e-05,1.52587890625e-05
-0.07684326171875,-0.0687255859375,9.68011474609375,0.000274658203125,-4.57763671875e-05,1.52587890625e-05
-0.0098114013671875,-0.020843505859375,9.845321655273438,0.000274658203125,-4.57763671875e-05,1.52587890625e-05
-0.10797119140625,-0.0687255859375,9.6585693359375,-0.0007781982421875,-4.57763671875e-05,1.52587890625e-05
-0.122344970703125,-0.063934326171875,9.656173706054688,0.000274658203125,-4.57763671875e-05,1.52587890625e-05
-0.1199493408203125,-0.0687255859375,9.639419555664062,0.000274658203125,-4.57763671875e-05,1.52587890625e-05
-0.1367034912109375,-0.073516845703125,9.629837036132812,0.000274658203125,-4.57763671875e-05,1.52587890625e-05
-0.1151580810546875,-0.0687255859375,9.620269775390625,-0.0007781982421875,-4.57763671875e-05,1.52587890625e-05
-0.122344970703125,-0.063934326171875,9.629837036132812,-0.0007781982421875,-4.57763671875e-05,1.52587890625e-05
-0.1271209716796875,-0.0663299560546875,9.622665405273438,-0.0007781982421875,-4.57763671875e-05,1.52587890625e-05
-0.1271209716796875,-0.075897216796875,9.622665405273438,-0.0007781982421875,-4.57763671875e-05,1.52587890625e-05
-0.1175537109375,-0.0663299560546875,9.620269775390625,0.000274658203125,-4.57763671875e-05,1.52587890625e-05
-0.1175537109375,-0.073516845703125,9.62744140625,0.000274658203125,-4.57763671875e-05,1.52587890625e-05
-0.122344970703125,-0.0711212158203125,9.622665405273438,0.000274658203125,0.001007080078125,1.52587890625e-05
-0.1199493408203125,-0.073516845703125,9.634628295898438,0.000274658203125,-4.57763671875e-05,1.52587890625e-05
-0.1175537109375,-0.0687255859375,9.622665405273438,0.000274658203125,-4.57763671875e-05,1.52587890625e-05
-0.1199493408203125,-0.0567474365234375,9.629837036132812,0.000274658203125,-4.57763671875e-05,1.52587890625e-05
-0.112762451171875,-0.0782928466796875,9.625045776367188,-0.0007781982421875,-4.57763671875e-05,1.52587890625e-05
-0.10797119140625,-0.0663299560546875,9.629837036132812,-0.0007781982421875,-4.57763671875e-05,1.52587890625e-05
-0.1199493408203125,-0.075897216796875,9.639419555664062,0.000274658203125,-0.0011138916015625,1.52587890625e-05
-0.124725341796875,-0.0663299560546875,9.622665405273438,0.000274658203125,-4.57763671875e-05,1.52587890625e-05
-0.1175537109375,-0.063934326171875,9.63702392578125,-0.0007781982421875,-4.57763671875e-05,1.52587890625e-05
-0.10797119140625,-0.0806884765625,9.620269775390625,-0.0007781982421875,-4.57763671875e-05,1.52587890625e-05
-0.112762451171875,-0.073516845703125,9.622665405273438,0.000274658203125,-4.57763671875e-05,1.52587890625e-05
-0.1103668212890625,-0.0711212158203125,9.62744140625,0.000274658203125,-4.57763671875e-05,1.52587890625e-05
-0.124725341796875,-0.075897216796875,9.632232666015625,0.000274658203125,-4.57763671875e-05,1.52587890625e-05
-0.1175537109375,-0.073516845703125,9.62744140625,0.000274658203125,-4.57763671875e-05,1.52587890625e-05
-0.1271209716796875,-0.063934326171875,9.63702392578125,0.000274658203125,-4.57763671875e-05,1.52587890625e-05
-0.1199493408203125,-0.073516845703125,9.613082885742188,0.000274658203125,-4.57763671875e-05,1.52587890625e-05
-0.10797119140625,-0.0782928466796875,9.63702392578125,0.000274658203125,-4.57763671875e-05,1.52587890625e-05
-0.112762451171875,-0.075897216796875,9.63702392578125,-0.0007781982421875,-4.57763671875e-05,1.52587890625e-05
-0.1103668212890625,-0.0687255859375,9.629837036132812,-0.0007781982421875,-4.57763671875e-05,1.52587890625e-05
-0.1103668212890625,-0.073516845703125,9.629837036132812,0.000274658203125,-4.57763671875e-05,1.52587890625e-05
-0.1199493408203125,-0.073516845703125,9.629837036132812,0.000274658203125,-4.57763671875e-05,1.52587890625e-05
-0.1271209716796875,-0.0830841064453125,9.629837036132812,0.000274658203125,-0.0011138916015625,1.52587890625e-05
-0.1175537109375,-0.0711212158203125,9.622665405273438,0.000274658203125,-4.57763671875e-05,1.52587890625e-05
-0.122344970703125,-0.0711212158203125,9.617874145507812,0.000274658203125,-4.57763671875e-05,1.52587890625e-05
-0.112762451171875,-0.073516845703125,9.62744140625,-0.0007781982421875,-4.57763671875e-05,1.52587890625e-05
-0.122344970703125,-0.0711212158203125,9.617874145507812,-0.0007781982421875,-4.57763671875e-05,1.52587890625e-05
-0.1199493408203125,-0.0806884765625,9.62744140625,-0.0007781982421875,-4.57763671875e-05,1.52587890625e-05
-0.1175537109375,-0.075897216796875,9.63702392578125,0.000274658203125,-4.57763671875e-05,1.52587890625e-05
-0.1151580810546875,-0.0806884765625,9.617874145507812,0.000274658203125,-4.57763671875e-05,1.52587890625e-05
-0.1199493408203125,-0.0782928466796875,9.625045776367188,0.000274658203125,-4.57763671875e-05,1.52587890625e-05
-0.1175537109375,-0.075897216796875,9.622665405273438,-0.0007781982421875,-4.57763671875e-05,1.52587890625e-05
-0.1175537109375,-0.0806884765625,9.632232666015625,-0.0007781982421875,0.001007080078125,1.52587890625e-05
-0.112762451171875,-0.0711212158203125,9.634628295898438,0.000274658203125,-4.57763671875e-05,1.52587890625e-05
-0.1175537109375,-0.063934326171875,9.62744140625,-0.0007781982421875,-0.0011138916015625,1.52587890625e-05
-0.1175537109375,-0.085479736328125,9.620269775390625,-0.0007781982421875,-4.57763671875e-05,1.52587890625e-05
-0.1151580810546875,-0.073516845703125,9.62744140625,0.000274658203125,-4.57763671875e-05,0.001068115234375
-0.10797119140625,-0.0711212158203125,9.632232666015625,0.000274658203125,-4.57763671875e-05,1.52587890625e-05
-0.1271209716796875,-0.0711212158203125,9.625045776367188,-0.0007781982421875,0.001007080078125,1.52587890625e-05
-0.112762451171875,-0.075897216796875,9.63702392578125,-0.0007781982421875,-4.57763671875e-05,1.52587890625e-05
-0.122344970703125,-0.073516845703125,9.62744140625,-0.0007781982421875,-4.57763671875e-05,1.52587890625e-05
-0.124725341796875,-0.085479736328125,9.632232666015625,0.000274658203125,-4.57763671875e-05,1.52587890625e-05
-0.103179931640625,-0.073516845703125,9.620269775390625,0.000274658203125,-4.57763671875e-05,1.52587890625e-05
-0.122344970703125,-0.0806884765625,9.632232666015625,0.000274658203125,-4.57763671875e-05,1.52587890625e-05
-0.1103668212890625,-0.075897216796875,9.622665405273438,0.000274658203125,-4.57763671875e-05,1.52587890625e-05
-0.1175537109375,-0.075897216796875,9.625045776367188,0.000274658203125,-4.57763671875e-05,1.52587890625e-05
-0.1367034912109375,-0.0878753662109375,9.569992065429688,-0.0007781982421875,-4.57763671875e-05,0.001068115234375
-0.218109130859375,-0.1309661865234375,9.368865966796875,0.000274658203125,0.001007080078125,1.52587890625e-05
-0.1295166015625,-0.0782928466796875,9.560409545898438,0.000274658203125,-4.57763671875e-05,1.52587890625e-05
-0.1271209716796875,-0.0782928466796875,9.596328735351562,0.000274658203125,-4.57763671875e-05,1.52587890625e-05
-0.1151580810546875,-0.0806884765625,9.608291625976562,0.000274658203125,-4.57763671875e-05,1.52587890625e-05
-0.1103668212890625,-0.073516845703125,9.62744140625,-0.0007781982421875,-4.57763671875e-05,1.52587890625e-05
-0.1151580810546875,-0.075897216796875,9.641815185546875,0.000274658203125,-0.0011138916015625,1.52587890625e-05
-0.1175537109375,-0.0782928466796875,9.629837036132812,0.000274658203125,-4.57763671875e-05,1.52587890625e-05
-0.1199493408203125,-0.073516845703125,9.639419555664062,-0.0007781982421875,-4.57763671875e-05,1.52587890625e-05
-0.1151580810546875,-0.073516845703125,9.625045776367188,-0.0007781982421875,-4.57763671875e-05,1.52587890625e-05
-0.124725341796875,-0.0782928466796875,9.629837036132812,0.000274658203125,-4.57763671875e-05,1.52587890625e-05
-0.112762451171875,-0.075897216796875,9.62744140625,0.000274658203125,-4.57763671875e-05,1.52587890625e-05
-0.112762451171875,-0.073516845703125,9.613082885742188,-0.0007781982421875,-4.57763671875e-05,1.52587890625e-05
-0.1151580810546875,-0.073516845703125,9.629837036132812,-0.0007781982421875,-4.57763671875e-05,1.52587890625e-05
-0.1103668212890625,-0.0687255859375,9.634628295898438,0.000274658203125,-4.57763671875e-05,1.52587890625e-05
-0.1175537109375,-0.075897216796875,9.639419555664062,-0.0007781982421875,-0.006439208984375,1.52587890625e-05
-0.10797119140625,-0.0711212158203125,9.682510375976562,-0.0007781982421875,-0.0032501220703125,1.52587890625e-05
-0.122344970703125,-0.0687255859375,9.610687255859375,0.0013427734375,0.00421142578125,1.52587890625e-05
-0.1199493408203125,-0.073516845703125,9.613082885742188,0.000274658203125,0.001007080078125,1.52587890625e-05
-0.124725341796875,-0.0782928466796875,9.622665405273438,0.000274658203125,-4.57763671875e-05,0.001068115234375
-0.112762451171875,-0.073516845703125,9.622665405273438,0.000274658203125,-4.57763671875e-05,1.52587890625e-05
-0.1199493408203125,-0.0687255859375,9.610687255859375,0.000274658203125,-4.57763671875e-05,1.52587890625e-05
-0.1199493408203125,-0.0782928466796875,9.629837036132812,0.000274658203125,-4.57763671875e-05,1.52587890625e-05
-0.1199493408203125,-0.0687255859375,9.622665405273438,0.0013427734375,-4.57763671875e-05,-0.0010528564453125
-0.1151580810546875,-0.075897216796875,9.622665405273438,0.000274658203125,-4.57763671875e-05,1.52587890625e-05
-0.1367034912109375,-0.0687255859375,9.6585693359375,-0.0007781982421875,-4.57763671875e-05,1.52587890625e-05
-0.218109130859375,-0.0878753662109375,9.524490356445312,0.000274658203125,-4.57763671875e-05,1.52587890625e-05
-0.1199493408203125,-0.0782928466796875,9.613082885742188,-0.0007781982421875,-4.57763671875e-05,1.52587890625e-05
-0.112762451171875,-0.075897216796875,9.608291625976562,0.000274658203125,-4.57763671875e-05,1.52587890625e-05
-0.1199493408203125,-0.0663299560546875,9.615478515625,-0.0007781982421875,-4.57763671875e-05,-0.0010528564453125
-0.124725341796875,-0.075897216796875,9.617874145507812,-0.0007781982421875,-4.57763671875e-05,-0.0010528564453125
-0.1151580810546875,-0.0830841064453125,9.6466064453125,-0.0007781982421875,-4.57763671875e-05,1.52587890625e-05
-0.1199493408203125,-0.073516845703125,9.601104736328125,0.000274658203125,-4.57763671875e-05,1.52587890625e-05
-0.122344970703125,-0.075897216796875,9.641815185546875,-0.0007781982421875,-4.57763671875e-05,1.52587890625e-05
-0.1199493408203125,-0.0663299560546875,9.634628295898438,-0.0007781982421875,0.001007080078125,1.52587890625e-05
-0.1199493408203125,-0.075897216796875,9.622665405273438,0.000274658203125,-4.57763671875e-05,1.52587890625e-05
-0.124725341796875,-0.0782928466796875,9.629837036132812,0.000274658203125,-4.57763671875e-05,1.52587890625e-05
-0.1199493408203125,-0.0711212158203125,9.622665405273438,-0.0007781982421875,-4.57763671875e-05,1.52587890625e-05
-0.1199493408203125,-0.075897216796875,9.62744140625,0.000274658203125,-4.57763671875e-05,1.52587890625e-05
-0.122344970703125,-0.0711212158203125,9.615478515625,0.000274658203125,-4.57763671875e-05,0.001068115234375
-0.1175537109375,-0.0711212158203125,9.63702392578125,0.000274658203125,-4.57763671875e-05,1.52587890625e-05
-0.1199493408203125,-0.073516845703125,9.629837036132812,0.000274658203125,-4.57763671875e-05,1.52587890625e-05
-0.1199493408203125,-0.0663299560546875,9.625045776367188,0.000274658203125,-4.57763671875e-05,1.52587890625e-05
-0.10797119140625,-0.0782928466796875,9.622665405273438,0.000274658203125,-4.57763671875e-05,-0.0010528564453125
-0.1199493408203125,-0.0711212158203125,9.625045776367188,0.000274658203125,-4.57763671875e-05,1.52587890625e-05
-0.1151580810546875,-0.0711212158203125,9.632232666015625,0.000274658203125,-4.57763671875e-05,1.52587890625e-05
-0.112762451171875,-0.073516845703125,9.632232666015625,-0.0007781982421875,-4.57763671875e-05,1.52587890625e-05
-0.112762451171875,-0.073516845703125,9.62744140625,-0.0007781982421875,-4.57763671875e-05,1.52587890625e-05
-0.1175537109375,-0.0687255859375,9.632232666015625,-0.0007781982421875,-4.57763671875e-05,1.52587890625e-05
-0.1151580810546875,-0.0711212158203125,9.620269775390625,0.000274658203125,-4.57763671875e-05,1.52587890625e-05
-0.112762451171875,-0.0830841064453125,9.629837036132812,0.000274658203125,-4.57763671875e-05,1.52587890625e-05
-0.1175537109375,-0.073516845703125,9.63702392578125,-0.0007781982421875,-4.57763671875e-05,1.52587890625e-05
-0.1151580810546875,-0.0711212158203125,9.625045776367188,-0.0007781982421875,-4.57763671875e-05,1.52587890625e-05
-0.1175537109375,-0.0687255859375,9.62744140625,-0.0007781982421875,-4.57763671875e-05,1.52587890625e-05
-0.1199493408203125,-0.0711212158203125,9.632232666015625,-0.0007781982421875,-4.57763671875e-05,1.52587890625e-05
-0.1103668212890625,-0.0711212158203125,9.620269775390625,0.000274658203125,-4.57763671875e-05,1.52587890625e-05
-0.1103668212890625,-0.0782928466796875,9.62744140625,0.000274658203125,-4.57763671875e-05,1.52587890625e-05
-0.1175537109375,-0.073516845703125,9.617874145507812,0.000274658203125,-4.57763671875e-05,1.52587890625e-05
-0.1199493408203125,-0.0687255859375,9.625045776367188,0.000274658203125,-4.57763671875e-05,1.52587890625e-05
-0.1199493408203125,-0.075897216796875,9.632232666015625,-0.0007781982421875,-0.0011138916015625,1.52587890625e-05
-0.1175537109375,-0.0663299560546875,9.632232666015625,0.000274658203125,-0.0011138916015625,1.52587890625e-05
-0.1199493408203125,-0.075897216796875,9.617874145507812,0.000274658203125,-4.57763671875e-05,1.52587890625e-05
-0.1175537109375,-0.073516845703125,9.625045776367188,0.000274658203125,-4.57763671875e-05,1.52587890625e-05
-0.10797119140625,-0.0782928466796875,9.620269775390625,0.000274658203125,-4.57763671875e-05,1.52587890625e-05
-0.1151580810546875,-0.073516845703125,9.625045776367188,0.000274658203125,-4.57763671875e-05,1.52587890625e-05
-0.1199493408203125,-0.0830841064453125,9.622665405273438,0.000274658203125,-4.57763671875e-05,1.52587890625e-05
-0.124725341796875,-0.073516845703125,9.641815185546875,0.000274658203125,-4.57763671875e-05,1.52587890625e-05
-0.122344970703125,-0.0782928466796875,9.639419555664062,0.000274658203125,-4.57763671875e-05,1.52587890625e-05
-0.1199493408203125,-0.0782928466796875,9.62744140625,0.000274658203125,-4.57763671875e-05,1.52587890625e-05
-0.1151580810546875,-0.0806884765625,9.632232666015625,0.000274658203125,-4.57763671875e-05,1.52587890625e-05
-0.122344970703125,-0.075897216796875,9.632232666015625,0.000274658203125,-4.57763671875e-05,1.52587890625e-05
-0.1151580810546875,-0.0711212158203125,9.634628295898438,0.000274658203125,-4.57763671875e-05,1.52587890625e-05
-0.1151580810546875,-0.0830841064453125,9.625045776367188,-0.0007781982421875,-4.57763671875e-05,1.52587890625e-05
-0.10797119140625,-0.0782928466796875,9.677719116210938,0.0013427734375,0.001007080078125,1.52587890625e-05
-0.1151580810546875,-0.0711212158203125,9.60589599609375,0.0066680908203125,0.00421142578125,1.52587890625e-05
-0.1103668212890625,-0.063934326171875,9.634628295898438,0.00347900390625,0.001007080078125,1.52587890625e-05
-0.1175537109375,-0.0782928466796875,9.60589599609375,-0.0018463134765625,0.001007080078125,0.001068115234375
-0.1271209716796875,-0.0687255859375,9.617874145507812,-0.0029144287109375,-0.0032501220703125,1.52587890625e-05
-0.1319122314453125,-0.0782928466796875,9.639419555664062,-0.0018463134765625,-0.0021820068359375,1.52587890625e-05
-0.1151580810546875,-0.073516845703125,9.63702392578125,-0.0007781982421875,-4.57763671875e-05,1.52587890625e-05
-0.1151580810546875,-0.0663299560546875,9.625045776367188,-0.0007781982421875,-4.57763671875e-05,1.52587890625e-05
-0.1199493408203125,-0.0711212158203125,9.629837036132812,0.000274658203125,-4.57763671875e-05,1.52587890625e-05
-0.1103668212890625,-0.075897216796875,9.62744140625,-0.0007781982421875,-4.57763671875e-05,1.52587890625e-05
-0.1007843017578125,-0.075897216796875,9.625045776367188,-0.0007781982421875,-4.57763671875e-05,1.52587890625e-05
-0.112762451171875,-0.063934326171875,9.622665405273438,0.000274658203125,-4.57763671875e-05,1.52587890625e-05
-0.1175537109375,-0.0711212158203125,9.629837036132812,0.000274658203125,-4.57763671875e-05,1.52587890625e-05
-0.1103668212890625,-0.0806884765625,9.629837036132812,-0.0007781982421875,-4.57763671875e-05,1.52587890625e-05
-0.122344970703125,-0.049560546875,9.725616455078125,-0.0007781982421875,-4.57763671875e-05,1.52587890625e-05
-0.1534576416015625,-0.049560546875,9.696884155273438,-0.0007781982421875,-4.57763671875e-05,1.52587890625e-05
-0.1271209716796875,-0.0663299560546875,9.6466064453125,-0.0007781982421875,-0.0011138916015625,1.52587890625e-05
-0.122344970703125,-0.0830841064453125,9.622665405273438,0.000274658203125,-4.57763671875e-05,1.52587890625e-05
-0.134307861328125,-0.09027099609375,9.608291625976562,0.000274658203125,-0.0011138916015625,1.52587890625e-05
-0.1271209716796875,-0.075897216796875,9.610687255859375,0.000274658203125,-4.57763671875e-05,1.52587890625e-05
-0.124725341796875,-0.0806884765625,9.622665405273438,0.000274658203125,-4.57763671875e-05,1.52587890625e-05
-0.124725341796875,-0.0830841064453125,9.62744140625,0.000274658203125,-4.57763671875e-05,1.52587890625e-05
-0.124725341796875,-0.0782928466796875,9.534072875976562,0.000274658203125,-4.57763671875e-05,1.52587890625e-05
-0.112762451171875,-0.0711212158203125,9.696884155273438,-0.0007781982421875,-0.0011138916015625,1.52587890625e-05
-0.1199493408203125,-0.0711212158203125,9.601104736328125,0.0013427734375,0.005279541015625,1.52587890625e-05
-0.1103668212890625,-0.0687255859375,9.63702392578125,0.000274658203125,0.001007080078125,1.52587890625e-05
-0.1151580810546875,-0.075897216796875,9.632232666015625,-0.0007781982421875,-4.57763671875e-05,1.52587890625e-05
-0.1151580810546875,-0.075897216796875,9.62744140625,-0.0007781982421875,-4.57763671875e-05,1.52587890625e-05
-0.1175537109375,-0.085479736328125,9.615478515625,-0.0007781982421875,-4.57763671875e-05,1.52587890625e-05
-0.1151580810546875,-0.0687255859375,9.622665405273438,0.000274658203125,-4.57763671875e-05,1.52587890625e-05
-0.124725341796875,-0.073516845703125,9.625045776367188,0.0013427734375,-0.0011138916015625,1.52587890625e-05
-0.1271209716796875,-0.0711212158203125,9.625045776367188,-0.0007781982421875,0.001007080078125,-0.0010528564453125
-0.122344970703125,-0.075897216796875,9.620269775390625,0.000274658203125,-4.57763671875e-05,1.52587890625e-05
-0.1175537109375,-0.073516845703125,9.632232666015625,0.000274658203125,-4.57763671875e-05,1.52587890625e-05
-0.122344970703125,-0.075897216796875,9.632232666015625,-0.0007781982421875,0.001007080078125,1.52587890625e-05
-0.122344970703125,-0.0806884765625,9.62744140625,0.000274658203125,-4.57763671875e-05,1.52587890625e-05
-0.1271209716796875,-0.0687255859375,9.632232666015625,-0.0007781982421875,-4.57763671875e-05,1.52587890625e-05
-0.112762451171875,-0.075897216796875,9.632232666015625,0.000274658203125,-4.57763671875e-05,1.52587890625e-05
-0.1199493408203125,-0.073516845703125,9.617874145507812,0.000274658203125,-4.57763671875e-05,1.52587890625e-05
-0.112762451171875,-0.0663299560546875,9.625045776367188,-0.0007781982421875,-4.57763671875e-05,1.52587890625e-05
-0.1271209716796875,-0.073516845703125,9.50054931640625,-0.0007781982421875,-0.00537109375,1.52587890625e-05
-0.1007843017578125,-0.0806884765625,9.763916015625,-0.0050506591796875,-0.0139007568359375,1.52587890625e-05
-0.124725341796875,-0.063934326171875,9.613082885742188,0.002410888671875,0.0074005126953125,1.52587890625e-05
-0.1319122314453125,-0.0711212158203125,9.577163696289062,0.0013427734375,0.005279541015625,1.52587890625e-05
