accX,accY,accZ,gyroX,gyroY,gyroZ
-3.1339993476867676,4.5011982917785645,7.654041290283203,-0.3871244490146637,-0.7964684963226318,0.09063446521759033
-3.1483564376831055,4.299902439117432,7.967501163482666,-0.6170321106910706,-0.9229138493537903,0.04543176665902138
-3.11246395111084,4.364807605743408,7.790432453155518,-0.828843355178833,-1.0708152055740356,-0.005268557462841272
-3.0311081409454346,4.436592102050781,7.780860900878906,-1.0152281522750854,-1.0610417127609253,-0.030313294380903244
-3.0957143306732178,4.446163654327393,8.012965202331543,-1.1227372884750366,-1.0396620035171509,0.004504998680204153
-3.1677980422973633,4.496412754058838,8.601898193359375,-1.1295329332351685,-0.9981244206428528,0.12667444348335266
-3.253939628601074,4.362414836883545,8.54447078704834,-1.1158652305603027,-0.9700254201889038,0.32764318585395813
-2.7774689197540283,4.194618225097656,9.083154678344727,-1.1059389114379883,-0.8789328336715698,0.5127299427986145
-2.2627129554748535,3.684647798538208,9.684052467346191,-1.0108758211135864,-0.7677586674690247,0.5964159965515137
-1.836491346359253,3.206083297729492,10.040882110595703,-0.8654941916465759,-0.7311078310012817,0.6342885494232178
-1.4006985425949097,2.8109683990478516,9.92124080657959,-0.7387434244155884,-0.8147938847541809,0.6520031094551086
-1.0250253677368164,2.557030200958252,9.559625625610352,-0.6717029213905334,-0.8722135424613953,0.634899377822876
-0.4289134442806244,2.274677038192749,9.38734245300293,-0.6145123243331909,-0.7769213318824768,0.5677061676979065
-0.012263216078281403,2.0231316089630127,9.37298583984375,-0.5063923597335815,-0.5112028121948242,0.45408856868743896
0.0930209830403328,1.786242127418518,9.617053031921387,-0.3554367423057556,-0.2815242409706116,0.3172588050365448
-0.09840483218431473,1.4246268272399902,10.569994926452637,-0.17531315982341766,-0.3438306450843811,0.1999761164188385
-0.005084747914224863,1.8005990982055664,9.873085021972656,-0.014431266114115715,-0.4201865494251251,0.053983625024557114
-0.2802593410015106,2.3656044006347656,9.226723670959473,0.08437328040599823,-0.24976016581058502,0.00022906772210262716
-0.2682952284812927,2.5689942836761475,9.226723670959473,0.16515782475471497,0.005573981441557407,0.03565821051597595
-0.49591249227523804,2.6697919368743896,9.447162628173828,0.2602209448814392,0.17477867007255554,0.06375718116760254
-0.8165507316589355,3.033500909805298,9.38734245300293,0.33413344621658325,0.246247798204422,0.09735377877950668
-1.0633105039596558,3.2419755458831787,9.351449966430664,0.3521534502506256,0.2969481348991394,0.1743205338716507
-0.9002995491027832,2.9210381507873535,9.60508918762207,0.33474430441856384,0.271903395652771,0.21830153465270996
-0.6394818425178528,2.672184705734253,9.633803367614746,0.2850365936756134,0.21448373794555664,0.15110833942890167
-0.5150550603866577,2.6168506145477295,9.435198783874512,0.21112407743930817,0.194325789809227,0.06742226332426071
-0.5102694034576416,2.727219581604004,9.48784065246582,0.18439951539039612,0.2444152534008026,0.02710634656250477
-0.6442674994468689,2.894717216491699,9.37059211730957,0.237237811088562,0.3079433739185333,0.020997874438762665
-0.7854440212249756,2.9617161750793457,9.351449966430664,0.3222982883453369,0.39346200227737427,0.025273805484175682
-0.92691969871521,3.019144058227539,9.542876243591309,0.4130091071128845,0.44599485397338867,0.019776180386543274
-1.135095238685608,3.1917262077331543,9.602696418762207,0.4658474028110504,0.48997586965560913,0.0014507622690871358
-1.383948802947998,3.4286158084869385,9.250652313232422,0.42728766798973083,0.4398863911628723,-0.0358109213411808
-1.5206388235092163,3.6080775260925293,8.772088050842285,0.30488914251327515,0.3739148676395416,-0.06757497787475586
-1.6307085752487183,3.588934898376465,8.609076499938965,0.16760121285915375,0.32810133695602417,-0.07185091078281403
-1.6689938306808472,3.5004005432128906,8.750253677368164,0.04153761267662048,0.2828986346721649,-0.060244809836149216
-1.659422516822815,3.4214372634887695,8.918049812316895,-0.07528692483901978,0.22303560376167297,-0.053525492548942566
-1.5469598770141602,3.440579891204834,8.96829891204834,-0.16538690030574799,0.19860170781612396,-0.0492495596408844
-1.5038890838623047,3.3424742221832275,9.205188751220703,-0.20883341133594513,0.2340308576822281,-0.04619532451033592
-1.5996019840240479,3.3352956771850586,9.442377090454102,-0.1721825748682022,0.2749576270580292,-0.05963396281003952
-1.6929219961166382,3.3185458183288574,9.459127426147461,-0.12308572232723236,0.30427828431129456,-0.05535803362727165
-1.903490424156189,3.3017961978912354,9.353842735290527,-0.03245126083493233,0.34276166558265686,-0.03825430944561958
-2.147857427597046,3.3496525287628174,9.933204650878906,-0.035505495965480804,0.2053210288286209,-0.027869906276464462
-2.202892303466797,3.4357941150665283,10.167701721191406,-0.05787777900695801,0.09659022092819214,-0.027869906276464462
-2.116750717163086,3.409473180770874,10.150951385498047,-0.04856235533952713,-0.04390464723110199,-0.010155336000025272
-1.7623138427734375,3.28983211517334,9.530911445617676,0.06757497787475586,-0.036574479192495346,-0.004046862944960594
-1.8843477964401245,3.4860434532165527,9.291330337524414,0.1713426560163498,-0.024968381971120834,0.022219568490982056
-1.690529227256775,3.423830032348633,8.723932266235352,0.21982865035533905,0.0293970238417387,0.048486001789569855
-1.561316728591919,3.237190008163452,8.324331283569336,0.19928891956806183,0.12468919903039932,0.025884652510285378
-1.7982062101364136,3.308974504470825,8.601898193359375,0.0781884491443634,0.13263021409511566,-0.01748550310730934
-1.92741858959198,3.450151205062866,8.841479301452637,-0.011300674639642239,0.06788039952516556,-0.032756682485342026
-2.140678882598877,3.584149122238159,9.475876808166504,-0.1790546029806137,-0.05978667363524437,-0.03214583545923233
-2.025524377822876,3.5147573947906494,9.60508918762207,-0.19211146235466003,-0.1086544543504715,-0.015652960166335106
-1.781456470489502,3.2108688354492188,9.631410598754883,-0.07093463838100433,-0.012751436792314053,-0.02970244735479355
-1.8388842344284058,3.1627132892608643,9.660123825073242,0.011682453565299511,0.023288551717996597,-0.041919391602277756
-1.8819550275802612,3.2491540908813477,9.51894760131836,0.13095037639141083,0.011682453565299511,-0.04619532451033592
-1.9609181880950928,3.5554354190826416,9.22433090209961,0.14897038042545319,-0.0011453386396169662,-0.008322793990373611
-1.8771693706512451,3.4908292293548584,8.930013656616211,0.09681928902864456,-0.0164165198802948,0.02283041551709175
-1.7479569911956787,3.4692938327789307,8.791230201721191,0.03527642786502838,0.02145601063966751,0.025273805484175682
-1.9776679277420044,3.426223039627075,9.37298583984375,0.022906772792339325,0.06665870547294617,-0.02664821222424507
-2.119143486022949,3.5626137256622314,9.461520195007324,-0.03306210786104202,-0.07200361788272858,-0.032756682485342026
-2.1358933448791504,3.6104702949523926,9.384949684143066,-0.05474718660116196,-0.13247749209403992,-0.022372281178832054
-2.126322031021118,3.5697922706604004,9.317651748657227,-0.05543438717722893,-0.16363070905208588,-0.015652960166335106
-1.9752750396728516,3.495614767074585,9.032905578613281,-0.06910209357738495,-0.22043950855731964,-0.0022143214009702206
-1.867598056793213,3.4692938327789307,9.1716890335083,-0.12186402827501297,-0.24976016581058502,0.0051158457063138485
-1.9154545068740845,3.457329511642456,9.219545364379883,-0.18646112084388733,-0.3279486298561096,-0.004657710436731577
-1.9752750396728516,3.519542932510376,8.903693199157715,-0.2498365342617035,-0.4519506096839905,0.005726693198084831
-1.8843477964401245,3.450151205062866,8.563612937927246,-0.33001023530960083,-0.5112028121948242,0.04909684881567955
-1.6211373805999756,3.2084760665893555,8.781659126281738,-0.43683215975761414,-0.5246414542198181,0.06314633786678314
-1.6666009426116943,3.160320520401001,9.63619613647461,-0.4760027229785919,-0.5594597458839417,0.015500249341130257
-1.6450655460357666,3.4142587184906006,9.988240242004395,-0.4330907166004181,-0.6773532629013062,-0.0028251686599105597
-1.3671990633010864,3.3352956771850586,9.29611587524414,-0.4256841838359833,-0.769591212272644,0.053983625024557114
-0.9317052960395813,2.9114668369293213,9.138189315795898,-0.5014292597770691,-0.7414922118186951,0.08941277116537094
-0.6107679605484009,2.533101797103882,9.250652313232422,-0.6014555096626282,-0.6932352781295776,0.08513683825731277
-0.4456632137298584,2.353640079498291,9.74387264251709,-0.6306998133659363,-0.6089383363723755,0.06192464008927345
-0.47676992416381836,2.3799612522125244,10.055238723754883,-0.5716766715049744,-0.5325824618339539,0.060092099010944366
-0.246759831905365,2.2555344104766846,10.095916748046875,-0.4554629921913147,-0.436068594455719,0.06192464008927345
-0.21804596483707428,2.3033909797668457,9.801301002502441,-0.3306210935115814,-0.37864893674850464,0.06131379306316376
-0.30179476737976074,2.353640079498291,9.62901782989502,-0.2510582208633423,-0.3310028612613678,0.08941277116537094
-0.23001007735729218,2.3105692863464355,9.444769859313965,-0.20822255313396454,-0.2894652485847473,0.11873343586921692
0.0690927505493164,2.0518453121185303,9.52612590789795,-0.17531315982341766,-0.2247154414653778,0.11079242080450058
0.28953152894973755,2.0159530639648438,10.0073823928833,0.05459447205066681,0.0745997205376625,-0.04008685052394867
-0.009870393201708794,2.3392832279205322,9.818050384521484,0.19684553146362305,0.1143047958612442,-0.04375193640589714
-0.1582254022359848,2.415853500366211,9.552447319030762,0.255257785320282,0.15217731893062592,0.002672456670552492
-0.13190434873104095,2.2938196659088135,9.269794464111328,0.23227466642856598,0.17416782677173615,0.03504735976457596
-0.1534397453069687,2.2866411209106445,9.483055114746094,0.18691925704479218,0.22547899186611176,0.03565821051597595
-0.27786654233932495,2.439781904220581,9.538089752197266,0.15210096538066864,0.2181488275527954,0.015500249341130257
-0.39062830805778503,2.5761725902557373,9.602696418762207,0.09743013978004456,0.1784437596797943,-0.0016034740256145597
-0.5102694034576416,2.542673110961914,9.664909362792969,0.020997874438762665,0.10392039269208908,0.002061609411612153
-0.4911268353462219,2.4062821865081787,9.8300142288208,-0.015652960166335106,0.04527905210852623,0.011835165321826935
-0.42412781715393066,2.3560330867767334,9.633803367614746,0.03405473381280899,0.03733803704380989,0.006337540224194527
-0.5413761138916016,2.42303204536438,9.552447319030762,0.1178935244679451,0.11063970625400543,-0.0064902519807219505
-0.5988038778305054,2.525923490524292,9.502198219299316,0.16637952625751495,0.1540098637342453,-0.019318044185638428
-0.6035895347595215,2.5235304832458496,9.245866775512695,0.15332266688346863,0.1540098637342453,-0.019928891211748123
-0.4863412082195282,2.3823540210723877,8.896514892578125,0.09368869662284851,0.2065427303314209,-0.019928891211748123
-0.8213363885879517,2.4756741523742676,9.904491424560547,0.034665580838918686,0.15706409513950348,-0.032756682485342026
-1.0633105039596558,2.813361167907715,9.892526626586914,-0.07406523078680038,-0.02680092304944992,-0.032756682485342026
-0.7974081635475159,2.674577474594116,9.75344467163086,-0.12003148347139359,-0.11109784245491028,-0.0028251686599105597
-0.6538388133049011,2.5594229698181152,9.660123825073242,-0.09208522737026215,-0.1074327602982521,-0.010766183026134968
-0.6634100675582886,2.5929224491119385,9.624231338500977,-0.05726693198084831,-0.09827005118131638,-0.0064902519807219505
-0.6705885529518127,2.648256540298462,9.617053031921387,-0.05169294774532318,-0.10132429003715515,0.0051158457063138485
-0.6323033571243286,2.6024937629699707,9.6433744430542,-0.044820915907621384,-0.09277242422103882,0.030160583555698395
-0.5940182209014893,2.6554348468780518,9.60508918762207,-0.023746687918901443,-0.09155073016881943,0.032603971660137177
-0.6011967062950134,2.672184705734253,9.59073257446289,-0.011300674639642239,-0.08360971510410309,0.02832804247736931
-0.5389832854270935,2.6096723079681396,9.614660263061523,0.01046075951308012,-0.03290939703583717,0.02038702741265297
-0.5389832854270935,2.5043880939483643,9.990633010864258,0.051463883370161057,-0.0011453386396169662,0.023441264405846596
-0.5078766345977783,2.4996023178100586,9.87547779083252,0.09681928902864456,-0.04818057641386986,0.023441264405846596
-0.4504488706588745,2.5067808628082275,9.691230773925781,0.10796725004911423,-0.031076854094862938,0.027717193588614464
-0.4289134442806244,2.518744945526123,9.585947036743164,0.10361496359109879,-0.04818057641386986,0.023441264405846596
-0.4624129831790924,2.5283162593841553,9.59073257446289,0.09994988143444061,-0.03596363216638565,0.017332790419459343
-0.4815555512905121,2.557030200958252,9.573982238769531,0.12293300777673721,-0.06772769242525101,0.004504998680204153
-0.4289134442806244,2.5857439041137695,9.51894760131836,0.14217470586299896,-0.07994463294744492,-0.00038177953683771193
-0.29700911045074463,2.5450658798217773,9.423234939575195,0.14522893726825714,-0.04879142343997955,0.00022906772210262716
-0.263509601354599,2.612065076828003,9.38734245300293,0.11919157207012177,0.01779092662036419,-0.0028251686599105597
-0.26111677289009094,2.648256540298462,9.432806015014648,0.08376242965459824,0.06360447406768799,-0.010766183026134968
-0.16061821579933167,2.6673989295959473,9.265008926391602,0.07757759839296341,0.1014770045876503,-0.026037365198135376
-0.11515458673238754,2.5953152179718018,9.21715259552002,0.09804098308086395,0.17294612526893616,-0.04130854457616806
-0.43609192967414856,2.7726831436157227,9.459127426147461,0.09926267713308334,0.21448373794555664,-0.06818582862615585
-0.6801598072052002,2.8875386714935303,9.657731056213379,0.08628217875957489,0.22975492477416992,-0.07429429888725281
-0.6825526356697083,2.854039192199707,9.784550666809082,0.11667182296514511,0.24808034300804138,-0.0626882016658783
-0.6538388133049011,2.8109683990478516,9.849157333374023,0.1695101112127304,0.25418880581855774,-0.05230379477143288
-0.6849454641342163,2.775076150894165,9.820443153381348,0.17882554233074188,0.22853323817253113,-0.05047125369310379
-0.8428717851638794,2.885145902633667,9.51176929473877,0.14522893726825714,0.1814979910850525,-0.04619532451033592
-0.8428717851638794,2.830111026763916,9.550054550170898,0.12163496017456055,0.1552315652370453,-0.02298312820494175
-0.8548358678817749,2.8013970851898193,9.710372924804688,0.13347013294696808,0.15156647562980652,-0.011377030052244663
-0.7016952633857727,2.7726831436157227,9.655338287353516,0.23288552463054657,0.194325789809227,0.013667707331478596
-0.6370890140533447,2.8348965644836426,9.559625625610352,0.3745257258415222,0.29022881388664246,0.023441264405846596
-0.7399803996086121,2.956930637359619,9.262616157531738,0.40491536259651184,0.3671955466270447,-0.005268557462841272
-0.9026923179626465,3.0957143306732178,8.9850492477417,0.3316137194633484,0.37208232283592224,-0.030313294380903244
-1.0274182558059692,3.11246395111084,8.975478172302246,0.2459423840045929,0.37086063623428345,-0.033978380262851715
-1.2212368249893188,3.1722846031188965,9.190832138061523,0.18501035869121552,0.35558944940567017,-0.04130854457616806
-1.3265210390090942,3.244368314743042,9.219545364379883,0.10361496359109879,0.299391508102417,-0.0626882016658783
-1.2595219612121582,3.213261604309082,9.183652877807617,0.05894676223397255,0.2871745824813843,-0.0620773509144783
-1.1446665525436401,3.1004998683929443,9.037691116333008,0.05390727147459984,0.2975589632987976,-0.0761268362402916
-1.3313066959381104,3.2347970008850098,9.035298347473145,-0.029320668429136276,0.27801185846328735,-0.12010784447193146
-1.7072789669036865,3.512364625930786,9.31047248840332,-0.217537984251976,0.09536852687597275,-0.126216322183609
-1.8604196310043335,3.4190444946289062,10.107880592346191,-0.32191649079322815,0.011682453565299511,-0.08345700800418854
-1.6546368598937988,3.203690528869629,10.378270149230957,-0.20577916502952576,-0.06039752438664436,-0.05535803362727165
-1.628315806388855,3.2084760665893555,10.323235511779785,-0.10384403169155121,-0.07811209559440613,-0.04375193640589714
-1.6546368598937988,3.19651198387146,10.189236640930176,-0.001985253533348441,-0.09216158092021942,-0.02664821222424507
-1.4943177700042725,3.1917262077331543,9.724730491638184,0.13782241940498352,-0.12697987258434296,0.010002624243497849
-1.261914849281311,3.0167510509490967,9.214759826660156,0.16393613815307617,-0.14225105941295624,0.024662958458065987
-1.1542378664016724,3.0071799755096436,8.83669376373291,0.11109784245491028,-0.11598462611436844,0.010002624243497849
-1.3624134063720703,3.169891834259033,8.93240737915039,0.016645587980747223,-0.0811663269996643,-0.0028251686599105597
-1.4270195960998535,3.169891834259033,9.09990406036377,-0.049173206090927124,-0.09949174523353577,0.015500249341130257
-1.2786645889282227,3.04307222366333,9.344271659851074,-0.05230379477143288,-0.09704835712909698,0.030160583555698395
-1.2667005062103271,3.088535785675049,9.334700584411621,-0.03245126083493233,-0.1214822456240654,0.014889402315020561
-1.20687997341156,3.0622148513793945,9.327521324157715,-0.020005248486995697,-0.07444700598716736,0.01794363744556904
-1.1279168128967285,3.019144058227539,9.423234939575195,-0.02870982140302658,-0.0426829531788826,0.006948387715965509
-1.257129192352295,3.177070379257202,9.423234939575195,-0.03306210786104202,-0.03718532621860504,-0.018096350133419037
-1.3073785305023193,3.1339993476867676,9.375378608703613,-0.02993151545524597,-0.05306735634803772,-0.012598725035786629
-1.3360923528671265,3.1866414546966553,9.382556915283203,-0.04856235533952713,-0.11048699915409088,-0.008933641016483307
-1.3456636667251587,3.253939628601074,9.384949684143066,-0.07345438003540039,-0.173404261469841,-0.0034360159188508987
-1.1781660318374634,3.1555347442626953,9.298508644104004,-0.10262233763933182,-0.2015032321214676,0.009391776286065578
-1.0896315574645996,3.059821844100952,9.413662910461426,-0.12247487902641296,-0.18317782878875732,0.012446013279259205
-0.9915258884429932,3.0789644718170166,9.4088773727417,-0.11315945535898209,-0.1605764776468277,0.002672456670552492
-0.9074779748916626,3.0693931579589844,9.317651748657227,-0.10262233763933182,-0.15324631333351135,0.002061609411612153
-0.8261220455169678,2.9976086616516113,9.013762474060059,-0.14736689627170563,-0.1624090075492859,-0.005879404954612255
-1.111167073249817,3.275475025177002,8.709575653076172,-0.23616881668567657,-0.06284090876579285,-0.014431266114115715
-0.9317052960395813,2.7152554988861084,9.444769859313965,-0.3343625068664551,0.028786176815629005,0.027717193588614464
-0.8356932997703552,2.5929224491119385,9.885348320007324,-0.3262687921524048,-0.00786465872079134,-0.019928891211748123
-1.0896315574645996,2.8564319610595703,10.074381828308105,-0.19768545031547546,-0.021303297951817513,-0.03764346241950989
-1.072881817817688,2.837289333343506,9.815657615661621,-0.038636088371276855,-0.04512634128332138,0.010613471269607544
-0.8715856671333313,2.7224340438842773,9.40169906616211,0.025961007922887802,-0.035352785140275955,0.03687990456819534
-0.8859425783157349,2.7535407543182373,9.337093353271484,0.0005344913806766272,0.043446511030197144,0.027717193588614464
-1.013061285018921,2.8660032749176025,9.514162063598633,-0.026190076023340225,0.08437328040599823,0.023441264405846596
-0.9675976634025574,2.7774689197540283,9.514162063598633,0.0011453386396169662,0.0880383625626564,0.031382277607917786
-0.893121063709259,2.7080769538879395,9.423234939575195,0.04527905210852623,0.10575293004512787,0.032603971660137177
-0.9819545745849609,2.782254457473755,9.48784065246582,0.05703786388039589,0.09964445978403091,0.022219568490982056
-1.1566306352615356,2.8396823406219482,9.562018394470215,0.022906772792339325,0.05993938818573952,0.01794363744556904
-1.1757732629776,2.806182861328125,9.451948165893555,-0.011300674639642239,-0.009697199799120426,0.014278554357588291
-1.1279168128967285,2.7702903747558594,9.30329418182373,-0.08276980370283127,-0.06223006546497345,-0.008322793990373611
-1.1805589199066162,2.8181469440460205,9.284152030944824,-0.188370019197464,-0.14897038042545319,-0.02664821222424507
-1.0298110246658325,2.7080769538879395,9.327521324157715,-0.26785650849342346,-0.20211409032344818,-0.011987877078354359
-1.0393823385238647,2.7224340438842773,9.528518676757812,-0.30015507340431213,-0.1752368062734604,0.005726693198084831
-0.9436694383621216,2.6602206230163574,9.6433744430542,-0.2579302489757538,-0.16424155235290527,0.007559234742075205
-0.7758727669715881,2.480459690093994,9.588339805603027,-0.20944425463676453,-0.10254598408937454,0.024662958458065987
-0.7471588850021362,2.4589242935180664,9.72951602935791,-0.18271969258785248,-0.054899897426366806,0.010002624243497849
-0.8859425783157349,2.566601276397705,9.916455268859863,-0.1268271654844284,-0.0029778804164379835,0.006948387715965509
-1.0250253677368164,2.648256540298462,9.74387264251709,-0.11010521650314331,-0.04023956134915352,0.023441264405846596
-0.8835497498512268,2.4972095489501953,9.698409080505371,-0.12125317752361298,-0.0689493864774704,0.040544986724853516
-0.7423732280731201,2.4421746730804443,9.705587387084961,-0.12247487902641296,-0.13064496219158173,0.010613471269607544
-0.7208378314971924,2.588136672973633,9.595518112182617,-0.10140064358711243,-0.10010259598493576,-0.005879404954612255
-0.6658028960227966,2.5689942836761475,9.710372924804688,-0.04359922185540199,0.025121092796325684,0.008780929259955883
-0.7328019142150879,2.5833511352539062,9.607481956481934,0.019776180386543274,0.09964445978403091,0.002061609411612153
-0.7543373107910156,2.4206392765045166,9.365806579589844,0.06390989571809769,0.1540098637342453,0.0130568603053689
-0.7830511927604675,2.3967108726501465,9.300901412963867,0.07566870748996735,0.18516308069229126,0.006948387715965509
-0.92691969871521,2.487638235092163,9.351449966430664,0.045889899134635925,0.1527881771326065,-0.0009926267666742206
-0.9412766098976135,2.384746789932251,9.154939651489258,0.01794363744556904,0.1814979910850525,0.011835165321826935
-0.9939187169075012,2.3297119140625,9.877870559692383,-0.17409147322177887,0.1020878478884697,-0.028480753302574158
-0.8787640929222107,2.1622142791748047,9.882657051086426,-0.16660858690738678,0.09475768357515335,-0.03092414326965809
-0.6227321028709412,2.049452543258667,9.841979026794434,-0.05169294774532318,0.17233528196811676,-0.019928891211748123
-1.0465607643127441,2.3081765174865723,10.390233993530273,0.16080553829669952,0.23525254428386688,0.0130568603053689
-1.285843014717102,2.6530420780181885,9.947562217712402,0.3521534502506256,0.20226679742336273,0.048486001789569855
-1.0585249662399292,2.703291416168213,9.3490571975708,0.4534013867378235,0.3360423445701599,0.07902836054563522
-1.0680961608886719,2.696112871170044,9.435198783874512,0.42728766798973083,0.4692070484161377,0.07230904698371887
-1.202094316482544,2.6315066814422607,9.358628273010254,0.3545968234539032,0.4802022874355316,0.011835165321826935
-1.4054841995239258,2.8636105060577393,9.174081802368164,0.2999260127544403,0.4392755329608917,-0.0492495596408844
-1.683350682258606,3.026322364807129,9.291330337524414,0.29061058163642883,0.4032355546951294,-0.022372281178832054
-1.6163517236709595,2.9665019512176514,9.253045082092285,0.30427828431129456,0.38368842005729675,0.032603971660137177
-1.7288143634796143,2.94975209236145,9.257830619812012,0.2931303381919861,0.37086063623428345,0.05337277799844742
-1.8077775239944458,2.995215654373169,9.281759262084961,0.24960745871067047,0.33054471015930176,0.07597412914037704
-1.8245272636413574,2.973680257797241,9.298508644104004,0.17630578577518463,0.217537984251976,0.07597412914037704
-1.7048860788345337,2.971287488937378,9.066405296325684,0.05390727147459984,0.11980241537094116,0.02283041551709175
-1.8891334533691406,3.0789644718170166,9.07119083404541,-0.09643751382827759,0.05932854115962982,-0.03336753323674202
-1.9513468742370605,3.0526435375213623,9.31047248840332,-0.18340688943862915,0.040392275899648666,-0.01626380905508995
-1.8077775239944458,2.9186453819274902,9.755837440490723,-0.12934690713882446,0.09475768357515335,0.007559234742075205
-1.8317056894302368,2.954537868499756,9.882657051086426,-0.005726693198084831,0.11125055700540543,0.006337540224194527
-1.8987047672271729,3.07417893409729,9.707980155944824,0.08994726091623306,0.09659022092819214,0.01916533336043358
-1.8580267429351807,3.1004998683929443,9.37298583984375,0.09926267713308334,0.07826480269432068,0.03199312463402748
-1.7742780447006226,3.035893678665161,9.1716890335083,0.06826218217611313,0.14912308752536774,0.031382277607917786
-1.726421594619751,3.0550363063812256,9.159725189208984,0.06696412712335587,0.2334200143814087,0.018554486334323883
-1.9920248985290527,3.0167510509490967,9.257830619812012,0.12293300777673721,0.29450473189353943,-0.004046862944960594
-2.092822551727295,2.964108943939209,9.159725189208984,0.06826218217611313,0.22364644706249237,-0.024815669283270836
-2.1741783618927,3.050250768661499,9.274580955505371,0.024128466844558716,0.2053210288286209,-0.06879667192697525
-2.377568483352661,3.1989047527313232,9.432806015014648,0.01725643500685692,0.16195088624954224,-0.09872818738222122
-2.3201406002044678,3.1004998683929443,9.245866775512695,0.01046075951308012,0.1259108930826187,-0.07368344813585281
-2.2962124347686768,3.0526435375213623,9.279366493225098,0.013591351918876171,0.13812783360481262,-0.060244809836149216
-2.36081862449646,3.1100711822509766,9.31047248840332,0.011682453565299511,0.1143047958612442,-0.04802786558866501
-2.408675193786621,3.153141975402832,9.248259544372559,-0.01626380905508995,0.047111593186855316,-0.027259059250354767
-2.3249263763427734,3.184248685836792,9.255437850952148,-0.050394900143146515,-0.010918894782662392,-0.008322793990373611
-2.281855583190918,3.1316065788269043,9.238688468933105,-0.06284090876579285,-0.010308047756552696,0.00022906772210262716
-2.2866411209106445,3.11246395111084,9.276973724365234,-0.0584886260330677,0.04100312292575836,0.010002624243497849
-2.2483558654785156,3.064607620239258,9.3490571975708,-0.05291464552283287,0.07093463838100433,0.028938889503479004
-2.3033909797668457,3.1172497272491455,9.37059211730957,-0.04543176665902138,0.03855973482131958,0.039323292672634125
-2.2794625759124756,3.1387851238250732,9.221938133239746,-0.03176405653357506,0.015347537584602833,0.048486001789569855
-2.2076780796051025,3.0861430168151855,9.157332420349121,-0.01626380905508995,0.0361163429915905,0.04115583375096321
-2.250748872756958,3.0837502479553223,9.262616157531738,-0.0038177953101694584,0.09170344471931458,0.024662958458065987
-2.370389938354492,3.1148569583892822,9.365806579589844,0.016034740954637527,0.1527881771326065,0.017332790419459343
-2.4134607315063477,3.1100711822509766,9.439984321594238,0.0489441379904747,0.18882815539836884,0.024662958458065987
-2.4445674419403076,3.0550363063812256,9.506983757019043,0.09246700257062912,0.16378341615200043,0.040544986724853516
-2.4349961280822754,3.0526435375213623,9.317651748657227,0.12293300777673721,0.10514208674430847,0.03871244564652443
-2.394318103790283,3.067000389099121,9.262616157531738,0.13347013294696808,0.13629528880119324,0.02038702741265297
-2.42303204536438,3.1435706615448,9.238688468933105,0.13156123459339142,0.1540098637342453,0.002672456670552492
-2.446960210800171,3.1435706615448,9.174081802368164,0.13904410600662231,0.18394137918949127,0.002672456670552492
-2.4684956073760986,3.189333438873291,9.037691116333008,0.15645325183868408,0.22486814856529236,0.014278554357588291
-2.480459690093994,3.2108688354492188,8.965906143188477,0.15271180868148804,0.2847311794757843,0.03993413969874382
-2.4732813835144043,3.213261604309082,9.083154678344727,0.15889663994312286,0.34642675518989563,0.041766680777072906
-2.609971284866333,3.2946176528930664,9.028120040893555,0.18936264514923096,0.3745257258415222,0.048486001789569855
-2.6865415573120117,3.3592238426208496,8.980263710021973,0.20738264918327332,0.38246673345565796,0.06681142002344131
-2.760719060897827,3.3568310737609863,8.798408508300781,0.19554747641086578,0.37147149443626404,0.0814717561006546
-2.7631118297576904,3.3209388256073,8.824729919433594,0.1552315652370453,0.35742199420928955,0.08574768155813217
-3.1244282722473145,3.4453654289245605,8.934800148010254,0.11231953650712967,0.24380441009998322,0.06620056927204132
-3.371187925338745,3.751945972442627,9.250652313232422,0.042759306728839874,0.0019088976550847292,0.030160583555698395
-3.2395827770233154,3.653541088104248,8.930013656616211,-0.1050657257437706,-0.24487338960170746,0.010613471269607544
-2.837289333343506,3.206083297729492,8.841479301452637,-0.24678228795528412,-0.2925194799900055,-0.018707197159528732
-2.6291139125823975,3.1316065788269043,9.238688468933105,-0.2870981991291046,-0.2515927255153656,-0.06085565686225891
-2.877967357635498,3.2802608013153076,9.478269577026367,-0.18401773273944855,-0.1465269923210144,-0.05596888065338135
-2.5857439041137695,3.203690528869629,9.48066234588623,0.03161134570837021,-0.0555107444524765,-0.0064902519807219505
-2.3249263763427734,3.002394199371338,8.973084449768066,0.2396811991930008,0.11186140775680542,0.016721943393349648
-2.5450658798217773,3.122035264968872,8.719146728515625,0.33291175961494446,0.3085542321205139,0.002672456670552492
-2.688934564590454,3.2180473804473877,8.716753959655762,0.33291175961494446,0.3794125020503998,0.002672456670552492
-2.995215654373169,3.3975090980529785,8.863015174865723,0.2751103341579437,0.4295019805431366,0.02283041551709175
-3.098107099533081,3.481257915496826,8.851051330566406,0.23288552463054657,0.40690064430236816,0.039323292672634125
-3.1100711822509766,3.591327667236328,8.764909744262695,0.13530266284942627,0.3238253891468048,0.07902836054563522
-2.9353952407836914,3.4980075359344482,8.436793327331543,0.020997874438762665,0.2468586415052414,0.10468395054340363
-2.9856443405151367,3.4692938327789307,8.587541580200195,-0.08276980370283127,0.24013933539390564,0.09918632358312607
-3.160320520401001,3.636791229248047,8.994620323181152,-0.126216322183609,0.24258272349834442,0.09796462953090668
-3.253939628601074,3.7109687328338623,9.198010444641113,-0.08460234850645065,0.2193705290555954,0.0955212414264679
-3.220440149307251,3.6798620223999023,9.018548965454102,-0.009391776286065578,0.19799086451530457,0.09307785332202911
-3.1507492065429688,3.557828187942505,8.846264839172363,0.03161134570837021,0.2199813723564148,0.09063446521759033
-3.1387851238250732,3.553042411804199,8.851051330566406,0.03840702027082443,0.2321983128786087,0.07658497244119644
-3.275475025177002,3.6080775260925293,8.870193481445312,0.029091600328683853,0.22792237997055054,0.06681142002344131
-3.19651198387146,3.6008989810943604,8.810373306274414,0.016034740954637527,0.2321983128786087,0.06253548711538315
-3.5554354190826416,3.6391842365264893,8.556434631347656,0.029091600328683853,0.10330954194068909,0.049707695841789246
-3.584149122238159,3.6343984603881836,9.080761909484863,-0.007559234742075205,-0.0011453386396169662,0.01122431829571724
-3.519542932510376,3.6487553119659424,9.147761344909668,-0.07276718318462372,-0.14225105941295624,-0.026037365198135376
-3.526721477508545,3.7372899055480957,8.987442016601562,-0.13179029524326324,-0.22960221767425537,-0.0761268362402916
-3.3568310737609863,3.4381871223449707,8.965906143188477,-0.1498102843761444,-0.255257785320282,-0.08528954535722733
-3.3209388256073,3.399901866912842,9.020941734313965,-0.13240113854408264,-0.3053472638130188,-0.10728005319833755
-3.282653570175171,3.385545015335083,8.863015174865723,-0.126216322183609,-0.40186113119125366,-0.126216322183609
-3.25872540473938,3.4357941150665283,8.846264839172363,-0.14301460981369019,-0.5069268941879272,-0.13110309839248657
-3.1869406700134277,3.3807592391967773,8.759824752807617,-0.18462859094142914,-0.5515187382698059,-0.12194038182497025
-2.98085880279541,3.2419755458831787,8.83669376373291,-0.2492256760597229,-0.5020400881767273,-0.08223531395196915
-2.815753936767578,3.2012975215911865,9.128618240356445,-0.28274592757225037,-0.4641675651073456,-0.04558447748422623
-2.868396043777466,3.25872540473938,9.315258979797363,-0.264725923538208,-0.45683738589286804,-0.019928891211748123
-2.7248268127441406,3.2659037113189697,9.257830619812012,-0.2274642437696457,-0.4886014461517334,0.010613471269607544
-2.6001009941101074,3.1722846031188965,9.08554744720459,-0.1957765519618988,-0.514867901802063,0.016721943393349648
-2.4445674419403076,3.1651060581207275,8.772088050842285,-0.2032594233751297,-0.5270848274230957,0.00022906772210262716
-2.36081862449646,3.1244282722473145,8.941978454589844,-0.25235626101493835,-0.4482855200767517,-0.005879404954612255
-2.3321046829223633,3.0454649925231934,9.375378608703613,-0.3007659316062927,-0.41407808661460876,-0.02053973823785782
-2.2459630966186523,3.04307222366333,9.700801849365234,-0.31199023127555847,-0.4843255281448364,-0.04130854457616806
-2.0880367755889893,2.9377880096435547,9.449555397033691,-0.2877854108810425,-0.5661790370941162,-0.05841226875782013
-2.0736799240112305,2.885145902633667,9.260223388671875,-0.2641150951385498,-0.5594597458839417,-0.06146650388836861
-1.970489501953125,2.8013970851898193,9.430413246154785,-0.23059484362602234,-0.4763845205307007,-0.04619532451033592
-1.817348837852478,2.7870402336120605,9.820443153381348,-0.11254860460758209,-0.32428354024887085,-0.03825430944561958
-1.726421594619751,2.8325037956237793,9.76062297821045,0.04459185153245926,-0.24120831489562988,-0.031534988433122635
-1.6402798891067505,2.8325037956237793,9.490233421325684,0.13904410600662231,-0.21555273234844208,-0.033978380262851715
-1.6929219961166382,2.861217737197876,9.200403213500977,0.1402658075094223,-0.23693238198757172,-0.049860406666994095
-1.7479569911956787,2.8085756301879883,9.028120040893555,0.06390989571809769,-0.2387649267911911,-0.0626882016658783
-1.6522440910339355,2.7774689197540283,9.121439933776855,-0.038636088371276855,-0.20272493362426758,-0.07918107509613037
-1.7336000204086304,2.806182861328125,9.46630573272705,-0.12995775043964386,-0.19600561261177063,-0.08040276914834976
-1.8221344947814941,2.844467878341675,9.60508918762207,-0.1821088343858719,-0.280913382768631,-0.05963396281003952
-1.7120646238327026,2.8181469440460205,9.502198219299316,-0.20509196817874908,-0.3859791159629822,-0.02970244735479355
-1.450947880744934,2.672184705734253,9.255437850952148,-0.21509459614753723,-0.4122455418109894,-0.0016034740256145597
-1.2690932750701904,2.494816780090332,9.28893756866455,-0.20761170983314514,-0.3193967640399933,0.0130568603053689
-1.1757732629776,2.4349961280822754,9.475876808166504,-0.14736689627170563,-0.16424155235290527,0.010002624243497849
-1.1997014284133911,2.588136672973633,9.51176929473877,-0.03924693539738655,-0.007253811229020357,-0.0022143214009702206
-1.2786645889282227,2.681756019592285,9.339486122131348,0.047111593186855316,0.08987089991569519,0.004504998680204153
-1.2092727422714233,2.6168506145477295,9.145368576049805,0.06757497787475586,0.13629528880119324,0.010002624243497849
-1.293021559715271,2.6602206230163574,9.35623550415039,0.03840702027082443,0.1680593490600586,0.0032833039294928312
-1.4871392250061035,2.5953152179718018,9.614660263061523,0.004886778071522713,0.20348849892616272,0.009391776286065578
-1.5541383028030396,2.5713870525360107,9.815657615661621,0.0023670331574976444,0.22731153666973114,0.005726693198084831
-1.5828521251678467,2.6626133918762207,9.930811882019043,0.05329642444849014,0.2193705290555954,-0.01382041908800602
-1.5948163270950317,2.727219581604004,9.741479873657227,0.15706409513950348,0.21326205134391785,-0.016874656081199646
-1.6354942321777344,2.782254457473755,9.540482521057129,0.22914408147335052,0.2309766262769699,-0.007711946498602629
-1.683350682258606,2.7846474647521973,9.315258979797363,0.2235700935125351,0.26212984323501587,-0.00038177953683771193
-1.6737794876098633,2.799004316329956,9.255437850952148,0.19745637476444244,0.30427828431129456,0.004504998680204153
-1.8221344947814941,2.8109683990478516,9.231510162353516,0.18378867208957672,0.30549997091293335,0.010613471269607544
-1.848455548286438,2.861217737197876,9.047262191772461,0.18378867208957672,0.32993388175964355,0.011835165321826935
-1.908276081085205,2.751147747039795,8.542078018188477,0.18317782878875732,0.3610870838165283,0.013667707331478596
-2.2962124347686768,2.8803603649139404,8.86062240600586,0.12102411687374115,0.2602972984313965,-0.016874656081199646
-2.3823540210723877,3.0478577613830566,8.96829891204834,-0.1107160672545433,0.005573981441557407,-0.05596888065338135
-2.549851655960083,3.0071799755096436,9.50459098815918,-0.3722350597381592,-0.23021306097507477,-0.041919391602277756
-2.418246269226074,3.0693931579589844,9.748658180236816,-0.4722612798213959,-0.3682645559310913,-0.03214583545923233
-2.29142689704895,2.925823926925659,9.957133293151855,-0.45111069083213806,-0.4617241621017456,-0.029091600328683853
-1.8747764825820923,2.6530420780181885,9.772586822509766,-0.4076641798019409,-0.5826719403266907,-0.019928891211748123
-1.5708880424499512,2.487638235092163,9.61226749420166,-0.3803287744522095,-0.5967214107513428,-0.019928891211748123
-1.5565310716629028,2.4134607315063477,9.645767211914062,-0.3765873312950134,-0.5900021195411682,-0.014431266114115715
-1.5302101373672485,2.5618157386779785,9.696016311645508,-0.377198189496994,-0.6364265084266663,-0.0022143214009702206
-1.407876968383789,2.557030200958252,9.791728973388672,-0.35795649886131287,-0.6352047920227051,0.016111096367239952
-1.0944172143936157,2.425424814224243,9.741479873657227,-0.3181750774383545,-0.5570163726806641,0.032603971660137177
-0.7591229677200317,2.0832512378692627,9.911669731140137,-0.2722088098526001,-0.509981095790863,0.007559234742075205
-0.7974081635475159,2.1071794033050537,9.945169448852539,-0.21944688260555267,-0.5075377225875854,-0.035200074315071106
-0.890728235244751,2.265105724334717,9.892526626586914,-0.16164545714855194,-0.5020400881767273,-0.048638712614774704
-0.6394818425178528,2.210070848464966,9.731908798217773,-0.09513945877552032,-0.4226299524307251,-0.03214583545923233
-0.3329014480113983,2.0063817501068115,9.72951602935791,-0.0051158457063138485,-0.25709033012390137,-0.022372281178832054
-0.34725838899612427,1.9537396430969238,9.801301002502441,0.13591352105140686,-0.0811663269996643,-0.02053973823785782
-0.4863412082195282,2.042274236679077,9.626625061035156,0.25892287492752075,-0.0005344913806766272,-0.011987877078354359
-0.6705885529518127,2.171785593032837,9.456734657287598,0.26518407464027405,0.00862821750342846,-0.012598725035786629
-0.8356932997703552,2.3177478313446045,9.30329418182373,0.16637952625751495,-0.02924431301653385,-0.016874656081199646
-0.7830511927604675,2.322533369064331,9.269794464111328,0.0489441379904747,-0.03596363216638565,-0.0016034740256145597
-0.6323033571243286,2.1358933448791504,9.514162063598633,-0.004428642801940441,-0.0011453386396169662,0.002672456670552492
-0.6610172390937805,2.1358933448791504,9.710372924804688,0.014202198944985867,-0.0005344913806766272,-0.015042114071547985
-0.8189435601234436,2.2698912620544434,9.746265411376953,0.060779303312301636,-0.011529741808772087,-0.022372281178832054
-0.8763712644577026,2.3632113933563232,9.535696983337402,0.08628217875957489,-0.03290939703583717,-0.018707197159528732
-0.7734799385070801,2.312962293624878,9.396913528442383,0.06948387622833252,0.004963133949786425,-0.008933641016483307
-0.6945167779922485,2.281855583190918,9.389735221862793,0.013591351918876171,0.01901262067258358,-0.016874656081199646
-0.7088736891746521,2.2866411209106445,9.502198219299316,-0.031153209507465363,0.03367295488715172,-0.019318044185638428
-0.7734799385070801,2.29860520362854,9.712766647338867,-0.03489464893937111,0.05322006717324257,-0.019928891211748123
-0.8428717851638794,2.401496648788452,9.803693771362305,0.0029778804164379835,0.052609220147132874,-0.011377030052244663
-0.7878368496894836,2.4038894176483154,9.710372924804688,0.06322269141674042,0.07765395939350128,0.0130568603053689
-0.6083751320838928,2.3177478313446045,9.411270141601562,0.14461809396743774,0.17050273716449738,0.03443651273846626
-0.5198407173156738,2.2483558654785156,9.159725189208984,0.19928891956806183,0.28106608986854553,0.03687990456819534
-0.7328019142150879,2.210070848464966,9.078369140625,0.23349636793136597,0.4569900929927826,0.0051158457063138485
-1.2116655111312866,2.4110679626464844,10.086345672607422,0.2315874695777893,0.32932302355766296,-0.04130854457616806
-1.3360923528671265,2.7320053577423096,10.093523979187012,0.15958385169506073,0.09964445978403091,-0.0064902519807219505
-1.1063814163208008,2.580958366394043,9.669695854187012,0.09055810421705246,0.012904148548841476,0.032603971660137177
-0.8715856671333313,2.4661028385162354,9.540482521057129,0.04337015375494957,0.04222481697797775,-0.019928891211748123
-0.8691928386688232,2.4517459869384766,9.774979591369629,0.10796725004911423,0.23708508908748627,-0.03886515647172928
-0.9795617461204529,2.5953152179718018,10.067203521728516,0.31115031242370605,0.3769691288471222,0.013667707331478596
-1.1590235233306885,2.822932481765747,9.86112117767334,0.51425701379776,0.38552096486091614,0.05825955793261528
-1.2379865646362305,2.9593234062194824,9.200403213500977,0.5857261419296265,0.3867426812648773,0.0942995473742485
-1.1662019491195679,2.9042885303497314,8.872586250305176,0.5279247164726257,0.44599485397338867,0.11201411485671997
-1.230808138847351,2.9617161750793457,9.073583602905273,0.460273414850235,0.5254049897193909,0.08391514420509338
-1.297807216644287,2.9760732650756836,9.32004451751709,0.4534013867378235,0.6219188570976257,0.06192464008927345
-1.5086746215820312,3.0957143306732178,9.353842735290527,0.4900522232055664,0.6280273199081421,0.05276193097233772
-1.7216359376907349,3.330509901046753,9.281759262084961,0.5173876285552979,0.6060368418693542,0.05276193097233772
-1.836491346359253,3.3496525287628174,8.93240737915039,0.4906630516052246,0.5791595578193665,0.08880192041397095
-1.714457392692566,3.2252259254455566,8.735896110534668,0.4310291111469269,0.642076849937439,0.08574768155813217
-1.970489501953125,3.385545015335083,8.805587768554688,0.38254308700561523,0.7001073360443115,0.02038702741265297
-2.418246269226074,3.5482568740844727,8.994620323181152,0.38880428671836853,0.7727981209754944,-0.019928891211748123
-2.399103879928589,3.4764721393585205,8.982656478881836,0.46454933285713196,0.8344936966896057,-0.024815669283270836
-2.3297119140625,3.423830032348633,9.562018394470215,0.5670953392982483,0.8051730394363403,-0.021150587126612663
-2.6075785160064697,3.4669008255004883,9.090332984924316,0.6720846891403198,0.7752415537834167,-0.035200074315071106
-2.9425735473632812,3.8883368968963623,8.831908226013184,0.6633801460266113,0.6988856196403503,-0.05841226875782013
-2.9425735473632812,3.9385859966278076,8.563612937927246,0.558390736579895,0.6781167984008789,-0.08040276914834976
-3.323331594467163,4.1970109939575195,7.974679470062256,0.3987305462360382,0.5608341693878174,-0.14515258371829987
-3.82373046875,4.46769905090332,8.884550094604492,0.09620844572782516,0.2077644169330597,-0.18180342018604279
-3.636791229248047,4.443770885467529,8.697610855102539,-0.20700086653232574,-0.1624090075492859,-0.15798036754131317
-3.5482568740844727,4.302295207977295,8.711968421936035,-0.38093963265419006,-0.34993913769721985,-0.126216322183609
-3.2228329181671143,4.122833251953125,9.097511291503906,-0.45737189054489136,-0.5124244689941406,-0.10544750839471817
-2.9521448612213135,3.9912281036376953,9.377771377563477,-0.4424061179161072,-0.6132143139839172,-0.07307260483503342
-2.6315066814422607,3.78544545173645,9.176474571228027,-0.3722350597381592,-0.6694122552871704,-0.008322793990373611
-2.2627129554748535,3.588934898376465,9.087940216064453,-0.26602399349212646,-0.6498651504516602,0.007559234742075205
-1.8221344947814941,3.1244282722473145,8.906085968017578,-0.12934690713882446,-0.5686224699020386,-0.03458922728896141
-1.0274182558059692,2.265105724334717,8.609076499938965,0.11361759155988693,-0.1611873209476471,-0.17386239767074585
-1.2164511680603027,2.775076150894165,9.650552749633789,0.30740886926651,0.027564482763409615,-0.29053422808647156
-2.312962293624878,3.775874137878418,9.502198219299316,0.7814263701438904,0.25235626101493835,-0.3369586169719696
-2.672184705734253,4.613661289215088,8.97787094116211,1.126860499382019,0.558390736579895,-0.15920206904411316
-2.7463622093200684,4.709373950958252,8.55164909362793,1.2106993198394775,0.6768951416015625,-0.05169294774532318
-2.837289333343506,4.702195644378662,8.022536277770996,1.1728267669677734,0.8766421675682068,0.08696937561035156
-2.734398126602173,4.639982223510742,7.886145114898682,0.893898606300354,0.9365051984786987,0.07108735293149948
-3.033500909805298,4.659124851226807,8.094321250915527,0.5298336148262024,0.7697439193725586,-0.015652960166335106
-3.344866991043091,4.6423749923706055,8.156534194946289,0.21051323413848877,0.5388436317443848,-0.0492495596408844
-3.3017961978912354,4.5323052406311035,8.022536277770996,-0.015652960166335106,0.37086063623428345,-0.07001836597919464
-3.416651725769043,4.517948150634766,8.216653823852539,-0.12377292662858963,0.34153997898101807,-0.1005607321858406
-3.6272199153900146,4.558626174926758,8.611469268798828,-0.04856235533952713,0.39346200227737427,-0.09689565002918243
-3.70139741897583,4.613661289215088,8.247760772705078,0.14339639246463776,0.40690064430236816,-0.07429429888725281
-3.8979079723358154,4.740480899810791,8.355437278747559,0.16454698145389557,0.2615189850330353,-0.05047125369310379
-3.871587038040161,4.699802875518799,8.781659126281738,0.04650074616074562,-0.04756972938776016,-0.07368344813585281
-4.1419758796691895,4.913063049316406,9.083154678344727,-0.0423775278031826,-0.28518930077552795,-0.08528954535722733
-3.9768712520599365,5.116453170776367,8.546863555908203,-0.04611896723508835,-0.3798706531524658,-0.024815669283270836
-3.526721477508545,4.711766719818115,8.312366485595703,-0.0647498071193695,-0.3707079291343689,-0.007101099472492933
-3.323331594467163,4.611268520355225,8.554041862487793,-0.149199441075325,-0.5869478583335876,-0.060244809836149216
-3.275475025177002,4.687838554382324,8.115856170654297,-0.23120568692684174,-0.6303179860115051,-0.008322793990373611
-3.0454649925231934,4.517948150634766,8.12542724609375,-0.31321191787719727,-0.6620820760726929,0.030160583555698395
-2.6841487884521484,4.2281174659729,8.056035995483398,-0.37475478649139404,-0.6009973287582397,0.025273805484175682
-2.564208507537842,4.063013076782227,8.381758689880371,-0.4039227366447449,-0.46600010991096497,-0.01382041908800602
-2.665006160736084,4.118047714233398,8.522934913635254,-0.38842248916625977,-0.40552622079849243,-0.03092414326965809
-2.7391836643218994,4.201796531677246,8.56600570678711,-0.35238251090049744,-0.3407764136791229,-0.03703261539340019
-2.8827531337738037,4.3070807456970215,8.85344409942627,-0.25479966402053833,-0.24120831489562988,-0.013209572061896324
-3.0239295959472656,4.3193440437316895,8.9850492477417,-0.2020377367734909,-0.24243000149726868,0.014278554357588291
-2.8827531337738037,4.237689018249512,8.788837432861328,-0.11942064017057419,-0.24304085969924927,0.07047650218009949
-2.679363250732422,4.096512317657471,8.774480819702148,-0.10758547484874725,-0.2381540685892105,0.06986565887928009
-2.705684185028076,4.074976921081543,8.82951545715332,-0.12438376992940903,-0.25647950172424316,0.05703786388039589
-2.6123640537261963,4.089334011077881,8.834300994873047,-0.1802763044834137,-0.31389912962913513,0.03626905754208565
-2.617149829864502,4.187439441680908,8.678468704223633,-0.26907822489738464,-0.39147675037384033,0.022219568490982056
-2.5067808628082275,4.170690059661865,8.654540061950684,-0.36849361658096313,-0.4458421468734741,0.03077143058180809
-2.3967108726501465,4.024727821350098,8.786444664001465,-0.44431501626968384,-0.5008183717727661,0.05276193097233772
-2.2794625759124756,3.9290146827697754,8.95394229888916,-0.487761527299881,-0.5246414542198181,0.08635853230953217
-2.181356906890869,3.8668015003204346,8.958727836608887,-0.4934118688106537,-0.5289173722267151,0.09796462953090668
-2.0808584690093994,3.7710886001586914,8.965906143188477,-0.4710395932197571,-0.486768901348114,0.10162971168756485
-1.872383713722229,3.5721850395202637,9.052047729492188,-0.37475478649139404,-0.37315133213996887,0.07780666649341583
-1.9537396430969238,3.615255832672119,9.233902931213379,-0.008780929259955883,-0.09399411827325821,0.03382566571235657
-1.8867406845092773,3.5769708156585693,9.075976371765137,0.013591351918876171,-0.11354123055934906,0.0423775278031826
-1.8245272636413574,3.5554354190826416,9.032905578613281,-0.02435753494501114,-0.12759071588516235,0.04359922185540199
-1.786242127418518,3.567399501800537,9.037691116333008,-0.06100837141275406,-0.1220930963754654,0.03749075159430504
-1.7982062101364136,3.636791229248047,9.030512809753418,-0.07589777559041977,-0.0946049690246582,0.020997874438762665
-1.9561325311660767,3.7782669067382812,9.06401252746582,-0.09078717231750488,-0.09765920788049698,0.010002624243497849
-2.0760726928710938,3.8189449310302734,9.016156196594238,-0.14797775447368622,-0.16424155235290527,0.0295497365295887
-1.9465612173080444,3.78544545173645,9.001798629760742,-0.2256316989660263,-0.23571068048477173,0.05276193097233772
-1.7479569911956787,3.5937204360961914,9.020941734313965,-0.26785650849342346,-0.23143476247787476,0.0680331140756607
-1.6737794876098633,3.4980075359344482,9.190832138061523,-0.27595025300979614,-0.20822255313396454,0.0692548081278801
-1.6426727771759033,3.4286158084869385,9.145368576049805,-0.2951919436454773,-0.2247154414653778,0.07230904698371887
-1.714457392692566,3.4357941150665283,9.154939651489258,-0.3480302393436432,-0.29679539799690247,0.06986565887928009
-1.7001005411148071,3.543471336364746,9.238688468933105,-0.3939964771270752,-0.3407764136791229,0.08696937561035156
-1.568495273590088,3.385545015335083,9.447162628173828,-0.40575528144836426,-0.31328830122947693,0.11873343586921692
-1.2212368249893188,3.0167510509490967,9.351449966430664,-0.39834877848625183,-0.2943520247936249,0.1077381819486618
-1.103988528251648,2.837289333343506,9.368199348449707,-0.393385648727417,-0.2680855989456177,0.05459447205066681
-1.111167073249817,2.7846474647521973,9.339486122131348,-0.38903334736824036,-0.25647950172424316,0.005726693198084831
-1.2116655111312866,2.894717216491699,9.425627708435059,-0.3722350597381592,-0.250981867313385,-0.008322793990373611
-1.415055513381958,3.004786968231201,9.777372360229492,-0.3381039500236511,-0.23204560577869415,0.024662958458065987
-1.446162223815918,3.0454649925231934,9.894919395446777,-0.26907822489738464,-0.2528144121170044,0.07658497244119644
-1.1422736644744873,2.822932481765747,9.710372924804688,-0.2038702666759491,-0.23143476247787476,0.09613208472728729
-0.9197412133216858,2.6096723079681396,9.353842735290527,-0.16973918676376343,-0.18195612728595734,0.06986565887928009
-0.9074779748916626,2.650649309158325,9.312865257263184,-0.1727934181690216,-0.12820157408714294,0.03504735976457596
-0.9508479237556458,2.6673989295959473,9.334700584411621,-0.2032594233751297,-0.14164020121097565,0.026495499536395073
-0.9963115453720093,2.614457845687866,9.47348403930664,-0.23433628678321838,-0.1752368062734604,0.028938889503479004
-1.1733803749084473,2.681756019592285,9.7366943359375,-0.22311195731163025,-0.19539476931095123,0.03626905754208565
-1.1925230026245117,2.7631118297576904,9.719944953918457,-0.1784437596797943,-0.19722731411457062,0.07169819623231888
-0.9340981245040894,2.6240291595458984,9.413662910461426,-0.1498102843761444,-0.15263545513153076,0.08391514420509338
-0.7782655358314514,2.4445674419403076,9.245866775512695,-0.16286714375019073,-0.11476293206214905,0.06620056927204132
-0.646660327911377,2.3249263763427734,9.19561767578125,-0.18523943424224854,-0.0823880210518837,0.044820915907621384
-0.3089732229709625,2.1047866344451904,9.413662910461426,-0.14797775447368622,0.04650074616074562,0.02160872146487236
-0.04815555736422539,1.7790635824203491,9.746265411376953,0.027869906276464462,0.30183491110801697,-0.02664821222424507
-0.13668999075889587,1.805384635925293,10.016953468322754,0.3248180150985718,0.6011500358581543,-0.11277767270803452
-0.6538388133049011,2.29860520362854,10.148558616638184,0.6708629727363586,0.7520293593406677,-0.1799708753824234
-1.2523435354232788,2.894717216491699,9.664909362792969,0.9472714066505432,0.8839723467826843,-0.14698512852191925
-1.5565310716629028,3.206083297729492,9.119047164916992,1.056002140045166,0.9737668633460999,-0.04253023862838745
-1.1614162921905518,2.892324447631836,8.175676345825195,0.9672002792358398,1.1069315671920776,-0.02053973823785782
-1.3815559148788452,2.7559335231781006,8.870193481445312,0.7919634580612183,1.2071105241775513,-0.11277767270803452
-2.1358933448791504,3.285046339035034,9.693623542785645,0.7019398808479309,1.0824977159500122,-0.17508409917354584
-2.6123640537261963,3.9074792861938477,10.165308952331543,0.7075138092041016,0.8644252419471741,-0.1555369794368744
-2.5785655975341797,4.06540584564209,8.93240737915039,0.7049940824508667,0.7550835609436035,-0.10789089649915695
-2.353640079498291,3.70139741897583,8.127820014953613,0.5944307446479797,0.8436564207077026,-0.12316207587718964
-2.657827854156494,3.677469253540039,8.197212219238281,0.4670690894126892,0.93284010887146,-0.14576342701911926
-3.0239295959472656,3.8763725757598877,9.09990406036377,0.4204919934272766,0.8693119883537292,-0.13293562829494476
-2.9928228855133057,3.78544545173645,9.657731056213379,0.45897534489631653,0.5889331102371216,-0.09994988143444061
-3.004786968231201,3.8428730964660645,8.937192916870117,0.5124244689941406,0.4527141749858856,-0.14698512852191925
-3.667897939682007,4.534698009490967,8.348258972167969,0.47203221917152405,0.4704287350177765,-0.17630578577518463
-4.027120590209961,4.932205677032471,8.393722534179688,0.3931565582752228,0.5168531537055969,-0.07368344813585281
-3.4381871223449707,4.3672003746032715,8.56600570678711,0.35833826661109924,0.47165045142173767,-0.007101099472492933
-3.3831520080566406,3.964907169342041,7.4479594230651855,0.3092414140701294,0.36780640482902527,-0.07857023179531097
-3.8811583518981934,4.623232364654541,8.271688461303711,-0.009391776286065578,0.10514208674430847,-0.09811734408140182
-4.046263217926025,4.568197727203369,8.994620323181152,-0.2250208556652069,-0.2888543903827667,-0.057801421731710434
-3.751945972442627,4.6423749923706055,8.68325424194336,-0.2641150951385498,-0.36093437671661377,0.016721943393349648
-3.3568310737609863,4.285545349121094,8.851051330566406,-0.20822255313396454,-0.2613662779331207,0.07536327838897705
-2.9282166957855225,3.926621913909912,8.965906143188477,-0.05413633957505226,-0.13858596980571747,0.03443651273846626
-3.064607620239258,4.039084434509277,8.719146728515625,0.12293300777673721,0.019623467698693275,-0.03336753323674202
-3.285046339035034,4.304687976837158,8.245368003845215,0.22792237997055054,0.05810684710741043,-0.023593975231051445
-3.2874391078948975,4.3070807456970215,8.187641143798828,0.2241809368133545,0.08437328040599823,0.014278554357588291
-3.2635109424591064,4.235296249389648,8.43440055847168,0.16821207106113434,0.11002886295318604,0.027717193588614464
-3.299403429031372,4.216153621673584,8.647361755371094,0.12041326612234116,0.10636378079652786,0.013667707331478596
-3.347259759902954,4.232903480529785,8.585148811340332,0.10674555599689484,0.0880383625626564,0.0038941511884331703
-3.3903305530548096,4.446163654327393,8.223832130432129,0.06322269141674042,0.062993623316288,0.0051158457063138485
-3.3520455360412598,4.280759811401367,8.20229721069336,0.004886778071522713,0.07826480269432068,0.02710634656250477
-3.213261604309082,4.211368083953857,8.408080101013184,-0.010078979656100273,0.08620581775903702,0.03199312463402748
-3.251546859741211,4.1659040451049805,8.482256889343262,0.019776180386543274,0.11613733321428299,0.02038702741265297
-3.3257243633270264,4.252045631408691,8.549256324768066,0.06016845628619194,0.14851224422454834,0.014889402315020561
-3.3879377841949463,4.379164695739746,8.5731840133667,0.18187977373600006,0.23830679059028625,0.02160872146487236
-3.4669008255004883,4.297509670257568,8.697610855102539,0.32665055990219116,0.31832778453826904,0.014278554357588291
-3.313760280609131,4.122833251953125,7.862216949462891,0.3285594582557678,0.1662268042564392,-0.027869906276464462
-3.519542932510376,4.489234447479248,7.136892795562744,0.03779617324471474,0.13812783360481262,-0.08284615725278854
-4.0319061279296875,4.527519702911377,9.042476654052734,-0.2703762650489807,-0.20944425463676453,-0.08956547826528549
-4.060619831085205,4.6663031578063965,9.219545364379883,-0.3032856583595276,-0.3419981002807617,-0.06940752267837524
-4.101297855377197,4.903491973876953,9.174081802368164,-0.2734304964542389,-0.37742725014686584,-0.035200074315071106
-3.9218363761901855,4.752444744110107,8.625826835632324,-0.18340688943862915,-0.4116346836090088,0.030160583555698395
-3.6511483192443848,4.59930419921875,8.245368003845215,-0.18959172070026398,-0.5020400881767273,-0.0022143214009702206
-3.457329511642456,4.5323052406311035,7.792825222015381,-0.3032856583595276,-0.6028298735618591,-0.07429429888725281
-3.533900022506714,4.65433931350708,7.658827304840088,-0.4859289824962616,-0.6871268153190613,-0.08651123940944672
-3.845266103744507,4.869693279266357,7.847859859466553,-0.7214106321334839,-0.8544989824295044,0.006337540224194527
-4.242474555969238,4.819443702697754,8.515756607055664,-1.0369895696640015,-1.183211088180542,0.17004460096359253
-3.512364625930786,4.628017902374268,8.534899711608887,-1.3867759704589844,-1.5497194528579712,0.27449947595596313
-2.9425735473632812,4.053441524505615,8.901300430297852,-1.6644060611724854,-1.734195351600647,0.3184804916381836
-2.549851655960083,3.7205400466918945,9.650552749633789,-1.7725260257720947,-1.7830631732940674,0.40460994839668274
-2.102393865585327,3.4310085773468018,9.92124080657959,-1.7203749418258667,-1.915006160736084,0.5341095924377441
-1.3815559148788452,2.791825771331787,9.40169906616211,-1.6053829193115234,-1.952878713607788,0.653835654258728
-0.3762713670730591,2.068894386291504,9.133403778076172,-1.4296116828918457,-1.6297404766082764,0.704535961151123
0.44027936458587646,1.4437693357467651,9.593125343322754,-1.161220669746399,-1.1862653493881226,0.6385644674301147
0.638883650302887,1.0896315574645996,9.942776679992676,-0.8419002294540405,-0.8496121764183044,0.5029563903808594
0.5599204897880554,0.5461617708206177,11.266605377197266,-0.5150969624519348,-0.7537091374397278,0.3813977539539337
1.1129616498947144,0.4049852192401886,10.153345108032227,-0.17592400312423706,-0.6590278148651123,0.18042901158332825
0.9239286184310913,0.9218349456787109,9.655338287353516,0.0787992998957634,-0.37620556354522705,-0.010766183026134968
0.44027936458587646,1.5326029062271118,9.83958625793457,0.2844257652759552,-0.17096087336540222,-0.08040276914834976
0.11694920808076859,2.0446670055389404,9.451948165893555,0.3509317636489868,-0.1343100368976593,0.00022906772210262716
0.05234299600124359,2.2722842693328857,9.032905578613281,0.2539597451686859,-0.0683385357260704,0.10529479384422302
0.0810568705201149,2.181356906890869,9.31047248840332,0.11606097966432571,-0.012751436792314053,0.14377817511558533
0.21774685382843018,2.0063817501068115,9.281759262084961,-0.001374406274408102,0.0037414394319057465,0.12239851802587509
0.42352959513664246,1.848455548286438,9.087940216064453,-0.0429883748292923,0.12285665422677994,0.08269345015287399
0.31106695532798767,1.7647067308425903,9.257830619812012,0.018554486334323883,0.3000023663043976,0.0552053228020668
0.07148557901382446,1.6498512029647827,9.815657615661621,0.10552386194467545,0.25357797741889954,0.02405211143195629
-0.05054837837815285,1.903490424156189,9.851550102233887,0.07444700598716736,0.1265217363834381,-0.0022143214009702206
-0.22043879330158234,2.0880367755889893,10.076774597167969,-0.051082100719213486,-0.0952158197760582,0.017332790419459343
0.1983051747083664,1.867598056793213,9.858728408813477,-0.12064233422279358,-0.11048699915409088,0.016721943393349648
0.22971096634864807,1.8819550275802612,10.036096572875977,-0.021226942539215088,0.027564482763409615,-0.04253023862838745
-0.1534397453069687,2.1215364933013916,10.165308952331543,0.1005607321858406,0.05077667906880379,-0.07368344813585281
-0.23001007735729218,2.2770698070526123,9.72233772277832,0.11048699915409088,-0.04146125912666321,-0.04558447748422623
0.03559323772788048,2.1693928241729736,9.325128555297852,0.09681928902864456,0.019623467698693275,-0.012598725035786629
0.04995017126202583,2.011167526245117,9.073583602905273,0.0794101431965828,0.056274302303791046,-0.019928891211748123
-0.055334024131298065,2.1000008583068848,9.396913528442383,0.057648710906505585,0.11796987801790237,-0.032756682485342026
-0.17258232831954956,2.1071794033050537,9.748658180236816,0.011071606539189816,0.08070819079875946,-0.005879404954612255
-0.07447660714387894,1.9896320104599,9.856335639953613,-0.02870982140302658,-0.0231358390301466,0.0014507622690871358
-0.04097708687186241,2.018345832824707,9.923633575439453,-0.03306210786104202,-0.007253811229020357,-0.03092414326965809
-0.21804596483707428,2.157428741455078,9.995418548583984,-0.004428642801940441,-0.035352785140275955,-0.05169294774532318
-0.21326032280921936,2.2172493934631348,9.949954986572266,0.03527642786502838,-0.043293800204992294,-0.032756682485342026
-0.005084747914224863,2.1311075687408447,9.609874725341797,0.08124268800020218,-0.017027366906404495,0.00022906772210262716
0.10498509556055069,2.042274236679077,9.645767211914062,0.125987246632576,0.09109259396791458,0.0130568603053689
0.05473581701517105,2.078465461730957,9.645767211914062,0.15149012207984924,0.10880716890096664,0.006337540224194527
-0.1055833026766777,2.2627129554748535,9.550054550170898,0.17569494247436523,0.14484715461730957,-0.009544488042593002
-0.18454644083976746,2.3344976902008057,9.566803932189941,0.13782241940498352,0.16072918474674225,-0.010155336000025272
-0.2228316068649292,2.312962293624878,9.559625625610352,0.11048699915409088,0.16500511765480042,-0.005268557462841272
-0.22522443532943726,2.2770698070526123,9.710372924804688,0.08994726091623306,0.1527881771326065,-0.005268557462841272
-0.28983065485954285,2.2531416416168213,9.61226749420166,0.10300412029027939,0.10330954194068909,-0.013209572061896324
-0.25633111596107483,2.2603201866149902,9.40169906616211,0.10300412029027939,0.0880383625626564,-0.0022143214009702206
-0.24436701834201813,2.23639178276062,9.449555397033691,0.05390727147459984,0.08009734749794006,0.007559234742075205
-0.26111677289009094,2.233999013900757,9.559625625610352,-0.027411770075559616,0.07398887723684311,0.006337540224194527
-0.3161516785621643,2.2698912620544434,9.686445236206055,-0.05604523420333862,0.045889899134635925,0.0014507622690871358
-0.33529427647590637,2.289033889770508,9.885348320007324,-0.007559234742075205,0.09109259396791458,0.0014507622690871358
-0.2922234535217285,2.20528507232666,9.542876243591309,0.07322531193494797,0.12102411687374115,0.008170082233846188
-0.11036894470453262,2.018345832824707,9.298508644104004,0.1408766508102417,0.2053210288286209,0.0130568603053689
-0.20129621028900146,2.126322031021118,9.38734245300293,0.13591352105140686,0.24380441009998322,-0.02298312820494175
-0.7208378314971924,2.511566400527954,9.664909362792969,-0.023059483617544174,0.056274302303791046,-0.03458922728896141
-0.16540385782718658,2.0446670055389404,10.258628845214844,-0.05474718660116196,-0.04512634128332138,-0.022372281178832054
-0.27786654233932495,2.243570327758789,9.83719253540039,0.1328592747449875,0.005573981441557407,-0.040697697550058365
-0.3496512174606323,2.4373888969421387,9.30329418182373,0.18875180184841156,0.03978142887353897,-0.013209572061896324
-0.3568296730518341,2.4134607315063477,9.05444049835205,0.08376242965459824,0.034283801913261414,0.019776180386543274
-0.34725838899612427,2.377568483352661,9.011369705200195,0.008551862090826035,0.026342788711190224,0.027717193588614464
-0.3113660514354706,2.305783748626709,9.423234939575195,-0.09017632901668549,0.04222481697797775,0.022219568490982056
-0.373878538608551,2.2244277000427246,9.940383911132812,-0.07154548168182373,0.03367295488715172,0.0038941511884331703
-0.3496512174606323,2.2220349311828613,10.012167930603027,-0.028098974376916885,0.0293970238417387,-0.004657710436731577
-0.2874378263950348,2.241177558898926,9.863513946533203,0.07505785673856735,0.05444176122546196,-0.012598725035786629
-0.263509601354599,2.1933209896087646,9.633803367614746,0.16699036955833435,0.14545799791812897,-0.016874656081199646
-0.3520440459251404,2.243570327758789,9.576375007629395,0.20364120602607727,0.19921256601810455,-0.019928891211748123
-0.388235479593277,2.1382861137390137,9.435198783874512,0.19623468816280365,0.21204034984111786,-0.016874656081199646
-0.48394837975502014,2.39192533493042,9.52612590789795,0.1856212168931961,0.23586340248584747,-0.0364217683672905
-0.7256234884262085,2.5163521766662598,9.585947036743164,0.17386239767074585,0.24258272349834442,-0.021150587126612663
-0.6610172390937805,2.4661028385162354,9.581160545349121,0.1782146841287613,0.2725142240524292,0.013667707331478596
-0.6131607890129089,2.4110679626464844,9.703194618225098,0.22227205336093903,0.32810133695602417,0.03871244564652443
-0.7854440212249756,2.535494804382324,9.942776679992676,0.285647451877594,0.32993388175964355,0.04421006888151169
-0.9340981245040894,2.6769702434539795,9.72233772277832,0.31855684518814087,0.2554105222225189,0.04787515476346016
-0.893121063709259,2.7774689197540283,9.437591552734375,0.27388864755630493,0.18455222249031067,0.03749075159430504
-0.828514814376831,2.7966115474700928,9.286544799804688,0.1552315652370453,0.1289651244878769,0.013667707331478596
-0.8524430394172668,2.8253252506256104,9.3490571975708,0.048333290964365005,0.1295759677886963,0.004504998680204153
-0.9317052960395813,2.758326292037964,9.593125343322754,-0.001985253533348441,0.12285665422677994,0.005726693198084831
-0.953240692615509,2.727219581604004,9.748658180236816,-7.635590736754239e-05,0.0758214145898819,-0.0064902519807219505
-0.9723833203315735,2.760719060897827,9.550054550170898,0.03962871432304382,0.030007870867848396,-0.014431266114115715
-0.9122636318206787,2.775076150894165,9.358628273010254,0.07505785673856735,0.08192989230155945,-0.004657710436731577
-0.8715856671333313,2.720041036605835,9.298508644104004,0.08750387281179428,0.15095563232898712,0.00022906772210262716
-0.9364909529685974,2.7320053577423096,9.329915046691895,0.07757759839296341,0.20287764072418213,-0.0034360159188508987
-0.9652048349380493,2.7248268127441406,9.358628273010254,0.06887302547693253,0.20837527513504028,-0.00038177953683771193
-1.0106685161590576,2.7152554988861084,9.4088773727417,0.0558161698281765,0.20043425261974335,0.002672456670552492
-1.0513464212417603,2.6673989295959473,9.516554832458496,0.03779617324471474,0.17600037157535553,0.0014507622690871358
-1.2810574769973755,2.820539712905884,10.04566764831543,0.036574479192495346,0.08009734749794006,-0.007101099472492933
-1.2427722215652466,2.9282166957855225,9.815657615661621,0.04092676565051079,0.014125842601060867,0.012446013279259205
-1.0752747058868408,2.7248268127441406,9.691230773925781,0.08872556686401367,0.022677704691886902,0.030160583555698395
-0.8476574420928955,2.5833511352539062,9.545269012451172,0.15454435348510742,0.08437328040599823,0.014889402315020561
-0.7399803996086121,2.580958366394043,9.475876808166504,0.22166119515895844,0.16195088624954224,-0.031534988433122635
-0.9604191780090332,2.7702903747558594,9.439984321594238,0.2775537371635437,0.20226679742336273,-0.05474718660116196
-0.9915258884429932,2.9425735473632812,9.080761909484863,0.30992862582206726,0.26701661944389343,-0.03825430944561958
-0.7447660565376282,2.6362924575805664,8.970691680908203,0.30992862582206726,0.37024980783462524,-0.06574243307113647
-0.828514814376831,2.6913273334503174,9.382556915283203,0.29061058163642883,0.3879643678665161,-0.15003935992717743
-0.9317052960395813,2.6673989295959473,9.557232856750488,0.2999260127544403,0.37147149443626404,-0.24899661540985107
-1.108774185180664,2.806182861328125,9.50459098815918,0.37078428268432617,0.3751365840435028,-0.38093963265419006
-1.8891334533691406,3.677469253540039,9.353842735290527,0.4652365446090698,0.39529454708099365,-0.35589489340782166
-2.188535451889038,4.01037073135376,8.898907661437988,0.49562618136405945,0.4447731673717499,-0.20257222652435303
-2.2004995346069336,3.869194269180298,8.633005142211914,0.484478235244751,0.6023717522621155,-0.06146650388836861
-1.994417667388916,3.416651725769043,8.666504859924316,0.4391228258609772,0.7227086424827576,-0.027869906276464462
-2.0425732135772705,3.313760280609131,9.329915046691895,0.38880428671836853,0.6787276864051819,-0.08467870205640793
-2.4517459869384766,3.677469253540039,9.456734657287598,0.32665055990219116,0.5174639821052551,-0.11644276231527328
-2.641077995300293,3.9625144004821777,9.315258979797363,0.23410721123218536,0.3500918447971344,-0.10483665764331818
-2.494816780090332,3.8524444103240967,9.154939651489258,0.13156123459339142,0.24869118630886078,-0.0877329409122467
-2.5163521766662598,3.8021950721740723,9.016156196594238,0.06574243307113647,0.21448373794555664,-0.09628479927778244
-2.6075785160064697,3.8500516414642334,9.061619758605957,0.08124268800020218,0.22547899186611176,-0.09506310522556305
-3.119642496109009,4.211368083953857,8.994620323181152,0.04153761267662048,0.06604786217212677,-0.07368344813585281
-3.10528564453125,4.091726779937744,9.420842170715332,-0.03489464893937111,-0.04695888236165047,-0.06085565686225891
-2.6219353675842285,3.751945972442627,9.087940216064453,-0.0051158457063138485,-0.045737188309431076,-0.0620773509144783
-2.353640079498291,3.533900022506714,8.889336585998535,0.06887302547693253,-0.017027366906404495,-0.10178242623806
-2.3392832279205322,3.6176488399505615,8.918049812316895,0.10422581434249878,-0.027411770075559616,-0.10728005319833755
-2.344068765640259,3.869194269180298,8.889336585998535,0.09681928902864456,-0.023746687918901443,-0.05413633957505226
-2.3081765174865723,3.9361932277679443,8.908478736877441,0.08498412370681763,0.05077667906880379,0.0032833039294928312
-2.2722842693328857,3.792623996734619,8.841479301452637,0.10926530510187149,0.18516308069229126,0.010613471269607544
-2.3656044006347656,3.6511483192443848,9.020941734313965,0.19745637476444244,0.31710609793663025,-0.041919391602277756
-2.712862730026245,3.9457645416259766,9.219545364379883,0.3465794622898102,0.37269318103790283,-0.08956547826528549
-3.19651198387146,4.336093902587891,9.006584167480469,0.4546230733394623,0.32932302355766296,-0.027869906276464462
-3.1773693561553955,4.170690059661865,8.482256889343262,0.4062134325504303,0.2615189850330353,0.12423106282949448
-2.8492536544799805,3.9864425659179688,8.269295692443848,0.2763320207595825,0.3012240529060364,0.17554223537445068
-2.877967357635498,4.096512317657471,8.666504859924316,0.2148655205965042,0.3916294574737549,0.1217876747250557
-3.0143582820892334,4.3193440437316895,8.700003623962402,0.2545706033706665,0.4117874205112457,0.06436803191900253
-2.98085880279541,4.333701133728027,8.506185531616211,0.30488914251327515,0.39712706208229065,0.03077143058180809
-2.9306094646453857,4.1730828285217285,8.14217758178711,0.30488914251327515,0.31771692633628845,-0.010766183026134968
-3.179762125015259,4.427021026611328,6.557530403137207,0.17256435751914978,0.26396235823631287,-0.05413633957505226
-3.612863063812256,4.496412754058838,8.534899711608887,-0.1579040139913559,0.0886492058634758,-0.08467870205640793
-3.838087558746338,4.649553298950195,9.39452075958252,-0.3020639717578888,-0.20700086653232574,-0.07124006003141403
