accX,accY,accZ,gyroX,gyroY,gyroZ
0.6731920838356018,0.18809807300567627,9.348247528076172,-0.05749114602804184,0.039392080157995224,-0.0010646508308127522
0.5661712884902954,0.17867448925971985,9.45906925201416,-0.12775810062885284,0.12137019634246826,-0.0010646508308127522
0.39428672194480896,0.0966682881116867,9.568168640136719,-0.12775810062885284,0.02981022372841835,0.0021293016616255045
0.44736137986183167,0.005937620066106319,9.615324974060059,-0.07239625602960587,-0.07452555745840073,0.0031939526088535786
0.5238226056098938,-0.011645397171378136,9.605939865112305,0.0031939526088535786,-0.047909289598464966,-0.0010646508308127522
0.5114398002624512,0.03963840380311012,9.601811408996582,0.07559020817279816,0.04684463515877724,-0.0021293016616255045
0.42295968532562256,0.12333011627197266,9.580866813659668,0.10646508634090424,0.05749114602804184,-0.0010646508308127522
0.4254209101200104,0.15223293006420135,9.47396183013916,0.0841074138879776,-0.014905111864209175,0.0
0.5498235821723938,0.17509275674819946,9.381353378295898,-0.014905111864209175,-0.05110324174165726,-0.0021293016616255045
0.6155109405517578,0.1574522852897644,9.449043273925781,-0.06707300245761871,0.012775810435414314,0.0
0.5831891894340515,0.13015837967395782,9.486124038696289,-0.08091346174478531,0.03300417587161064,-0.0021293016616255045
0.5434741973876953,0.08203493058681488,9.59801959991455,-0.07878416031599045,0.03193952515721321,0.0
0.4930427670478821,0.05546886473894119,9.603363037109375,-0.038327429443597794,-0.005323254037648439,0.0
0.5002062320709229,0.054511185735464096,9.611896514892578,0.0074525559321045876,-0.020228365436196327,0.0
0.46166911721229553,0.046150632202625275,9.552022933959961,0.047909289598464966,0.009581857360899448,0.0010646508308127522
0.44583866000175476,0.08633491396903992,9.540721893310547,0.06387905031442642,0.02555162087082863,0.0021293016616255045
0.43095630407333374,0.13030202686786652,9.460037231445312,0.04684463515877724,0.005323254037648439,-0.0010646508308127522
0.4643123149871826,0.13214077055454254,9.443756103515625,0.0074525559321045876,-0.024486970156431198,-0.0021293016616255045
0.4823741614818573,0.1066281646490097,9.466185569763184,-0.014905111864209175,-0.02661627158522606,0.0
0.5592855215072632,0.10547894984483719,9.505545616149902,-0.043650683015584946,-0.008517206646502018,0.0010646508308127522
0.5541523694992065,0.11684662103652954,9.511617660522461,-0.05216789245605469,0.010646508075296879,0.0021293016616255045
0.5464239120483398,0.07984183728694916,9.522132873535156,-0.047909289598464966,0.010646508075296879,-0.0010646508308127522
0.6161238551139832,0.016807297244668007,9.724691390991211,-0.045779984444379807,-0.03087487444281578,-0.0031939526088535786
0.656509280204773,-0.006023811176419258,9.621597290039062,-0.012775810435414314,0.006387905217707157,-0.010646508075296879
0.5167261958122253,-0.035980064421892166,9.603622436523438,0.05642649531364441,0.047909289598464966,-0.03406882658600807
0.33499670028686523,0.07709329575300217,9.521232604980469,0.06174974888563156,0.05216789245605469,-0.015969762578606606
0.3788968026638031,0.14764562249183655,9.543001174926758,0.06068509817123413,0.0,0.021293016150593758
0.5144756436347961,0.1798907369375229,9.454070091247559,-0.014905111864209175,-0.022357666864991188,-0.013840461149811745
0.5097063779830933,0.09068278223276138,9.481622695922852,-0.05536184459924698,0.014905111864209175,-0.008517206646502018
0.5089594125747681,0.053735461086034775,9.528472900390625,-0.06494370102882385,0.004258603323251009,0.009581857360899448
0.54220050573349,0.11113884299993515,9.627190589904785,-0.02555162087082863,-0.008517206646502018,0.0
0.47288358211517334,0.09319190680980682,9.502595901489258,0.05216789245605469,0.008517206646502018,0.0021293016616255045
0.4751628339290619,0.13870090246200562,9.444091796875,0.02342231757938862,-0.0021293016616255045,0.0
0.497610867023468,0.12622231245040894,9.466490745544434,-0.012775810435414314,-0.008517206646502018,-0.004258603323251009
0.5112578272819519,0.1538897156715393,9.47493839263916,-0.02874557301402092,-0.006387905217707157,-0.0021293016616255045
0.5408692955970764,0.10907024890184402,9.510890007019043,-0.045779984444379807,0.0010646508308127522,0.0021293016616255045
0.5100894570350647,0.09375693649053574,9.562230110168457,-0.038327429443597794,0.0031939526088535786,0.0010646508308127522
0.5078485012054443,0.08422800898551941,9.562958717346191,-0.0031939526088535786,-0.0010646508308127522,-0.0031939526088535786
0.5097638368606567,0.0825808048248291,9.577409744262695,0.02555162087082863,0.0031939526088535786,0.0
0.5233437418937683,0.09793242812156677,9.533021926879883,0.03193952515721321,0.005323254037648439,0.0010646508308127522
0.48707637190818787,0.12582966685295105,9.518503189086914,0.03619812801480293,0.008517206646502018,0.0010646508308127522
0.5191874504089355,0.11947066336870193,9.479209899902344,0.020228365436196327,0.004258603323251009,-0.0021293016616255045
0.46662992238998413,0.12019850313663483,9.466740608215332,0.004258603323251009,0.0,-0.0021293016616255045
0.47885948419570923,0.11969093233346939,9.486143112182617,-0.018099064007401466,-0.0074525559321045876,0.0
0.4760439097881317,0.1424262672662735,9.507403373718262,-0.03087487444281578,-0.0031939526088535786,0.0
0.5226542353630066,0.11032481491565704,9.536651611328125,-0.018099064007401466,0.0,-0.0010646508308127522
0.520327091217041,0.10192595422267914,9.55747127532959,0.0,0.004258603323251009,0.0
0.5242535471916199,0.0964384451508522,9.565975189208984,0.012775810435414314,0.0021293016616255045,0.0010646508308127522
0.4872487783432007,0.08340441435575485,9.528837203979492,0.02342231757938862,0.0031939526088535786,0.0010646508308127522
0.4690815806388855,0.08884403854608536,9.517938613891602,0.015969762578606606,0.0074525559321045876,0.0
0.48991113901138306,0.09352709352970123,9.500853538513184,0.01171115878969431,0.0074525559321045876,-0.0010646508308127522
0.47384124994277954,0.1252167522907257,9.507184028625488,-0.0031939526088535786,0.0021293016616255045,-0.0021293016616255045
0.47903189063072205,0.12017935514450073,9.523483276367188,-0.009581857360899448,-0.0021293016616255045,-0.0010646508308127522
0.47263458371162415,0.13568420708179474,9.309144973754883,-0.015969762578606606,-0.022357666864991188,0.0010646508308127522
0.5692262649536133,0.10677181929349899,9.52552318572998,-0.11817624419927597,-0.2310292273759842,0.0
0.6551397442817688,0.1849760264158249,9.401311874389648,-0.1362753063440323,-0.15543901920318604,-0.004258603323251009
0.8070470690727234,-0.12974658608436584,9.621769905090332,-0.07133160531520844,0.19908970594406128,-0.008517206646502018
0.36775895953178406,0.035577837377786636,9.76521110534668,0.02342231757938862,0.2693566679954529,0.0031939526088535786
0.2524542212486267,-0.05919424444437027,9.640665054321289,0.12562879920005798,-0.009581857360899448,0.01171115878969431
0.4906006455421448,0.15331509709358215,9.518311500549316,0.16395622491836548,-0.21825341880321503,-0.0021293016616255045
0.6508589386940002,0.2189641147851944,9.391447067260742,0.11178833991289139,-0.06920230388641357,-0.008517206646502018
0.5846257209777832,0.21523873507976532,9.350813865661621,0.013840461149811745,0.13946926593780518,0.0
0.3989793360233307,0.1815379559993744,9.3881254196167,-0.07665485888719559,0.13095206022262573,0.0021293016616255045
0.3392009139060974,0.1374654918909073,9.482992172241211,-0.12243484705686569,-0.05323254317045212,0.0
0.5158163905143738,0.07286034524440765,9.576107025146484,-0.11072368919849396,-0.12775810062885284,0.0
0.6232489943504333,0.02386540174484253,9.6199312210083,-0.04684463515877724,-0.015969762578606606,-0.0010646508308127522
0.5684505105018616,-0.013618219643831253,9.602462768554688,0.02981022372841835,0.09581857919692993,0.0
0.41620802879333496,0.047807417809963226,9.612346649169922,0.07984881103038788,0.05429719388484955,-0.0010646508308127522
0.4558943212032318,0.13633541762828827,9.557135581970215,0.0947539210319519,-0.05323254317045212,0.0
0.49765875935554504,0.15608279407024384,9.463024139404297,-0.05110324174165726,0.0596204474568367,0.0010646508308127522
0.45177626609802246,0.10636959224939346,9.551054954528809,-0.08197811245918274,0.01171115878969431,-0.0010646508308127522
0.4727016091346741,0.10020213574171066,9.56454849243164,-0.070266954600811,-0.041521381586790085,-0.0021293016616255045
0.5076569318771362,0.07874050736427307,9.614721298217773,-0.024486970156431198,-0.02768092229962349,0.0
0.5438860058784485,0.05874413251876831,9.555326461791992,0.02661627158522606,0.021293016150593758,0.0
0.48984408378601074,0.06627149879932404,9.554234504699707,0.0596204474568367,0.02981022372841835,-0.0010646508308127522
0.498147189617157,0.11152191460132599,9.470121383666992,0.05855579674243927,-0.004258603323251009,-0.0010646508308127522
0.49701711535453796,0.1398022323846817,9.459644317626953,0.03087487444281578,-0.02342231757938862,0.0010646508308127522
0.5236406326293945,0.1384040117263794,9.426067352294922,0.0074525559321045876,-0.018099064007401466,-0.0031939526088535786
0.5283428430557251,0.1611585021018982,9.456052780151367,-0.03193952515721321,0.01171115878969431,0.0010646508308127522
0.5055500268936157,0.12786951661109924,9.529027938842773,-0.05003859102725983,0.019163714721798897,0.0010646508308127522
0.4863581359386444,0.10699208825826645,9.544848442077637,-0.05323254317045212,0.014905111864209175,-0.0021293016616255045
0.49303317070007324,0.10559387505054474,9.552538871765137,-0.0351334773004055,-0.010646508075296879,-0.0010646508308127522
0.4883117973804474,0.09549034386873245,9.569499969482422,-0.0031939526088535786,-0.013840461149811745,-0.0010646508308127522
0.496480792760849,0.08059840649366379,9.557988166809082,0.015969762578606606,-0.0010646508308127522,-0.0021293016616255045
0.5026291012763977,0.075934499502182,9.531192779541016,0.03300417587161064,0.01171115878969431,-0.0021293016616255045
0.4981088936328888,0.09953175485134125,9.515093803405762,0.03726277872920036,0.005323254037648439,-0.0021293016616255045
0.5392412543296814,0.13316549360752106,9.489523887634277,-0.01171115878969431,-0.0010646508308127522,0.0010646508308127522
0.517856240272522,0.1272757649421692,9.447606086730957,-0.02342231757938862,0.006387905217707157,-0.0010646508308127522
0.5079730153083801,0.09926360100507736,9.523310661315918,-0.03193952515721321,0.009581857360899448,0.0
0.4985015392303467,0.1022515669465065,9.5188570022583,-0.02661627158522606,0.005323254037648439,-0.0010646508308127522
0.47044146060943604,0.08039729297161102,9.533079147338867,-0.015969762578606606,0.0,-0.0021293016616255045
0.4653562009334564,0.11063127219676971,9.566272735595703,0.0,-0.0031939526088535786,0.0
0.47993209958076477,0.12161586433649063,9.530492782592773,0.021293016150593758,0.0,-0.0021293016616255045
0.5005030632019043,0.11010454595088959,9.469527244567871,0.005323254037648439,-0.0010646508308127522,0.0
0.4478019177913666,-0.08569326996803284,10.073067665100098,0.24274039268493652,-0.46844637393951416,0.03406882658600807
0.4903995394706726,0.2260892540216446,9.523014068603516,0.32471850514411926,-0.357722669839859,0.06707300245761871
1.1251311302185059,0.22530394792556763,9.04380989074707,0.24486969411373138,0.2416757345199585,0.11604694277048111
0.7238246202468872,0.5455236434936523,8.915155410766602,-0.03726277872920036,0.6441137790679932,0.10433578491210938
0.03490746021270752,0.18546444177627563,9.281803131103516,-0.3130073547363281,0.2949082851409912,0.07133160531520844
0.06252697110176086,0.3275938332080841,9.405660629272461,-0.406696617603302,-0.0734609067440033,0.05216789245605469
0.6883042454719543,-0.09131485223770142,9.717872619628906,-0.41201987862586975,-0.49932125210762024,0.02874557301402092
0.7175614237785339,0.15339170396327972,9.6048002243042,-0.2587101459503174,-0.2001543641090393,0.014905111864209175
0.5167644619941711,-0.151620015501976,9.764885902404785,0.015969762578606606,0.357722669839859,0.006387905217707157
0.22064004838466644,-0.13720691204071045,9.868526458740234,0.22570598125457764,0.2597748041152954,0.008517206646502018
0.03087562508881092,-0.1549910455942154,9.720698356628418,0.29597294330596924,0.070266954600811,0.013840461149811745
0.36609259247779846,0.3247973918914795,9.580053329467773,0.34494686126708984,-0.3119426965713501,0.005323254037648439
0.7254910469055176,0.22976675629615784,9.226880073547363,0.2246413230895996,-0.21612411737442017,-0.0031939526088535786
0.7613465785980225,0.2852068841457367,9.043168067932129,0.03726277872920036,0.09262461960315704,-0.005323254037648439
0.5126177072525024,0.29946672916412354,9.183688163757324,-0.17460273206233978,0.24486969411373138,-0.0031939526088535786
0.29980194568634033,0.17171214520931244,9.52907657623291,-0.27148595452308655,0.03726277872920036,-0.0010646508308127522
0.4000040590763092,0.015246276743710041,9.669836044311523,-0.23954643309116364,-0.1820552945137024,0.0
0.5211315155029297,0.019871873781085014,9.728647232055664,-0.18311993777751923,-0.1820552945137024,0.0021293016616255045
0.6843394637107849,-0.12912409007549286,9.718667984008789,-0.042586032301187515,-0.010646508075296879,0.0031939526088535786
0.5619382858276367,-0.05689580738544464,9.729720115661621,0.08943066745996475,0.13840460777282715,-0.0021293016616255045
0.37241330742836,0.05951027572154999,9.62108039855957,0.203348308801651,0.09901253134012222,-0.0010646508308127522
0.5743785500526428,0.24208252131938934,9.261605262756348,0.05642649531364441,-0.06281439960002899,-0.004258603323251009
0.5966734290122986,0.216464564204216,9.260475158691406,-0.020228365436196327,0.009581857360899448,-0.0021293016616255045
0.5379005074501038,0.21298818290233612,9.343008041381836,-0.13521066308021545,0.08517206460237503,0.0
0.44379881024360657,0.13141295313835144,9.532169342041016,-0.17779669165611267,0.03300417587161064,0.0
0.45952391624450684,0.10776780545711517,9.617049217224121,-0.16289158165454865,-0.015969762578606606,0.0010646508308127522
0.5009914636611938,0.0225150715559721,9.648834228515625,-0.08943066745996475,-0.0596204474568367,-0.0010646508308127522
0.5322310328483582,-0.036363136023283005,9.654369354248047,0.06174974888563156,0.02768092229962349,-0.0031939526088535786
0.4869614839553833,0.0725155770778656,9.581911087036133,0.12243484705686569,0.048973940312862396,0.0
0.4664383828639984,0.151572123169899,9.490137100219727,0.1298874020576477,0.004258603323251009,-0.0010646508308127522
0.5067663192749023,0.2026069164276123,9.373021125793457,0.03300417587161064,-0.03726277872920036,-0.0021293016616255045
0.5640069246292114,0.18016847968101501,9.355591773986816,-0.05429719388484955,0.0010646508308127522,-0.0010646508308127522
0.49019843339920044,0.11715307831764221,9.543451309204102,-0.10433578491210938,0.009581857360899448,0.0
0.49820464849472046,0.038824375718832016,9.623120307922363,-0.05536184459924698,-0.012775810435414314,-0.0021293016616255045
0.49997633695602417,0.054396264255046844,9.644217491149902,0.01171115878969431,-0.009581857360899448,0.0010646508308127522
0.5137765407562256,0.09121908247470856,9.535013198852539,0.08730136603116989,0.015969762578606606,-0.0010646508308127522
0.4754118323326111,0.13531069457530975,9.478816986083984,0.08091346174478531,0.008517206646502018,-0.0010646508308127522
0.49092626571655273,0.15161043405532837,9.41813850402832,0.0351334773004055,-0.0074525559321045876,-0.0010646508308127522
0.5278640389442444,0.1303211748600006,9.424220085144043,-0.044715333729982376,-0.004258603323251009,-0.0010646508308127522
0.5373354554176331,0.15287457406520844,9.501294136047363,-0.06813765317201614,0.008517206646502018,0.0
0.520987868309021,0.1140884980559349,9.52219009399414,-0.06813765317201614,0.006387905217707157,-0.0010646508308127522
0.5063065886497498,0.06911581754684448,9.5857515335083,-0.043650683015584946,0.0,-0.0010646508308127522
0.48763182759284973,0.0652850940823555,9.594198226928711,-0.006387905217707157,-0.0031939526088535786,0.0
0.5262168049812317,0.06749733537435532,9.579124450683594,0.019163714721798897,-0.004258603323251009,-0.0010646508308127522
0.5069961547851562,0.10834241658449173,9.54765510559082,0.044715333729982376,0.004258603323251009,0.0
0.5746945738792419,-0.15410996973514557,10.157515525817871,0.15330971777439117,-0.05110324174165726,-0.02768092229962349
0.6204047203063965,0.42324697971343994,9.095026016235352,0.27467992901802063,0.1362753063440323,-0.040456730872392654
0.5240428447723389,0.4745020568370819,8.929730415344238,0.12456414848566055,0.20973621308803558,-0.02555162087082863
0.31570902466773987,0.44245803356170654,9.017712593078613,-0.20441296696662903,0.1192408949136734,-0.017034413293004036
0.3102119266986847,0.3035847842693329,9.322437286376953,-0.42586034536361694,-0.08943066745996475,-0.008517206646502018
0.47609180212020874,0.05606262758374214,9.529717445373535,-0.46525242924690247,-0.1714087873697281,-0.0031939526088535786
0.5603868365287781,0.16547764837741852,9.75179386138916,-0.3854036033153534,-0.10752973705530167,0.005323254037648439
0.6900759935379028,-0.3779391050338745,9.851508140563965,-0.17353808879852295,0.05855579674243927,0.0031939526088535786
0.4704606235027313,0.18785864114761353,9.408552169799805,0.38753291964530945,-0.10007718205451965,0.0010646508308127522
0.5699540972709656,0.3942771255970001,9.275922775268555,0.24274039268493652,-0.014905111864209175,-0.004258603323251009
0.537565290927887,0.30366137623786926,9.128880500793457,0.02874557301402092,0.07452555745840073,-0.006387905217707157
0.428763210773468,0.3372376561164856,9.149949073791504,-0.1788613349199295,0.05323254317045212,-0.004258603323251009
0.48355212807655334,0.12422076612710953,9.443248748779297,-0.2981022298336029,-0.045779984444379807,-0.0010646508308127522
0.5514229536056519,0.05931873992085457,9.636125564575195,-0.2629687488079071,-0.06600835174322128,0.0010646508308127522
0.5609518885612488,-0.06979577243328094,9.751391410827637,-0.13521066308021545,0.004258603323251009,0.0
0.583878755569458,-0.12283211946487427,9.797916412353516,-0.04684463515877724,0.03406882658600807,-0.0010646508308127522
0.4958583414554596,-0.09542330354452133,9.74592399597168,0.10433578491210938,0.05323254317045212,0.0
0.4400734305381775,0.04956955462694168,9.645155906677246,0.2203827202320099,0.004258603323251009,0.0010646508308127522
0.4733049273490906,0.1666843295097351,9.47325325012207,0.2352878302335739,-0.039392080157995224,0.0010646508308127522
0.5146001577377319,0.2657659649848938,9.240345001220703,0.06494370102882385,0.006387905217707157,-0.0010646508308127522
0.5102043747901917,0.25563371181488037,9.308024406433105,-0.08304276317358017,0.02874557301402092,-0.0021293016616255045
0.47029781341552734,0.1854165494441986,9.417266845703125,-0.17673203349113464,0.008517206646502018,0.0031939526088535786
0.4712076187133789,0.07835742831230164,9.590118408203125,-0.18631389737129211,-0.024486970156431198,-0.0021293016616255045
0.5142074823379517,0.04137180745601654,9.659991264343262,-0.15650367736816406,-0.02768092229962349,0.0
0.5303156971931458,-0.01668279804289341,9.71533489227295,-0.05536184459924698,-0.0010646508308127522,-0.0021293016616255045
0.5492298603057861,-0.03249410539865494,9.683904647827148,0.06068509817123413,0.019163714721798897,-0.0021293016616255045
0.4836862087249756,0.04390966147184372,9.578587532043457,0.13414600491523743,0.010646508075296879,0.0010646508308127522
0.4783327579498291,0.12618400156497955,9.488078117370605,0.14159856736660004,-0.0074525559321045876,-0.0010646508308127522
0.48415544629096985,0.18096335232257843,9.395795822143555,0.08197811245918274,-0.008517206646502018,-0.004258603323251009
0.5424399375915527,0.022045807912945747,9.659358024597168,0.07452555745840073,0.15969762206077576,-0.0031939526088535786
0.19616173207759857,0.28882691264152527,9.365830421447754,0.045779984444379807,0.02981022372841835,-0.0021293016616255045
0.23738989233970642,0.2086307406425476,9.314153671264648,-0.03087487444281578,-0.1362753063440323,-0.0021293016616255045
0.5480040311813354,0.1835395097732544,9.37060832977295,-0.14479251205921173,-0.23422318696975708,0.005323254037648439
0.5686324834823608,0.021212628111243248,9.665095329284668,-0.1543743759393692,0.1820552945137024,-0.0031939526088535786
0.4591408371925354,-0.0005075707449577749,9.706448554992676,-0.09901253134012222,0.16715018451213837,-0.0010646508308127522
0.36098816990852356,-0.04383304715156555,9.73784065246582,0.014905111864209175,-0.01171115878969431,0.0
0.38644328713417053,0.00839885976165533,9.720094680786133,0.07133160531520844,-0.09901253134012222,0.0021293016616255045
0.570011556148529,0.03180457651615143,9.541937828063965,0.1469218134880066,-0.12030554562807083,-0.0010646508308127522
0.5994219183921814,0.13172897696495056,9.419899940490723,0.1437278687953949,0.02768092229962349,-0.0031939526088535786
0.5712853074073792,0.1661001443862915,9.383393287658691,0.1192408949136734,0.08730136603116989,-0.0031939526088535786
0.43251731991767883,0.22474850714206696,9.368607521057129,0.03619812801480293,0.08304276317358017,-0.0010646508308127522
0.4104044735431671,0.19361430406570435,9.38515567779541,-0.05642649531364441,-0.03087487444281578,0.0010646508308127522
0.534625232219696,0.1269884556531906,9.449387550354004,-0.11498229205608368,-0.08304276317358017,-0.0010646508308127522
0.5987802743911743,0.09363243728876114,9.532283782958984,-0.11604694277048111,-0.0031939526088535786,-0.0010646508308127522
0.5568625926971436,0.04056735336780548,9.575676918029785,-0.09368927031755447,0.038327429443597794,-0.0010646508308127522
0.45921745896339417,0.011827356182038784,9.653871536254883,-0.02661627158522606,0.06174974888563156,-0.0021293016616255045
0.44008299708366394,0.035300109535455704,9.646238327026367,0.048973940312862396,-0.0031939526088535786,0.0010646508308127522
0.5043721199035645,0.10192595422267914,9.568819046020508,0.09262461960315704,-0.05003859102725983,0.0010646508308127522
0.5568817257881165,0.10678139328956604,9.440633773803711,0.08623671531677246,-0.020228365436196327,-0.0021293016616255045
0.54070645570755,0.15170618891716003,9.407268524169922,0.043650683015584946,0.03193952515721321,0.0010646508308127522
0.5031271576881409,0.15058571100234985,9.434006690979004,0.009581857360899448,0.039392080157995224,-0.0010646508308127522
0.4806503653526306,0.16986382007598877,9.455564498901367,-0.042586032301187515,0.010646508075296879,0.0
0.48602294921875,0.11763191968202591,9.476078033447266,-0.07239625602960587,-0.02981022372841835,-0.0021293016616255045
0.5618520975112915,0.030502131208777428,9.52383804321289,-0.039392080157995224,0.018099064007401466,0.0010646508308127522
0.5039699077606201,-0.08774270862340927,9.894392967224121,0.14479251205921173,0.16182692348957062,0.0074525559321045876
0.3056246340274811,0.1223820149898529,9.522334098815918,0.21505947411060333,0.03193952515721321,0.0021293016616255045
0.3819422125816345,0.3738114833831787,9.229446411132812,0.07984881103038788,-0.20867156982421875,-0.012775810435414314
0.6474400162696838,0.2310500293970108,9.201022148132324,-0.10220648348331451,-0.13414600491523743,-0.0031939526088535786
0.6732590794563293,0.1694520264863968,9.359442710876465,-0.20867156982421875,0.08730136603116989,0.005323254037648439
0.4744541645050049,0.11566866934299469,9.594801902770996,-0.2246413230895996,0.16182692348957062,0.0021293016616255045
0.5699253678321838,-0.06296750903129578,9.67868423461914,0.06920230388641357,-0.11178833991289139,-0.0021293016616255045
0.5919328331947327,0.028471847996115685,9.670477867126465,0.1192408949136734,-0.05642649531364441,-0.0010646508308127522
0.5781422853469849,0.10262506455183029,9.5092134475708,0.17673203349113464,0.07665485888719559,0.0
0.4437221884727478,0.1666843295097351,9.422456741333008,0.14585717022418976,0.07771950960159302,-0.0010646508308127522
0.4498226046562195,0.19687998294830322,9.343621253967285,0.05110324174165726,-0.02661627158522606,-0.0031939526088535786
0.5041614174842834,0.19827821850776672,9.335490226745605,-0.05855579674243927,-0.070266954600811,0.0010646508308127522
0.5283141732215881,0.19053058326244354,9.374573707580566,-0.10114183276891708,-0.048973940312862396,0.0010646508308127522
0.5660659074783325,0.18083883821964264,9.437828063964844,-0.1330813616514206,0.0,0.0
0.5264466404914856,0.09728120267391205,9.543852806091309,-0.140533909201622,0.05110324174165726,0.0010646508308127522
0.4353424608707428,0.07152916491031647,9.677066802978516,-0.07771950960159302,0.02555162087082863,0.0
0.4559134542942047,0.05932832136750221,9.664271354675293,-0.02874557301402092,-0.004258603323251009,0.0010646508308127522
0.5165250897407532,0.0031220391392707825,9.633721351623535,0.05536184459924698,-0.040456730872392654,0.0010646508308127522
0.5675886273384094,0.04187937453389168,9.534036636352539,0.10114183276891708,-0.015969762578606606,0.0010646508308127522
0.5104533433914185,0.16169480979442596,9.447222709655762,0.07559020817279816,0.03406882658600807,-0.0010646508308127522
0.48319777846336365,0.14078862965106964,9.43586540222168,-0.040456730872392654,-0.019163714721798897,-0.0021293016616255045
0.6791201233863831,0.10410946607589722,9.561809539794922,-0.03619812801480293,0.09368927031755447,-0.006387905217707157
0.5243014693260193,-0.03834553435444832,9.909026145935059,0.17247343063354492,0.3268478214740753,-0.041521381586790085
0.5513176321983337,0.30999165773391724,9.275951385498047,-0.05536184459924698,-0.44395941495895386,-0.017034413293004036
0.8631384372711182,0.3203250467777252,9.15674877166748,-0.25019294023513794,-0.12562879920005798,-0.005323254037648439
0.4936556816101074,0.059395354241132736,9.616397857666016,-0.2874557375907898,0.3609166443347931,0.004258603323251009
0.19421763718128204,-0.047357309609651566,9.850339889526367,-0.14905111491680145,0.09688322991132736,0.0021293016616255045
0.3146747052669525,-0.2063993364572525,9.835418701171875,-0.0021293016616255045,-0.20228366553783417,0.0021293016616255045
0.5114110708236694,-0.06215347722172737,9.803183555603027,0.08304276317358017,-0.24699899554252625,0.0010646508308127522
0.7171879410743713,6.703764665871859e-05,9.607586860656738,0.21931807696819305,-0.0596204474568367,-0.0021293016616255045
0.5700402855873108,0.21876299381256104,9.436267852783203,0.24380503594875336,0.18099063634872437,-0.0031939526088535786
0.4815601408481598,0.1665598303079605,9.3982572555542,0.2139948159456253,0.20228366553783417,-0.005323254037648439
0.3003382384777069,0.27605146169662476,9.290067672729492,0.08623671531677246,0.03300417587161064,-0.0010646508308127522
0.39861541986465454,0.23906582593917847,9.282358169555664,-0.06387905031442642,-0.13201670348644257,-0.0010646508308127522
0.6563464403152466,0.198335662484169,9.324543952941895,-0.1511804163455963,-0.014905111864209175,0.0021293016616255045
0.07153874635696411,0.11934617161750793,9.705231666564941,0.08517206460237503,0.045779984444379807,-0.045779984444379807
0.1688486784696579,0.31826603412628174,9.393362998962402,0.05536184459924698,-0.3747570812702179,-0.03726277872920036
0.6433220505714417,0.11511322110891342,9.264066696166992,-0.05536184459924698,-0.3651752471923828,-0.008517206646502018
0.8636459708213806,0.26012521982192993,9.277417182922363,-0.09688322991132736,-0.11817624419927597,-0.0031939526088535786
0.9415150284767151,0.14190912246704102,9.385021209716797,-0.12137019634246826,0.10114183276891708,0.0021293016616255045
0.4455130696296692,0.13110649585723877,9.533021926879883,-0.13840460777282715,0.3885975480079651,0.005323254037648439
0.3608732223510742,0.04760630801320076,9.659493446350098,-0.11711159348487854,0.28639107942581177,0.0031939526088535786
0.13773363828659058,0.03781880810856819,9.737601280212402,-0.08517206460237503,0.09581857919692993,0.0010646508308127522
0.33081164956092834,0.025819070637226105,9.747244834899902,0.0021293016616255045,-0.25445154309272766,-0.0010646508308127522
0.6795797944068909,0.0744117870926857,9.547013282775879,0.0734609067440033,-0.20441296696662903,-0.005323254037648439
0.7424036264419556,0.07990887761116028,9.470417976379395,0.10433578491210938,0.09262461960315704,-0.0031939526088535786
0.5709788203239441,0.14241668581962585,9.44489574432373,0.09688322991132736,0.19908970594406128,0.0
0.3458280563354492,0.1380113661289215,9.464489936828613,0.05855579674243927,0.14798647165298462,-0.0010646508308127522
0.28507280349731445,0.1815187931060791,9.452767372131348,0.021293016150593758,0.015969762578606606,-0.0021293016616255045
0.4161314070224762,0.16891571879386902,9.464805603027344,-0.0351334773004055,-0.16289158165454865,0.0010646508308127522
0.8639620542526245,0.01967076025903225,9.710221290588379,0.004258603323251009,0.11391764134168625,0.01171115878969431
0.724494993686676,0.12706507742404938,9.160465240478516,-0.17673203349113464,-0.40776127576828003,-0.004258603323251009
1.0632075071334839,0.12864524126052856,9.404088973999023,-0.24806363880634308,0.11391764134168625,-0.0021293016616255045
0.4174625873565674,0.13262920081615448,9.654109954833984,-0.21931807696819305,0.4418300986289978,0.0021293016616255045
0.08711063116788864,-0.050536807626485825,9.842123031616211,-0.07771950960159302,0.08836601674556732,0.0031939526088535786
0.3329664170742035,-0.13587573170661926,9.75850772857666,0.044715333729982376,-0.2672273516654968,0.0021293016616255045
0.5019875168800354,0.04737646505236626,9.786355972290039,0.10965903848409653,-0.3364296555519104,0.0
0.8021054863929749,-0.029486987739801407,9.507930755615234,0.19163715839385986,-0.08197811245918274,-0.0031939526088535786
0.6249920129776001,0.19461029767990112,9.348763465881348,0.18099063634872437,0.2139948159456253,-0.0031939526088535786
0.3768090605735779,0.25606465339660645,9.419143676757812,0.08517206460237503,0.1852492392063141,-0.0021293016616255045
0.2608434855937958,0.2688688635826111,9.373491287231445,0.02981022372841835,0.0596204474568367,-0.006387905217707157
0.3763780891895294,0.19782809913158417,9.378203392028809,-0.08517206460237503,-0.17247343063354492,-0.0010646508308127522
1.0331171751022339,-0.00287304213270545,9.727105140686035,-0.070266954600811,0.09581857919692993,-0.012775810435414314
0.8175432682037354,-0.17711345851421356,9.928496360778809,0.0,0.2725506126880646,-0.038327429443597794
0.0643274113535881,0.204043447971344,9.510334014892578,0.0596204474568367,0.10327113419771194,-0.04684463515877724
0.21293072402477264,0.28053340315818787,9.46306324005127,-0.010646508075296879,-0.32152456045150757,-0.020228365436196327
0.637556791305542,0.134736105799675,9.396428108215332,-0.07452555745840073,-0.3044901490211487,0.0021293016616255045
0.8815163373947144,0.14009910821914673,9.480636596679688,-0.0947539210319519,-0.1054004356265068,0.006387905217707157
0.6574573516845703,0.02364513650536537,9.503783226013184,-0.10114183276891708,0.24486969411373138,0.0031939526088535786
0.3613137900829315,0.0222756527364254,9.646526336669922,-0.06707300245761871,0.2246413230895996,-0.0031939526088535786
0.253842830657959,0.06412629783153534,9.6835298538208,-0.010646508075296879,-0.09368927031755447,-0.0021293016616255045
0.7152342796325684,0.0846015065908432,9.498353958129883,0.08197811245918274,-0.018099064007401466,-0.0010646508308127522
0.5596303343772888,0.12434525787830353,9.435903549194336,0.06600835174322128,0.17034412920475006,-0.0021293016616255045
0.39907509088516235,0.14108550548553467,9.490941047668457,0.018099064007401466,0.09581857919692993,-0.0010646508308127522
0.40370070934295654,0.15919527411460876,9.468521118164062,-0.02874557301402092,-0.08623671531677246,0.0
0.4675396978855133,0.17140568792819977,9.475944519042969,-0.047909289598464966,-0.13946926593780518,0.0010646508308127522
0.6209123134613037,0.1434893012046814,9.489753723144531,-0.06174974888563156,-0.05429719388484955,-0.0010646508308127522
0.4954177737236023,0.08067502081394196,9.555288314819336,-0.038327429443597794,0.10220648348331451,0.0021293016616255045
0.4107779860496521,0.029103916138410568,9.644160270690918,-0.0010646508308127522,0.03193952515721321,0.0
0.5997858047485352,0.16658854484558105,9.526078224182129,0.047909289598464966,-0.012775810435414314,-0.0010646508308127522
0.6018544435501099,0.16012421250343323,9.54285717010498,0.040456730872392654,0.03300417587161064,0.0021293016616255045
0.527480959892273,0.17221970856189728,9.459596633911133,0.012775810435414314,0.0596204474568367,0.0
0.4756416976451874,0.12024638056755066,9.488068580627441,-0.019163714721798897,-0.0010646508308127522,-0.0031939526088535786
0.5416929125785828,0.08828858286142349,9.481708526611328,-0.048973940312862396,-0.0351334773004055,-0.0010646508308127522
0.5040656328201294,0.09972328692674637,9.557404518127441,-0.03726277872920036,0.013840461149811745,-0.0021293016616255045
0.4737646281719208,0.08581776171922684,9.599828720092773,-0.009581857360899448,0.03726277872920036,0.0
0.4627704322338104,0.10481815040111542,9.59937858581543,0.019163714721798897,0.004258603323251009,-0.0021293016616255045
0.48065993189811707,0.09090305119752884,9.533510208129883,0.03193952515721321,-0.03087487444281578,0.0
0.5349317193031311,0.12378980219364166,9.488929748535156,0.02768092229962349,-0.014905111864209175,-0.0021293016616255045
0.5096489191055298,0.13727393746376038,9.511693954467773,0.008517206646502018,0.018099064007401466,-0.0010646508308127522
0.5074941515922546,0.1258583962917328,9.522314071655273,0.0031939526088535786,0.024486970156431198,0.0010646508308127522
0.507781445980072,0.15381309390068054,9.504559516906738,-0.017034413293004036,0.009581857360899448,0.0
0.5141308307647705,0.11561121046543121,9.555182456970215,-0.024486970156431198,-0.015969762578606606,0.0031939526088535786
0.5123112797737122,0.09134358167648315,9.530617713928223,-0.02555162087082863,-0.012775810435414314,0.0010646508308127522
0.5114589333534241,0.11550586670637131,9.536450386047363,-0.012775810435414314,0.009581857360899448,-0.004258603323251009
0.4711693227291107,0.08684248477220535,9.577696800231934,0.005323254037648439,0.018099064007401466,-0.0010646508308127522
0.17277517914772034,0.0924161821603775,9.81246280670166,0.05749114602804184,-0.17673203349113464,-0.01171115878969431
0.3171742558479309,0.07860642671585083,9.856008529663086,0.2778738737106323,-0.5898165702819824,0.006387905217707157
0.750036358833313,0.3042359948158264,9.601677894592285,0.35985198616981506,-0.3832743167877197,0.05429719388484955
1.1247671842575073,0.17317739129066467,9.095285415649414,0.29916688799858093,0.2491282969713211,0.12562879920005798
0.6877105236053467,0.42103472352027893,8.933581352233887,0.05110324174165726,0.7708072066307068,0.14905111491680145
0.45196783542633057,0.5442595481872559,8.900856018066406,-0.13095206022262573,0.734609067440033,0.140533909201622
-0.1088787168264389,0.3484233617782593,9.301091194152832,-0.41840776801109314,0.10646508634090424,0.1054004356265068
-0.10752838850021362,0.27996838092803955,9.373702049255371,-0.48973938822746277,-0.23422318696975708,0.08623671531677246
1.0989577770233154,-0.008532934822142124,9.767950057983398,-0.456735223531723,-0.6622128486633301,0.070266954600811
0.19818243384361267,0.1092522144317627,9.767834663391113,0.3747570812702179,-0.19483110308647156,0.03406882658600807
0.5016810297966003,-0.008619125932455063,9.152487754821777,0.3502701222896576,-0.39179152250289917,0.012775810435414314
0.9434686899185181,0.47594815492630005,9.041261672973633,0.14585717022418976,-0.038327429443597794,-0.005323254037648439
0.2613223195075989,0.2344881147146225,9.348869323730469,-0.2831971347332001,0.22251202166080475,-0.008517206646502018
0.2645784318447113,0.09880391508340836,9.632763862609863,-0.3151366412639618,-0.140533909201622,-0.0010646508308127522
0.5419802069664001,0.01713290810585022,9.7682466506958,-0.21186551451683044,-0.24593433737754822,0.004258603323251009
0.7642291784286499,-0.16630125045776367,9.770133972167969,-0.042586032301187515,-0.0010646508308127522,0.0021293016616255045
0.5638249516487122,-0.06974788755178452,9.735896110534668,0.11711159348487854,0.1895078420639038,-0.0021293016616255045
0.3615723252296448,0.04148672893643379,9.703584671020508,0.2310292273759842,0.12349949777126312,0.0010646508308127522
0.3460770547389984,0.17377115786075592,9.499273300170898,0.24274039268493652,-0.09688322991132736,0.0
0.5500438809394836,0.22432711720466614,9.281007766723633,0.14479251205921173,-0.1362753063440323,-0.0031939526088535786
0.6277500987052917,0.27217283844947815,9.201175689697266,-0.008517206646502018,0.010646508075296879,-0.0010646508308127522
0.5313595533370972,0.22753535211086273,9.375081062316895,-0.15011577308177948,0.11391764134168625,0.0010646508308127522
0.4277384877204895,0.14085566997528076,9.521635055541992,-0.20121900737285614,0.045779984444379807,-0.0010646508308127522
0.4258231520652771,0.06318777054548264,9.692571640014648,-0.16395622491836548,-0.070266954600811,-0.0021293016616255045
0.5625416040420532,-0.061052143573760986,9.698441505432129,-0.0021293016616255045,-0.014905111864209175,-0.0010646508308127522
0.5332461595535278,0.031143775209784508,9.684210777282715,0.10327113419771194,0.06387905031442642,-0.0010646508308127522
0.4870285093784332,0.0811442881822586,9.637763023376465,0.14159856736660004,0.06920230388641357,-0.0010646508308127522
0.45085689425468445,0.1190684363245964,9.542703628540039,0.16076228022575378,0.006387905217707157,-0.0010646508308127522
0.44750502705574036,0.19235016405582428,9.392692565917969,0.10114183276891708,-0.05110324174165726,0.0010646508308127522
0.5239375233650208,0.19253212213516235,9.424957275390625,-0.08943066745996475,0.03087487444281578,-0.0010646508308127522
0.46865060925483704,0.13360603153705597,9.532475471496582,-0.13095206022262573,0.03087487444281578,-0.0010646508308127522
0.47394660115242004,0.08136454969644547,9.615267753601074,-0.10114183276891708,-0.012775810435414314,-0.0010646508308127522
0.4926884174346924,0.025052927434444427,9.650883674621582,-0.03726277872920036,-0.02874557301402092,0.0010646508308127522
0.5674737095832825,0.002087743952870369,9.573397636413574,0.0010646508308127522,-0.019163714721798897,-0.0021293016616255045
0.5340315103530884,0.046323012560606,9.637696266174316,0.06707300245761871,0.018099064007401466,0.0010646508308127522
0.5149736404418945,0.10323797911405563,9.525896072387695,0.09262461960315704,0.021293016150593758,-0.0021293016616255045
0.4207570254802704,-0.11424172669649124,10.272274017333984,0.27148595452308655,-0.10327113419771194,0.006387905217707157
0.4578671157360077,0.003964798059314489,9.846144676208496,0.37688639760017395,-0.16927948594093323,0.009581857360899448
0.7154927849769592,0.24862347543239594,9.24390697479248,0.3758217394351959,0.02981022372841835,0.03726277872920036
0.7053126692771912,0.4571680426597595,8.90513801574707,0.2384817898273468,0.13733996450901031,0.039392080157995224
0.5062779188156128,0.5552249550819397,8.886146545410156,-0.12456414848566055,0.19908970594406128,0.014905111864209175
0.3108727037906647,0.39113596081733704,9.156097412109375,-0.43224823474884033,0.02981022372841835,-0.008517206646502018
0.309694766998291,0.3322768807411194,9.374610900878906,-0.5142263770103455,-0.1054004356265068,-0.010646508075296879
0.5008766055107117,-0.05985504016280174,9.62675952911377,-0.5333900451660156,-0.18418459594249725,-0.009581857360899448
0.5784487128257751,0.15099751949310303,9.783454895019531,-0.38008034229278564,-0.09155996888875961,0.0010646508308127522
0.6801256537437439,-0.6418759226799011,9.838751792907715,-0.15650367736816406,0.06387905031442642,0.0031939526088535786
0.54145348072052,-0.12899000942707062,9.979559898376465,-0.042586032301187515,0.12562879920005798,0.005323254037648439
0.4285142123699188,-0.33593523502349854,9.852322578430176,0.23315852880477905,0.0947539210319519,0.004258603323251009
0.3661213517189026,0.00884896982461214,9.835590362548828,0.3609166443347931,-0.03193952515721321,0.005323254037648439
0.5180956125259399,0.5468451976776123,9.698604583740234,0.43224823474884033,-0.11285299062728882,0.005323254037648439
0.6161717772483826,0.13442964851856232,9.276363372802734,0.33855897188186646,-0.07771950960159302,-0.0021293016616255045
0.5895769596099854,0.31434911489486694,8.988101959228516,0.13095206022262573,0.05216789245605469,-0.006387905217707157
0.3601549565792084,0.32020053267478943,9.162226676940918,-0.2384817898273468,0.06920230388641357,0.0
0.4298645555973053,0.13134589791297913,9.500039100646973,-0.34175291657447815,-0.06174974888563156,0.0010646508308127522
0.4645804762840271,0.11438538134098053,9.603545188903809,-0.3321710526943207,-0.09368927031755447,0.0021293016616255045
0.5548227429389954,-0.03286759927868843,9.74722671508789,-0.20760691165924072,-0.040456730872392654,0.0031939526088535786
0.5533574819564819,-0.1842673271894455,9.83961296081543,-0.038327429443597794,0.05003859102725983,-0.0010646508308127522
0.4630577564239502,-0.10573752224445343,9.789278030395508,0.126693457365036,0.06281439960002899,-0.0010646508308127522
0.44162487983703613,0.018550273030996323,9.667881965637207,0.24486969411373138,-0.009581857360899448,0.0010646508308127522
0.4399489164352417,0.0987081453204155,9.587437629699707,0.26829200983047485,-0.040456730872392654,-0.0010646508308127522
0.5346826910972595,0.2091478854417801,9.340068817138672,0.21825341880321503,-0.04684463515877724,-0.0021293016616255045
0.5739380717277527,0.2910008430480957,9.235662460327148,0.15330971777439117,-0.022357666864991188,0.0
0.5320107340812683,0.28603050112724304,9.234886169433594,-0.02342231757938862,0.040456730872392654,-0.0010646508308127522
0.47680047154426575,0.24193887412548065,9.366605758666992,-0.16076228022575378,0.03619812801480293,0.0
0.4666490852832794,0.10615890473127365,9.48942756652832,-0.21825341880321503,-0.013840461149811745,0.0010646508308127522
0.49757257103919983,0.019019538536667824,9.664348602294922,-0.17247343063354492,-0.03300417587161064,0.0010646508308127522
0.4923149049282074,-0.05066130682826042,9.748231887817383,-0.06494370102882385,0.006387905217707157,-0.0021293016616255045
0.4808131754398346,-0.012028468772768974,9.714426040649414,0.05749114602804184,0.02768092229962349,0.0010646508308127522
0.5232192277908325,0.21122604608535767,9.390289306640625,-0.05003859102725983,0.019163714721798897,0.0
0.4949868321418762,0.20265480875968933,9.442635536193848,-0.12030554562807083,0.010646508075296879,0.0
0.4740806519985199,0.10703039914369583,9.552711486816406,-0.12882275879383087,-0.010646508075296879,0.0
0.9336333274841309,-0.030444670468568802,9.884078979492188,0.0021293016616255045,0.2384817898273468,-0.006387905217707157
0.42873451113700867,-0.054329223930835724,9.916438102722168,0.24699899554252625,0.4514119625091553,-0.0351334773004055
-0.18661366403102875,0.2562849223613739,9.515161514282227,0.3268478214740753,-0.09794788062572479,-0.047909289598464966
0.29641175270080566,0.49136680364608765,9.169466972351074,0.11391764134168625,-0.5365840196609497,-0.042586032301187515
0.667436420917511,0.2525308132171631,8.913593292236328,-0.1650208830833435,-0.42586034536361694,-0.02874557301402092
1.082485556602478,0.1926662027835846,9.203550338745117,-0.3438822329044342,0.15650367736816406,-0.014905111864209175
0.3624055087566376,0.1367568075656891,9.568675994873047,-0.3609166443347931,0.5216789245605469,-0.004258603323251009
0.0664726197719574,0.023827094584703445,9.970807075500488,-0.21612411737442017,0.1085943877696991,0.005323254037648439
0.15487611293792725,-0.3054426908493042,9.802627563476562,-0.06174974888563156,-0.25445154309272766,0.01171115878969431
0.6446148753166199,0.027993006631731987,9.79517650604248,0.13095206022262573,-0.32365384697914124,0.006387905217707157
0.9181763529777527,-0.10876379162073135,9.627266883850098,0.26829200983047485,0.02768092229962349,0.0010646508308127522
0.7169868350028992,0.12722787261009216,9.55703067779541,0.29597294330596924,0.1895078420639038,-0.0021293016616255045
0.5046019554138184,0.07764875143766403,9.372475624084473,0.2597748041152954,0.25125759840011597,-0.0031939526088535786
0.2594357132911682,0.4363192915916443,9.269256591796875,0.09901253134012222,-0.03726277872920036,-0.004258603323251009
0.2790202498435974,0.31342971324920654,9.189127922058105,0.009581857360899448,-0.14585717022418976,-0.0031939526088535786
0.5819538235664368,0.2612265646457672,9.240488052368164,-0.16289158165454865,-0.1788613349199295,0.0
0.6689878702163696,0.1944570690393448,9.325387001037598,-0.22144737839698792,-0.08304276317358017,0.004258603323251009
0.5947771668434143,0.1105450838804245,9.539715766906738,-0.24486969411373138,0.126693457365036,-0.0021293016616255045
0.4233044385910034,0.02891238033771515,9.792381286621094,-0.1575683206319809,0.13201670348644257,0.0
0.3668779134750366,-0.07740933448076248,9.78418254852295,-0.02874557301402092,-0.03726277872920036,0.0
0.4404085874557495,-0.08023449033498764,9.786423683166504,0.042586032301187515,-0.09901253134012222,0.0010646508308127522
0.5884756445884705,0.003275267779827118,9.644265174865723,0.1543743759393692,-0.10114183276891708,0.0
0.623296856880188,0.13258130848407745,9.497540473937988,0.1927018016576767,0.02874557301402092,-0.0021293016616255045
0.46740564703941345,0.22531354427337646,9.374937057495117,0.08730136603116989,0.06387905031442642,-0.0010646508308127522
0.4226340651512146,0.24059811234474182,9.323298454284668,-0.02555162087082863,-0.02661627158522606,0.0
0.4891258180141449,0.1693083643913269,9.382589340209961,-0.12243484705686569,-0.06068509817123413,-0.0021293016616255045
0.518909752368927,0.07509174197912216,9.504339218139648,-0.15863297879695892,-0.004258603323251009,-0.0021293016616255045
0.48772764205932617,0.05345773696899414,9.634679794311523,-0.12030554562807083,0.05003859102725983,0.0010646508308127522
0.4601655602455139,0.0191919207572937,9.693049430847168,-0.03300417587161064,0.022357666864991188,-0.0021293016616255045
0.48126327991485596,0.019258959218859673,9.649964332580566,0.06174974888563156,-0.03193952515721321,-0.0010646508308127522
0.5889736413955688,0.08682333678007126,9.49689769744873,0.12456414848566055,-0.019163714721798897,-0.0021293016616255045
0.5522369742393494,0.1697680503129959,9.432416915893555,0.08517206460237503,0.03087487444281578,0.0
0.5059522986412048,0.16864757239818573,9.412134170532227,0.05323254317045212,0.040456730872392654,-0.0031939526088535786
0.46652457118034363,0.19031988084316254,9.412650108337402,-0.019163714721798897,0.019163714721798897,0.0
0.45033976435661316,0.17585889995098114,9.477839469909668,-0.07559020817279816,-0.019163714721798897,-0.0010646508308127522
0.46265554428100586,0.17913417518138885,9.49645709991455,-0.08836601674556732,-0.02555162087082863,-0.0010646508308127522
0.4992963969707489,0.0811634361743927,9.529861450195312,-0.08304276317358017,-0.009581857360899448,-0.0021293016616255045
0.5155865550041199,0.0530746653676033,9.57565689086914,-0.044715333729982376,0.010646508075296879,-0.0010646508308127522
0.519905686378479,0.06025726720690727,9.609587669372559,-0.017034413293004036,0.012775810435414314,-0.0010646508308127522
0.4734102785587311,0.045317452400922775,9.603190422058105,0.03193952515721321,-0.0010646508308127522,-0.0010646508308127522
0.5596111416816711,0.07587704062461853,9.585559844970703,0.05536184459924698,-0.009581857360899448,0.0
0.5751447081565857,0.13491806387901306,9.53622055053711,0.06920230388641357,-0.01171115878969431,-0.0010646508308127522
0.5280459523200989,0.1757439821958542,9.434754371643066,0.01171115878969431,0.012775810435414314,-0.0021293016616255045
0.5091796517372131,0.15775874257087708,9.426336288452148,-0.010646508075296879,0.014905111864209175,0.0
0.08173804730176926,0.23401884734630585,9.471356391906738,-0.045779984444379807,-0.19696040451526642,-0.0021293016616255045
0.2914222478866577,-0.12374191731214523,10.052505493164062,-0.038327429443597794,-0.40882593393325806,-0.010646508075296879
0.5447383522987366,0.05493256449699402,9.513360023498535,-0.024486970156431198,-0.4727049767971039,0.0010646508308127522
1.2250076532363892,-0.00017238251166418195,9.371996879577637,0.03300417587161064,0.1852492392063141,0.013840461149811745
0.22553379833698273,0.34945768117904663,9.509012222290039,0.010646508075296879,0.6643421053886414,0.0074525559321045876
0.0611383356153965,0.06427952647209167,9.808507919311523,-0.012775810435414314,0.15863297879695892,-0.008517206646502018
0.06685569137334824,0.2796427607536316,9.406895637512207,-0.008517206646502018,-0.32365384697914124,-0.004258603323251009
0.5263029932975769,0.057001154869794846,9.34798812866211,-0.040456730872392654,-0.435442179441452,0.0
1.125437617301941,-0.027648240327835083,9.531431198120117,-0.038327429443597794,0.06068509817123413,0.0010646508308127522
0.36409103870391846,0.2745574712753296,9.532600402832031,-0.02555162087082863,0.4343775510787964,0.0
0.10587159544229507,0.05343858152627945,9.675265312194824,0.009581857360899448,0.1650208830833435,-0.0010646508308127522
0.27388709783554077,0.048755522817373276,9.58418083190918,0.038327429443597794,-0.25125759840011597,0.0
0.5996900796890259,0.13088621199131012,9.402795791625977,0.0351334773004055,-0.2629687488079071,0.0010646508308127522
0.6256049275398254,0.1331559121608734,9.395307540893555,-0.005323254037648439,0.20228366553783417,-0.0021293016616255045
0.3504536747932434,0.13610558211803436,9.560689926147461,-0.02342231757938862,0.1927018016576767,0.0
0.3145885169506073,0.1613500416278839,9.627104759216309,-0.018099064007401466,-0.09049531817436218,0.0
0.5379101037979126,0.1271321177482605,9.520380020141602,-0.0074525559321045876,-0.18737854063510895,0.0010646508308127522
0.6777601838111877,0.08576031029224396,9.4675931930542,-0.005323254037648439,-0.008517206646502018,-0.0010646508308127522
0.558988630771637,0.10148542374372482,9.492559432983398,-0.0021293016616255045,0.1511804163455963,0.0010646508308127522
0.3588525354862213,0.06566816568374634,9.56423282623291,0.0,0.07665485888719559,0.0010646508308127522
0.3424091637134552,0.1348605901002884,9.563188552856445,0.0031939526088535786,-0.010646508075296879,-0.0010646508308127522
0.469024121761322,0.19126799702644348,9.55311393737793,0.014905111864209175,-0.11498229205608368,-0.0010646508308127522
0.5972384214401245,0.08921752870082855,9.494426727294922,0.018099064007401466,-0.045779984444379807,-0.0021293016616255045
0.5618425011634827,0.09265560656785965,9.545193672180176,-0.0021293016616255045,0.07452555745840073,-0.0021293016616255045
0.41824790835380554,0.1558912694454193,9.710633277893066,-0.02342231757938862,0.03406882658600807,-0.0021293016616255045
0.48009490966796875,0.12311942875385284,9.098799705505371,-0.004258603323251009,-0.006387905217707157,0.0021293016616255045
0.5273372530937195,-0.05176264047622681,9.677793502807617,-0.0021293016616255045,-0.04684463515877724,-0.0021293016616255045
0.4892503321170807,0.11689449846744537,9.562996864318848,-0.006387905217707157,-0.012775810435414314,-0.004258603323251009
0.5476688146591187,0.1436329483985901,9.56538200378418,-0.0021293016616255045,0.02555162087082863,-0.0031939526088535786
0.4712076187133789,0.06312073767185211,9.613801956176758,0.0074525559321045876,0.05642649531364441,0.0021293016616255045
0.4545631408691406,0.024353818967938423,9.40778636932373,0.0,-0.009581857360899448,-0.0021293016616255045
0.4786679744720459,0.058945246040821075,9.546074867248535,-0.006387905217707157,-0.03193952515721321,-0.0010646508308127522
0.4977066218852997,0.11716265231370926,9.498295783996582,-0.0021293016616255045,-0.02342231757938862,0.0
0.541022539138794,0.14792335033416748,9.498526573181152,0.004258603323251009,0.017034413293004036,0.0010646508308127522
0.5314265489578247,0.1396968811750412,9.506024360656738,0.0074525559321045876,0.008517206646502018,-0.0021293016616255045
0.5523327589035034,0.038115691393613815,9.466797828674316,-0.022357666864991188,-0.004258603323251009,0.0
0.5157493352890015,0.13916058838367462,9.499464988708496,-0.019163714721798897,0.02874557301402092,0.0010646508308127522
0.5244259834289551,0.09416873753070831,9.526662826538086,-0.005323254037648439,0.0074525559321045876,0.0
0.5455906987190247,0.1206103041768074,9.478117942810059,-0.015969762578606606,0.004258603323251009,-0.0021293016616255045
0.5363490581512451,0.12636595964431763,9.482551574707031,-0.014905111864209175,-0.004258603323251009,0.0021293016616255045
0.5513367652893066,0.12531252205371857,9.584832191467285,-0.004258603323251009,-0.0031939526088535786,0.0010646508308127522
0.5367799997329712,0.12682566046714783,9.487541198730469,0.0021293016616255045,-0.0021293016616255045,-0.0010646508308127522
0.5651177763938904,0.085310198366642,9.543163299560547,0.0074525559321045876,0.006387905217707157,-0.0021293016616255045
0.39923790097236633,0.2055661678314209,9.36439323425293,0.6004630923271179,-0.06707300245761871,-0.042586032301187515
0.4766664206981659,0.748322069644928,8.645012855529785,0.3609166443347931,0.1756673902273178,0.07452555745840073
0.36106476187705994,0.6931692361831665,8.533422470092773,-0.21293017268180847,-0.02874557301402092,0.03619812801480293
0.5049659013748169,0.6197822093963623,8.926254272460938,-0.6568895578384399,-0.17673203349113464,0.006387905217707157
0.7457842230796814,-0.27973851561546326,9.555258750915527,-0.8282983303070068,-0.10114183276891708,-0.005323254037648439
0.7058968544006348,-0.8306347727775574,10.1288423538208,-0.4492826461791992,0.10433578491210938,0.0
0.2637069523334503,-0.09052955359220505,10.278116226196289,-0.09368927031755447,0.15969762206077576,0.008517206646502018
0.5738326907157898,-0.29758012294769287,10.399789810180664,0.17247343063354492,0.07665485888719559,0.012775810435414314
0.20842961966991425,-0.35525164008140564,9.853174209594727,0.46525242924690247,-0.03193952515721321,0.014905111864209175
0.43160754442214966,0.229718878865242,9.731337547302246,0.6217560768127441,-0.18737854063510895,0.009581857360899448
0.6055989265441895,0.5746275782585144,9.294549942016602,0.6664714217185974,-0.11072368919849396,0.0074525559321045876
0.6497958898544312,0.24264755845069885,9.074177742004395,0.3822096586227417,0.06174974888563156,-0.004258603323251009
0.4735443592071533,0.6287748217582703,8.712442398071289,0.048973940312862396,0.14479251205921173,-0.01171115878969431
0.41368934512138367,0.368745356798172,8.998396873474121,-0.14585717022418976,0.10114183276891708,-0.012775810435414314
0.3488064706325531,0.5303061008453369,9.084653854370117,-0.4269249737262726,-0.043650683015584946,-0.008517206646502018
0.6090849041938782,-0.07693048566579819,9.625829696655273,-0.5195496082305908,-0.15969762206077576,-0.0021293016616255045
0.49259263277053833,0.23314735293388367,9.680418014526367,-0.45779985189437866,-0.10646508634090424,0.0021293016616255045
0.696329653263092,-0.2939983904361725,9.897783279418945,-0.24806363880634308,0.021293016150593758,0.0021293016616255045
0.48361918330192566,-0.1795363873243332,9.924732208251953,-0.05749114602804184,0.11391764134168625,0.004258603323251009
0.37555447220802307,-0.3049446642398834,9.802857398986816,0.203348308801651,0.06387905031442642,0.005323254037648439
0.34123119711875916,-0.009193734265863895,9.793290138244629,0.3470761775970459,-0.041521381586790085,0.004258603323251009
0.45411303639411926,0.012746729888021946,9.324477195739746,0.42586034536361694,-0.09155996888875961,0.0031939526088535786
0.582260251045227,0.4890396296977997,9.167896270751953,0.26190412044525146,-0.012775810435414314,-0.004258603323251009
0.549670398235321,0.2955019474029541,9.081561088562012,0.009581857360899448,0.0734609067440033,-0.006387905217707157
0.49726611375808716,0.3542460799217224,9.072233200073242,-0.12243484705686569,0.06281439960002899,-0.005323254037648439
0.474980890750885,0.20881269872188568,9.329859733581543,-0.3087487518787384,-0.013840461149811745,-0.0010646508308127522
0.5365023016929626,0.12163502722978592,9.535185813903809,-0.34920546412467957,-0.070266954600811,0.0031939526088535786
0.4312627613544464,-0.08519527316093445,9.825697898864746,0.13733996450901031,0.05110324174165726,0.0
0.26446354389190674,0.010457873344421387,9.954036712646484,0.3183306157588959,-0.17460273206233978,-0.012775810435414314
0.44114601612091064,0.014058751985430717,9.667719841003418,0.5536184310913086,-0.3864682614803314,0.0021293016616255045
1.076816201210022,0.33921051025390625,8.901832580566406,0.4343775510787964,0.08730136603116989,0.047909289598464966
0.6272712349891663,0.7667478919029236,8.711503982543945,0.041521381586790085,0.49932125210762024,0.045779984444379807
0.1615128517150879,0.4458673894405365,9.056574821472168,-0.3790156841278076,0.2203827202320099,0.017034413293004036
0.2241355925798416,0.4086710810661316,9.367409706115723,-0.5908812284469604,-0.2001543641090393,-0.0021293016616255045
0.6538947820663452,0.15600618720054626,9.812444686889648,-0.4450240433216095,-0.19376645982265472,-0.0021293016616255045
0.8548353314399719,-0.7298580408096313,9.889910697937012,-0.19696040451526642,0.11391764134168625,-0.0010646508308127522
0.1137533113360405,-0.41537484526634216,9.829778671264648,0.3534640669822693,0.12456414848566055,0.01171115878969431
0.4677216708660126,0.43703755736351013,9.8187837600708,0.483351469039917,-0.19376645982265472,0.015969762578606606
0.6440115571022034,0.013819332234561443,9.156366348266602,0.40456733107566833,-0.22570598125457764,0.004258603323251009
0.7166420221328735,0.4720025062561035,8.873705863952637,0.16182692348957062,0.03193952515721321,-0.0074525559321045876
0.6891374588012695,0.4090637266635895,8.990763664245605,0.008517206646502018,0.15863297879695892,-0.006387905217707157
0.34270602464675903,0.36935827136039734,9.118977546691895,-0.2672273516654968,0.18844319880008698,-0.0074525559321045876
0.3170306086540222,0.16460615396499634,9.507709503173828,-0.38433894515037537,-0.03406882658600807,-0.0021293016616255045
0.4231703579425812,0.08363425731658936,9.621559143066406,-0.3822096586227417,-0.15969762206077576,-0.0021293016616255045
0.609094500541687,0.010429142974317074,9.76974105834961,-0.2491282969713211,-0.1362753063440323,0.004258603323251009
0.6790817975997925,-0.2762908637523651,9.804840087890625,-0.06920230388641357,0.03726277872920036,-0.0021293016616255045
0.36300885677337646,-0.0931248739361763,9.80832576751709,0.20121900737285614,0.1330813616514206,0.0
0.34649842977523804,-0.08308837562799454,9.677736282348633,0.26509806513786316,0.07452555745840073,0.0031939526088535786
0.37658876180648804,0.22239260375499725,9.5235595703125,0.3130073547363281,-0.08943066745996475,0.0031939526088535786
0.5080400109291077,0.26106375455856323,9.278029441833496,0.20441296696662903,-0.08836601674556732,-0.0031939526088535786
0.5598409175872803,0.3221733570098877,9.097640991210938,0.03726277872920036,0.024486970156431198,-0.004258603323251009
0.49213293194770813,0.25398650765419006,9.278776168823242,-0.14585717022418976,0.08091346174478531,-0.0010646508308127522
0.4529350996017456,0.13330914080142975,9.409289360046387,-0.252322256565094,0.0021293016616255045,0.0031939526088535786
0.5217157006263733,0.05587109178304672,9.651898384094238,-0.2278352826833725,-0.06920230388641357,0.0010646508308127522
0.5751351118087769,-0.041362229734659195,9.732295989990234,-0.11285299062728882,-0.03406882658600807,-0.0010646508308127522
0.5892992615699768,-0.06692273169755936,9.764052391052246,0.02981022372841835,0.045779984444379807,0.0021293016616255045
0.4699530601501465,0.013168108649551868,9.6721830368042,0.1511804163455963,0.06281439960002899,0.0
0.4172997772693634,0.05713523179292679,9.62289047241211,0.19163715839385986,0.03726277872920036,0.0010646508308127522
0.4250665605068207,0.13766659796237946,9.424650192260742,0.1927018016576767,-0.03406882658600807,-0.0010646508308127522
0.45957180857658386,0.16754622757434845,9.361473083496094,0.15863297879695892,-0.047909289598464966,-0.0021293016616255045
0.5233820676803589,0.24023419618606567,9.295641899108887,0.03726277872920036,-0.014905111864209175,-0.0031939526088535786
0.4908975660800934,0.2133616805076599,9.318988800048828,-0.08197811245918274,0.02661627158522606,-0.0010646508308127522
0.47256752848625183,0.15923357009887695,9.461234092712402,-0.15224507451057434,0.021293016150593758,-0.0010646508308127522
0.47211742401123047,0.11003751307725906,9.507040023803711,-0.16182692348957062,-0.0021293016616255045,0.0
0.5308424234390259,0.04863102361559868,9.649417877197266,-0.1192408949136734,-0.02874557301402092,0.0
0.5349221229553223,0.02873999811708927,9.663141250610352,0.014905111864209175,0.004258603323251009,-0.0010646508308127522
0.5049850344657898,0.04018428176641464,9.616349220275879,0.09049531817436218,0.022357666864991188,-0.0010646508308127522
0.4004445970058441,0.09842084348201752,9.494532585144043,0.10965903848409653,0.048973940312862396,0.03619812801480293
0.43495941162109375,0.11341812461614609,9.426508903503418,0.08730136603116989,0.07452555745840073,0.0596204474568367
0.31551748514175415,0.18587623536586761,9.449396133422852,0.022357666864991188,0.05536184459924698,0.10220648348331451
0.30322086811065674,0.18457378447055817,9.360706329345703,-0.0596204474568367,0.006387905217707157,0.1511804163455963
0.3307350277900696,0.1684751957654953,9.436371803283691,-0.0947539210319519,-0.0021293016616255045,0.18099063634872437
0.3705170750617981,0.11076535284519196,9.464412689208984,-0.1330813616514206,-0.010646508075296879,0.2310292273759842
0.3886459767818451,0.01923980563879013,9.574114799499512,-0.10220648348331451,-0.02874557301402092,0.2587101459503174
0.45650723576545715,0.021499931812286377,9.62876033782959,-0.06813765317201614,-0.038327429443597794,0.26403340697288513
0.530947744846344,-0.02047521248459816,9.683396339416504,0.02342231757938862,-0.04684463515877724,0.252322256565094
0.6072174310684204,0.055794473737478256,9.632237434387207,0.10752973705530167,-0.02661627158522606,0.22251202166080475
0.624685525894165,0.09276095032691956,9.443747520446777,0.12137019634246826,0.02661627158522606,0.1511804163455963
0.577921986579895,0.1764335185289383,9.385068893432617,0.05323254317045212,0.014905111864209175,0.09901253134012222
0.5803928375244141,0.18274462223052979,9.39017391204834,-0.021293016150593758,-0.0074525559321045876,0.05642649531364441
0.5808333158493042,0.1832043081521988,9.427360534667969,-0.0841074138879776,-0.008517206646502018,0.005323254037648439
0.5070440173149109,0.10258675366640091,9.534955978393555,-0.10114183276891708,0.0074525559321045876,-0.02768092229962349
0.4253825843334198,0.0726400837302208,9.584238052368164,-0.07239625602960587,0.014905111864209175,-0.010646508075296879
0.3661021590232849,0.021854272112250328,9.5800142288208,-0.015969762578606606,0.039392080157995224,0.038327429443597794
0.5571786761283875,0.044187385588884354,9.55173397064209,0.0031939526088535786,0.042586032301187515,0.039392080157995224
0.4567466378211975,0.08090486377477646,9.67978572845459,0.06920230388641357,-0.05216789245605469,0.012775810435414314
0.5419323444366455,0.06977660953998566,9.64915943145752,0.15650367736816406,-0.2065422683954239,-0.01171115878969431
0.5158929824829102,0.15397590398788452,9.581269264221191,0.19696040451526642,-0.1927018016576767,-0.015969762578606606
0.6642664670944214,0.2320268750190735,9.42528247833252,0.18631389737129211,-0.0351334773004055,-0.012775810435414314
0.5955719947814941,0.2329079508781433,9.390002250671387,0.1192408949136734,0.040456730872392654,-0.03406882658600807
0.7178582549095154,0.16245137155056,9.507948875427246,-0.14905111491680145,-0.048973940312862396,-0.20441296696662903
0.6678577661514282,0.0931248739361763,9.627545356750488,-0.11817624419927597,-0.008517206646502018,-0.2704213261604309
0.6048424243927002,0.12450806796550751,9.79251480102539,0.012775810435414314,-0.005323254037648439,-0.28958502411842346
0.5207962989807129,0.18446846306324005,9.538422584533691,0.1362753063440323,0.11285299062728882,-0.2416757345199585
0.41505882143974304,0.20511604845523834,9.344856262207031,0.09155996888875961,0.1469218134880066,-0.1852492392063141
0.2559688985347748,0.2807057797908783,9.427379608154297,-0.05110324174165726,-0.05110324174165726,-0.08623671531677246
0.4066886901855469,0.1727847456932068,9.404491424560547,-0.10752973705530167,-0.12137019634246826,-0.02661627158522606
0.45696690678596497,0.2321992665529251,9.529104232788086,-0.11711159348487854,-0.07452555745840073,0.0074525559321045876
0.5191874504089355,0.1302158385515213,9.59263801574707,-0.07239625602960587,0.024486970156431198,0.05536184459924698
0.5431581735610962,0.05348646640777588,9.665182113647461,0.0031939526088535786,0.024486970156431198,0.043650683015584946
0.5593717098236084,0.13668975234031677,9.523483276367188,0.06281439960002899,0.041521381586790085,0.02981022372841835
0.5545833110809326,0.18384596705436707,9.433633804321289,0.04684463515877724,0.047909289598464966,0.020228365436196327
0.5250675678253174,0.22007502615451813,9.456875801086426,0.02768092229962349,0.038327429443597794,0.018099064007401466
0.4765227735042572,0.20956926047801971,9.453438758850098,-0.005323254037648439,-0.012775810435414314,0.015969762578606606
0.5321065783500671,0.16697163879871368,9.46125316619873,-0.021293016150593758,-0.042586032301187515,0.010646508075296879
0.577174961566925,0.14996321499347687,9.522611618041992,-0.041521381586790085,-0.042586032301187515,-0.0021293016616255045
0.5752978920936584,0.13797305524349213,9.550939559936523,-0.02768092229962349,-0.009581857360899448,-0.0010646508308127522
0.5555888414382935,0.17137695848941803,9.551658630371094,-0.0021293016616255045,0.020228365436196327,-0.004258603323251009
0.5312829613685608,0.18331922590732574,9.548794746398926,0.009581857360899448,0.012775810435414314,-0.006387905217707157
0.5679525136947632,0.17807115614414215,9.487799644470215,0.018099064007401466,0.01171115878969431,0.0010646508308127522
0.5303730964660645,0.18323305249214172,9.516195297241211,0.008517206646502018,0.02981022372841835,0.010646508075296879
0.46417826414108276,0.17798495292663574,9.500154495239258,-0.03300417587161064,-0.0010646508308127522,-0.0074525559321045876
0.4761875569820404,0.16130214929580688,9.550230979919434,-0.02874557301402092,0.0031939526088535786,0.004258603323251009
0.5018917322158813,0.12095507234334946,9.518819808959961,-0.013840461149811745,0.0021293016616255045,0.008517206646502018
0.5160557627677917,0.11638693511486053,9.52857780456543,0.0021293016616255045,-0.015969762578606606,-0.008517206646502018
0.5124836564064026,0.14750199019908905,9.53986930847168,0.008517206646502018,-0.013840461149811745,-0.010646508075296879
0.5224435329437256,0.1360960155725479,9.497482299804688,0.008517206646502018,0.008517206646502018,0.004258603323251009
0.5260156989097595,0.14370957016944885,9.50208854675293,0.006387905217707157,0.006387905217707157,0.009581857360899448
0.5113152861595154,0.15490484237670898,9.570256233215332,0.038327429443597794,-0.022357666864991188,0.019163714721798897
0.4930044114589691,0.1640985906124115,9.45711612701416,0.038327429443597794,0.014905111864209175,0.05323254317045212
0.5209686756134033,0.17224843800067902,9.44467544555664,0.015969762578606606,0.022357666864991188,0.08091346174478531
0.5999773740768433,0.19339405000209808,9.590970993041992,0.042586032301187515,0.05110324174165726,0.07239625602960587
0.8593651652336121,-0.05303635820746422,10.056892395019531,0.32471850514411926,0.19589576125144958,-0.043650683015584946
0.5918562412261963,0.1736849695444107,9.565850257873535,0.37369245290756226,0.23635248839855194,-0.0596204474568367
0.06245993450284004,0.655858039855957,8.867156028747559,0.16608552634716034,0.16395622491836548,-0.0021293016616255045
0.14911088347434998,0.5182009935379028,8.892390251159668,-0.22570598125457764,-0.18737854063510895,0.014905111864209175
0.20288465917110443,0.496902197599411,9.017358779907227,-0.38433894515037537,-0.3044901490211487,0.03619812801480293
0.6006860136985779,-0.0303297471255064,9.5968599319458,-0.506773829460144,-0.3055547773838043,0.11391764134168625
0.6596408486366272,0.10634086281061172,9.81508731842041,-0.3438822329044342,-0.042586032301187515,0.14266321063041687
0.698829174041748,-0.3027707636356354,9.924378395080566,-0.08623671531677246,0.09155996888875961,0.14585717022418976
0.723288357257843,-0.04050031676888466,9.937143325805664,0.16715018451213837,0.08730136603116989,0.07559020817279816
0.7170538306236267,0.04761588200926781,9.718849182128906,0.252322256565094,0.0841074138879776,0.02768092229962349
0.606412947177887,0.23783999681472778,9.49538516998291,0.2736152708530426,0.1085943877696991,-0.040456730872392654
0.44467028975486755,0.191708505153656,9.206692695617676,0.15543901920318604,0.07239625602960587,-0.048973940312862396
0.36404314637184143,0.2925906181335449,9.30622386932373,-0.09262461960315704,-0.02874557301402092,0.013840461149811745
0.44419145584106445,0.20891804993152618,9.454578399658203,-0.16927948594093323,-0.1054004356265068,0.02768092229962349
0.5858611464500427,0.054683566093444824,9.601906776428223,-0.140533909201622,-0.06494370102882385,0.018099064007401466
0.5908889770507812,0.022333113476634026,9.659339904785156,-0.05110324174165726,0.013840461149811745,-0.008517206646502018
0.48344677686691284,0.04886086657643318,9.661599159240723,0.05110324174165726,0.04684463515877724,-0.02768092229962349
0.4544577896595001,0.12878888845443726,9.531278610229492,0.09368927031755447,0.040456730872392654,-0.01171115878969431
0.5028781294822693,0.20318153500556946,9.421882629394531,0.06920230388641357,0.02768092229962349,0.005323254037648439
0.537124752998352,0.1509879231452942,9.42435359954834,0.041521381586790085,0.012775810435414314,0.0021293016616255045
0.5097925662994385,0.20124702155590057,9.476202011108398,-0.015969762578606606,-0.03193952515721321,0.0
0.5598026514053345,0.1403672695159912,9.477590560913086,-0.05003859102725983,-0.05003859102725983,-0.0021293016616255045
0.5706052780151367,0.12385684251785278,9.48595142364502,-0.05429719388484955,-0.048973940312862396,-0.0031939526088535786
0.5609518885612488,0.07500555366277695,9.5270357131958,-0.03087487444281578,-0.008517206646502018,0.005323254037648439
0.5031750202178955,0.14102806150913239,9.599552154541016,0.014905111864209175,0.02874557301402092,0.006387905217707157
0.47975969314575195,0.16158945858478546,9.571319580078125,0.03726277872920036,0.02555162087082863,-0.0021293016616255045
0.48519933223724365,0.14190912246704102,9.480215072631836,0.039392080157995224,0.02342231757938862,-0.014905111864209175
0.41774988174438477,0.1537843644618988,9.44840145111084,0.006387905217707157,0.014905111864209175,-0.012775810435414314
0.4854387640953064,0.16121597588062286,9.47146224975586,-0.03300417587161064,-0.005323254037648439,0.0021293016616255045
0.5685366988182068,0.14770309627056122,9.565447807312012,-0.05323254317045212,-0.017034413293004036,-0.0021293016616255045
0.5665735006332397,0.14552916586399078,9.556982040405273,-0.0021293016616255045,-0.006387905217707157,-0.006387905217707157
0.5464909076690674,0.0713280588388443,9.554004669189453,0.02661627158522606,-0.0010646508308127522,-0.013840461149811745
0.6317436695098877,0.004232948645949364,9.565372467041016,0.06068509817123413,0.05323254317045212,-0.018099064007401466
0.6075143218040466,0.011846509762108326,9.900493621826172,0.357722669839859,0.26509806513786316,-0.05323254317045212
0.499985933303833,0.08371087163686752,9.834988594055176,0.4407654404640198,0.2672273516654968,-0.05216789245605469
0.014700398780405521,0.6809109449386597,8.898386001586914,0.3151366412639618,0.07133160531520844,-0.041521381586790085
0.1978376805782318,0.6561740636825562,8.61059284210205,-0.17353808879852295,-0.253386914730072,-0.03726277872920036
0.17219097912311554,0.5585097670555115,8.755404472351074,-0.4003087282180786,-0.31087803840637207,-0.018099064007401466
0.5474198460578918,0.1207156553864479,9.444062232971191,-0.6228207349777222,-0.31087803840637207,0.05216789245605469
0.5730761289596558,0.14946521818637848,9.91118049621582,-0.50357985496521,-0.11072368919849396,0.10007718205451965
0.6466930508613586,-0.4811866581439972,10.042689323425293,0.0074525559321045876,0.013840461149811745,0.140533909201622
0.6480529308319092,-0.10071927309036255,10.130183219909668,0.1650208830833435,0.03406882658600807,0.12349949777126312
0.7437443733215332,-0.16734512150287628,9.535971641540527,0.3534640669822693,0.15650367736816406,0.03406882658600807
0.5020257830619812,0.3501855134963989,9.396159172058105,0.3609166443347931,0.14479251205921173,-0.02768092229962349
0.48726794123649597,0.39053258299827576,9.145687103271484,0.15330971777439117,0.047909289598464966,-0.039392080157995224
0.3747691810131073,0.49317681789398193,9.042928695678711,0.038327429443597794,0.02555162087082863,-0.040456730872392654
0.31328606605529785,0.29811641573905945,9.359538078308105,-0.16608552634716034,-0.06813765317201614,-0.010646508075296879
0.5750489234924316,0.08013872057199478,9.590070724487305,-0.23209388554096222,-0.12775810062885284,0.0351334773004055
0.6211900115013123,0.013474567793309689,9.777114868164062,-0.12137019634246826,-0.021293016150593758,0.03406882658600807
0.6560399532318115,0.01973779872059822,9.70258903503418,0.10965903848409653,0.05429719388484955,0.004258603323251009
0.5579639077186584,0.10906067490577698,9.541678428649902,0.16395622491836548,0.07665485888719559,-0.02342231757938862
0.4586811661720276,0.2056715041399002,9.353839874267578,0.10752973705530167,0.045779984444379807,-0.020228365436196327
0.45021528005599976,0.23122242093086243,9.325185775756836,0.05429719388484955,0.022357666864991188,-0.008517206646502018
0.43260350823402405,0.23422953486442566,9.431200981140137,-0.05429719388484955,-0.02555162087082863,0.008517206646502018
0.44581952691078186,0.18596243858337402,9.48289680480957,-0.09794788062572479,-0.06920230388641357,0.017034413293004036
0.77817302942276,-0.29439106583595276,10.204050064086914,0.1682148277759552,0.19483110308647156,-0.022357666864991188
0.42424294352531433,0.20155347883701324,9.494858741760254,0.3257831633090973,0.16395622491836548,-0.05536184459924698
0.1947731077671051,0.2652488052845001,9.165435791015625,0.2416757345199585,0.06174974888563156,-0.05110324174165726
0.15954002737998962,0.4934832751750946,8.851229667663574,-0.022357666864991188,-0.09901253134012222,-0.012775810435414314
0.3297198712825775,0.359369695186615,9.214171409606934,-0.29916688799858093,-0.1682148277759552,0.04684463515877724
0.3866922855377197,0.2505771517753601,9.35998821258545,-0.3513347804546356,-0.16927948594093323,0.0841074138879776
0.5248472690582275,0.024985888972878456,9.675524711608887,-0.2970375716686249,-0.12349949777126312,0.09688322991132736
0.6263806223869324,0.017477672547101974,9.87707805633545,-0.19908970594406128,-0.07559020817279816,0.1054004356265068
0.7238820791244507,-0.15338213741779327,9.802340507507324,0.021293016150593758,0.006387905217707157,0.09688322991132736
0.7796574234962463,0.035577837377786636,9.740982055664062,0.18099063634872437,0.08730136603116989,0.03406882658600807
0.4892982244491577,0.23501482605934143,9.39888858795166,0.17992599308490753,0.12137019634246826,-0.05003859102725983
0.3202388286590576,0.28615498542785645,9.29696273803711,0.05536184459924698,0.02661627158522606,-0.05323254317045212
0.30665892362594604,0.18932390213012695,9.311088562011719,-0.08197811245918274,-0.048973940312862396,-0.020228365436196327
0.35398751497268677,0.15262556076049805,9.396944046020508,-0.140533909201622,-0.06707300245761871,0.006387905217707157
0.454476922750473,0.1318630576133728,9.5857515335083,-0.14798647165298462,-0.06387905031442642,0.03193952515721321
0.5393657684326172,0.06342719495296478,9.714828491210938,-0.05536184459924698,-0.039392080157995224,0.02555162087082863
0.6000539660453796,0.06310158222913742,9.688414573669434,0.0031939526088535786,-0.017034413293004036,0.021293016150593758
0.6372981667518616,0.05732676759362221,9.596497535705566,0.07984881103038788,0.05003859102725983,0.004258603323251009
0.6418280005455017,0.1081700399518013,9.53947639465332,0.09581857919692993,0.06068509817123413,-0.010646508075296879
0.5037304759025574,0.1270076185464859,9.45475959777832,0.07559020817279816,0.040456730872392654,-0.017034413293004036
0.426005095243454,0.16963396966457367,9.429649353027344,0.024486970156431198,-0.015969762578606606,0.013840461149811745
0.46698424220085144,0.20789332687854767,9.463369369506836,-0.022357666864991188,-0.03726277872920036,0.03619812801480293
0.5173678398132324,0.13210247457027435,9.51533317565918,-0.038327429443597794,0.039392080157995224,0.05749114602804184
0.4643506109714508,0.16237474977970123,9.53310775756836,-0.039392080157995224,0.040456730872392654,0.05536184459924698
0.4774516820907593,0.16642574965953827,9.563619613647461,-0.03300417587161064,0.013840461149811745,0.039392080157995224
0.5998433232307434,0.13303141295909882,9.501571655273438,-0.03300417587161064,0.005323254037648439,0.014905111864209175
0.5708351731300354,0.12106041610240936,9.4888916015625,-0.0351334773004055,0.0021293016616255045,-0.005323254037648439
0.482728511095047,0.13906480371952057,9.569845199584961,-0.022357666864991188,-0.024486970156431198,-0.03619812801480293
0.5286014676094055,0.06346549838781357,9.501063346862793,-0.012775810435414314,-0.013840461149811745,-0.02342231757938862
0.49832913279533386,0.06438487023115158,9.515524864196777,-0.008517206646502018,-0.0031939526088535786,-0.019163714721798897
0.48477795720100403,0.09571061283349991,9.552328109741211,0.0031939526088535786,0.0010646508308127522,-0.012775810435414314
0.47378379106521606,0.13847105205059052,9.534055709838867,0.024486970156431198,0.006387905217707157,-0.009581857360899448
0.4618894159793854,0.15798859298229218,9.485377311706543,0.02342231757938862,0.03087487444281578,0.0010646508308127522
0.47378379106521606,0.13868173956871033,9.433614730834961,0.0010646508308127522,0.038327429443597794,0.0074525559321045876
0.45100054144859314,0.1293635070323944,9.421154975891113,-0.039392080157995224,0.024486970156431198,-0.008517206646502018
0.48984408378601074,0.040107667446136475,9.453534126281738,-0.07452555745840073,0.0074525559321045876,-0.019163714721798897
0.34606751799583435,-0.34533965587615967,10.456369400024414,0.1650208830833435,-0.2938436269760132,-0.05003859102725983
0.47522029280662537,-0.13596193492412567,10.045639991760254,0.3481408357620239,-0.3183306157588959,-0.009581857360899448
0.6578212976455688,0.13037864863872528,9.542991638183594,0.5482951998710632,0.15650367736816406,0.12137019634246826
0.5507717132568359,0.7707318067550659,8.910443305969238,0.30981338024139404,0.456735223531723,0.15650367736816406
-0.0015131353866308928,0.4412418007850647,9.066094398498535,-0.5951398015022278,-0.13733996450901031,0.0947539210319519
0.7453820109367371,0.057709839195013046,9.82872486114502,-0.7111867666244507,-0.5312607884407043,0.10327113419771194
0.539078414440155,-0.011856086552143097,9.809618949890137,-0.49186867475509644,-0.20760691165924072,0.14479251205921173
0.5667074918746948,-0.23951594531536102,10.194443702697754,0.22889992594718933,0.3396236300468445,0.13733996450901031
0.2017928957939148,-0.373878538608551,9.83531379699707,0.4758989214897156,0.17779669165611267,0.12562879920005798
0.4901218116283417,0.6415407061576843,9.69664192199707,0.5770407319068909,-0.1469218134880066,0.1192408949136734
0.656605064868927,0.1448875069618225,8.873342514038086,0.3747570812702179,-0.11498229205608368,0.09901253134012222
0.5953517556190491,0.5915306210517883,8.780083656311035,0.05216789245605469,0.06813765317201614,0.08091346174478531
0.5681344866752625,0.39678624272346497,8.968249320983887,-0.12456414848566055,0.10433578491210938,0.06920230388641357
0.41614100337028503,0.33708444237709045,9.206222534179688,-0.3609166443347931,-0.0021293016616255045,0.039392080157995224
0.5606550574302673,-0.031335312873125076,9.650232315063477,-0.40882593393325806,-0.13521066308021545,0.013840461149811745
0.5182393193244934,0.07260177284479141,9.725946426391602,-0.36943385004997253,-0.11604694277048111,0.0021293016616255045
0.6098893284797668,-0.08857589215040207,9.849956512451172,-0.17353808879852295,0.010646508075296879,-0.008517206646502018
0.08188170194625854,-0.3998221158981323,10.371585845947266,0.10965903848409653,-0.15330971777439117,-0.0021293016616255045
0.6212378740310669,-0.08269572257995605,9.953903198242188,0.484416127204895,-0.23209388554096222,0.07452555745840073
0.9742294549942017,0.046313438564538956,8.869587898254395,0.5248728394508362,0.2949082851409912,0.10752973705530167
0.6714107394218445,0.21253806352615356,9.057236671447754,0.35665804147720337,0.40776127576828003,0.09581857919692993
0.17306247353553772,0.6271659135818481,8.870488166809082,0.05323254317045212,0.2491282969713211,0.07559020817279816
0.21385009586811066,0.4292133152484894,9.15180778503418,-0.26083946228027344,-0.20121900737285614,0.03619812801480293
0.6604740619659424,0.19746416807174683,9.343429565429688,-0.4460887014865875,-0.3396236300468445,0.020228365436196327
0.7365617752075195,0.17982369661331177,9.60450267791748,-0.4269249737262726,-0.05855579674243927,0.020228365436196327
0.5625799298286438,-0.15179239213466644,10.04251766204834,0.12349949777126312,0.07984881103038788,0.07239625602960587
0.455769807100296,-0.146946519613266,9.648536682128906,0.2981022298336029,0.09368927031755447,0.042586032301187515
0.4535767138004303,0.2132754772901535,9.42937183380127,0.34601151943206787,0.012775810435414314,0.021293016150593758
0.5332461595535278,0.3519667983055115,9.293773651123047,0.20973621308803558,-0.021293016150593758,0.0031939526088535786
0.44833821058273315,0.36961686611175537,9.067521095275879,0.11498229205608368,-0.013840461149811745,-0.0021293016616255045
0.4717535078525543,0.3312138617038727,9.236456871032715,-0.11072368919849396,-0.0021293016616255045,-0.0074525559321045876
0.4080677628517151,0.2591196596622467,9.494436264038086,-0.21612411737442017,-0.07665485888719559,0.013840461149811745
0.6176753044128418,0.0213275495916605,9.684258460998535,-0.1330813616514206,-0.09155996888875961,0.03726277872920036
0.6473538279533386,-0.028423961251974106,9.715239524841309,0.0021293016616255045,0.013840461149811745,0.040456730872392654
0.6144766807556152,0.036478057503700256,9.635512351989746,0.11285299062728882,0.08304276317358017,0.022357666864991188
0.49976566433906555,0.21045033633708954,9.417945861816406,0.12030554562807083,0.048973940312862396,-0.02768092229962349
0.40045416355133057,0.2785988748073578,9.390203475952148,0.03726277872920036,0.0010646508308127522,-0.012775810435414314
0.43575426936149597,0.2161293774843216,9.397701263427734,-0.017034413293004036,-0.014905111864209175,0.0031939526088535786
0.4828626215457916,0.17908628284931183,9.438814163208008,-0.09155996888875961,-0.02555162087082863,0.01171115878969431
0.5369715690612793,0.16168522834777832,9.464030265808105,-0.1192408949136734,-0.017034413293004036,0.006387905217707157
0.5273564457893372,0.12730449438095093,9.591229438781738,-0.1054004356265068,-0.010646508075296879,-0.0031939526088535786
0.5174540281295776,0.06719087809324265,9.689190864562988,-0.02874557301402092,-0.03300417587161064,-0.006387905217707157
0.5581746101379395,0.0626801997423172,9.632227897644043,0.043650683015584946,-0.03300417587161064,-0.009581857360899448
0.5608465671539307,0.09683109074831009,9.628531455993652,0.07665485888719559,-0.038327429443597794,-0.009581857360899448
0.578908383846283,0.12733322381973267,9.567105293273926,0.11604694277048111,-0.045779984444379807,-0.01171115878969431
0.5674257874488831,0.19553925096988678,9.471691131591797,0.1054004356265068,-0.017034413293004036,-0.0074525559321045876
0.5454661846160889,0.21457792818546295,9.488222122192383,0.08943066745996475,0.0031939526088535786,-0.004258603323251009
0.7401338815689087,-0.044541727751493454,10.003874778747559,0.22889992594718933,0.15011577308177948,-0.018099064007401466
0.37525761127471924,0.43552443385124207,9.194280624389648,0.21293017268180847,-0.008517206646502018,-0.05110324174165726
0.28686368465423584,0.6752032041549683,9.384858131408691,0.09262461960315704,-0.09368927031755447,-0.05536184459924698
0.4197801947593689,0.39542636275291443,8.738165855407715,-0.12882275879383087,-0.13521066308021545,0.0031939526088535786
0.5444893836975098,0.3980887234210968,8.860633850097656,-0.21186551451683044,-0.04684463515877724,0.038327429443597794
0.35369065403938293,-0.16632039844989777,10.73966121673584,-0.27148595452308655,0.02874557301402092,0.08197811245918274
0.616794228553772,0.48011404275894165,9.231639862060547,-0.17992599308490753,-0.11178833991289139,0.11285299062728882
0.8798786997795105,0.10401370376348495,10.153790473937988,-0.11178833991289139,0.022357666864991188,0.12137019634246826
0.44896069169044495,0.34157595038414,10.264719009399414,0.05323254317045212,0.08197811245918274,0.11498229205608368
0.7984949946403503,0.18549317121505737,9.270242691040039,0.1511804163455963,-0.03087487444281578,0.07559020817279816
0.5374407768249512,0.18041746318340302,9.472850799560547,0.05749114602804184,0.022357666864991188,-0.04684463515877724
0.6130114197731018,0.24639208614826202,9.383393287658691,-0.044715333729982376,-0.042586032301187515,-0.06813765317201614
0.5144469141960144,0.23712173104286194,9.429495811462402,-0.09794788062572479,-0.0021293016616255045,-0.05855579674243927
0.5513463616371155,0.03942771628499031,9.595337867736816,0.038327429443597794,-0.02768092229962349,0.02768092229962349
0.6633662581443787,0.1164827048778534,9.570505142211914,0.04684463515877724,0.042586032301187515,0.004258603323251009
0.5091221928596497,0.1784350574016571,9.442367553710938,0.03193952515721321,0.044715333729982376,-0.020228365436196327
0.5440009236335754,0.2294890284538269,9.427810668945312,-0.013840461149811745,0.014905111864209175,-0.0010646508308127522
0.5054830312728882,0.12885594367980957,9.633453369140625,-0.0351334773004055,0.0351334773004055,0.012775810435414314
0.5113344192504883,0.2224883735179901,9.482101440429688,-0.03726277872920036,-0.020228365436196327,0.021293016150593758
0.6112109422683716,0.21684764325618744,9.630322456359863,-0.02342231757938862,-0.009581857360899448,0.009581857360899448
0.5483104586601257,0.18262013792991638,9.52409553527832,0.013840461149811745,-0.004258603323251009,0.0
0.6105310320854187,0.1515529602766037,9.49342155456543,0.008517206646502018,0.045779984444379807,-0.019163714721798897
0.4628662168979645,0.17378072440624237,9.49101734161377,-0.018099064007401466,0.043650683015584946,-0.019163714721798897
0.4882926344871521,0.18872055411338806,9.541717529296875,-0.039392080157995224,-0.03193952515721321,-0.010646508075296879
0.5431677103042603,0.15067189931869507,9.529181480407715,-0.041521381586790085,-0.044715333729982376,0.005323254037648439
0.574244499206543,0.15852488577365875,9.660660743713379,0.006387905217707157,0.020228365436196327,0.01171115878969431
0.5635855197906494,0.1752459853887558,9.53516674041748,0.047909289598464966,0.02342231757938862,0.0031939526088535786
0.5753074884414673,0.1497812718153,9.537886619567871,0.05110324174165726,0.03087487444281578,-0.0031939526088535786
0.5188522338867188,0.17732416093349457,9.45052719116211,0.03300417587161064,0.02768092229962349,-0.005323254037648439
0.4942302405834198,0.18026423454284668,9.460679054260254,-0.0074525559321045876,0.006387905217707157,0.0031939526088535786
0.5072547197341919,0.18337669968605042,9.455488204956055,-0.039392080157995224,-0.0021293016616255045,0.010646508075296879
0.5407543778419495,0.1892281174659729,9.55614948272705,-0.039392080157995224,0.0,0.0074525559321045876
0.5725685358047485,0.1731390804052353,9.5361909866333,-0.024486970156431198,-0.0021293016616255045,-0.0021293016616255045
0.5795882940292358,0.09931148588657379,9.50737476348877,-0.014905111864209175,0.013840461149811745,-0.014905111864209175
0.5427080392837524,0.13369223475456238,9.509807586669922,-0.018099064007401466,0.014905111864209175,-0.013840461149811745
0.5651943683624268,0.16623421013355255,9.580617904663086,-0.009581857360899448,0.008517206646502018,0.0
0.5228553414344788,0.14597927033901215,9.536870956420898,0.0010646508308127522,-0.012775810435414314,-0.01171115878969431
0.4822688400745392,0.140530064702034,9.464077949523926,-0.004258603323251009,-0.009581857360899448,-0.006387905217707157
0.43929770588874817,0.1897931545972824,9.428720474243164,0.008517206646502018,-0.0021293016616255045,-0.0021293016616255045
0.6049573421478271,8.619125583209097e-05,9.84011173248291,0.05110324174165726,0.022357666864991188,0.0021293016616255045
0.5265424251556396,0.2130456417798996,9.50076675415039,0.09688322991132736,0.021293016150593758,-0.006387905217707157
0.4544577896595001,0.23466049134731293,9.290555953979492,0.06813765317201614,0.03193952515721321,0.0031939526088535786
