accX,accY,accZ,gyroX,gyroY,gyroZ
-1.3577708005905151,5.577661991119385,6.898903846740723,-0.05528157576918602,-0.16926716268062592,-0.03834587335586548
0.33076056838035583,4.4831109046936035,9.70354175567627,-1.4817826747894287,-1.4791126251220703,0.3302645683288574
0.5056014060974121,4.217257022857666,10.093939781188965,-1.0918651819229126,-0.9512326717376709,0.31108832359313965
0.6205652952194214,4.193305969238281,9.933469772338867,-0.6630626916885376,-0.3434516191482544,0.3009674847126007
0.634935736656189,4.164565086364746,9.686776161193848,-0.346121609210968,0.14873924851417542,0.29990214109420776
0.5558980703353882,4.095107555389404,9.751443862915039,-0.12239852547645569,0.5253397822380066,0.32067641615867615
0.5774538516998291,4.011279582977295,9.60534381866455,0.08374634385108948,0.7629124522209167,0.3568982779979706
0.7451093196868896,3.8819453716278076,9.782580375671387,0.031011618673801422,0.26113343238830566,0.2674090266227722
0.6828372478485107,3.8076977729797363,9.964605331420898,0.09120379388332367,0.2195848971605301,0.22000104188919067
0.6421209573745728,3.8340439796447754,9.854432106018066,0.21212078630924225,0.30001866817474365,0.1784524768590927
0.5702685117721558,3.9561927318573,9.624504089355469,0.3149268627166748,0.38737717270851135,0.14276331663131714
0.5199718475341797,4.0160698890686035,9.576602935791016,0.347952663898468,0.4294584095478058,0.1251850724220276
0.4265637695789337,4.03523063659668,9.602948188781738,0.38097846508026123,0.4768664240837097,0.10973750799894333
0.25890815258026123,4.14540433883667,9.717911720275879,0.48271921277046204,0.6158943772315979,0.0953553095459938
0.12238860130310059,4.320245265960693,9.430501937866211,0.6015055179595947,0.7181678414344788,0.1028127521276474
-0.011735886335372925,4.437603950500488,8.994598388671875,0.6116263270378113,0.6324073672294617,0.10174740105867386
-0.10753907263278961,4.514246940612793,8.788620948791504,0.5274638533592224,0.41720691323280334,0.08150579035282135
-0.1769964098930359,4.593284606933594,8.747905731201172,0.4480954110622406,0.24888193607330322,0.06446021050214767
-0.2488487958908081,4.727408409118652,8.647311210632324,0.39908939599990845,0.1748402714729309,0.05913347750902176
-0.2488487958908081,4.741779327392578,8.532347679138184,0.3665962815284729,0.13169367611408234,0.06286219507455826
-0.1769964098930359,4.756149768829346,8.297630310058594,0.26165950298309326,-0.014791693538427353,0.06339486688375473
-0.09316858649253845,4.7465691566467285,8.319185256958008,0.13435038924217224,-0.16553844511508942,0.04421860724687576
0.03137555718421936,4.775310039520264,8.453310012817383,0.045393817126750946,-0.208685040473938,0.00799676962196827
0.09125256538391113,4.777705669403076,8.410199165344238,0.032609641551971436,-0.12771859765052795,-0.01117949653416872
0.17987051606178284,4.751359939575195,8.462890625,0.003845241852104664,-0.10161756724119186,-0.04313993453979492
0.17268528044223785,4.811236381530762,8.644917488098145,0.0022472189739346504,-0.09202943742275238,-0.08095979690551758
0.14633938670158386,4.8447675704956055,8.74551010131836,0.03474033623933792,-0.06539572775363922,-0.10812617838382721
0.06011652201414108,4.818421840667725,8.767065048217773,0.10132458806037903,-0.016922390088438988,-0.14647869765758514
0.0050296783447265625,4.854348182678223,8.70958423614502,0.13648107647895813,0.027822230011224747,-0.17204706370830536
-0.17460131645202637,4.916620254516602,8.659287452697754,0.15459199249744415,0.06830545514822006,-0.19069063663482666
-0.3733929693698883,5.031583786010742,8.642521858215332,0.16151675581932068,0.04699849709868431,-0.18909262120723724
-0.9553974866867065,5.146547794342041,7.152781963348389,0.08161565661430359,-0.3487783372402191,-0.20027877390384674
-0.7039140462875366,5.393240928649902,7.550365447998047,-0.18418870866298676,-0.3253406584262848,-0.08841723948717117
-0.45482566952705383,5.074695110321045,9.10716724395752,0.19933660328388214,0.449167400598526,0.020248273387551308
-0.3350716829299927,5.0243988037109375,8.84610366821289,0.06510275602340698,-0.07285316288471222,-0.037813201546669006
-0.3278864324092865,5.000447750091553,8.73114013671875,0.1295563131570816,0.026224210858345032,-0.03035576082766056
-0.2201078236103058,4.978891849517822,8.553903579711914,0.15832069516181946,0.06990347802639008,-0.03355180472135544
-0.20573735237121582,5.007633209228516,8.508397102355957,0.1466018706560135,0.07256685197353363,-0.0564567893743515
-0.4524305760860443,5.141757488250732,7.658143997192383,0.2019999921321869,-0.06379770487546921,-0.09214595705270767
-0.6392468214035034,5.280672550201416,7.447376728057861,0.10398796200752258,0.13382437825202942,-0.0916132926940918
-0.6224813461303711,5.254326343536377,7.842565536499023,-0.010536961257457733,0.18709176778793335,-0.057522132992744446
-0.6488271951675415,5.20881986618042,8.173086166381836,-0.06806576251983643,0.15513132512569427,-0.05219539999961853
-0.5458387136459351,5.170498371124268,8.728744506835938,-0.13358467817306519,0.014505378901958466,-0.03834587335586548
-0.4787764847278595,5.012423515319824,9.042500495910645,-0.11973515152931213,-0.09096408635377884,-0.03514982759952545
-0.49554207921028137,4.914225101470947,9.004179000854492,-0.08084993064403534,-0.11333640664815903,-0.04686865210533142
-0.5194927453994751,5.050744533538818,8.889214515686035,-0.0014814985916018486,-0.012660996988415718,-0.07190433889627457
-0.6296665668487549,5.1585235595703125,8.779041290283203,0.050187885761260986,0.09387380629777908,-0.07456771284341812
-0.7446303367614746,5.127386569976807,8.673657417297363,0.05231858044862747,0.07949161529541016,-0.06497957557439804
-0.7542107105255127,5.1225972175598145,8.673657417297363,0.04273044690489769,0.04007374122738838,-0.061250850558280945
-0.7326549291610718,5.17289400100708,8.680842399597168,0.031011618673801422,-0.025977848097682,-0.052728071808815
-0.730259895324707,5.165708541870117,8.711978912353516,0.031011618673801422,-0.03450063243508339,-0.04686865210533142
-0.7110992670059204,5.1561279296875,8.707188606262207,0.04752451553940773,-0.020651107653975487,-0.03514982759952545
-0.6512222290039062,5.153732776641846,8.565878868103027,0.06403741240501404,-0.0360986553132534,-0.031953781843185425
-1.149398922920227,5.1585235595703125,7.191103458404541,0.10665133595466614,-0.32001394033432007,-0.062316201627254486
-0.4715912640094757,5.211215019226074,8.829337120056152,-0.15435896813869476,0.1657848060131073,0.09002856910228729
-0.5266780853271484,4.993262767791748,9.135907173156738,-0.032909270375967026,0.25047996640205383,0.06499288976192474
-0.6296665668487549,4.974102020263672,8.668867111206055,0.041132424026727676,0.16685016453266144,0.043685927987098694
-0.5314682722091675,5.148942947387695,8.467680931091309,-0.00840625911951065,0.060315344482660294,0.02983640693128109
-0.8500138521194458,5.153732776641846,8.192246437072754,-0.17939463257789612,-0.23105734586715698,0.048479996621608734
-0.7733712196350098,5.127386569976807,8.240147590637207,-0.27687397599220276,-0.29604360461235046,0.08470182865858078
-0.7110992670059204,5.0339789390563965,8.62575626373291,-0.346121609210968,-0.3525070548057556,0.1321098357439041
-0.5123076438903809,5.048349380493164,8.77664566040039,-0.33227208256721497,-0.3525070548057556,0.16833166778087616
-0.35902249813079834,4.923805236816406,9.02333927154541,-0.28433144092559814,-0.298706978559494,0.1843118816614151
-0.23687338829040527,4.796865940093994,9.181415557861328,-0.18045999109745026,-0.15754833817481995,0.1917693167924881
-0.15304560959339142,4.789680480957031,9.193389892578125,-0.06220634654164314,0.002253875369206071,0.18697527050971985
-0.14346528053283691,4.804051399230957,9.054475784301758,0.032609641551971436,0.09760252386331558,0.18377920985221863
-0.11711940169334412,4.792076110839844,8.867659568786621,0.06350474059581757,0.069370798766613,0.18963861465454102
-0.04047684371471405,4.7369890213012695,8.759881019592285,0.040599752217531204,-0.029706565663218498,0.19603072106838226
0.12238860130310059,4.686692237854004,8.642521858215332,-0.0014814985916018486,-0.12558789551258087,0.19070398807525635
0.3092048168182373,4.629210472106934,8.58264446258545,-0.05208553001284599,-0.19590087234973907,0.16087423264980316
0.4074031114578247,4.619630336761475,8.664076805114746,-0.09256875514984131,-0.22839398682117462,0.10494343936443329
0.352316290140152,4.634000301361084,8.814967155456543,-0.1000261902809143,-0.21667516231536865,0.04688197374343872
0.26848846673965454,4.674716949462891,8.865263938903809,-0.08031725883483887,-0.201227605342865,0.012258162721991539
0.27806878089904785,4.703457832336426,8.793411254882812,-0.06327168643474579,-0.2028256207704544,-0.0015913639217615128
0.2756737172603607,4.6459760665893555,8.83891773223877,-0.04995483532547951,-0.1735285520553589,-0.006918103434145451
0.2900441884994507,4.674716949462891,8.843708038330078,-0.01266765221953392,-0.09202943742275238,-0.01117949653416872
0.2732786238193512,4.698668003082275,8.83891773223877,0.03047894313931465,0.009178640320897102,-0.019169606268405914
0.2397475242614746,4.698668003082275,8.726348876953125,0.05231858044862747,0.03741036728024483,-0.023963674902915955
0.2205868810415268,4.698668003082275,8.659287452697754,0.04592649266123772,0.02569153532385826,-0.02609436772763729
0.21100656688213348,4.6914825439453125,8.664076805114746,0.009171982295811176,-0.01745506376028061,-0.0324864536523819
0.2038213163614273,4.727408409118652,8.812572479248047,-0.02065776288509369,-0.03769667446613312,-0.03514982759952545
0.2469327747821808,4.717828750610352,9.056870460510254,-0.00041615311056375504,-0.03716399893164635,-0.029290413483977318
0.34273597598075867,4.689087390899658,9.040104866027832,0.03793638199567795,-0.0435560904443264,-0.033019132912158966
0.22777213156223297,4.823211669921875,8.496421813964844,0.1817583590745926,0.20680072903633118,-0.052728071808815
0.18945084512233734,4.780100345611572,8.33595085144043,0.23609110713005066,0.3825831115245819,-0.061250850558280945
0.15591973066329956,4.758544921875,8.273679733276367,0.23289507627487183,0.4097495377063751,-0.07296968996524811
-0.011735886335372925,4.820816993713379,8.364692687988281,0.06989681720733643,0.07363219559192657,-0.0990707129240036
0.03137555718421936,4.820816993713379,8.496421813964844,-0.02491915598511696,-0.12026116251945496,-0.09374397993087769
0.16070988774299622,4.792076110839844,8.673657417297363,-0.11707177758216858,-0.30350103974342346,-0.10013606399297714
0.12478367984294891,4.777705669403076,8.75508975982666,-0.08298061788082123,-0.2156098186969757,-0.12570442259311676
-0.023711279034614563,4.909434795379639,8.817362785339355,0.016096744686365128,0.02143014222383499,-0.1251717507839203
-0.13628004491329193,4.916620254516602,8.771855354309082,0.061906713992357254,0.14607587456703186,-0.03621517866849899
-0.19136688113212585,4.940571308135986,8.680842399597168,0.06457008421421051,0.06830545514822006,-0.0639142245054245
-0.21771275997161865,4.959731578826904,8.587434768676758,0.06510275602340698,0.06191336736083031,-0.06657759100198746
-0.27998483180999756,4.930990695953369,8.592225074768066,0.05125323310494423,0.06457673013210297,-0.06870828568935394
-0.3207012116909027,4.959731578826904,8.594619750976562,0.04219777137041092,0.0656420886516571,-0.06817561388015747
-0.3805782198905945,5.005238056182861,8.620965957641602,0.040067076683044434,0.06351138651371002,-0.06657759100198746
-0.3638126254081726,4.998052597045898,8.668867111206055,0.040599752217531204,0.0730995312333107,-0.05965283513069153
-0.41410931944847107,4.976497173309326,8.577853202819824,0.02089081145823002,0.015038050711154938,-0.06977363675832748
-0.4715912640094757,5.053139686584473,8.620965957641602,0.008106634020805359,0.0027865509036928415,-0.06657759100198746
-0.4356650412082672,4.993262767791748,8.865263938903809,0.011835351586341858,0.019299447536468506,-0.027692394331097603
-0.7470254898071289,5.012423515319824,7.840169906616211,0.07202751934528351,-0.3029683828353882,-0.05592411756515503
-0.2033422887325287,5.335758686065674,8.211406707763672,-0.16021837294101715,-0.1415681093931198,0.05007801949977875
-0.49075189232826233,4.8447675704956055,9.157463073730469,0.08427903056144714,0.36660292744636536,0.006398746743798256
-0.4069240987300873,4.923805236816406,8.783831596374512,0.11357609927654266,0.2712542414665222,0.03356512635946274
-0.3805782198905945,4.919014930725098,8.690423011779785,0.045393817126750946,0.08481834083795547,0.010660139843821526
-0.41410931944847107,4.923805236816406,8.791016578674316,-0.04196472838521004,-0.11866313219070435,-0.013842866756021976
-0.40213391184806824,5.012423515319824,8.83891773223877,-0.03450728580355644,-0.13677404820919037,-0.015973560512065887
-0.5362584590911865,5.211215019226074,7.5000691413879395,-0.08084993064403534,-0.2230672389268875,0.022378968074917793
-0.059637486934661865,5.196844100952148,8.254518508911133,-0.1650124341249466,-0.00254019140265882,0.07671171426773071
-0.10035383701324463,4.8615336418151855,9.23650074005127,-0.10428759455680847,0.3122701644897461,0.05380672961473465
-0.46440598368644714,4.715433597564697,9.315539360046387,0.07256019115447998,0.3863118588924408,0.004800725728273392
-0.49554207921028137,4.909434795379639,8.834128379821777,0.1018572598695755,0.23343442380428314,0.010660139843821526
-0.4452453553676605,5.029189109802246,8.692817687988281,0.01716209203004837,0.0070479437708854675,0.001072007231414318
-0.6248763799667358,4.962126731872559,8.80299186706543,-0.05634692683815956,-0.18364934623241425,-0.027159718796610832
-0.7877417802810669,5.053139686584473,8.762275695800781,-0.05634692683815956,-0.23478606343269348,-0.03035576082766056
-0.8811500072479248,5.165708541870117,8.589829444885254,-0.035572636872529984,-0.14476415514945984,0.04262058436870575
-0.7925319671630859,5.091460704803467,8.654497146606445,-0.03503996133804321,-0.0989542007446289,0.10867216438055038
-0.6464320421218872,5.06272029876709,8.644917488098145,-0.020125091075897217,-0.08563734591007233,0.15927621722221375
-0.5602091550827026,5.041164398193359,8.611385345458984,-0.015331022441387177,-0.08297397196292877,0.17951782047748566
-0.3614175617694855,5.000447750091553,8.529953002929688,-0.01639636978507042,-0.09202943742275238,0.1992267519235611
-0.20573735237121582,4.921410083770752,8.553903579711914,-0.036637987941503525,-0.10268291085958481,0.19496537744998932
-0.16262592375278473,4.8806939125061035,8.601804733276367,-0.04143204912543297,-0.10055221617221832,0.18644258379936218
-0.14346528053283691,4.909434795379639,8.673657417297363,-0.031311243772506714,-0.06486305594444275,0.1768544465303421
-0.05245223641395569,4.885483741760254,8.659287452697754,-0.015863697975873947,-0.032369934022426605,0.188040629029274
0.40261295437812805,4.703457832336426,8.539533615112305,-0.09043806791305542,-0.08457199484109879,0.16620098054409027
0.4600948691368103,4.662741661071777,8.611385345458984,-0.10322225093841553,-0.07924525439739227,0.14436133205890656
0.5056014060974121,4.674716949462891,8.80299186706543,-0.09949353337287903,-0.05048085376620293,0.09215926378965378
0.41219329833984375,4.713038444519043,8.901189804077148,-0.06220634654164314,-0.020651107653975487,0.036228492856025696
0.18945084512233734,4.782495498657227,8.783831596374512,-0.010004281997680664,-0.0584709607064724,-0.024496346712112427
0.1511295735836029,4.787286281585693,8.695213317871094,-0.022788461297750473,-0.1048136055469513,-0.03887854516506195
0.11759844422340393,4.782495498657227,8.700002670288086,-0.03503996133804321,-0.1213265135884285,-0.04473796486854553
0.09125256538391113,4.801656246185303,8.781436920166016,-0.04675878956913948,-0.1378393918275833,-0.054326094686985016
0.026585400104522705,4.847163200378418,8.877239227294922,-0.036105312407016754,-0.12825126945972443,-0.05539143830537796
0.00742475688457489,4.849557399749756,8.83891773223877,-0.013200327754020691,-0.11280372738838196,-0.05059736967086792
-0.004550635814666748,4.8447675704956055,8.767065048217773,-0.006275564432144165,-0.10694431513547897,-0.04367261379957199
0.012214921414852142,4.828001976013184,8.750299453735352,-0.01692904531955719,-0.12452254444360733,-0.03621517866849899
0.024190321564674377,5.072300434112549,8.623361587524414,0.02195615880191326,-0.003605538746342063,-0.025029022246599197
-0.009340792894363403,4.832792282104492,8.355112075805664,0.1817583590745926,0.41347822546958923,-0.010114148259162903
-0.04047684371471405,4.854348182678223,8.242542266845703,0.13008898496627808,0.2941592335700989,-0.03461715579032898
-0.04766207933425903,4.966917037963867,8.371877670288086,-0.04356274753808975,-0.06060166284441948,-0.036747850477695465
-0.06203256547451019,4.907039642333984,8.573064804077148,-0.17353522777557373,-0.32960209250450134,-0.028757737949490547
0.033770639449357986,4.890274524688721,8.946696281433105,-0.10695095360279083,-0.1639404296875,-0.012777518481016159
0.009819842875003815,4.897459506988525,8.985017776489258,0.012368026189506054,0.09866787493228912,0.0069314222782850266
-0.011735886335372925,4.854348182678223,8.949091911315918,0.058177996426820755,0.1822977215051651,0.020248273387551308
0.017005078494548798,4.804051399230957,8.71916389465332,0.09173646569252014,0.18655909597873688,0.03889186680316925
0.08646240085363388,4.777705669403076,8.60420036315918,0.036338359117507935,0.049129191786050797,0.03942453861236572
0.17268528044223785,4.741779327392578,8.664076805114746,-0.040899381041526794,-0.09096408635377884,0.030369078740477562
0.22298194468021393,4.753754138946533,8.889214515686035,-0.06913110613822937,-0.1287839412689209,0.010127464309334755
0.2038213163614273,4.777705669403076,8.977831840515137,-0.05528157576918602,-0.10800965875387192,0.001072007231414318
0.23256227374076843,4.782495498657227,8.977831840515137,0.003845241852104664,-0.03450063243508339,-0.0026567112654447556
-0.018921121954917908,4.995657444000244,8.374272346496582,0.2243722826242447,0.4678110182285309,0.002670029178261757
-0.054847314953804016,4.885483741760254,8.137160301208496,0.3186556100845337,0.7298866510391235,0.015986880287528038
-0.12909479439258575,4.832792282104492,8.000640869140625,0.2259703129529953,0.5972508192062378,0.02504233829677105
-0.08358827233314514,4.930990695953369,8.395828247070312,-0.08138260245323181,-0.00254019140265882,0.052741385996341705
0.39303264021873474,4.631605625152588,8.865263938903809,-0.2987136244773865,-0.485675573348999,0.06712358444929123
0.6517013311386108,4.509456634521484,9.164648056030273,-0.2923215329647064,-0.5490637421607971,-0.023430999368429184
0.5606882572174072,4.698668003082275,9.313143730163574,-0.12293118238449097,-0.24970094859600067,-0.1289004683494568
0.1774754375219345,4.792076110839844,9.159858703613281,0.08800773322582245,0.1434124857187271,-0.16618764400482178
-0.05245223641395569,4.811236381530762,8.75508975982666,0.19720591604709625,0.30001866817474365,-0.1565995067358017
-0.11951448023319244,4.828001976013184,8.592225074768066,0.1908138245344162,0.2749829888343811,-0.14860938489437103
-0.23687338829040527,4.897459506988525,8.431754112243652,0.10718400776386261,0.11997484415769577,-0.1289004683494568
-0.1602308303117752,4.911829948425293,8.48444652557373,-0.0009488249197602272,-0.05687294527888298,-0.10493013262748718
-0.11951448023319244,4.878298759460449,8.656891822814941,-0.0648697018623352,-0.15967902541160583,-0.09960339963436127
-0.27998483180999756,4.938175678253174,8.779041290283203,0.05498195067048073,0.04646582528948784,-0.09960339963436127
-0.3278864324092865,4.95733642578125,8.64012622833252,0.07522356510162354,0.08375300467014313,-0.07829643785953522
-0.31351596117019653,4.938175678253174,8.563483238220215,0.04752451553940773,0.053390588611364365,-0.05592411756515503
-0.29914548993110657,4.930990695953369,8.630545616149902,0.003845241852104664,-0.00946495309472084,-0.040476568043231964
-0.27998483180999756,4.928595542907715,8.747905731201172,-0.02065776288509369,-0.062199678272008896,-0.02982308529317379
-0.2488487958908081,4.954941272735596,8.757485389709473,-0.005742892622947693,-0.07445119321346283,-0.02236565202474594
-0.16262592375278473,4.919014930725098,8.573064804077148,0.03047894313931465,-0.015324367210268974,0.0005393326282501221
-0.12909479439258575,4.904644966125488,8.517977714538574,0.03367498889565468,0.009178640320897102,0.007464095950126648
-0.045267000794410706,4.859138011932373,8.405407905578613,0.018760114908218384,0.021962814033031464,0.014921532943844795
0.012214921414852142,4.856743335723877,8.472471237182617,-0.017461717128753662,0.0001231806818395853,0.0058660730719566345
0.02898048236966133,4.851953029632568,8.611385345458984,-0.04143204912543297,-0.021183781325817108,-0.010646821931004524
-0.038081757724285126,4.849557399749756,8.721558570861816,-0.04303007200360298,-0.00946495309472084,-0.025561697781085968
-0.15544068813323975,4.86871862411499,8.850893020629883,-0.030778568238019943,0.02143014222383499,-0.03035576082766056
-0.18418163061141968,4.878298759460449,8.896400451660156,-0.020125091075897217,0.02888757921755314,-0.027159718796610832
-0.18178656697273254,4.904644966125488,8.927536010742188,-0.0014814985916018486,0.027289558202028275,-0.01544088777154684
-0.20573735237121582,4.8615336418151855,8.934720993041992,0.010770004242658615,-0.010530301369726658,-0.01117949653416872
-0.5386534929275513,4.909434795379639,7.983874797821045,0.041132424026727676,-0.13357801735401154,-0.03408447653055191
-0.20573735237121582,5.21360969543457,8.37906265258789,-0.054748911410570145,0.03474699333310127,0.03463046997785568
-0.04287191480398178,4.904644966125488,8.913165092468262,-0.07925190031528473,0.08162230253219604,0.05167604237794876
-0.27998483180999756,4.674716949462891,9.092796325683594,-0.03397461399435997,0.027822230011224747,0.030369078740477562
-0.04287191480398178,4.849557399749756,8.877239227294922,0.010237329639494419,0.005449920892715454,0.048479996621608734
-0.15304560959339142,4.926200866699219,8.781436920166016,0.014498721808195114,-0.06859177350997925,0.004800725728273392
-0.0356866791844368,4.885483741760254,8.71916389465332,0.045393817126750946,-0.04781747981905937,0.045816630125045776
-0.004550635814666748,4.873508930206299,8.666472434997559,0.0480571873486042,-0.045686785131692886,0.05061069130897522
0.06011652201414108,4.839977264404297,8.673657417297363,0.03953440114855766,-0.04888283088803291,0.041022561490535736
0.08406732231378555,4.851953029632568,8.690423011779785,0.03367498889565468,-0.05740561708807945,0.030901754274964333
0.0529312789440155,4.873508930206299,8.707188606262207,0.028880920261144638,-0.08883339166641235,0.011192813515663147
0.04095587879419327,4.911829948425293,8.659287452697754,0.03580568730831146,-0.09256211668252945,0.0037353765219449997
0.03137555718421936,4.883089542388916,8.563483238220215,0.03900172933936119,-0.025445174425840378,0.009594792500138283
0.02898048236966133,4.885483741760254,8.642521858215332,0.031011618673801422,0.0001231806818395853,0.010660139843821526
0.00023952871561050415,4.883089542388916,8.676053047180176,0.027282899245619774,-0.004670886322855949,0.012258162721991539
0.08406732231378555,4.923805236816406,8.692817687988281,0.01769476756453514,-0.03503330424427986,0.013323510065674782
0.11759844422340393,4.904644966125488,8.695213317871094,0.012368026189506054,-0.0584709607064724,0.006398746743798256
0.1319689154624939,4.947756290435791,8.62575626373291,0.03953440114855766,-0.0547422431409359,-0.01703891158103943
-0.045267000794410706,5.041164398193359,7.696465015411377,0.11730481684207916,0.03208361938595772,-0.014375540427863598
0.07209192216396332,4.8615336418151855,7.907232284545898,0.0443284697830677,0.2803097069263458,0.0069314222782850266
0.024190321564674377,4.986077308654785,8.32158088684082,-0.13678070902824402,-0.03716399893164635,-0.02662704698741436
-0.06921778619289398,4.940571308135986,8.793411254882812,-0.2598284184932709,-0.2805960476398468,-0.028757737949490547
-0.018921121954917908,4.945361137390137,8.992202758789062,-0.2539690136909485,-0.2784653306007385,-0.019702281802892685
-0.06203256547451019,4.95733642578125,9.202970504760742,-0.1463688462972641,-0.09256211668252945,-0.019702281802892685
-0.09556367993354797,4.9884724617004395,9.231711387634277,-0.07445785403251648,0.03208361938595772,-0.013842866756021976
-0.16741608083248138,4.9357805252075195,9.104771614074707,0.03846905380487442,0.19667990505695343,0.006398746743798256
-0.1698111593723297,4.883089542388916,8.903585433959961,0.05604729801416397,0.1583273857831955,0.02930373139679432
-0.06921778619289398,4.885483741760254,8.814967155456543,0.0006491979584097862,-0.008399604819715023,0.037826523184776306
0.04814112186431885,4.842372417449951,8.836522102355957,-0.048356812447309494,-0.14582949876785278,0.03303244709968567
0.11280828714370728,4.904644966125488,8.683237075805664,0.07362554222345352,0.0416717566549778,0.02184629626572132
0.1415492445230484,4.887879371643066,8.541927337646484,0.07149484753608704,0.04753116890788078,0.02930373139679432
0.23256227374076843,4.818421840667725,8.515582084655762,0.0022472189739346504,-0.053144220262765884,0.02184629626572132
0.26130324602127075,4.839977264404297,8.666472434997559,-0.024386480450630188,-0.08350665122270584,0.001072007231414318
0.2541179955005646,4.832792282104492,8.69760799407959,-0.019592415541410446,-0.08084327727556229,-0.009048799984157085
0.22298194468021393,4.919014930725098,8.73353385925293,0.0070412857457995415,-0.04249073937535286,-0.019702281802892685
0.16550004482269287,4.887879371643066,8.623361587524414,0.031544290482997894,-0.0020075140055269003,-0.027159718796610832
0.12957383692264557,4.887879371643066,8.539533615112305,0.026750225573778152,0.010243985801935196,-0.03355180472135544
0.09364764392375946,4.911829948425293,8.496421813964844,0.01716209203004837,0.008645964786410332,-0.03621517866849899
-0.10514399409294128,5.091460704803467,8.266493797302246,0.13115434348583221,0.3660702407360077,-0.028757737949490547
-0.14825543761253357,5.017213344573975,8.18027114868164,0.17856231331825256,0.50350022315979,-0.020234953612089157
-0.22250288724899292,4.971706867218018,8.225777626037598,0.07202751934528351,0.28723448514938354,-0.012244843877851963
-0.06203256547451019,4.9884724617004395,8.522768020629883,-0.13092128932476044,-0.171397864818573,0.010660139843821526
0.02179523929953575,4.962126731872559,8.623361587524414,-0.19963626563549042,-0.32747137546539307,0.014921532943844795
0.14873448014259338,4.847163200378418,8.929930686950684,-0.2337273806333542,-0.3897942304611206,-0.0015913639217615128
0.1846606731414795,4.825606822967529,9.052080154418945,-0.1868520826101303,-0.29604360461235046,-0.013842866756021976
0.11280828714370728,4.897459506988525,9.114351272583008,-0.02918054908514023,0.011309333145618439,-0.035682499408721924
0.07688207924365997,4.895064353942871,8.716768264770508,-0.08990539610385895,-0.10587896406650543,-0.010646821931004524
0.03856080397963524,4.928595542907715,8.884425163269043,-0.054216232150793076,-0.049948181957006454,-0.020234953612089157
0.024190321564674377,4.928595542907715,8.781436920166016,0.02142348513007164,0.04646582528948784,-0.016506239771842957
0.0529312789440155,4.8447675704956055,8.424569129943848,0.023554181680083275,0.07629556953907013,-0.005852756090462208
0.06969684362411499,4.86871862411499,8.503606796264648,-0.032376594841480255,0.018234096467494965,-0.014375540427863598
0.02898048236966133,4.895064353942871,8.668867111206055,-0.06273901462554932,-0.019585760310292244,-0.025561697781085968
-0.004550635814666748,4.883089542388916,8.74071979522705,-0.06220634654164314,-0.01798773743212223,-0.03088843636214733
-0.06203256547451019,4.897459506988525,8.836522102355957,-0.03876868635416031,0.017701424658298492,-0.031953781843185425
-0.11711940169334412,4.914225101470947,8.894004821777344,-0.008938934653997421,0.05179256573319435,-0.0213003046810627
-0.10274891555309296,4.8615336418151855,8.862868309020996,0.016096744686365128,0.04220442846417427,-0.00478740781545639
-0.06921778619289398,4.873508930206299,8.817362785339355,0.010237329639494419,-0.0030728650745004416,-0.005852756090462208
-0.04766207933425903,4.890274524688721,8.795806884765625,0.005975937470793724,-0.028108544647693634,-0.008516126312315464
-0.1410701870918274,4.804051399230957,8.506002426147461,0.003845241852104664,-0.05527491495013237,-0.01544088777154684
-0.4260846674442291,5.002843379974365,8.15871524810791,-0.035572636872529984,0.0342143215239048,0.009062116965651512
-0.18418163061141968,4.962126731872559,8.41498851776123,-0.045693445950746536,0.10452727973461151,0.06712358444929123
0.23256227374076843,4.808841705322266,8.903585433959961,-0.03770333155989647,0.1029292643070221,0.06552556157112122
0.1056230366230011,4.926200866699219,9.073636054992676,-0.019059743732213974,0.003319224575534463,0.014921532943844795
-0.13867512345314026,4.765729904174805,8.987412452697754,-0.02491915598511696,-0.10694431513547897,0.00852944329380989
-0.023711279034614563,4.739384174346924,8.786225318908691,-0.0259845033288002,-0.1250552088022232,0.011725487187504768
-0.014130957424640656,4.902249336242676,8.829337120056152,-0.017461717128753662,-0.05261154845356941,0.001072007231414318
-0.04766207933425903,4.897459506988525,8.858078002929688,0.02142348513007164,0.017168749123811722,0.009594792500138283
-0.011735886335372925,4.8615336418151855,8.623361587524414,0.050187885761260986,0.005449920892715454,0.012258162721991539
0.002634607255458832,4.851953029632568,8.422174453735352,0.024619529023766518,-0.025445174425840378,0.0037353765219449997
-0.02610635757446289,4.851953029632568,8.47726058959961,-0.019059743732213974,-0.032902609556913376,-0.0015913639217615128
-0.02610635757446289,4.904644966125488,8.69760799407959,-0.03450728580355644,0.0001231806818395853,0.007464095950126648
-0.018921121954917908,4.885483741760254,8.726348876953125,-0.019059743732213974,0.01184200868010521,0.012790834531188011
-0.045267000794410706,4.897459506988525,8.711978912353516,-0.007340915501117706,0.013972703367471695,0.015986880287528038
-0.06682272255420685,4.8711137771606445,8.652101516723633,-0.00840625911951065,0.0017212016973644495,0.015986880287528038
-0.10753907263278961,4.892669200897217,8.652101516723633,-0.02545183151960373,-0.008932279422879219,0.01705222763121128
-0.14346528053283691,4.902249336242676,8.704792976379395,-0.03770333155989647,-0.013726345263421535,0.027705708518624306
-0.13148987293243408,4.895064353942871,8.735929489135742,-0.0371706597507,-0.009997626766562462,0.041555240750312805
-0.10274891555309296,4.863928318023682,8.723954200744629,-0.03397461399435997,-0.013193671591579914,0.052741385996341705
-0.06682272255420685,4.873508930206299,8.680842399597168,-0.0334419421851635,-0.0222491305321455,0.061796851456165314
-0.06921778619289398,4.875903606414795,8.642521858215332,-0.03823600709438324,-0.023847153410315514,0.06605823338031769
-0.07640305161476135,4.8447675704956055,8.623361587524414,-0.06273901462554932,-0.028641218319535255,0.09056124091148376
-0.10274891555309296,4.837582588195801,8.656891822814941,-0.0835133045911789,-0.03876202180981636,0.11080285161733627
-0.20573735237121582,4.837582588195801,8.66168212890625,-0.10162422060966492,-0.06326503306627274,0.14009994268417358
-0.10035383701324463,4.851953029632568,8.666472434997559,-0.12452921271324158,-0.09682349860668182,0.18324653804302216
-0.016526035964488983,4.808841705322266,8.723954200744629,-0.14104211330413818,-0.11546709388494492,0.20934757590293884
0.019400160759687424,4.765729904174805,8.676053047180176,-0.13944408297538757,-0.1064116358757019,0.22745850682258606
0.15352463722229004,4.739384174346924,8.680842399597168,-0.14104211330413818,-0.0787125825881958,0.24290601909160614
0.20142623782157898,4.689087390899658,8.817362785339355,-0.1405094414949417,-0.04621945694088936,0.2381119579076767
0.6253553628921509,4.514246940612793,8.771855354309082,-0.06593506038188934,0.004384571686387062,0.15341679751873016
0.6708619594573975,4.4831109046936035,8.84610366821289,-0.0685984343290329,0.016103405505418777,0.11826030164957047
0.5966144800186157,4.4471845626831055,8.915560722351074,-0.06007563695311546,0.022495489567518234,0.05167604237794876
0.5558980703353882,4.44957971572876,8.985017776489258,-0.05901029333472252,0.010243985801935196,0.036228492856025696
0.5175768136978149,4.463949680328369,9.052080154418945,-0.054748911410570145,-0.016389714553952217,0.022911643609404564
0.5319472551345825,4.451974391937256,9.104771614074707,-0.03823600709438324,-0.023314477875828743,0.009062116965651512
0.563083291053772,4.461555004119873,9.121537208557129,-0.00840625911951065,-0.014259019866585732,-0.012244843877851963
0.44572436809539795,4.514246940612793,9.056870460510254,0.023554181680083275,-0.009997626766562462,-0.03621517866849899
0.3714768886566162,4.550172805786133,8.994598388671875,0.031544290482997894,-0.016922390088438988,-0.04207459092140198
0.27806878089904785,4.554962635040283,8.901189804077148,0.02941359579563141,-0.04781747981905937,-0.03994389623403549
0.23256227374076843,4.717828750610352,8.810176849365234,0.13807910680770874,0.08588369935750961,-0.03514982759952545
0.07209192216396332,4.744174480438232,8.046146392822266,0.17483359575271606,0.4805951416492462,0.013856183737516403
0.19663608074188232,4.626815319061279,8.381457328796387,0.011302677914500237,0.2904305160045624,0.030901754274964333
0.21100656688213348,4.610049724578857,8.577853202819824,-0.09896084666252136,0.05019453540444374,0.03409779816865921
0.26848846673965454,4.538197040557861,9.042500495910645,-0.2534363269805908,-0.3157525658607483,0.04634930193424225
0.3978227972984314,4.423233985900879,9.27242660522461,-0.24331551790237427,-0.4041764438152313,0.03516314923763275
0.4936259984970093,4.473530292510986,9.291587829589844,-0.18738476932048798,-0.321079283952713,0.027173036709427834
0.4768604338169098,4.50227165222168,9.241291046142578,-0.04356274753808975,-0.04195806756615639,0.00852944329380989
0.32357531785964966,4.475925445556641,9.085611343383789,0.0704294964671135,0.17004619538784027,0.012258162721991539
0.30441468954086304,4.504666328430176,8.721558570861816,0.06936414539813995,0.12530158460140228,0.04208791255950928
0.4265637695789337,4.459159851074219,8.702398300170898,-0.01266765221953392,-0.01745506376028061,0.04794732481241226
0.5032063722610474,4.437603950500488,8.74551010131836,-0.04622611775994301,-0.06486305594444275,0.041555240750312805
0.5271570682525635,4.413653373718262,8.98022747039795,-0.0648697018623352,-0.07764723151922226,0.011192813515663147
0.5032063722610474,4.444789409637451,9.078425407409668,-0.04782414063811302,-0.045686785131692886,-0.003722059540450573
0.39303264021873474,4.50227165222168,9.085611343383789,0.012368026189506054,0.0379430390894413,-0.01810425892472267
0.29722943902015686,4.531012058258057,8.97543716430664,0.0555146262049675,0.07895893603563309,-0.01544088777154684
0.2852540612220764,4.519037246704102,8.822152137756348,0.05231858044862747,0.06830545514822006,6.658956408500671e-06
0.299624502658844,4.50227165222168,8.788620948791504,0.03900172933936119,0.05179256573319435,0.0058660730719566345
0.37626710534095764,4.495085716247559,8.800597190856934,0.011835351586341858,0.022495489567518234,0.012790834531188011
0.44811949133872986,4.5118513107299805,8.872447967529297,0.004377915523946285,0.015570726245641708,0.005333399400115013
0.4624899625778198,4.509456634521484,8.903585433959961,0.00650861207395792,0.016103405505418777,-0.0010586893185973167
0.3978227972984314,4.497481346130371,8.877239227294922,0.018227441236376762,0.012907356023788452,-0.0175715833902359
0.35950154066085815,4.495085716247559,8.834128379821777,0.018760114908218384,0.00758061558008194,-0.023963674902915955
0.28764912486076355,4.514246940612793,8.807781219482422,0.009704655967652798,0.0038518982473760843,-0.028225066140294075
0.2828589677810669,4.545382976531982,8.836522102355957,0.001714545302093029,-0.004138212651014328,-0.025029022246599197
0.30441468954086304,4.550172805786133,8.894004821777344,0.007573959417641163,0.009711313992738724,-0.012777518481016159
0.2828589677810669,4.550172805786133,8.879633903503418,0.010770004242658615,0.021962814033031464,-0.016506239771842957
0.23735244572162628,4.554962635040283,8.896400451660156,0.01290070079267025,0.03208361938595772,-0.01490821409970522
0.23495735228061676,4.583703994750977,8.915560722351074,0.013966048136353493,0.021962814033031464,-0.007450778968632221
0.21819178760051727,4.574123382568359,8.898795127868652,0.01662941835820675,0.01237468421459198,-0.0005260147154331207
0.23735244572162628,4.581308841705322,8.87484359741211,0.019292788580060005,0.016103405505418777,0.007464095950126648
0.25172293186187744,4.535802841186523,9.054475784301758,0.028348248451948166,-0.018520411103963852,0.012790834531188011
0.04574603959918022,4.634000301361084,8.244937896728516,0.04219777137041092,-0.06699375063180923,-0.006918103434145451
0.3379457890987396,4.825606822967529,8.585039138793945,-0.040366705507040024,0.09440648555755615,0.06232951581478119
0.2924392819404602,4.404073238372803,9.042500495910645,-0.0685984343290329,0.08108963817358017,0.052741385996341705
0.2565130591392517,4.4471845626831055,9.037710189819336,-0.02918054908514023,-0.004670886322855949,0.04048988223075867
0.4193785488605499,4.634000301361084,8.786225318908691,-0.020125091075897217,-0.010530301369726658,0.03409779816865921
0.24932783842086792,4.528616905212402,8.987412452697754,-0.04782414063811302,-0.008399604819715023,0.018117574974894524
0.2038213163614273,4.499876499176025,9.085611343383789,-0.04249740391969681,-0.012660996988415718,0.012790834531188011
0.13675907254219055,4.600469589233398,8.987412452697754,-0.014798350632190704,-0.03130458667874336,0.013856183737516403
0.10083287954330444,4.607654571533203,8.903585433959961,-0.010004281997680664,-0.03716399893164635,0.023444315418601036
0.06730175763368607,4.569333553314209,8.862868309020996,-0.018527071923017502,-0.036631327122449875,0.05433940887451172
0.09364764392375946,4.526222229003906,8.870054244995117,-0.024386480450630188,-0.033435285091400146,0.06978695094585419
0.15352463722229004,4.509456634521484,8.953882217407227,-0.035572636872529984,-0.025445174425840378,0.09269193559885025
0.2038213163614273,4.531012058258057,9.047289848327637,-0.036637987941503525,-0.025977848097682,0.10121472924947739
0.2948343753814697,4.531012058258057,9.181415557861328,-0.019592415541410446,-0.03556597977876663,0.11346622556447983
0.4145883619785309,4.519037246704102,9.083215713500977,0.01290070079267025,-0.06113433465361595,0.11772762984037399
0.4624899625778198,4.495085716247559,9.016154289245605,0.02568487823009491,-0.07178781926631927,0.11293355375528336
0.5439226627349854,4.466345310211182,8.865263938903809,0.03900172933936119,-0.07445119321346283,0.0990840271115303
0.5846390724182129,4.459159851074219,8.786225318908691,0.03687103092670441,-0.05740561708807945,0.08576717227697372
0.5702685117721558,4.478320598602295,8.800597190856934,0.02941359579563141,-0.04781747981905937,0.0713849738240242
0.5990095138549805,4.4855055809021,8.822152137756348,0.027282899245619774,-0.05261154845356941,0.06552556157112122
0.6157751083374023,4.475925445556641,8.786225318908691,0.026217550039291382,-0.057938288897275925,0.05380672961473465
0.6277505159378052,4.459159851074219,8.783831596374512,0.024619529023766518,-0.0584709607064724,0.04634930193424225
0.6205652952194214,4.4831109046936035,8.750299453735352,0.024086855351924896,-0.0510135255753994,0.028771059587597847
0.5798488855361938,4.509456634521484,8.711978912353516,0.016096744686365128,-0.0435560904443264,0.018650250509381294
0.5654783844947815,4.531012058258057,8.73353385925293,-0.0014814985916018486,-0.049415506422519684,0.012790834531188011
0.5654783844947815,4.514246940612793,8.807781219482422,-0.014265675097703934,-0.05207887664437294,0.010660139843821526
0.5870341062545776,4.495085716247559,8.831732749938965,-0.017994392663240433,-0.045686785131692886,0.010127464309334755
0.5774538516998291,4.519037246704102,8.862868309020996,-0.017994392663240433,-0.03716399893164635,0.0016046809032559395
0.5606882572174072,4.5118513107299805,8.848498344421387,-0.024386480450630188,-0.040892720222473145,-0.003722059540450573
0.5056014060974121,4.487900733947754,8.953882217407227,-0.049422163516283035,-0.0712551474571228,-0.008516126312315464
0.639725923538208,4.478320598602295,8.244937896728516,0.1668434888124466,0.3053453862667084,0.002670029178261757
0.5750586986541748,4.514246940612793,8.407803535461426,-0.022255789488554,-0.007866931147873402,-0.006385429762303829
0.6014045476913452,4.533407211303711,8.759881019592285,-0.1650124341249466,-0.2726059556007385,0.001072007231414318
0.7498996257781982,4.495085716247559,9.068845748901367,-0.15276093780994415,-0.28325942158699036,-0.002124037593603134
0.7546896934509277,4.504666328430176,9.016154289245605,-0.02545183151960373,-0.0547422431409359,-0.012244843877851963
0.7427144050598145,4.495085716247559,8.850893020629883,0.07895228266716003,0.17750363051891327,-0.012777518481016159
0.6900224685668945,4.44957971572876,8.71916389465332,0.09226913750171661,0.21798688173294067,-0.019702281802892685
0.6732569932937622,4.4855055809021,8.688028335571289,0.024086855351924896,0.08268765360116959,-0.03408447653055191
0.6517013311386108,4.471135139465332,8.752695083618164,-0.054748911410570145,-0.07551653683185577,-0.052728071808815
0.49841612577438354,4.521431922912598,9.152673721313477,-0.019592415541410446,-0.00946495309472084,-0.08309049159288406
0.47207024693489075,4.550172805786133,9.047289848327637,0.036338359117507935,0.061380695551633835,-0.0751003846526146
0.4888358414173126,4.569333553314209,9.27961254119873,0.06510275602340698,0.048596519976854324,-0.07350236177444458
0.19184592366218567,4.689087390899658,8.220987319946289,0.2259703129529953,0.3325117528438568,-0.0990707129240036
0.2134016454219818,4.8351874351501465,8.268888473510742,0.13594840466976166,0.42093566060066223,-0.057522132992744446
0.2134016454219818,4.542987823486328,8.834128379821777,-0.18259069323539734,-0.21454446017742157,-0.011712170206010342
0.4265637695789337,4.545382976531982,9.190995216369629,-0.25823038816452026,-0.45211711525917053,-0.0010586893185973167
0.6421209573745728,4.519037246704102,9.430501937866211,-0.0611409954726696,-0.1325126439332962,-0.011712170206010342
0.5079964995384216,4.562148571014404,9.157463073730469,0.1220988780260086,0.16418680548667908,-0.027159718796610832
0.48404568433761597,4.545382976531982,8.925140380859375,0.17110487818717957,0.22278092801570892,-0.025029022246599197
0.4265637695789337,4.523827075958252,8.479656219482422,0.14979791641235352,0.1492719054222107,-0.01703891158103943
0.5032063722610474,4.50706148147583,8.326370239257812,0.03047894313931465,-0.023847153410315514,-0.012244843877851963
0.5295522212982178,4.50227165222168,8.388643264770508,-0.02918054908514023,-0.08297397196292877,-0.012777518481016159
0.5343424081802368,4.5118513107299805,8.73114013671875,-0.09097073972225189,-0.10534628480672836,-0.0213003046810627
0.5367374420166016,4.545382976531982,8.886819839477539,-0.08511132001876831,-0.07338584214448929,-0.025029022246599197
0.5175768136978149,4.59567928314209,9.08082103729248,-0.02545183151960373,0.02143014222383499,-0.027692394331097603
0.4864407479763031,4.569333553314209,8.985017776489258,0.040599752217531204,0.08481834083795547,-0.028225066140294075
0.45769980549812317,4.514246940612793,8.781436920166016,0.04645916447043419,0.07416486740112305,-0.02982308529317379
0.4936259984970093,4.519037246704102,9.025734901428223,-0.06007563695311546,-0.08031060546636581,-0.03461715579032898
0.35950154066085815,4.629210472106934,8.673657417297363,0.0869423896074295,-0.11919581145048141,-0.07296968996524811
0.12478367984294891,4.782495498657227,7.885676860809326,0.06883147358894348,0.07096882164478302,-0.06071817874908447
0.3259704113006592,4.480715274810791,9.147882461547852,-0.14210747182369232,0.052857909351587296,0.013323510065674782
0.3690818250179291,4.607654571533203,9.382601737976074,-0.09416678547859192,-0.11067302525043488,0.014921532943844795
0.469675213098526,4.550172805786133,9.246082305908203,-0.019059743732213974,-0.04675213620066643,0.014388857409358025
0.3618965744972229,4.459159851074219,9.090401649475098,0.052851252257823944,0.04273710027337074,0.0005393326282501221
0.2900441884994507,4.600469589233398,8.812572479248047,0.054449278861284256,0.043802451342344284,0.0069314222782850266
0.3115999102592468,4.574123382568359,8.817362785339355,0.008639306761324406,-0.02651052363216877,0.026640361174941063
0.41219329833984375,4.545382976531982,8.870054244995117,-0.01266765221953392,-0.07658188790082932,0.039957210421562195
0.5966144800186157,4.519037246704102,8.80299186706543,0.028348248451948166,-0.004138212651014328,0.03942453861236572
0.613379955291748,4.4926910400390625,8.70958423614502,0.03953440114855766,0.041139084845781326,0.02557501383125782
0.5750586986541748,4.50706148147583,8.67126178741455,0.02515220269560814,0.035279665142297745,0.011725487187504768
0.567873477935791,4.519037246704102,8.685632705688477,-0.004677541553974152,-0.004670886322855949,0.0005393326282501221
0.5319472551345825,4.516641616821289,8.757485389709473,-0.027049850672483444,-0.024379825219511986,-0.005320081487298012
0.5415276288986206,4.514246940612793,8.798201560974121,-0.031843919306993484,-0.023314477875828743,-0.005852756090462208
0.5151817202568054,4.504666328430176,8.88202953338623,-0.026517178863286972,0.006515268236398697,-0.007983451709151268
0.5199718475341797,4.497481346130371,8.922744750976562,-0.010536961257457733,0.03261629864573479,-0.010114148259162903
0.5056014060974121,4.50706148147583,8.929930686950684,-0.006808239966630936,0.02995293028652668,-0.020767629146575928
0.3115999102592468,4.550172805786133,8.989808082580566,-0.00840625911951065,-0.03130458667874336,-0.025029022246599197
0.32357531785964966,4.562148571014404,9.073636054992676,-0.006275564432144165,-0.03450063243508339,-0.013310193084180355
0.3355507254600525,4.68429708480835,9.068845748901367,0.004377915523946285,-0.044621437788009644,-0.009048799984157085
0.318785160779953,4.622025489807129,8.570669174194336,0.17163756489753723,0.2590027451515198,0.00852944329380989
0.2732786238193512,4.593284606933594,8.448519706726074,0.10931470990180969,0.195081889629364,0.01705222763121128
0.4792554974555969,4.509456634521484,8.664076805114746,-0.11387573182582855,-0.22093653678894043,0.028771059587597847
0.5774538516998291,4.523827075958252,8.98022747039795,-0.16714313626289368,-0.3620951771736145,-0.0031893854029476643
0.6109849214553833,4.610049724578857,9.061659812927246,-0.13251931965351105,-0.2971089482307434,-0.009581473655998707
0.4888358414173126,4.622025489807129,9.090401649475098,0.004910589195787907,-0.007866931147873402,-0.016506239771842957
0.352316290140152,4.562148571014404,8.822152137756348,0.10878202319145203,0.17590561509132385,6.658956408500671e-06
0.28764912486076355,4.5645432472229,8.680842399597168,0.11038005352020264,0.17270958423614502,0.00799676962196827
0.32357531785964966,4.59567928314209,8.517977714538574,0.03314231336116791,0.04060640558600426,0.031967103481292725
0.47446537017822266,4.526222229003906,8.673657417297363,-0.06540238857269287,-0.10428093373775482,0.048479996621608734
0.522367000579834,4.487900733947754,8.764670372009277,-0.09150341153144836,-0.13890475034713745,0.045816630125045776
0.6037997007369995,4.499876499176025,9.00178337097168,-0.07925190031528473,-0.09948687255382538,0.030369078740477562
0.5487128496170044,4.542987823486328,9.047289848327637,0.024619529023766518,0.05765197053551674,0.014388857409358025
0.5127866268157959,4.538197040557861,8.872447967529297,0.05125323310494423,0.0656420886516571,0.014921532943844795
0.5415276288986206,4.523827075958252,8.77664566040039,0.002779892645776272,-0.032902609556913376,0.012790834531188011
0.5750586986541748,4.540592670440674,8.836522102355957,-0.022255789488554,-0.07285316288471222,0.010660139843821526
0.6037997007369995,4.542987823486328,8.867659568786621,-0.006275564432144165,-0.04249073937535286,0.002137354575097561
0.563083291053772,4.535802841186523,8.690423011779785,0.03474033623933792,0.05125988647341728,-0.007450778968632221
0.48165059089660645,4.538197040557861,8.61378002166748,0.019292788580060005,0.05232524499297142,-0.010646821931004524
0.45769980549812317,4.554962635040283,8.74551010131836,-0.05048750713467598,-0.024379825219511986,6.658956408500671e-06
0.5079964995384216,4.528616905212402,8.98022747039795,-0.0648697018623352,-0.040360044687986374,0.004800725728273392
0.5175768136978149,4.533407211303711,9.099981307983398,-0.03450728580355644,-0.007334256544709206,0.005333399400115013
0.5175768136978149,4.540592670440674,9.123932838439941,-0.015863697975873947,0.011309333145618439,0.0032027028501033783
0.5032063722610474,4.521431922912598,9.054475784301758,0.013433374464511871,0.02036479488015175,-0.003722059540450573
0.26130324602127075,4.590888977050781,8.125184059143066,0.17110487818717957,0.44970008730888367,0.03516314923763275
0.40979817509651184,4.540592670440674,8.32158088684082,-0.09363411366939545,-0.0547422431409359,0.02983640693128109
0.5367374420166016,4.545382976531982,8.829337120056152,-0.3168245255947113,-0.4995250999927521,0.01758490316569805
0.6061947345733643,4.499876499176025,9.353860855102539,-0.3003116250038147,-0.4878062605857849,-0.0010586893185973167
0.6540963649749756,4.44957971572876,9.032919883728027,-0.05634692683815956,-0.05048085376620293,-0.02982308529317379
0.28764912486076355,4.526222229003906,8.944300651550293,0.010770004242658615,0.06510940939188004,-0.041009239852428436
0.21819178760051727,4.576519012451172,8.87484359741211,0.026217550039291382,0.09813519567251205,-0.014375540427863598
0.3115999102592468,4.5645432472229,8.700002670288086,0.009704655967652798,0.08535102009773254,0.05487208068370819
0.5175768136978149,4.404073238372803,8.757485389709473,-0.05155285820364952,0.018766768276691437,0.08843055367469788
0.6493061780929565,4.377727031707764,8.870054244995117,-0.07285982370376587,-0.005736234597861767,0.08949589729309082
0.7834306955337524,4.356171131134033,9.083215713500977,-0.07712121307849884,-0.010530301369726658,0.05966614931821823
0.7019978761672974,4.40167760848999,9.188599586486816,-0.0036121951416134834,0.048063840717077255,0.0037353765219449997
0.6157751083374023,4.382517337799072,9.032919883728027,0.03900172933936119,0.07629556953907013,-0.008516126312315464
0.5750586986541748,4.3944926261901855,8.934720993041992,0.04273044690489769,0.07629556953907013,-0.007450778968632221
0.5798488855361938,4.392097473144531,8.898795127868652,0.01769476756453514,0.04060640558600426,-0.0015913639217615128
0.6253553628921509,4.3944926261901855,8.956276893615723,-0.013732999563217163,-0.016922390088438988,0.0005393326282501221
0.6229603290557861,4.416048526763916,9.004179000854492,0.0022472189739346504,-0.0398273728787899,-0.03088843636214733
0.6469111442565918,4.420838356018066,9.430501937866211,0.032609641551971436,-0.004138212651014328,-0.03621517866849899
0.4433293044567108,4.602864742279053,8.482050895690918,0.30800214409828186,0.5546368956565857,-0.041009239852428436
0.2948343753814697,4.607654571533203,8.094048500061035,0.32504770159721375,0.7011222243309021,-0.03514982759952545
-0.028501436114311218,4.475925445556641,8.259308815002441,0.05604729801416397,0.26699286699295044,-0.007983451709151268
0.3115999102592468,4.471135139465332,8.704792976379395,-0.21082241833209991,-0.23585140705108643,0.04048988223075867
0.5918242931365967,4.375331878662109,9.262846946716309,-0.3514483571052551,-0.5581191778182983,0.01651955582201481
0.7427144050598145,4.39688777923584,9.727492332458496,-0.24225017428398132,-0.4308101534843445,-0.01703891158103943
0.6564913988113403,4.416048526763916,9.533491134643555,0.019825462251901627,-0.013193671591579914,-0.05219539999961853
0.5008112192153931,4.430418968200684,9.322723388671875,0.1279582977294922,0.16258876025676727,-0.060185506939888
0.31639009714126587,4.459159851074219,8.836522102355957,0.21584950387477875,0.3064107298851013,-0.03621517866849899
0.33315563201904297,4.4567646980285645,8.666472434997559,0.1945425420999527,0.2680582106113434,-0.018636934459209442
0.416983425617218,4.475925445556641,8.491630554199219,0.08587704598903656,0.08268765360116959,0.002137354575097561
0.5870341062545776,4.439999580383301,8.618570327758789,-0.022788461297750473,-0.061667006462812424,0.002670029178261757
0.6157751083374023,4.45436954498291,8.867659568786621,-0.05102018639445305,-0.0749838650226593,-0.023963674902915955
0.5127866268157959,4.490295886993408,8.996993064880371,-0.0020141741260886192,0.0070479437708854675,-0.049532026052474976
0.34273597598075867,4.545382976531982,8.788620948791504,0.07202751934528351,0.11624611169099808,-0.04686865210533142
0.28764912486076355,4.526222229003906,8.700002670288086,0.061906713992357254,0.11784414201974869,-0.023963674902915955
0.32118022441864014,4.5118513107299805,8.743114471435547,0.027815572917461395,0.09334114193916321,0.0005393326282501221
0.4433293044567108,4.480715274810791,8.822152137756348,-0.0041448697447776794,0.056586626917123795,0.002670029178261757
0.416983425617218,4.497481346130371,8.987412452697754,-0.024386480450630188,-0.012128323316574097,-0.03142111003398895
0.3475261330604553,4.5118513107299805,9.025734901428223,-0.01639636978507042,-0.0222491305321455,-0.045270636677742004
0.3115999102592468,4.531012058258057,8.996993064880371,-0.007873587310314178,-0.0222491305321455,-0.04846668243408203
0.22537705302238464,4.552567958831787,8.961067199707031,0.004910589195787907,-0.014791693538427353,-0.041541919112205505
0.299624502658844,4.562148571014404,8.956276893615723,0.010770004242658615,-0.025445174425840378,-0.013310193084180355
0.07448700070381165,4.655556678771973,8.326370239257812,0.04273044690489769,-0.03450063243508339,-0.027692394331097603
0.1774754375219345,4.6914825439453125,8.352716445922852,-0.00840625911951065,0.09493915736675262,0.026107685640454292
0.3690818250179291,4.617234706878662,8.635335922241211,-0.04995483532547951,0.12956297397613525,0.05167604237794876
0.33076056838035583,4.3489861488342285,9.076031684875488,-0.08830736577510834,0.023560836911201477,0.02930373139679432
0.3283654749393463,4.531012058258057,9.260452270507812,-0.0835133045911789,-0.0749838650226593,0.01705222763121128
0.4672801196575165,4.514246940612793,9.190995216369629,-0.040899381041526794,-0.07018979638814926,0.018117574974894524
0.3978227972984314,4.44957971572876,9.174229621887207,-0.017994392663240433,-0.04302341863512993,0.005333399400115013
0.2828589677810669,4.451974391937256,9.035314559936523,0.03527300804853439,0.016103405505418777,-0.009581473655998707
0.20861148834228516,4.550172805786133,8.855683326721191,0.04592649266123772,0.0342143215239048,0.0005393326282501221
0.19903115928173065,4.528616905212402,8.781436920166016,0.01716209203004837,-0.0030728650745004416,0.028238384053111076
0.3283654749393463,4.4926910400390625,8.783831596374512,-0.011069633066654205,-0.03130458667874336,0.048479996621608734
0.43853914737701416,4.490295886993408,8.850893020629883,-0.015331022441387177,-0.029173893854022026,0.04688197374343872
0.47446537017822266,4.461555004119873,8.870054244995117,-0.0020141741260886192,-0.0020075140055269003,0.03463046997785568
0.45769980549812317,4.478320598602295,8.843708038330078,0.008106634020805359,0.017701424658298492,0.02184629626572132
0.4433293044567108,4.475925445556641,8.83891773223877,0.007573959417641163,0.02569153532385826,0.019182922318577766
0.469675213098526,4.463949680328369,8.84610366821289,0.002779892645776272,0.024093512445688248,0.02078094519674778
0.48165059089660645,4.4567646980285645,8.848498344421387,-0.0025468477979302406,0.016103405505418777,0.019715601578354836
0.5151817202568054,4.444789409637451,8.867659568786621,-0.012134980410337448,0.0001231806818395853,0.011725487187504768
0.4960210919380188,4.442393779754639,8.908374786376953,-0.015863697975873947,-0.008932279422879219,-0.005320081487298012
0.35710644721984863,4.4567646980285645,8.963461875915527,-0.006808239966630936,-0.009997626766562462,-0.013310193084180355
0.3547113537788391,4.468739986419678,8.992202758789062,-0.0041448697447776794,-0.011062974110245705,-0.011712170206010342
0.3738720118999481,4.4926910400390625,8.939512252807617,0.0070412857457995415,-0.014791693538427353,-0.014375540427863598
0.3714768886566162,4.50706148147583,8.925140380859375,0.010237329639494419,-0.013726345263421535,-0.016506239771842957
0.34034088253974915,4.5118513107299805,8.886819839477539,0.007573959417641163,-0.019585760310292244,-0.01810425892472267
0.3115999102592468,4.509456634521484,8.917956352233887,0.002779892645776272,-0.019585760310292244,-0.014375540427863598
0.38345232605934143,4.5477776527404785,9.008968353271484,0.07256019115447998,0.049129191786050797,-0.01703891158103943
0.35950154066085815,4.490295886993408,8.70958423614502,-0.21934519708156586,-0.31308916211128235,0.02557501383125782
0.4529096782207489,4.468739986419678,9.301168441772461,-0.2779393494129181,-0.4233527183532715,0.01651955582201481
0.5511078834533691,4.408863067626953,9.502354621887207,-0.12719260156154633,-0.20921772718429565,0.005333399400115013
0.6037997007369995,4.430418968200684,9.423317909240723,0.07682158052921295,0.12370356917381287,-0.029290413483977318
0.24214258790016174,4.480715274810791,8.917956352233887,0.15299396216869354,0.25154533982276917,-0.029290413483977318
0.2038213163614273,4.499876499176025,8.668867111206055,0.08907309174537659,0.1007985770702362,-0.006918103434145451
0.35710644721984863,4.495085716247559,8.635335922241211,-0.03024589642882347,-0.12398988008499146,0.009594792500138283
0.49841612577438354,4.439999580383301,8.858078002929688,-0.09043806791305542,-0.19323749840259552,0.002670029178261757
0.49123090505599976,4.45436954498291,9.042500495910645,-0.0446280911564827,-0.09202943742275238,-0.0213003046810627
0.38584738969802856,4.542987823486328,9.01136302947998,0.03846905380487442,0.049129191786050797,-0.03142111003398895
0.2924392819404602,4.528616905212402,8.750299453735352,0.062439385801553726,0.08322032541036606,-0.018636934459209442
0.299624502658844,4.5118513107299805,8.735929489135742,0.004910589195787907,-0.008932279422879219,-0.007983451709151268
0.352316290140152,4.4831109046936035,8.87484359741211,-0.04356274753808975,-0.0824412927031517,-0.006918103434145451
0.38345232605934143,4.504666328430176,8.987412452697754,-0.040366705507040024,-0.08031060546636581,-0.010114148259162903
0.36668676137924194,4.5118513107299805,9.162254333496094,0.08108298480510712,0.03208361938595772,-0.020767629146575928
0.12238860130310059,4.7106428146362305,8.302419662475586,0.2147841453552246,0.3879098892211914,-0.01490821409970522
0.1678951233625412,4.655556678771973,8.240147590637207,0.11304342746734619,0.3682008981704712,0.030369078740477562
0.450514554977417,4.404073238372803,8.836522102355957,-0.21082241833209991,-0.25023362040519714,0.048479996621608734
0.5606882572174072,4.332220554351807,9.325119018554688,-0.27527594566345215,-0.43347349762916565,0.004268051125109196
0.6301455497741699,4.389702796936035,9.528700828552246,-0.2225412279367447,-0.37274864315986633,-0.011712170206010342
0.5798488855361938,4.4831109046936035,9.480798721313477,-0.005742892622947693,-0.025977848097682,-0.04846668243408203
0.2828589677810669,4.521431922912598,9.054475784301758,0.16418011486530304,0.2542087137699127,-0.05592411756515503
0.2038213163614273,4.499876499176025,8.83891773223877,0.18601974844932556,0.2893652021884918,-0.04313993453979492
0.21819178760051727,4.504666328430176,8.508397102355957,0.11410877108573914,0.15886004269123077,-0.01544088777154684
0.35710644721984863,4.4831109046936035,8.568273544311523,-0.022255789488554,-0.05527491495013237,-0.005852756090462208
0.4002178907394409,4.4831109046936035,8.707188606262207,-0.07126179337501526,-0.12398988008499146,-0.011712170206010342
0.416983425617218,4.487900733947754,8.992202758789062,-0.08670933544635773,-0.13411067426204681,-0.03514982759952545
0.3714768886566162,4.5118513107299805,9.078425407409668,-0.057412270456552505,-0.08350665122270584,-0.04580330848693848
0.24214258790016174,4.586099147796631,8.999387741088867,0.02515220269560814,0.03954106196761131,-0.04420528560876846
0.17508035898208618,4.566938400268555,8.810176849365234,0.06403741240501404,0.09813519567251205,-0.025561697781085968
0.2038213163614273,4.562148571014404,8.656891822814941,0.03793638199567795,0.06191336736083031,-0.006918103434145451
0.30680975317955017,4.569333553314209,8.69760799407959,-0.04249740391969681,-0.05207887664437294,-0.0010586893185973167
0.35950154066085815,4.538197040557861,8.735929489135742,-0.053683552891016006,-0.07338584214448929,-0.005320081487298012
0.3379457890987396,4.499876499176025,8.695213317871094,-0.0334419421851635,-0.013193671591579914,-0.013310193084180355
0.28764912486076355,4.425628662109375,9.066451072692871,-0.08404597640037537,0.023028165102005005,0.015986880287528038
0.14394432306289673,4.686692237854004,8.752695083618164,-0.09416678547859192,-0.006801582872867584,0.012258162721991539
-0.10753907263278961,4.557358264923096,8.80299186706543,-0.017994392663240433,0.2494146227836609,0.028771059587597847
0.23735244572162628,4.368146896362305,9.035314559936523,0.002779892645776272,0.25047996640205383,0.04315325617790222
0.26848846673965454,4.315454959869385,9.509540557861328,-0.057944949716329575,-0.2624851167201996,-0.04207459092140198
