accX,accY,accZ,gyroX,gyroY,gyroZ
1.7150555849075317,5.915356636047363,7.465307712554932,-0.37689274549484253,0.28671643137931824,-0.37979426980018616
1.796710729598999,5.824429512023926,7.692924976348877,-0.4282039403915405,0.24823305010795593,-0.40483900904655457
1.9259231090545654,5.769394397735596,8.147860527038574,-0.4343124032020569,0.16393613815307617,-0.44271156191825867
1.8852450847625732,5.60399055480957,8.684151649475098,-0.33230090141296387,-0.0877329409122467,-0.5092939138412476
1.6432709693908691,5.374279499053955,8.504390716552734,-0.18019993603229523,-0.4011739492416382,-0.5685460567474365
1.1979068517684937,5.082056045532227,8.229216575622559,-0.06413896381855011,-0.6045860648155212,-0.5190674662590027
0.9203394055366516,5.158626556396484,8.301000595092773,-0.034818295389413834,-0.4934118688106537,-0.35169529914855957
1.3680963516235352,5.522634506225586,8.595317840576172,0.043981000781059265,-0.29358845949172974,-0.08780929446220398
1.5643078088760376,5.642275810241699,8.411070823669434,0.07635590434074402,-0.23433628678321838,-0.016340164467692375
1.918744683265686,5.54177713394165,8.094919204711914,0.0647498071193695,-0.2202867865562439,-0.04749337583780289
1.7222341299057007,5.577669620513916,7.8556365966796875,0.020157959312200546,-0.021150587126612663,-0.1256818175315857
1.6648063659667969,5.642275810241699,7.498806953430176,-0.05375456064939499,0.06192464008927345,-0.14767232537269592
1.609771490097046,5.584847927093506,7.501199722290039,-0.17897824943065643,0.08758022636175156,-0.18615570664405823
1.3992030620574951,5.501099109649658,7.630711555480957,-0.2987042963504791,0.15049749612808228,-0.19348587095737457
1.236491084098816,5.429314613342285,8.00638484954834,-0.3836120665073395,0.12789614498615265,-0.14461809396743774
1.516451358795166,5.426921844482422,8.406285285949707,-0.3658975064754486,0.07841751724481583,-0.07314895838499069
0.8820542693138123,5.158626556396484,8.571390151977539,0.01038440316915512,-0.2862583100795746,-0.28816720843315125
-0.1905284970998764,4.66570520401001,8.85643482208252,0.1973036676645279,-0.16286714375019073,-0.19348587095737457
-0.38673996925354004,4.857131004333496,8.959325790405273,0.2773246467113495,-0.06574243307113647,-0.08292251825332642
0.12801600992679596,4.859523773193359,8.478069305419922,0.3775036036968231,0.0423775278031826,0.08750387281179428
1.0256235599517822,5.295316696166992,7.9657063484191895,0.35856732726097107,0.006948387715965509,0.10521844029426575
1.308275818824768,5.558526992797852,7.52512788772583,0.2742704153060913,-0.10666920244693756,-0.01572931744158268
1.2915260791778564,5.647061347961426,7.458128929138184,0.21685077250003815,-0.1408766508102417,-0.0725381150841713
1.2460623979568481,5.776573181152344,7.376772880554199,0.0916270911693573,-0.17202985286712646,-0.16844113171100616
1.04715895652771,5.697310924530029,7.312166690826416,-0.04337015375494957,-0.13293562829494476,-0.22524993121623993
0.8198408484458923,5.429314613342285,7.419844150543213,-0.17836740612983704,-0.06940752267837524,-0.25090551376342773
0.7193422913551331,5.338387489318848,7.621140003204346,-0.22601348161697388,-0.043141089379787445,-0.24662958085536957
0.6762714982032776,5.388636589050293,8.126324653625488,-0.23334364593029022,0.010002624243497849,-0.2044811248779297
0.4103690981864929,5.877071380615234,5.62672233581543,0.08124268800020218,0.0008399150101467967,-0.08108997344970703
0.24526432156562805,5.84357213973999,6.285048007965088,-0.25655585527420044,-0.15981291234493256,-0.010842538438737392
0.4486542344093323,5.886642932891846,7.75753116607666,-0.3921639323234558,-0.23861220479011536,0.05512896552681923
0.9131609201431274,5.991927146911621,8.801400184631348,-0.26755109429359436,-0.12988139688968658,0.04963133856654167
1.2077772617340088,6.0972113609313965,8.976076126098633,-0.01710372418165207,0.032603971660137177,-0.012675080448389053
1.1668001413345337,6.123532295227051,8.679366111755371,0.20524467527866364,0.16271443665027618,-0.04199574887752533
0.8988040089607239,6.10678243637085,8.102097511291504,0.3164188861846924,0.0686439573764801,-0.021837789565324783
0.8485547304153442,6.058926105499268,7.8628153800964355,0.3310792148113251,-0.018707197159528732,0.00259610079228878
0.9394819736480713,6.1450676918029785,7.592426300048828,0.32008397579193115,-0.14393088221549988,0.04840964451432228
1.1309077739715576,6.233602046966553,7.477271556854248,0.28343313932418823,-0.11094513535499573,0.06184828653931618
1.2843475341796875,6.387042045593262,7.216454029083252,0.22662433981895447,0.06620056927204132,0.056961506605148315
1.4518451690673828,5.9560346603393555,8.377571105957031,0.4819584786891937,-0.18669019639492035,0.03436015918850899
1.4446666240692139,6.781857490539551,7.450950622558594,0.6462764143943787,0.15538427233695984,0.09055810421705246
0.9753743410110474,6.798607349395752,5.909374713897705,0.3414636254310608,0.41804859042167664,0.10644013434648514
0.4462614357471466,6.188138484954834,7.001100063323975,-0.11606097966432571,0.5108973979949951,0.18401773273944855
0.6834499835968018,6.1139607429504395,7.884350776672363,-0.47890424728393555,0.49440449476242065,0.30985227227211
1.1524431705474854,6.320042610168457,8.011170387268066,-0.08368607610464096,0.7234722375869751,0.15836215019226074
0.17108681797981262,6.336792469024658,7.76470947265625,0.09040539711713791,0.11934428662061691,0.149199441075325
0.870090126991272,6.190531253814697,8.080561637878418,0.2644968628883362,0.004504998680204153,0.18035265803337097
0.6161518096923828,6.142674922943115,7.209275722503662,0.14904673397541046,0.25800660252571106,0.13331741094589233
0.0487537607550621,5.934499263763428,7.657032489776611,-0.1710372269153595,0.43087637424468994,0.14736689627170563
0.07746763527393341,5.915356636047363,8.039883613586426,-0.21501824259757996,0.34902286529541016,0.19256959855556488
-0.01824527233839035,5.977570056915283,8.607281684875488,-0.09284878522157669,0.21891239285469055,0.19928891956806183
-0.2072782665491104,5.896214008331299,8.655138969421387,0.10995250940322876,0.11018157750368118,0.2017323076725006
-0.2790629267692566,5.687739372253418,8.387142181396484,0.2767138183116913,0.12606360018253326,0.2170034945011139
-0.32691940665245056,5.553741455078125,8.030312538146973,0.3274141252040863,0.1853157877922058,0.22250111401081085
-0.41545382142066956,5.319244861602783,7.860422611236572,0.3011476993560791,0.19386765360832214,0.20967331528663635
-0.4417748749256134,5.259424209594727,7.7838521003723145,0.28282228112220764,0.15843850374221802,0.19867807626724243
-0.46809592843055725,5.32403039932251,7.628318786621094,0.2632751762866974,0.02160872146487236,0.1644706279039383
-0.4058825373649597,5.446064472198486,7.611568927764893,0.25777754187583923,-0.07918107509613037,0.13576079905033112
-0.22642084956169128,5.525027275085449,7.6043901443481445,0.23028941452503204,-0.09384141117334366,0.11315945535898209
-0.054137613624334335,5.44845724105835,7.728816986083984,0.0787992998957634,0.05031854286789894,0.03497100621461868
0.05593222752213478,5.515456199645996,7.611568927764893,0.01710372418165207,0.03077143058180809,0.0032069480512291193
0.043968115001916885,5.477170944213867,7.688138961791992,-0.04337015375494957,-0.07368344813585281,-0.041384901851415634
0.11605189740657806,5.4628143310546875,7.75753116607666,-0.10384403169155121,-0.2447206825017929,-0.09941539168357849
0.11126625537872314,5.381458282470703,7.987242221832275,-0.13866232335567474,-0.3712424337863922,-0.14156384766101837
0.29312077164649963,5.436492919921875,8.243573188781738,-0.10323318839073181,-0.3871244490146637,-0.1751604527235031
0.3433700501918793,5.422136306762695,8.245965957641602,-0.0653606578707695,-0.3755183517932892,-0.2032594233751297
0.15194423496723175,5.381458282470703,8.27707290649414,0.015271181240677834,-0.3626905679702759,-0.23502348363399506
0.13040883839130402,5.515456199645996,8.2124662399292,0.055587101727724075,-0.41766682267189026,-0.2032594233751297
0.3840480446815491,5.639883041381836,8.289036750793457,0.06719319522380829,-0.5141806602478027,-0.19470755755901337
0.42711883783340454,5.730810165405273,8.317750930786133,0.11361759155988693,-0.6491779088973999,-0.2276933193206787
0.6882356405258179,5.802894115447998,7.9489569664001465,0.27060532569885254,-0.6381826996803284,-0.319320410490036
0.46779683232307434,5.960820198059082,7.5637125968933105,0.2724378705024719,-0.5202891230583191,-0.28999972343444824
0.6858428120613098,6.116353988647461,7.228417873382568,0.1716480851173401,-0.529451847076416,-0.28816720843315125
0.6930212378501892,6.159424781799316,7.23798942565918,0.005497625097632408,-0.4647020399570465,-0.2985515892505646
0.7408776879310608,6.135496139526367,7.304988384246826,-0.08124268800020218,-0.40422818064689636,-0.2918322682380676
0.8078767657279968,6.0972113609313965,7.716853141784668,-0.21440738439559937,-0.2752630412578583,-0.2918322682380676
0.7695915699005127,6.092425346374512,8.09252643585205,-0.25350162386894226,-0.1671430766582489,-0.3071034550666809
0.16869398951530457,5.9560346603393555,8.308178901672363,-0.047646086663007736,-0.23983390629291534,-0.2973299026489258
0.4773681163787842,6.04456901550293,8.248358726501465,0.08063183724880219,-0.3718532621860504,-0.24724042415618896
0.5682953596115112,6.018248081207275,8.082955360412598,0.1954711228609085,-0.44759833812713623,-0.2527380585670471
0.537188708782196,5.965605735778809,8.02791976928711,0.28404396772384644,-0.4225535988807678,-0.26434415578842163
0.4342973232269287,6.329614162445068,7.680960655212402,0.3139754831790924,-0.3248180150985718,-0.26434415578842163
0.8030911087989807,6.389434814453125,6.330511569976807,0.30847787857055664,-0.05657972767949104,-0.23991025984287262
0.7576274871826172,6.243173599243164,6.759125709533691,0.16737215220928192,-0.1152210608124733,-0.19837264716625214
1.272383451461792,7.040581703186035,7.192525863647461,-0.0006108472589403391,0.04787515476346016,-0.16721943020820618
0.9299107193946838,6.295815467834473,6.833303451538086,-0.16187451779842377,0.0955212414264679,-0.14217470586299896
0.17108681797981262,6.185745716094971,7.206882476806641,-0.25777754187583923,0.040544986724853516,-0.111632339656353
0.09930214285850525,6.3029937744140625,7.4724860191345215,-0.26694026589393616,0.024662958458065987,-0.08047912269830704
0.25722843408584595,6.430112838745117,7.621140003204346,-0.22845686972141266,0.07475243508815765,-0.0328330397605896
0.10887342691421509,6.470790863037109,7.738388538360596,-0.16248537600040436,0.16393613815307617,-0.042606595903635025
0.36729827523231506,6.499504566192627,7.728816986083984,-0.07635590434074402,0.18226155638694763,-0.09025268256664276
-0.07806584239006042,6.312565326690674,7.592426300048828,0.0036650835536420345,0.0423775278031826,-0.17210622131824493
-0.0038883367087692022,6.298208236694336,7.558926582336426,0.07391251623630524,-0.16958646476268768,-0.19470755755901337
0.137587308883667,6.444469451904297,7.458128929138184,0.13377554714679718,-0.3364241421222687,-0.2289150059223175
0.2309073805809021,6.6143598556518555,7.18295431137085,0.17714570462703705,-0.4549284875392914,-0.241742804646492
0.3529413342475891,6.734001159667969,7.233203887939453,0.22540263831615448,-0.5648810267448425,-0.2283041626214981
0.25722843408584595,6.597609996795654,7.108777046203613,0.28282228112220764,-0.5984776020050049,-0.1904316395521164
0.3696911036968231,6.415755748748779,6.897909641265869,0.22784602642059326,-0.5404471158981323,-0.16905197501182556
0.4989035129547119,6.611967086791992,7.099205493927002,0.13744063675403595,-0.3315373361110687,-0.1757712960243225
0.6571289300918579,6.762714862823486,6.6418776512146,0.1172826737165451,-0.08345700800418854,-0.20814619958400726
0.3888336718082428,6.88026237487793,6.668198585510254,0.05986303091049194,-0.07979192584753036,-0.14278554916381836
1.1309077739715576,7.308577537536621,6.919445037841797,-0.11056335270404816,0.002061609411612153,-0.10308047384023666
0.8126623630523682,6.975975513458252,7.139883518218994,-0.2211267054080963,0.04665346071124077,-0.14156384766101837
0.19980068504810333,6.822535514831543,7.190133094787598,-0.2217375487089157,-0.015042114071547985,-0.12323843687772751
0.7241279482841492,6.623931407928467,7.326523780822754,-0.23334364593029022,-0.06818582862615585,-0.14339639246463776
0.7552346587181091,6.652645111083984,7.970492362976074,-0.24494975805282593,-0.02420482225716114,-0.26006820797920227
0.8868398666381836,6.595217227935791,8.217251777648926,-0.2339545041322708,-0.0034360159188508987,-0.31199023127555847
0.7313064336776733,6.43968391418457,8.463712692260742,-0.15026842057704926,-0.027869906276464462,-0.3987305462360382
0.5132604837417603,6.434898376464844,8.341678619384766,-0.0024433890357613564,-0.17508409917354584,-0.39384377002716064
0.8653044700622559,6.568896293640137,8.162217140197754,0.19974705576896667,-0.34192174673080444,-0.33886751532554626
1.0399805307388306,6.7076802253723145,7.83410120010376,0.42331716418266296,-0.5233433842658997,-0.3223746418952942
1.2819547653198242,6.406184196472168,7.3073811531066895,0.5949652194976807,-0.7133168578147888,-0.3187095522880554
0.992124080657959,6.295815467834473,6.80458927154541,0.6413896083831787,-0.8593093752861023,-0.35597124695777893
1.0495518445968628,6.271887302398682,6.165406703948975,0.5589252710342407,-0.9759812355041504,-0.34131091833114624
1.3776676654815674,6.202495574951172,5.8061842918396,0.3384093940258026,-0.9191724061965942,-0.3455868363380432
1.4111671447753906,6.257530212402344,5.784648895263672,0.1172826737165451,-0.5972558856010437,-0.3626905679702759
1.0112667083740234,6.4325056076049805,6.096014976501465,-0.08796200156211853,-0.38223767280578613,-0.3443651497364044
0.9777671694755554,6.719644069671631,6.45523738861084,-0.2993151545524597,-0.19768545031547546,-0.3345915973186493
1.1045867204666138,6.719644069671631,6.785446643829346,-0.4062134325504303,-0.13415732979774475,-0.2948864996433258
1.0806585550308228,6.70289421081543,6.871588230133057,-0.42453885078430176,-0.1146102175116539,-0.2680092453956604
0.8557332158088684,6.623931407928467,6.945765972137451,-0.474017471075058,-0.10178242623806,-0.21853061020374298
0.9155537486076355,6.535397052764893,7.216454029083252,-0.5363239049911499,-0.028480753302574158,-0.17943638563156128
0.6762714982032776,6.329614162445068,8.178966522216797,-0.5118899941444397,0.3044309914112091,-0.1635543555021286
0.9849455952644348,6.267101764678955,8.341678619384766,-0.41415444016456604,0.3991123139858246,-0.16844113171100616
1.0998010635375977,6.216852188110352,8.272287368774414,-0.284654825925827,0.2799971103668213,-0.23624517023563385
1.1045867204666138,6.264708995819092,8.075776100158691,0.06352811306715012,-0.2447206825017929,-0.27533939480781555
1.2029916048049927,6.2240309715271,7.9489569664001465,0.14965757727622986,-0.35658207535743713,-0.2826695740222931
1.3010972738265991,6.293422698974609,7.539484977722168,0.2644968628883362,-0.4158342778682709,-0.3180987238883972
1.0184451341629028,6.367899417877197,6.6969122886657715,0.2883199155330658,-0.39384377002716064,-0.3315373361110687
0.7025925517082214,5.963212966918945,6.584449768066406,0.3304683566093445,-0.4671454429626465,-0.2814478874206543
1.296311616897583,6.334399700164795,6.328118801116943,0.18630841374397278,-0.35658207535743713,-0.19959434866905212
0.8437690734863281,6.180960178375244,6.115157604217529,-0.2993151545524597,-0.19768545031547546,-0.23196925222873688
0.41994038224220276,5.972784519195557,7.190133094787598,-0.49295374751091003,-0.1543152928352356,-0.19226416945457458
0.7193422913551331,5.9321064949035645,7.989634990692139,-0.49295374751091003,-0.11583191156387329,-0.15378080308437347
1.1404790878295898,6.101996898651123,8.403892517089844,-0.3555130958557129,-0.048638712614774704,-0.2032594233751297
1.1524431705474854,6.082854270935059,8.485248565673828,-0.16492876410484314,-0.07124006003141403,-0.29916244745254517
0.6738786697387695,6.0278191566467285,8.250751495361328,0.012216945178806782,-0.2331145852804184,-0.3443651497364044
0.9729815125465393,6.042176246643066,7.659425258636475,0.11422843486070633,-0.49585527181625366,-0.33764582872390747
1.2532408237457275,6.221638202667236,7.312166690826416,0.13744063675403595,-0.6265766024589539,-0.39323291182518005
1.3489537239074707,6.3029937744140625,7.257132053375244,0.12278030067682266,-0.6748335361480713,-0.4372139275074005
1.2843475341796875,6.477969169616699,7.151847839355469,0.09895725548267365,-0.6730009913444519,-0.43293800950050354
1.4374881982803345,6.430112838745117,7.261917591094971,0.07330167293548584,-0.6833853721618652,-0.3474193811416626
1.7679967880249023,6.293422698974609,7.316952705383301,-0.06719319522380829,-0.5172349214553833,-0.3358132839202881
1.72941255569458,6.332006931304932,7.321738243103027,-0.09956810623407364,-0.5025745630264282,-0.3694098889827728
1.6360924243927002,6.444469451904297,7.419844150543213,-0.1185043677687645,-0.510515570640564,-0.37918344140052795
1.4279168844223022,6.525825500488281,7.419844150543213,-0.12094775587320328,-0.4897467792034149,-0.36879903078079224
1.277169108390808,6.506682872772217,7.336095333099365,-0.1178935244679451,-0.474475622177124,-0.35108447074890137
1.3226326704025269,6.50907564163208,7.369594573974609,-0.12216944992542267,-0.4133908748626709,-0.30038413405418396
1.3489537239074707,6.489933013916016,7.539484977722168,-0.11911521852016449,-0.38040512800216675,-0.2973299026489258
1.0734800100326538,6.351149559020996,7.683353424072266,-0.056808795779943466,-0.4262186884880066,-0.29061058163642883
0.9705886840820312,6.425326824188232,7.5804619789123535,-0.02870982140302658,-0.40606072545051575,-0.2826695740222931
0.8748757839202881,6.391827583312988,7.321738243103027,-0.03176405653357506,-0.3968980014324188,-0.24968381226062775
1.2436695098876953,6.355935096740723,8.008777618408203,-0.020157959312200546,-0.3828485310077667,-0.2588465213775635
1.1069796085357666,6.367899417877197,8.214859008789062,0.15454435348510742,-0.44759833812713623,-0.28633466362953186
1.332203984260559,6.5042901039123535,8.334500312805176,0.3683409094810486,-0.5642701387405396,-0.2930539846420288
1.454237937927246,6.6454668045043945,6.663413047790527,0.5998520255088806,-0.7267554998397827,-0.2710634768009186
1.8684953451156616,6.461219310760498,6.160621166229248,0.7036960124969482,-0.506239652633667,-0.2160872220993042
1.2149556875228882,6.595217227935791,5.5692949295043945,0.3958290219306946,-0.5044071078300476,-0.09941539168357849
1.5044872760772705,6.3224358558654785,7.10638427734375,-0.5241069197654724,0.7033142447471619,0.22250111401081085
1.949851393699646,6.683752059936523,7.554141044616699,-0.5430431962013245,0.8609128594398499,0.18401773273944855
1.1309077739715576,6.396613121032715,7.824530124664307,-0.5436540842056274,1.0362260341644287,0.12659808993339539
0.4534398913383484,6.008676528930664,7.69531774520874,-0.5234960913658142,1.0771527290344238,0.15897299349308014
0.25722843408584595,5.778965950012207,7.395915508270264,-0.5173876285552979,1.0020185708999634,0.2426590770483017
1.059123158454895,5.924928188323975,8.528319358825684,-0.4349232614040375,0.9268843531608582,0.2811424434185028
0.8916255235671997,5.903392791748047,8.777471542358398,-0.26632940769195557,0.8438091278076172,0.17302247881889343
0.6643074154853821,5.718846321105957,8.454141616821289,-0.07574506103992462,0.5909183621406555,0.0850604772567749
0.4893322288990021,5.570491313934326,8.075776100158691,0.09529217332601547,0.2549523711204529,0.049020491540431976
0.8294121623039246,5.829215049743652,8.109575271606445,0.24067382514476776,-0.0016034740256145597,0.02214321307837963
0.8676972985267639,5.958427429199219,7.9585280418396,0.3567348122596741,-0.08345700800418854,-0.04199574887752533
0.7983054518699646,5.944070339202881,7.446165084838867,0.3683409094810486,-0.10483665764331818,-0.07925742864608765
0.8557332158088684,5.79571533203125,7.103991508483887,0.2632751762866974,-0.1139993667602539,-0.07681404054164886
0.9969097375869751,5.735595703125,7.036992073059082,0.18875180184841156,-0.09811734408140182,-0.07986827939748764
1.028016448020935,5.714060306549072,7.04417085647583,0.04153761267662048,-0.040697697550058365,-0.09941539168357849
1.054337501525879,5.812465190887451,7.348059177398682,-0.03665083646774292,0.0014507622690871358,-0.0975828468799591
1.4518451690673828,6.133103370666504,7.860422611236572,-0.022601349279284477,0.11629004776477814,-0.11407572776079178
0.5730810165405273,6.101996898651123,8.382356643676758,0.16065283119678497,-0.11033428460359573,-0.17027367651462555
0.9346963167190552,6.190531253814697,8.320143699645996,0.474017471075058,-0.21478916704654694,-0.10185877978801727
1.0806585550308228,6.592824459075928,6.98405122756958,0.4214846193790436,-0.051082100719213486,-0.10857810080051422
-0.20009979605674744,5.786144256591797,5.997909069061279,-0.17348061501979828,0.018554486334323883,0.0032069480512291193
-0.011066804639995098,5.829215049743652,6.553342819213867,-0.33413344621658325,-0.0034360159188508987,0.09177979826927185
1.150050401687622,6.070889949798584,8.02074146270752,-0.4618005156517029,0.040544986724853516,0.12659808993339539
1.3848460912704468,6.123532295227051,8.6336030960083,-0.4172086715698242,0.14133478701114655,0.072843536734581
1.4518451690673828,6.185745716094971,9.126823425292969,-0.19913621246814728,0.25739577412605286,-0.06398624926805496
1.4398809671401978,6.152245998382568,8.923434257507324,0.06902574002742767,0.17065545916557312,-0.18249061703681946
1.0495518445968628,6.118746757507324,8.226823806762695,0.2638860046863556,-0.04008685052394867,-0.2313583940267563
1.0399805307388306,6.173781394958496,7.429415225982666,0.3158080279827118,-0.2337254285812378,-0.22402822971343994
1.1213364601135254,6.235994815826416,7.108777046203613,0.258999228477478,-0.283204048871994,-0.22341738641262054
1.1069796085357666,6.307779788970947,7.218846797943115,0.17592400312423706,-0.2679328918457031,-0.2295258641242981
1.241276741027832,6.293422698974609,7.374380111694336,0.07452336698770523,-0.13049224019050598,-0.2570139765739441
0.9466604590415955,6.164210319519043,7.364809036254883,-0.01710372418165207,-0.028480753302574158,-0.2686200737953186
0.7073782086372375,6.2790656089782715,7.446165084838867,-0.036039989441633224,-0.039476003497838974,-0.24846212565898895
0.7552346587181091,6.307779788970947,7.671389579772949,-0.016492875292897224,-0.04497363045811653,-0.21975229680538177
0.8509475588798523,6.267101764678955,7.848458290100098,0.016492875292897224,-0.007711946498602629,-0.20570281147956848
0.9179465770721436,6.334399700164795,7.817351341247559,0.04581354558467865,0.013667707331478596,-0.21120044589042664
0.7671987414360046,6.434898376464844,7.585247993469238,0.06963659077882767,-0.011377030052244663,-0.2283041626214981
0.40797626972198486,6.336792469024658,7.374380111694336,0.09590301662683487,-0.09750649333000183,-0.20997874438762665
0.27397820353507996,6.221638202667236,7.297810077667236,0.11483928561210632,-0.2606027126312256,-0.17393875122070312
0.34576287865638733,6.195316791534424,7.616354465484619,0.1582094430923462,-0.32909396290779114,-0.14217470586299896
0.4701896607875824,6.300601005554199,7.561319351196289,0.21929416060447693,-0.2996969223022461,-0.14156384766101837
0.5754738450050354,6.3029937744140625,7.180561542510986,0.21501824259757996,-0.2337254285812378,-0.15866757929325104
0.503689169883728,6.2790656089782715,7.003492832183838,0.10262233763933182,-0.1940203607082367,-0.16050012409687042
0.2069791555404663,6.154638767242432,7.199704170227051,-0.04581354558467865,-0.17508409917354584,-0.12323843687772751
-0.05174478888511658,6.013462543487549,7.515556812286377,-0.14110571146011353,-0.12194038182497025,-0.04810422286391258
-0.19770696759223938,6.061318874359131,7.546663284301758,-0.14965757727622986,-0.016874656081199646,0.02092151902616024
-0.2431706041097641,6.200102806091309,7.537092208862305,-0.09651386737823486,0.09246700257062912,0.08872556686401367
-0.11874382197856903,6.264708995819092,7.554141044616699,-0.05741964280605316,0.11201411485671997,0.11438114941120148
-0.0038883367087692022,6.252744674682617,7.63310432434082,0.038483377546072006,0.10101886838674545,0.12843063473701477
-0.10438688844442368,6.085247039794922,7.45573616027832,0.10628741979598999,0.0051158457063138485,0.15958385169506073
0.15672987699508667,6.0278191566467285,7.494021415710449,0.1178935244679451,-0.059023115783929825,0.20051060616970062
0.2955136001110077,6.013462543487549,7.513164043426514,0.09895725548267365,0.002672456670552492,0.2170034945011139
0.5443671345710754,6.267101764678955,7.367201805114746,0.04092676565051079,0.14255647361278534,0.21089501678943634
0.4749752879142761,6.317649841308594,7.438986301422119,-0.055587101727724075,0.24334627389907837,0.21089501678943634
0.3026920557022095,6.291029930114746,7.786244869232178,-0.11422843486070633,0.24762220680713654,0.22433365881443024
0.26440688967704773,6.401398658752441,6.57966423034668,0.16187451779842377,0.03077143058180809,0.17485502362251282
0.4462614357471466,6.513861656188965,7.326523780822754,0.18814095854759216,0.0008399150101467967,0.1901262104511261
0.4055834412574768,6.4803619384765625,6.952944278717041,0.12888877093791962,0.038101598620414734,0.17424418032169342
-0.5880361795425415,6.3101725578308105,6.713662147521973,0.02870982140302658,0.07902836054563522,0.23593975603580475
-0.7674978375434875,6.123532295227051,7.082456111907959,-0.05864133685827255,0.08696937561035156,0.3758237659931183
-0.1785643845796585,6.295815467834473,7.724031448364258,-0.06169557198882103,0.24395711719989777,0.4027010500431061
-0.034995030611753464,6.518647193908691,7.946564197540283,0.004275931045413017,0.33741676807403564,0.3202366828918457
-0.2503490746021271,6.554539203643799,7.77188777923584,0.09040539711713791,0.2121930718421936,0.24754585325717926
-0.39870408177375793,6.597609996795654,7.467700481414795,0.15271180868148804,-0.04130854457616806,0.24937839806079865
-0.05892325937747955,6.659823417663574,7.295417308807373,0.20157960057258606,-0.25266170501708984,0.23960483074188232
-0.0445663221180439,6.664609432220459,7.0322065353393555,0.24556060135364532,-0.3730749487876892,0.19256959855556488
0.06789634376764297,6.676573276519775,6.8309102058410645,0.26632940769195557,-0.40606072545051575,0.21211670339107513
0.38644084334373474,6.853642463684082,6.883552551269531,0.25411245226860046,-0.27648472785949707,0.2518217861652374
0.46779683232307434,7.042974472045898,6.981658458709717,0.19241689145565033,-0.13476817309856415,0.26037365198135376
0.7313064336776733,6.968796730041504,7.664210796356201,-0.010995250195264816,0.010002624243497849,0.2163926362991333
0.8509475588798523,6.923333168029785,7.946564197540283,0.046424392610788345,-0.0492495596408844,0.17302247881889343
0.9993025660514832,6.920940399169922,8.075776100158691,0.18019993603229523,-0.11094513535499573,0.0856713280081749
1.1596217155456543,6.87517786026001,8.070990562438965,0.2651077210903168,-0.16042375564575195,0.03130592033267021
1.540379524230957,6.928118705749512,7.599604606628418,0.42637139558792114,-0.2184542566537857,-0.07681404054164886
1.5690934658050537,6.9329047203063965,6.268298149108887,0.5131117105484009,0.040544986724853516,-0.1525591015815735
0.8629116415977478,6.9568328857421875,5.791827201843262,0.2473931461572647,0.09613208472728729,-0.12323843687772751
1.547558069229126,7.186543941497803,6.0146589279174805,-0.09468132257461548,0.3423035442829132,-0.10185877978801727
1.0375877618789673,6.908976078033447,6.787839412689209,-0.26999449729919434,0.5964159965515137,-0.11651911586523056
0.6403791308403015,6.683752059936523,7.1973114013671875,-0.27854636311531067,0.760123074054718,-0.04199574887752533
0.7552346587181091,6.719644069671631,7.163811683654785,-0.2620534598827362,0.8096016645431519,-0.07009471952915192
0.6209374666213989,6.762714862823486,7.340880870819092,-0.2363978922367096,0.8761840462684631,-0.111632339656353
0.3242274820804596,6.846463680267334,7.209275722503662,-0.20463383197784424,0.9617026448249817,-0.10857810080051422
0.10408778488636017,6.7794647216796875,7.077670097351074,-0.22967857122421265,0.8884009718894958,-0.07437065243721008
-0.034995030611753464,6.798607349395752,7.005885601043701,-0.24556060135364532,0.8181535601615906,-0.05787777900695801
-0.2024926096200943,6.801000118255615,7.151847839355469,-0.25533416867256165,0.690486490726471,-0.0328330397605896
-0.4704887568950653,6.647859573364258,7.630711555480957,-0.19424942135810852,0.666663408279419,-0.02244863659143448
-1.0597213506698608,6.466004848480225,7.836493968963623,-0.06169557198882103,0.7020925879478455,0.0007635590736754239
-1.8855443000793457,6.250351905822754,6.780661106109619,0.16187451779842377,0.45653197169303894,0.3361186981201172
-1.8041882514953613,6.2312092781066895,6.297011852264404,0.1172826737165451,0.29587915539741516,0.4265241026878357
-1.2583255767822266,6.38464879989624,6.423831462860107,0.056808795779943466,0.24151372909545898,0.45950984954833984
-0.6741777658462524,6.726822853088379,6.931408882141113,0.0390942245721817,0.24884390830993652,0.40453359484672546
-0.3317050337791443,7.042974472045898,7.417450904846191,0.07024743407964706,0.290381520986557,0.2591519355773926
-0.4899304509162903,7.019046306610107,7.692924976348877,0.15271180868148804,0.3465794622898102,0.13087402284145355
-1.1123634576797485,6.9329047203063965,7.628318786621094,0.2632751762866974,0.3862845301628113,0.11499200016260147
-1.4401801824569702,6.9735822677612305,7.027420997619629,0.2999260127544403,0.24273543059825897,0.22433365881443024
-1.2559328079223633,6.858428001403809,7.005885601043701,0.27060532569885254,0.14194563031196594,0.3336753249168396
-1.3348959684371948,6.841678142547607,6.7902326583862305,0.21746163070201874,0.16699036955833435,0.40819868445396423
-1.1171491146087646,6.63350248336792,6.596413612365723,0.13560809195041656,0.1871483325958252,0.45645561814308167
-0.7914260625839233,6.568896293640137,6.7208404541015625,0.08796200156211853,0.2384594976902008,0.44668206572532654
-0.7124629616737366,6.6382880210876465,6.842874526977539,0.07757759839296341,0.3019876182079315,0.3996468186378479
-0.8464609980583191,6.458826541900635,6.399903297424316,0.025655584409832954,0.3423035442829132,0.39353835582733154
-0.9230313301086426,6.387042045593262,6.342475414276123,-0.2767138183116913,0.2561740577220917,0.4265241026878357
-0.7722834944725037,6.353542327880859,7.017849922180176,-0.3536805510520935,0.3068743944168091,0.462564080953598
-0.5952146053314209,6.454041004180908,7.513164043426514,-0.3292466700077057,0.40277740359306335,0.46928340196609497
-0.4465605318546295,6.461219310760498,7.623532772064209,-0.2638860046863556,0.5078431367874146,0.44668206572532654
-0.5138586759567261,6.449255466461182,7.422236919403076,-0.24006296694278717,0.6269583702087402,0.43385425209999084
-0.6406782865524292,6.444469451904297,7.297810077667236,-0.2596100866794586,0.6782695055007935,0.43568679690361023
-0.7818548083305359,6.375077724456787,6.993921279907227,-0.3530697226524353,0.6672742962837219,0.46867257356643677
-0.7244270443916321,6.247959136962891,7.283452987670898,-0.4453076422214508,0.5945834517478943,0.5102101564407349
-0.6981059908866882,6.250351905822754,7.551748275756836,-0.4618005156517029,0.5542675256729126,0.5242596864700317
-0.7052844762802124,6.190531253814697,7.920242786407471,-0.4220954477787018,0.5139515995979309,0.5474718809127808
-0.7459624409675598,6.226423740386963,8.011170387268066,-0.3310792148113251,0.5017346739768982,0.5651864409446716
-0.7100701332092285,6.087639808654785,8.116753578186035,-0.15149012207984924,0.3594072461128235,0.5993938446044922
-0.7268198728561401,6.051747798919678,8.056633949279785,-0.04886778071522713,0.3044309914112091,0.5810684561729431
-0.7363911867141724,6.164210319519043,7.654639720916748,-0.004275931045413017,0.2940466105937958,0.5602996349334717
-0.7316055297851562,6.235994815826416,7.561319351196289,-0.01588202826678753,0.343525230884552,0.567018985748291
-0.7651050686836243,6.298208236694336,7.52512788772583,-0.062306419014930725,0.33924928307533264,0.566408097743988
-0.7435696125030518,6.123532295227051,7.661818027496338,-0.09834641218185425,0.33863845467567444,0.571294903755188
-0.7507480978965759,6.101996898651123,7.769495010375977,-0.10811996459960938,0.3154262602329254,0.5731274485588074
-0.6885347366333008,6.058926105499268,7.874779224395752,-0.08674030750989914,0.3056527078151703,0.5890094637870789
-0.45613181591033936,6.166603088378906,7.779066562652588,-0.04153761267662048,0.29771167039871216,0.5792359113693237
-0.46331027150154114,6.10678243637085,7.7838521003723145,-0.012216945178806782,0.2793862521648407,0.5474718809127808
-0.3317050337791443,5.960820198059082,7.762316703796387,-0.007330167107284069,0.24151372909545898,0.5065450668334961
-0.15224334597587585,6.001498222351074,7.659425258636475,-0.010995250195264816,0.19020256400108337,0.43202173709869385
-0.03978067636489868,6.066104412078857,7.554141044616699,-0.020157959312200546,0.12239851802587509,0.36482852697372437
0.11605189740657806,6.149853229522705,7.621140003204346,-0.008551862090826035,0.07108735293149948,0.3312319219112396
0.25004997849464417,6.147460460662842,7.532306671142578,0.015271181240677834,0.02710634656250477,0.27747735381126404
0.1495514214038849,6.061318874359131,7.319345474243164,0.017714571207761765,-0.02542651630938053,0.2279987335205078
0.24047867953777313,6.013462543487549,7.441379547119141,0.017714571207761765,-0.06390989571809769,0.19256959855556488
0.3290131092071533,6.204888343811035,7.312166690826416,0.09284878522157669,0.05337277799844742,0.02764083817601204
0.18783657252788544,6.568896293640137,7.077670097351074,0.04337015375494957,0.07841751724481583,-0.021226942539215088
0.16869398951530457,6.657430648803711,7.111169815063477,-0.02076880633831024,0.07353074103593826,-0.06581879407167435
0.36729827523231506,6.664609432220459,7.357630729675293,-0.0653606578707695,0.05459447205066681,-0.11468657106161118
0.5611169338226318,6.3631134033203125,7.5565338134765625,-0.09712471067905426,0.04543176665902138,-0.19409671425819397
0.5706881880760193,5.9799628257751465,7.611568927764893,-0.13988402485847473,0.04665346071124077,-0.27533939480781555
0.36729827523231506,5.834000587463379,7.52512788772583,-0.18569757044315338,0.05154023692011833,-0.323596328496933
0.4893322288990021,6.03739070892334,7.51794958114624,-0.21379654109477997,0.10712733864784241,-0.3321481943130493
0.49651068449020386,6.3101725578308105,7.714460372924805,-0.1973036676645279,0.14499986171722412,-0.3455868363380432
0.537188708782196,6.420541286468506,7.712067604064941,-0.16309621930122375,0.032603971660137177,-0.36696648597717285
0.6978068947792053,6.276672840118408,7.281060218811035,-0.4056025743484497,0.14316733181476593,-0.35230615735054016
0.14476576447486877,6.305386543273926,7.568498134613037,-0.5638120174407959,0.3080960810184479,-0.4121691882610321
-0.01585244946181774,6.130710601806641,7.623532772064209,-0.6499415040016174,0.16393613815307617,-0.36513394117355347
0.3074777126312256,5.934499263763428,7.850851058959961,-0.6450546979904175,0.030160583555698395,-0.35413870215415955
0.2667997181415558,5.651846885681152,8.4469633102417,-0.546097457408905,-0.20135052502155304,-0.3859027624130249
0.16151553392410278,5.752345561981201,8.753543853759766,-0.3665083646774292,-0.2960318624973297,-0.4647020399570465
-0.264706015586853,5.517848968505859,8.794221878051758,-0.16431790590286255,-0.33764582872390747,-0.5245651006698608
-0.32213374972343445,5.5345988273620605,8.056633949279785,0.1435490995645523,-0.5948125123977661,-0.35291701555252075
-0.013459627516567707,5.469992637634277,8.018348693847656,0.15087927877902985,-0.6772769093513489,-0.31137940287590027
-0.08763712644577026,5.355136871337891,8.308178901672363,0.12522368133068085,-0.6143596172332764,-0.28999972343444824
0.3314059376716614,5.910571098327637,7.95134973526001,0.04703523963689804,-0.5086830258369446,-0.14583978056907654
0.28594231605529785,5.977570056915283,7.872386455535889,0.00916270911693573,-0.5373928546905518,-0.15316994488239288
0.08973085135221481,5.948856353759766,8.138288497924805,-0.028098974376916885,-0.5086830258369446,-0.13484452664852142
0.05353940650820732,5.898606777191162,8.267500877380371,-0.023823043331503868,-0.4683671295642853,-0.11468657106161118
0.012861421331763268,5.84357213973999,8.461319923400879,0.03420744836330414,-0.3339807391166687,-0.07864658534526825
0.024825535714626312,5.759823322296143,8.341678619384766,0.11178504675626755,-0.21478916704654694,-0.04871506989002228
0.2548356056213379,5.505885124206543,8.193324089050293,0.10384403169155121,-0.11827529966831207,0.023364907130599022
0.26440688967704773,5.532206058502197,8.123931884765625,0.08735115826129913,-0.0749051421880722,0.031916771084070206
0.25004997849464417,5.544169902801514,8.023134231567383,0.09284878522157669,-0.06390989571809769,0.038636088371276855
0.32662028074264526,5.551348686218262,8.015955924987793,0.12400199472904205,-0.0761268362402916,0.05757235363125801
0.3936193287372589,5.615954875946045,7.994420528411865,0.20096874237060547,-0.1268271654844284,0.06245913356542587
0.49172505736351013,5.742774486541748,7.719245910644531,0.23273280262947083,-0.14576342701911926,0.055739812552928925
0.6281159520149231,5.953641891479492,7.4724860191345215,0.2241809368133545,-0.12499462068080902,0.056961506605148315
0.7528418302536011,6.034997940063477,7.429415225982666,0.17531315982341766,0.0014507622690871358,0.04169032722711563
0.6834499835968018,6.04456901550293,7.484450340270996,0.13988402485847473,0.07108735293149948,0.025808297097682953
0.5754738450050354,6.013462543487549,7.441379547119141,0.11911521852016449,0.09796462953090668,0.020310672000050545
0.50129634141922,5.783751487731934,7.340880870819092,0.07513421028852463,0.12972868978977203,0.022754060104489326
0.6571289300918579,5.958427429199219,7.383951663970947,0.006719320081174374,0.13095037639141083,0.03497100621461868
0.90358966588974,6.082854270935059,7.139883518218994,-0.08063183724880219,0.14499986171722412,0.010537114925682545
0.6329016089439392,6.020640850067139,6.897909641265869,-0.23945212364196777,0.11018157750368118,-0.025502873584628105
0.623330295085907,5.994319915771484,6.828517436981201,-0.33596599102020264,0.10101886838674545,-0.033443886786699295
0.9083753228187561,6.204888343811035,6.931408882141113,-0.5357130169868469,0.015500249341130257,-0.11407572776079178
0.994516909122467,5.910571098327637,8.434998512268066,-0.5796940326690674,-0.09567394852638245,-0.44454410672187805
0.5180460810661316,5.498706340789795,8.434998512268066,-0.4752391576766968,-0.27648472785949707,-0.6290199756622314
-0.18574285507202148,5.280959606170654,8.025527000427246,-0.3549022674560547,-0.3706315755844116,-0.6656708121299744
0.07746763527393341,5.6590256690979,8.952147483825684,-0.4825693368911743,-1.343711256980896,0.31657159328460693
2.2585253715515137,5.20678186416626,9.153144836425781,-0.4434750974178314,-0.9338327646255493,0.39170581102371216
2.6225335597991943,5.182554721832275,9.294620513916016,-0.34879377484321594,-0.5172349214553833,0.12354385852813721
2.1077775955200195,5.498706340789795,8.573782920837402,-0.22967857122421265,-0.10972344130277634,-0.05421269312500954
1.4709876775741577,5.038985252380371,8.635995864868164,-0.17225892841815948,0.0295497365295887,-0.13179029524326324
1.0399805307388306,5.105984210968018,8.937790870666504,-0.09773556143045425,0.11384665966033936,-0.15988926589488983
0.6954140663146973,5.568098068237305,8.128717422485352,0.25777754187583923,0.1327829211950302,-0.04932591691613197
0.9849455952644348,5.563312530517578,7.436593532562256,0.2339545041322708,0.19203510880470276,0.022754060104489326
1.1045867204666138,5.460421085357666,7.3002028465271,0.16492876410484314,0.2378486543893814,0.03802524134516716
1.118943691253662,5.402993679046631,7.412665367126465,0.015271181240677834,0.3007659316062927,0.0331384651362896
0.9993025660514832,5.458028316497803,7.805387496948242,-0.07574506103992462,0.3459686040878296,0.021532366052269936
0.8772686123847961,5.446064472198486,7.960920810699463,-0.09407047927379608,0.34719032049179077,0.024586603045463562
0.9490532875061035,5.458028316497803,8.18135929107666,-0.09407047927379608,0.32336726784706116,0.04169032722711563
1.1428718566894531,5.381458282470703,8.193324089050293,-0.08551861345767975,0.27327778935432434,0.03497100621461868
1.1476575136184692,5.374279499053955,8.051848411560059,-0.056808795779943466,0.2665584683418274,0.015423892997205257
1.118943691253662,5.529813289642334,7.994420528411865,0.0006108472589403391,0.267169326543808,0.004428642801940441
1.04715895652771,5.551348686218262,7.9489569664001465,0.061084724962711334,0.24273543059825897,-0.007177455350756645
1.1668001413345337,5.398207664489746,7.872386455535889,0.062306419014930725,0.20730629563331604,-0.016340164467692375
1.0998010635375977,5.458028316497803,8.186145782470703,0.08490777015686035,-0.005268557462841272,-0.0462716780602932
1.2149556875228882,5.680561065673828,8.044670104980469,0.14843589067459106,0.0680331140756607,-0.031000498682260513
0.8509475588798523,5.630311489105225,7.654639720916748,0.14904673397541046,0.0423775278031826,-0.02244863659143448
0.8485547304153442,5.458028316497803,7.7455668449401855,0.08307522535324097,0.01916533336043358,0.016645587980747223
1.0064810514450073,5.426921844482422,8.116753578186035,0.006108472589403391,0.18959172070026398,0.04474456235766411
1.0734800100326538,5.4628143310546875,8.456534385681152,-0.018936265259981155,0.2781645655632019,0.05635065957903862
0.7025925517082214,5.900999546051025,8.126324653625488,0.02870982140302658,0.26106083393096924,0.09361234307289124
0.6786643266677856,6.1689958572387695,8.02074146270752,0.026877280324697495,0.1474432498216629,0.1522536724805832
0.7073782086372375,6.042176246643066,8.155038833618164,-0.0006108472589403391,0.07597412914037704,0.17424418032169342
0.6475576162338257,5.819643974304199,8.193324089050293,-0.013438640162348747,0.0423775278031826,0.16874656081199646
0.4773681163787842,5.355136871337891,8.200502395629883,-0.07146912813186646,0.04115583375096321,0.17057909071445465
0.21415762603282928,4.8690948486328125,8.382356643676758,-0.17225892841815948,0.10224056243896484,0.18585027754306793
-0.16420745849609375,4.656133651733398,8.799007415771484,-0.24250635504722595,0.15416257083415985,0.2163926362991333
-0.2886342406272888,4.641777038574219,9.038289070129395,-0.23945212364196777,0.1614927500486374,0.23655059933662415
-0.35084763169288635,4.849952220916748,9.301798820495605,-0.1441599577665329,0.12484190613031387,0.26281702518463135
-0.600000262260437,5.172983646392822,9.055039405822754,0.01038440316915512,0.0429883748292923,0.27320143580436707
-0.45613181591033936,5.13948392868042,8.729615211486816,0.22784602642059326,-0.21234577894210815,0.26281702518463135
-0.4776672124862671,5.0102715492248535,8.485248565673828,0.24067382514476776,-0.2471640706062317,0.25976279377937317
-0.4369892477989197,4.718347072601318,8.365607261657715,0.17531315982341766,-0.24105559289455414,0.26342788338661194
-0.29341986775398254,4.574478626251221,8.155038833618164,0.04031591862440109,-0.15920206904411316,0.2786990702152252
-0.2312064915895462,4.292125701904297,8.449356079101562,-0.10262233763933182,-0.008322793990373611,0.2664821147918701
-0.37477585673332214,4.440480709075928,8.626424789428711,-0.15149012207984924,0.11384665966033936,0.23838314414024353
-0.3197409212589264,4.646562576293945,8.612068176269531,-0.12155860662460327,0.13828055560588837,0.24021568894386292
0.022432712838053703,4.782953262329102,8.597710609436035,-0.05375456064939499,0.11384665966033936,0.23593975603580475
0.3290131092071533,4.763810634613037,8.655138969421387,-0.02504473738372326,0.08635853230953217,0.19440214335918427
0.31465616822242737,4.536193370819092,8.961718559265137,0.031153209507465363,0.030160583555698395,0.0844496339559555
0.33379876613616943,4.615156650543213,8.961718559265137,0.13927318155765533,-0.09750649333000183,0.001985253533348441
0.4103690981864929,4.787738800048828,8.82532787322998,0.19058434665203094,-0.12010784447193146,-0.021226942539215088
0.41994038224220276,4.940879821777344,8.444570541381836,0.22601348161697388,-0.11705360561609268,-0.062153708189725876
-0.2551347017288208,5.1514482498168945,7.360023498535156,-0.05375456064939499,0.38933876156806946,-0.13179029524326324
-0.5521438121795654,5.19451904296875,7.460521697998047,-0.1459924876689911,0.5322770476341248,-0.10430216789245605
-0.5952146053314209,5.213960647583008,7.6474609375,-0.19363857805728912,0.5542675256729126,-0.07986827939748764
-0.5808576941490173,5.082056045532227,8.394320487976074,-0.26632940769195557,0.5341095924377441,-0.05115845799446106
-0.664606511592865,4.995914459228516,8.791828155517578,-0.26632940769195557,0.4907394051551819,-0.05726693198084831
-0.8608179688453674,4.948058128356934,9.253942489624023,-0.20035789906978607,0.3429143726825714,-0.06032116711139679
-0.841675341129303,4.928915500640869,9.373583793640137,-0.14110571146011353,0.2763320207595825,-0.04993676394224167
-0.7316055297851562,4.7973103523254395,9.167501449584961,-0.0,0.15110833942890167,-0.04077405482530594
-0.6717849373817444,4.849952220916748,8.875576972961426,0.10873081535100937,0.10651648789644241,-0.03588727489113808
-0.4704887568950653,5.156233787536621,8.238787651062012,0.05619794875383377,0.2250208556652069,0.012980503961443901
-0.5306084156036377,5.225924491882324,8.224430084228516,0.037261683493852615,0.1737096905708313,0.001374406274408102
-0.6526423692703247,5.257031440734863,8.188538551330566,0.053143709897994995,0.08758022636175156,-0.009009997360408306
-0.753140926361084,5.2354960441589355,8.070990562438965,0.06780404597520828,0.044820915907621384,-0.004123218823224306
-0.6837490797042847,5.216353416442871,8.18135929107666,0.07330167293548584,0.04909684881567955,0.008093725889921188
-0.5880361795425415,5.233103275299072,8.3057861328125,0.08063183724880219,0.07291989028453827,0.01847812905907631
-0.40348970890045166,5.371886730194092,8.468498229980469,0.10750912129878998,0.12362021207809448,0.01847812905907631
-0.6574280261993408,5.419743061065674,8.466105461120605,0.13744063675403595,0.09307785332202911,0.005650337319821119
-0.7076773047447205,5.37906551361084,8.454141616821289,0.1453816443681717,0.03993413969874382,0.011147962883114815
-0.49710890650749207,5.276174068450928,8.535497665405273,0.14965757727622986,-0.01748550310730934,0.016645587980747223
-0.46331027150154114,5.254638671875,8.552247047424316,0.16309621930122375,-0.043141089379787445,-0.0065666078589856625
-0.511465847492218,5.209175109863281,8.231609344482422,0.20280128717422485,-0.13904410600662231,-0.02367033064365387
-0.46809592843055725,5.276174068450928,7.9728851318359375,0.2107423096895218,-0.20257222652435303,-0.03405473381280899
-0.494716078042984,5.340780258178711,7.7455668449401855,0.18142163753509521,-0.425607830286026,-0.06765133142471313
-0.29341986775398254,5.328815937042236,7.7455668449401855,0.16126367449760437,-0.5673243999481201,-0.09086353331804276
-0.22881366312503815,5.422136306762695,7.891529083251953,0.15271180868148804,-0.4634803533554077,-0.08170082420110703
-0.1785643845796585,5.529813289642334,7.860422611236572,0.15271180868148804,-0.39078953862190247,-0.07559234648942947
-0.11156535893678665,5.501099109649658,7.841279983520508,0.15332266688346863,-0.44820916652679443,-0.09575030952692032
-0.18574285507202148,5.431707382202148,8.00638484954834,0.1710372269153595,-0.5257867574691772,-0.13240113854408264
-0.24795624613761902,5.446064472198486,8.238787651062012,0.1973036676645279,-0.3149681091308594,-0.07559234648942947
-0.33409786224365234,5.465207099914551,7.994420528411865,0.1716480851173401,-0.14454172551631927,-0.007177455350756645
-0.2790629267692566,5.4867424964904785,7.9585280418396,0.1313321590423584,-0.1671430766582489,0.012980503961443901
-0.2192423790693283,5.525027275085449,8.121539115905762,0.053143709897994995,-0.231282040476799,0.03802524134516716
0.12801600992679596,5.438885688781738,8.624032020568848,-0.0,-0.17080816626548767,0.08017370104789734
0.4295116662979126,5.584847927093506,9.162715911865234,0.10323318839073181,-0.23922306299209595,0.0459662564098835
0.5276173949241638,5.5968122482299805,9.083752632141113,0.44103172421455383,0.01122431829571724,0.025197450071573257
-0.11635100096464157,5.8459649085998535,7.223632335662842,0.5577035546302795,0.04787515476346016,0.14614520967006683
0.3720839321613312,6.0110697746276855,6.878767013549805,0.36101073026657104,-0.04375193640589714,0.21028417348861694
1.2652050256729126,5.900999546051025,6.349654197692871,-0.20219044387340546,0.03749075159430504,0.25060009956359863
-0.06131608039140701,5.434100151062012,7.848458290100098,-0.5057815313339233,0.3826194405555725,0.10705098509788513
-1.3875380754470825,5.161019325256348,8.403892517089844,-0.5241069197654724,0.5414397120475769,0.1754658818244934
-1.1626126766204834,5.115555763244629,9.340084075927734,-0.4593571424484253,0.6703284978866577,0.333064466714859
-0.10199406743049622,5.422136306762695,10.189835548400879,-0.23090025782585144,0.7662315368652344,0.3452814221382141
-0.09002995491027832,5.565705299377441,9.864411354064941,0.527161180973053,0.4204919934272766,0.12659808993339539
-0.013459627516567707,5.642275810241699,8.214859008789062,0.8393041491508484,-0.03458922728896141,0.14858859777450562
0.05832505226135254,5.767001628875732,6.907480716705322,0.7855495810508728,-0.19768545031547546,0.1785201132297516
-0.1618146300315857,5.615954875946045,6.9098734855651855,0.5570927262306213,-0.2074590027332306,0.2292204350233078
0.09690931439399719,5.546562671661377,7.3552374839782715,0.43797749280929565,-0.18730103969573975,0.22311195731163025
-0.07088737189769745,5.563312530517578,7.690532207489014,0.41232189536094666,-0.16347800195217133,0.1760767251253128
-0.1091725304722786,5.3934221267700195,7.936992645263672,0.4318690001964569,-0.16347800195217133,0.1363716572523117
0.6281159520149231,6.3029937744140625,5.8061842918396,-0.14660334587097168,0.16515782475471497,0.26220619678497314
0.5850451588630676,6.2862443923950195,6.330511569976807,-0.3689517378807068,0.09735377877950668,0.23166382312774658
0.3026920557022095,5.656632900238037,7.474878787994385,-0.5833591222763062,0.1327829211950302,0.15652960538864136
-0.17138592898845673,5.749952793121338,7.9968132972717285,-0.5357130169868469,0.2518981397151947,0.07773031294345856
-0.2599203586578369,5.630311489105225,8.54746150970459,-0.4563029110431671,0.2635042369365692,0.05512896552681923
-0.2790629267692566,5.522634506225586,8.839685440063477,-0.390942245721817,0.2653367817401886,0.04046862944960594
-0.2886342406272888,5.735595703125,9.395118713378906,-0.19913621246814728,0.188370019197464,-0.009620844386518002
-0.23838496208190918,5.908178329467773,9.364012718200684,0.06780404597520828,0.004504998680204153,-0.03833066672086716
-0.11874382197856903,5.929713726043701,9.1986083984375,0.19180603325366974,-0.07001836597919464,-0.04688252881169319
-0.10199406743049622,6.068497180938721,8.727222442626953,0.40254834294319153,-0.2874799966812134,-0.08108997344970703
-0.0014955141814425588,6.152245998382568,7.190133094787598,0.6236750483512878,-0.4512633979320526,-0.021837789565324783
0.5659025311470032,6.080461502075195,5.674578666687012,0.30908870697021484,-0.22150848805904388,0.08994726091623306
0.6185446381568909,6.018248081207275,5.871089458465576,0.05864133685827255,-0.15859122574329376,0.051463883370161057
-0.07328019291162491,5.78135871887207,6.883552551269531,-0.3151971995830536,-0.09811734408140182,-0.03527642786502838
0.06311069428920746,5.831607818603516,7.546663284301758,-0.4367557764053345,-0.027869906276464462,-0.05360184609889984
0.1902294009923935,5.951249122619629,7.700103282928467,-0.48806697130203247,0.049707695841789246,-0.08292251825332642
0.33379876613616943,5.694917678833008,8.039883613586426,-0.5063923597335815,0.12911784648895264,-0.07620319724082947
0.589830756187439,5.517848968505859,8.3057861328125,-0.5027272701263428,0.3801760673522949,-0.08231166750192642
0.7983054518699646,5.687739372253418,8.473283767700195,-0.47890424728393555,0.447369247674942,-0.13117945194244385
0.06071787327528,5.737988471984863,9.007183074951172,-0.3683409094810486,0.3209238648414612,-0.2777827978134155
-0.7411768436431885,5.6590256690979,8.822935104370117,-0.1557660549879074,-0.0034360159188508987,-0.24968381226062775
-0.20967108011245728,5.767001628875732,8.545068740844727,0.061084724962711334,-0.2862583100795746,-0.1250709742307663
0.11844471842050552,5.759823322296143,8.178966522216797,0.1966928243637085,-0.3761292099952698,-0.15378080308437347
-0.1091725304722786,5.769394397735596,7.477271556854248,0.015271181240677834,-0.3352024257183075,-0.20570281147956848
0.26201409101486206,5.78135871887207,7.81974458694458,-0.053143709897994995,-0.3749074935913086,-0.1782146841287613
0.836590588092804,5.615954875946045,8.044670104980469,-0.055587101727724075,-0.3755183517932892,-0.16172181069850922
1.1213364601135254,5.290530681610107,7.848458290100098,-0.05070032179355621,-0.35658207535743713,-0.1763821393251419
1.176371455192566,5.374279499053955,7.786244869232178,-0.08918370306491852,-0.32726141810417175,-0.23502348363399506
1.3154542446136475,5.577669620513916,7.795815944671631,-0.04703523963689804,-0.2862583100795746,-0.34192174673080444
1.2652050256729126,5.580062389373779,7.719245910644531,0.01038440316915512,-0.3633013963699341,-0.40544986724853516
1.277169108390808,5.625525951385498,7.700103282928467,0.07696675509214401,-0.44820916652679443,-0.4543176591396332
1.4087743759155273,5.733202934265137,7.637889862060547,0.10750912129878998,-0.455539345741272,-0.506239652633667
1.2269197702407837,5.903392791748047,7.436593532562256,0.07452336698770523,-0.4921901822090149,-0.5630484819412231
1.3202399015426636,5.8459649085998535,6.85962438583374,0.06047387793660164,-0.4634803533554077,-0.4921901822090149
1.6265212297439575,5.790929794311523,6.359225273132324,-0.23945212364196777,-0.32787227630615234,-0.4524851143360138
1.0854442119598389,5.723631858825684,7.23798942565918,-0.49051034450531006,-0.2960318624973297,-0.5007420182228088
0.6209374666213989,5.84357213973999,7.82692289352417,-0.4966188073158264,-0.31626617908477783,-0.48424917459487915
1.0950154066085815,5.896214008331299,8.70807933807373,-0.38910970091819763,-0.3712424337863922,-0.4634803533554077
0.8940183520317078,5.697310924530029,8.968897819519043,-0.20157960057258606,-0.50685054063797,-0.48302745819091797
1.3130614757537842,5.771787166595459,8.312965393066406,0.18569757044315338,-0.8415948152542114,-0.39445462822914124
1.3752747774124146,5.953641891479492,8.451748847961426,0.28343313932418823,-0.8196043372154236,-0.4011739492416382
1.5427724123001099,6.032605171203613,8.229216575622559,0.3775036036968231,-0.8666395545005798,-0.43171629309654236
1.576271891593933,5.8938212394714355,8.042277336120605,0.41476529836654663,-0.8709154725074768,-0.44576579332351685
1.633699655532837,5.900999546051025,7.731209754943848,0.43797749280929565,-0.7493568658828735,-0.4543176591396332
2.1317057609558105,6.61914587020874,6.787839412689209,0.4715740978717804,-0.39323291182518005,-0.4622586667537689
1.1333006620407104,6.312565326690674,5.284249782562256,0.2473931461572647,-0.09811734408140182,-0.31382277607917786
1.4829518795013428,6.233602046966553,6.780661106109619,-0.3775036036968231,0.12545275688171387,-0.2441861927509308
1.1380863189697266,5.917749404907227,8.114360809326172,-0.5167768001556396,0.14011308550834656,-0.19715094566345215
1.1668001413345337,5.769394397735596,7.491628646850586,-0.4306473135948181,0.1987544298171997,-0.12201674282550812
0.9394819736480713,5.771787166595459,7.192525863647461,-0.5815265774726868,0.32275640964508057,-0.08780929446220398
0.9849455952644348,5.819643974304199,7.340880870819092,-0.6920899152755737,0.42904382944107056,-0.07864658534526825
0.8102695941925049,5.881857395172119,8.29860782623291,-0.8240329623222351,0.658111572265625,-0.0841442123055458
0.659521758556366,5.711667537689209,9.234800338745117,-0.7177455425262451,0.7289698719978333,-0.12262758612632751
0.8270193338394165,5.749952793121338,9.435796737670898,-0.4587462842464447,0.6556681990623474,-0.1501157134771347
0.8844470977783203,5.637490272521973,9.05982494354248,-0.21196399629116058,0.5157841444015503,-0.16599774360656738
0.6352944374084473,5.6446685791015625,8.74636459350586,-0.051922015845775604,0.33741676807403564,-0.2026485800743103
0.4223332107067108,5.599205017089844,8.466105461120605,0.05986303091049194,0.07902836054563522,-0.20936790108680725
0.5826523303985596,5.539384365081787,8.236394882202148,0.1301104724407196,-0.08040276914834976,-0.1769929975271225
0.7863413691520691,5.4173502922058105,8.176573753356934,0.15943112969398499,-0.1677539348602295,-0.14828316867351532
1.023230791091919,5.575276851654053,8.178966522216797,0.17592400312423706,-0.16164545714855194,-0.14645062386989594
0.9849455952644348,5.613562107086182,8.109575271606445,0.18814095854759216,-0.14332003891468048,-0.14217470586299896
0.7695915699005127,5.575276851654053,7.616354465484619,0.19058434665203094,-0.14759597182273865,-0.1372879147529602
0.748056173324585,5.441278457641602,7.738388538360596,0.08307522535324097,-0.1530935913324356,-0.1501157134771347
0.7001997232437134,5.3934221267700195,7.884350776672363,0.05619794875383377,-0.18669019639492035,-0.18554484844207764
0.5635097622871399,5.517848968505859,8.023134231567383,0.07696675509214401,-0.2434989959001541,-0.21975229680538177
0.6451647877693176,5.61116886138916,8.042277336120605,0.1178935244679451,-0.2715979516506195,-0.22463907301425934
0.7432705163955688,5.582455158233643,8.102097511291504,0.15087927877902985,-0.25449424982070923,-0.2160872220993042
0.7145566344261169,5.6446685791015625,7.848458290100098,0.1832541823387146,-0.2703762650489807,-0.18737739324569702
0.8557332158088684,5.680561065673828,7.436593532562256,0.13499724864959717,-0.2703762650489807,-0.15378080308437347
0.8605188727378845,5.67338228225708,7.716853141784668,0.021379653364419937,-0.20929154753684998,-0.13423368334770203
0.8796614408493042,5.60399055480957,8.353643417358398,0.0006108472589403391,-0.13904410600662231,-0.14034216105937958
0.8030911087989807,5.4795637130737305,8.597710609436035,0.09040539711713791,-0.10789089649915695,-0.18126893043518066
0.8988040089607239,5.5345988273620605,9.107681274414062,0.4300364851951599,0.01916533336043358,-0.22036315500736237
1.2699905633926392,5.910571098327637,6.08405065536499,0.49234288930892944,0.2121930718421936,-0.10857810080051422
-0.2551347017288208,5.517848968505859,8.434998512268066,-0.5937435626983643,0.188370019197464,-0.18187977373600006
1.0160523653030396,5.630311489105225,8.992825508117676,-0.0,0.01122431829571724,-0.24540787935256958
0.39122650027275085,5.422136306762695,8.341678619384766,0.2235700935125351,-0.22822780907154083,-0.346808522939682
0.043968115001916885,5.592026710510254,7.690532207489014,0.31886225938796997,-0.4225535988807678,-0.28938889503479004
0.5491527915000916,5.9129638671875,7.8388872146606445,0.4611896872520447,-0.455539345741272,-0.22280654311180115
0.5754738450050354,5.484349727630615,8.18135929107666,-0.6499415040016174,0.34719032049179077,-0.05543438717722893
0.49172505736351013,5.371886730194092,8.28425121307373,-0.652384877204895,0.46630552411079407,-0.007177455350756645
0.26919254660606384,5.240281581878662,8.875576972961426,-0.675597071647644,0.6165739297866821,0.04718795046210289
0.37926238775253296,5.328815937042236,9.986445426940918,-0.28098973631858826,0.9635351896286011,0.046577103435993195
-0.367597371339798,5.074877738952637,9.687043190002441,0.04153761267662048,0.8395332098007202,0.00992626789957285
-0.8392825126647949,4.900201797485352,8.703293800354004,0.41293275356292725,0.36062896251678467,0.1388150453567505
-0.5569294691085815,5.0581278800964355,7.999206066131592,0.48012593388557434,0.22013407945632935,0.18707197904586792
-0.6071787476539612,5.216353416442871,7.4246296882629395,0.4294256269931793,0.24578966200351715,0.19745637476444244
-0.5952146053314209,5.38624382019043,6.967301368713379,0.15943112969398499,0.3850628435611725,0.23532891273498535
-0.7435696125030518,5.388636589050293,7.8317084312438965,-0.12766708433628082,0.4626404345035553,0.3226800560951233
-0.5066801905632019,5.312066078186035,8.176573753356934,-0.1704263836145401,0.4999021291732788,0.3990359604358673
-0.48514479398727417,5.343173027038574,10.247262954711914,0.018936265259981155,0.50112384557724,0.4100312292575836
-0.8273184299468994,5.170590400695801,9.263513565063477,0.6022953987121582,0.04604261368513107,0.4289674758911133
-0.18813568353652954,5.630311489105225,6.45523738861084,0.5143333673477173,0.15233004093170166,0.5181511640548706
-0.29820552468299866,5.328815937042236,6.160621166229248,-0.051922015845775604,0.294657438993454,0.4937172830104828
-0.45134615898132324,5.343173027038574,7.446165084838867,-0.42453885078430176,0.29954421520233154,0.4912739098072052
-0.4824528694152832,5.187340259552002,8.55463981628418,-0.48806697130203247,0.1340046226978302,0.46989426016807556
-0.42741793394088745,5.125126838684082,9.06700325012207,-0.3304683566093445,0.044820915907621384,0.46073153614997864
-0.5210371017456055,4.89063024520874,9.289834976196289,-0.12400199472904205,0.02160872146487236,0.46867257356643677
-0.6263213157653809,4.615156650543213,9.325727462768555,0.07574506103992462,-0.033978380262851715,0.4540122151374817
-0.8297112584114075,4.576871395111084,8.968897819519043,0.31825143098831177,-0.20379391312599182,0.40636613965034485
-1.0740783214569092,4.907380104064941,8.389534950256348,0.5198310017585754,-0.3242071866989136,0.4143071472644806
-0.8608179688453674,5.350351333618164,7.6043901443481445,0.6004628539085388,-0.2874799966812134,0.4283566474914551
-0.7890332937240601,5.477170944213867,7.364809036254883,0.5100574493408203,-0.2606027126312256,0.41675055027008057
-0.7770691514015198,5.536991596221924,7.489235877990723,0.3793361485004425,-0.26854372024536133,0.4014793634414673
-0.8464609980583191,5.5968122482299805,7.786244869232178,0.26694026589393616,-0.24044474959373474,0.3953709006309509
-0.6837490797042847,5.654240131378174,8.097311973571777,0.18753011524677277,-0.17202985286712646,0.4136963188648224
-0.38673996925354004,5.762216091156006,8.358428955078125,0.14660334587097168,-0.05413633957505226,0.4161396920681
-0.1618146300315857,5.8387861251831055,8.368000030517578,0.12766708433628082,-0.004046862944960594,0.39598172903060913
-0.18574285507202148,5.841179370880127,8.265108108520508,0.13377554714679718,-0.011377030052244663,0.3495573401451111
-0.2431706041097641,5.817250728607178,8.267500877380371,0.1575985997915268,-0.04802786558866501,0.3245126008987427
-0.14506487548351288,5.8220367431640625,8.169395446777344,0.20280128717422485,-0.07246175408363342,0.30435463786125183
0.06789634376764297,5.924928188323975,7.88913631439209,0.21990501880645752,-0.004046862944960594,0.26220619678497314
0.3122633695602417,6.195316791534424,7.671389579772949,0.17958909273147583,0.10407309979200363,0.16752485930919647
0.19262222945690155,6.267101764678955,7.0633134841918945,0.2229592502117157,0.13950224220752716,0.12293300777673721
-0.06370890140533447,6.166603088378906,6.670591354370117,-0.01832541823387146,0.3044309914112091,0.08811471611261368
-0.5736792087554932,6.0732831954956055,7.352844715118408,-0.2754921019077301,0.3465794622898102,0.051463883370161057
-1.2128620147705078,5.711667537689209,8.253144264221191,-0.27121618390083313,0.34719032049179077,0.04107947647571564
-0.5641079545021057,5.730810165405273,8.150253295898438,-0.012216945178806782,0.16882291436195374,0.06856760382652283
-0.2192423790693283,5.9560346603393555,8.289036750793457,0.030542362481355667,0.212803915143013,0.0325276181101799
-0.36281174421310425,5.896214008331299,8.427820205688477,0.10628741979598999,0.1602710485458374,0.0032069480512291193
-0.6191428303718567,5.90578556060791,7.908278942108154,0.2107423096895218,-0.014431266114115715,0.005650337319821119
-0.8392825126647949,6.070889949798584,7.628318786621094,0.21746163070201874,-0.09872818738222122,0.10644013434648514
-0.4824528694152832,6.137889385223389,7.522735118865967,0.1844758689403534,-0.1414874941110611,0.19928891956806183
-0.5617151260375977,6.080461502075195,7.712067604064941,0.14965757727622986,-0.1787491738796234,0.21822518110275269
-0.4369892477989197,5.994319915771484,7.977670669555664,0.16004198789596558,-0.20012883841991425,0.23532891273498535
-0.2910270392894745,5.881857395172119,8.334500312805176,0.22967857122421265,-0.2056264579296112,0.22066856920719147
-0.23599213361740112,5.9129638671875,8.621639251708984,0.3573456406593323,-0.20318306982517242,0.18401773273944855
-0.4298107624053955,5.984748363494873,8.32971477508545,0.5027272701263428,-0.17508409917354584,0.1656923145055771
-0.36281174421310425,6.351149559020996,7.609176158905029,0.5577035546302795,-0.14454172551631927,0.18523943424224854
-0.013459627516567707,6.595217227935791,5.890232086181641,0.5491516590118408,-0.010766183026134968,0.3177932798862457
0.6209374666213989,6.2240309715271,6.019444465637207,-0.012216945178806782,0.3704025149345398,0.4277457892894745
0.39601215720176697,5.92014217376709,7.257132053375244,-0.3054236173629761,0.49745872616767883,0.36666107177734375
-0.023030918091535568,6.015855312347412,7.587640762329102,-0.3304683566093445,0.5738146305084229,0.3483356535434723
-0.04695914313197136,5.903392791748047,7.735995769500732,-0.34879377484321594,0.630012571811676,0.35138988494873047
0.1495514214038849,6.267101764678955,7.822137355804443,-0.03176405653357506,0.5903075337409973,0.3868190348148346
0.1495514214038849,6.298208236694336,7.836493968963623,-0.004275931045413017,0.5402180552482605,0.3727695345878601
-0.02063809521496296,6.271887302398682,7.905886173248291,-0.0006108472589403391,0.5115082263946533,0.37948885560035706
-0.09002995491027832,6.216852188110352,7.910671710968018,0.0030542362947016954,0.48218756914138794,0.3868190348148346
-0.2766701281070709,6.1450676918029785,8.025527000427246,0.026877280324697495,0.33924928307533264,0.39231663942337036
-0.3771686553955078,6.051747798919678,8.1526460647583,0.09590301662683487,0.15110833942890167,0.39231663942337036
-0.28145575523376465,6.09960412979126,8.085348129272461,0.17897824943065643,0.06253548711538315,0.39231663942337036
-0.013459627516567707,6.032605171203613,7.731209754943848,0.2089097648859024,0.040544986724853516,0.3715478479862213
0.005682953633368015,5.987141132354736,7.594819068908691,0.19302773475646973,0.039323292672634125,0.335507869720459
-0.0014955141814425588,5.96799898147583,7.671389579772949,0.16859383881092072,0.04359922185540199,0.3196258246898651
0.3194418251514435,6.111567974090576,7.83410120010376,0.18630841374397278,0.030160583555698395,0.2805316150188446
0.5802595019340515,6.111567974090576,7.714460372924805,0.2107423096895218,-0.03092414326965809,0.22066856920719147
0.5443671345710754,6.130710601806641,7.551748275756836,0.22967857122421265,-0.10422581434249878,0.14553436636924744
