accX,accY,accZ,gyroX,gyroY,gyroZ
0.01824381574988365,0.12577220797538757,9.549273490905762,-0.0008203047327697277,-0.0017104226863011718,-5.2359879191499203e-05
0.011501745320856571,0.14704230427742004,9.559674263000488,-0.0013089969288557768,-6.981316983001307e-05,-0.00043633230961859226
0.020954053848981857,0.13265793025493622,9.551725387573242,-0.0009075712296180427,0.0006632251315750182,0.00043633230961859226
0.026001030579209328,0.1363832950592041,9.550747871398926,0.000715585018042475,-0.000715585018042475,-0.00041887903353199363
0.023501483723521233,0.13281115889549255,9.558984756469727,0.00047123889089562,0.00017453292093705386,3.490658491500653e-05
0.023022644221782684,0.12827174365520477,9.560152053833008,0.00031415926059708,-8.726646046852693e-05,-0.0003665191470645368
0.015916652977466583,0.11756487935781479,9.552414894104004,-0.0007504915702156723,-0.0002617993741296232,0.00013962633966002613
0.029084762558341026,0.12111787497997284,9.563159942626953,-0.0010821041651070118,6.981316983001307e-05,-1.7453292457503267e-05
0.0235780980437994,0.12466129660606384,9.545270919799805,-0.0010821041651070118,-0.0006457717972807586,-3.490658491500653e-05
0.03205357491970062,0.13018712401390076,9.563638687133789,0.0011868239380419254,-8.726646046852693e-05,-0.0002617993741296232
0.011156979948282242,0.12832920253276825,9.557059288024902,-0.00125663704238832,-0.000715585018042475,0.00047123889089562
0.016768990084528923,0.1289421170949936,9.564624786376953,-0.0003665191470645368,6.981316983001307e-05,0.0015882495790719986
0.03552037850022316,0.12682566046714783,9.56640625,-0.00020943951676599681,0.0005934119690209627,0.0
0.039820361882448196,0.13740801811218262,9.563150405883789,0.0003665191470645368,-0.00038397242315113544,0.0
0.03592260181903839,0.13773363828659058,9.559223175048828,-0.0005759586347267032,-0.00027925267932005227,0.00013962633966002613
0.029630640521645546,0.12230540066957474,9.5087251663208,0.004520402755588293,0.09606292098760605,0.0007504915702156723
0.05189671739935875,0.18336713314056396,9.923477172851562,0.0006806784076616168,-0.06635741889476776,-0.0027925267349928617
0.007412448525428772,0.2766069173812866,9.2362642288208,-0.004956734832376242,-0.05892231687903404,-0.0003490658418741077
0.023855825886130333,0.14256034791469574,9.550700187683105,-0.00029670598451048136,-0.0021118484437465668,-0.00024434609804302454
0.009423578158020973,0.14909173548221588,9.579200744628906,8.726646046852693e-05,-0.0006981316837482154,0.00029670598451048136
0.011750741861760616,0.11693280935287476,9.580953598022461,-6.981316983001307e-05,-0.0009599310578778386,-0.00043633230961859226
0.013283031061291695,0.1350904405117035,9.571386337280273,-8.726646046852693e-05,5.2359879191499203e-05,0.00043633230961859226
0.022103268653154373,0.13170024752616882,9.567747116088867,0.00041887903353199363,-0.0009948377264663577,0.00040142572834156454
0.023807941004633904,0.1379443258047104,9.568493843078613,-3.490658491500653e-05,-0.00024434609804302454,0.00015707963029854
0.026556486263871193,0.1325717270374298,9.55997085571289,0.0007853981805965304,-0.0006457717972807586,0.0006108652451075613
0.017659632489085197,0.1264425814151764,9.570869445800781,0.0004886921960860491,0.0006981316837482154,-0.0008901178953237832
0.014010868035256863,0.1463048756122589,9.575810432434082,0.0,-0.0003490658418741077,0.0
0.01803312636911869,0.1283196359872818,9.570351600646973,0.00038397242315113544,-0.00031415926059708,-0.00012217304902151227
0.01433647982776165,0.13818374276161194,9.594467163085938,-0.0005061454721726477,-0.0006108652451075613,0.0007504915702156723
0.019871873781085014,0.12891338765621185,9.586814880371094,-0.0002617993741296232,-0.00047123889089562,-0.0007504915702156723
0.02094447799026966,0.13050314784049988,9.574326515197754,-8.726646046852693e-05,0.0003490658418741077,0.00017453292093705386
0.02557007409632206,0.14172716438770294,9.582256317138672,-0.00010471975838299841,-0.0003665191470645368,-0.00038397242315113544
0.017429787665605545,0.12518802285194397,9.565784454345703,-0.00015707963029854,-0.00019198621157556772,0.0003665191470645368
0.018569426611065865,0.13187263906002045,9.584583282470703,-0.0003665191470645368,0.00022689280740451068,0.0
0.010007763281464577,0.11690407991409302,9.59235954284668,0.00045378561480902135,0.00022689280740451068,0.00045378561480902135
0.021193474531173706,0.12237243354320526,9.574268341064453,-0.0015009831404313445,0.00047123889089562,0.00015707963029854
0.010093954391777515,0.12566685676574707,9.591765403747559,-0.0015882495790719986,-0.0005934119690209627,0.0
0.005267243832349777,0.13555970788002014,9.563581466674805,-0.00038397242315113544,-0.00045378561480902135,0.0
0.012804190628230572,0.14032894372940063,9.59801959991455,-0.00045378561480902135,-0.00015707963029854,-0.00031415926059708
0.015275007113814354,0.13858596980571747,9.59089469909668,-0.0009250245057046413,-0.00043633230961859226,5.2359879191499203e-05
0.02087743952870369,0.12519758939743042,9.589400291442871,-0.00017453292093705386,0.0005585053586401045,0.0
0.021250935271382332,0.13151828944683075,9.59103775024414,-0.00029670598451048136,-0.0005585053586401045,0.0
-0.0007852981798350811,0.12968911230564117,9.580733299255371,-0.0005759586347267032,-0.0006981316837482154,-1.7453292457503267e-05
0.03077985718846321,0.1096065491437912,9.592235565185547,-0.00013962633966002613,-0.00015707963029854,0.0003665191470645368
0.015207969583570957,0.13133633136749268,9.574058532714844,-0.00040142572834156454,0.0002617993741296232,-0.00040142572834156454
0.014489708468317986,0.13176728785037994,9.570657730102539,-8.726646046852693e-05,0.0007504915702156723,-3.490658491500653e-05
0.04412992298603058,0.11284351348876953,9.585148811340332,-0.00022689280740451068,0.00038397242315113544,0.0
0.02566584199666977,0.13116393983364105,9.588356018066406,0.0011344640515744686,-0.0004886921960860491,0.00029670598451048136
0.016855180263519287,0.14528973400592804,9.580791473388672,6.981316983001307e-05,0.0005061454721726477,0.0
0.01639549247920513,0.14147816598415375,9.584909439086914,-0.0008028514566831291,-0.00029670598451048136,0.0
0.03255156800150871,0.11463437974452972,9.581949234008789,-0.00010471975838299841,5.2359879191499203e-05,0.0003316125657875091
0.03324109688401222,0.14992490410804749,9.601859092712402,0.00017453292093705386,-0.00031415926059708,0.0
0.05705861747264862,0.13419979810714722,9.605987548828125,0.004345869645476341,-0.0062831854447722435,-0.000715585018042475
0.04257848486304283,0.14190912246704102,9.594054222106934,-0.0021642083302140236,0.006998770404607058,0.00024434609804302454
0.01079306099563837,0.113523468375206,9.596152305603027,-0.0012217304902151227,0.0012740903766825795,8.726646046852693e-05
0.011089942418038845,0.13531069457530975,9.589295387268066,-6.981316983001307e-05,0.00010471975838299841,0.0
0.017477672547101974,0.1255902498960495,9.589994430541992,0.00022689280740451068,3.490658491500653e-05,0.0
0.010658985935151577,0.14606545865535736,9.601696968078613,-6.981316983001307e-05,-0.0006981316837482154,0.00031415926059708
0.023549368605017662,0.1212136447429657,9.613533973693848,0.00013962633966002613,0.00017453292093705386,0.00038397242315113544
0.003859453136101365,0.14530888199806213,9.588117599487305,0.00017453292093705386,0.00062831852119416,0.0003316125657875091
0.007335834205150604,0.11815864592790604,9.585463523864746,0.0003316125657875091,-5.2359879191499203e-05,0.0
-0.005717353895306587,0.1226501613855362,9.6322660446167,0.008866272866725922,0.0014137167017906904,-0.0003665191470645368
0.04761588200926781,0.13314634561538696,9.62943172454834,-0.0023387412074953318,0.0012042771559208632,0.0
0.015150507912039757,0.14202405512332916,9.582381248474121,-0.003001966280862689,-0.00019198621157556772,0.0002617993741296232
0.030042441561818123,0.13874877989292145,9.590482711791992,-0.0002617993741296232,0.0015707963611930609,0.00043633230961859226
0.02855803817510605,0.13606727123260498,9.592206001281738,-6.981316983001307e-05,-0.00029670598451048136,-0.00029670598451048136
0.024631548672914505,0.12152010202407837,9.581748008728027,-0.00010471975838299841,-0.00013962633966002613,-0.00038397242315113544
0.03670790046453476,0.12076353281736374,9.592676162719727,0.0002617993741296232,-6.981316983001307e-05,0.0
0.025177424773573875,0.136574849486351,9.603239059448242,-8.726646046852693e-05,0.00022689280740451068,-0.00017453292093705386
0.0213275495916605,0.14187082648277283,9.591660499572754,-5.2359879191499203e-05,-0.0006632251315750182,0.0
0.026805482804775238,0.1407599002122879,9.597674369812012,-0.00038397242315113544,6.981316983001307e-05,-0.00013962633966002613
0.028443116694688797,0.1252359002828598,9.590826988220215,-0.00024434609804302454,0.001518436474725604,-1.7453292457503267e-05
0.014259865507483482,0.1524723321199417,9.595471382141113,-0.0005061454721726477,-0.00043633230961859226,-3.490658491500653e-05
0.01962287724018097,0.1287984699010849,9.6087646484375,-0.0005235987482592463,-0.00040142572834156454,0.00047123889089562
0.01926853507757187,0.12333011627197266,9.604378700256348,-0.00041887903353199363,0.00015707963029854,-1.7453292457503267e-05
0.028874073177576065,0.11550586670637131,9.580599784851074,-0.00010471975838299841,-0.0006806784076616168,-1.7453292457503267e-05
0.005008670035749674,0.12839625775814056,9.594141006469727,0.0011344640515744686,-0.00013962633966002613,0.00027925267932005227
0.02561795897781849,0.13393163681030273,9.600500106811523,0.00029670598451048136,-0.0003665191470645368,0.00047123889089562
0.025962723419070244,0.11952812224626541,9.597607612609863,-6.981316983001307e-05,-0.0006981316837482154,0.00015707963029854
0.0323408767580986,0.14049175381660461,9.583596229553223,0.0009773843921720982,0.0009773843921720982,-0.0007504915702156723
0.03489788621664047,0.14093227684497833,9.589850425720215,-0.00020943951676599681,-0.00062831852119416,-0.00043633230961859226
0.027609933167696,0.13149912655353546,9.59437084197998,-0.0003316125657875091,0.00020943951676599681,1.7453292457503267e-05
0.009452308528125286,0.12584881484508514,9.598517417907715,8.726646046852693e-05,-0.0006981316837482154,0.00012217304902151227
0.03574064373970032,0.13616304099559784,9.595710754394531,-0.0010995573829859495,0.001483529806137085,0.0
0.02473689243197441,0.1316332072019577,9.58875846862793,0.0005410520825535059,-0.0006806784076616168,0.00017453292093705386
0.030080748721957207,0.13393163681030273,9.589658737182617,-0.0010995573829859495,-0.001029744278639555,0.0010471974965184927
0.024152705445885658,0.1390743851661682,9.587254524230957,-0.0010471974965184927,0.0,0.00015707963029854
0.014049175195395947,0.12438356876373291,9.593709945678711,0.0011519172694534063,0.0010122909443452954,0.0
0.032599449157714844,0.13538731634616852,9.59311580657959,6.981316983001307e-05,5.2359879191499203e-05,5.2359879191499203e-05
0.029094340279698372,0.13643118739128113,9.597808837890625,-8.726646046852693e-05,0.0004886921960860491,1.7453292457503267e-05
0.023137565702199936,0.12553277611732483,9.594064712524414,0.0014137167017906904,-0.0006806784076616168,0.0007504915702156723
0.028337771072983742,0.13535858690738678,9.593183517456055,-0.00010471975838299841,-0.0003490658418741077,0.00017453292093705386
0.03682282194495201,0.12463255971670151,9.591803550720215,-0.0002617993741296232,-0.00020943951676599681,0.00027925267932005227
0.02168188989162445,0.13510000705718994,9.594600677490234,-0.0010821041651070118,0.0008377580670639873,0.00013962633966002613
0.03384443745017052,0.1213381439447403,9.591602325439453,3.490658491500653e-05,-0.00024434609804302454,0.0
0.036458905786275864,0.1275918036699295,9.59938907623291,0.00020943951676599681,-0.0008377580670639873,-0.00019198621157556772
0.02137543261051178,0.12405795603990555,9.61681842803955,0.00022689280740451068,-0.00062831852119416,0.0
0.014930241741240025,0.13653652369976044,9.610699653625488,-0.0009075712296180427,0.00024434609804302454,-0.0002617993741296232
0.02613510563969612,0.14066414535045624,9.603833198547363,0.0008028514566831291,-0.0005235987482592463,0.00015707963029854
0.033614594489336014,0.13460202515125275,9.584851264953613,-0.00040142572834156454,0.0006457717972807586,-0.0004886921960860491
0.013599066063761711,0.12410584092140198,9.594955444335938,0.0002617993741296232,-0.00041887903353199363,0.0
0.03449565917253494,0.12564770877361298,9.588289260864258,-0.00029670598451048136,-0.007714355364441872,-0.00047123889089562
0.03402639552950859,0.13087664544582367,9.584258079528809,-0.00040142572834156454,0.003944444004446268,0.00022689280740451068
0.028261156752705574,0.1357608139514923,9.602684020996094,-0.00019198621157556772,0.0003316125657875091,-0.0007504915702156723
0.006713341921567917,0.12333011627197266,9.603708267211914,0.00022689280740451068,-0.00062831852119416,0.00017453292093705386
0.03082774206995964,0.09996270388364792,9.601160049438477,0.0,0.00022689280740451068,0.00047123889089562
0.04353616386651993,0.0972907766699791,9.589524269104004,-0.0010995573829859495,-8.726646046852693e-05,-0.00038397242315113544
0.03267606347799301,0.13128843903541565,9.597415924072266,-0.00020943951676599681,-0.00031415926059708,0.00031415926059708
0.029257144778966904,0.13228443264961243,9.598824501037598,0.00038397242315113544,-0.001117010717280209,0.0007330382941290736
0.04307647794485092,0.13278242945671082,9.595117568969727,-8.726646046852693e-05,-0.0002617993741296232,0.00043633230961859226
0.028988994657993317,0.13538731634616852,9.604138374328613,0.00013962633966002613,-0.0008028514566831291,-0.00010471975838299841
0.015792153775691986,0.12142433226108551,9.58641242980957,-0.00022689280740451068,-0.0006981316837482154,0.0
0.030243555083870888,0.13215993344783783,9.594820022583008,0.00020943951676599681,-0.00062831852119416,0.00017453292093705386
0.02632664144039154,0.12382811307907104,9.593873023986816,0.00043633230961859226,0.00019198621157556772,0.0
0.016079457476735115,0.1150461807847023,9.592369079589844,-0.0002617993741296232,0.0004886921960860491,0.0
0.011042057536542416,0.1421772837638855,9.585684776306152,0.0,-5.2359879191499203e-05,-0.00043633230961859226
0.010409989394247532,0.11716265231370926,9.59130573272705,-5.2359879191499203e-05,0.0003665191470645368,-3.490658491500653e-05
0.017956512048840523,0.13228443264961243,9.60920524597168,0.0018151424592360854,0.020804325118660927,0.0002617993741296232
0.034208353608846664,0.12931562960147858,9.564165115356445,-0.0005061454721726477,0.0006108652451075613,-0.0006457717972807586
0.003265690989792347,0.1269214153289795,9.594505310058594,-0.0005410520825535059,0.0011344640515744686,0.0
0.017458518967032433,0.1327345371246338,9.60871696472168,-8.726646046852693e-05,-0.00029670598451048136,-0.00043633230961859226
0.008858546614646912,0.1265096217393875,9.603957176208496,0.0003665191470645368,5.2359879191499203e-05,0.0
0.01853111945092678,0.12989981472492218,9.60276985168457,3.490658491500653e-05,-0.0003490658418741077,-0.00019198621157556772
0.019498378038406372,0.1087733656167984,9.59201431274414,-0.0005585053586401045,0.00040142572834156454,-0.00013962633966002613
0.010448296554386616,0.14674541354179382,9.608142852783203,0.00043633230961859226,0.00040142572834156454,-0.0007504915702156723
0.033470939844846725,0.14222516119480133,9.579727172851562,0.0005235987482592463,-0.000715585018042475,-1.7453292457503267e-05
0.015916652977466583,0.13887327909469604,9.5924072265625,0.0003490658418741077,-3.490658491500653e-05,-1.7453292457503267e-05
0.032666489481925964,0.12063904106616974,9.606369972229004,0.00015707963029854,-0.0008901178953237832,0.0
0.027303475886583328,0.1359906643629074,9.588547706604004,-0.0005410520825535059,0.0005061454721726477,0.0
0.0226299948990345,0.11625286191701889,9.599801063537598,-1.7453292457503267e-05,-0.00022689280740451068,5.2359879191499203e-05
0.03444777429103851,0.13843274116516113,9.590807914733887,0.0005934119690209627,0.0008552113431505859,0.00047123889089562
0.020532673224806786,0.14064498245716095,9.587791442871094,-0.0003490658418741077,-0.00015707963029854,-0.00010471975838299841
0.05365884676575661,0.12313857674598694,9.589284896850586,-0.0002617993741296232,0.0002617993741296232,-0.00010471975838299841
0.023357832804322243,0.15435898303985596,9.61733627319336,-0.0005410520825535059,-0.00020943951676599681,-0.00041887903353199363
0.033097442239522934,0.11873325705528259,9.58653736114502,-8.726646046852693e-05,-0.00024434609804302454,0.00019198621157556772
0.03159388527274132,0.13350068032741547,9.584746360778809,0.00010471975838299841,0.0,-0.00031415926059708
0.025148695334792137,0.12290873378515244,9.590147018432617,0.00143117003608495,0.0019547687843441963,-0.0003665191470645368
0.01398213766515255,0.12781205773353577,9.595050811767578,-0.0008203047327697277,-0.00029670598451048136,1.7453292457503267e-05
0.012555194087326527,0.13288776576519012,9.601486206054688,0.0018500490114092827,0.0009773843921720982,-5.2359879191499203e-05
0.011865663342177868,0.12912409007549286,9.597291946411133,-0.00015707963029854,-0.0005061454721726477,0.0002617993741296232
0.01059194840490818,0.14855541288852692,9.57671070098877,-0.0007853981805965304,-0.00015707963029854,0.00040142572834156454
0.03019567020237446,0.14750199019908905,9.598747253417969,0.0010122909443452954,0.0,0.0008552113431505859
0.03066493570804596,0.14247414469718933,9.597951889038086,-0.0002617993741296232,-0.0004886921960860491,1.7453292457503267e-05
0.027332207188010216,0.13394121825695038,9.601716041564941,-0.00205948855727911,-0.0007330382941290736,3.490658491500653e-05
0.009844956919550896,0.11781387776136398,9.594188690185547,0.00047123889089562,-0.0007504915702156723,6.981316983001307e-05
0.02381751872599125,0.1369674801826477,9.58435344696045,-0.0005759586347267032,0.0,0.00017453292093705386
0.03384443745017052,0.13192051649093628,9.605670928955078,-0.00013962633966002613,-0.0005759586347267032,-3.490658491500653e-05
0.012670115567743778,0.12825259566307068,9.5953950881958,0.0009948377264663577,-0.00043633230961859226,-0.00010471975838299841
0.021107282489538193,0.11297759413719177,9.593365669250488,0.0018500490114092827,0.0007504915702156723,0.00015707963029854
0.025158271193504333,0.14273272454738617,9.596017837524414,0.000715585018042475,-0.0014486232539638877,0.0004886921960860491
0.01968991383910179,0.12866440415382385,9.588663101196289,-0.0011519172694534063,0.0006457717972807586,0.0010471974965184927
0.02303222008049488,0.12977531552314758,9.576337814331055,0.00024434609804302454,0.0005585053586401045,0.00015707963029854
0.031526848673820496,0.1286931335926056,9.602903366088867,8.726646046852693e-05,-0.0008726646192371845,5.2359879191499203e-05
0.03111504577100277,0.11923124641180038,9.594878196716309,-0.00015707963029854,0.0005934119690209627,0.0003665191470645368
0.02388455532491207,0.12966038286685944,9.599340438842773,-0.00041887903353199363,-0.00041887903353199363,0.0
0.032474953681230545,0.1297178566455841,9.589035987854004,0.0007853981805965304,5.2359879191499203e-05,-0.0004886921960860491
0.040701426565647125,0.13853809237480164,9.59574031829834,-8.726646046852693e-05,-0.0006806784076616168,-6.981316983001307e-05
0.03383485972881317,0.13132674992084503,9.582897186279297,-6.981316983001307e-05,-0.00022689280740451068,0.00017453292093705386
0.023779211565852165,0.12857820093631744,9.595606803894043,-0.00017453292093705386,-0.0009948377264663577,-0.0002617993741296232
0.04049073904752731,0.13729310035705566,9.588500022888184,-0.00012217304902151227,-0.0007504915702156723,-0.0002617993741296232
0.03884352743625641,0.13240893185138702,9.59032917022705,1.7453292457503267e-05,-0.0008552113431505859,0.00029670598451048136
0.020848708227276802,0.11859917640686035,9.600375175476074,-0.00041887903353199363,-6.981316983001307e-05,0.0005410520825535059
0.016558298841118813,0.13531069457530975,9.600040435791016,0.00013962633966002613,-0.0006981316837482154,-0.0005410520825535059
0.006722918711602688,0.1333857774734497,9.60124683380127,-0.00038397242315113544,0.0,-0.00010471975838299841
0.024191012606024742,0.10796891897916794,9.599886894226074,5.2359879191499203e-05,-0.0008028514566831291,0.0008726646192371845
0.01571553945541382,0.12075395882129669,9.588902473449707,8.726646046852693e-05,-0.00031415926059708,0.00029670598451048136
0.02317587286233902,0.12694057822227478,9.617363929748535,-0.00022689280740451068,-0.001745329238474369,-0.00012217304902151227
0.018559850752353668,0.12280339002609253,9.60179328918457,-0.0003490658418741077,-0.0008901178953237832,0.0
0.034849997609853745,0.12314815819263458,9.600968360900879,-6.981316983001307e-05,0.0010995573829859495,-3.490658491500653e-05
0.021978771314024925,0.13370180130004883,9.587944030761719,-8.726646046852693e-05,-0.00031415926059708,5.2359879191499203e-05
0.017927782610058784,0.11188583076000214,9.595012664794922,-0.00020943951676599681,6.981316983001307e-05,0.0003316125657875091
0.009758765809237957,0.12018892914056778,9.6124906539917,-8.726646046852693e-05,-0.00024434609804302454,0.0005410520825535059
0.02184469625353813,0.12306196242570877,9.603353500366211,-0.0010471974965184927,-0.0009599310578778386,5.2359879191499203e-05
0.02381751872599125,0.12489113956689835,9.595606803894043,0.00010471975838299841,-0.0007853981805965304,-0.00041887903353199363
0.007259219419211149,0.1280514895915985,9.594830513000488,-0.00043633230961859226,-0.00029670598451048136,0.0
0.0233386792242527,0.11857043951749802,9.603046417236328,0.0004886921960860491,-0.0012042771559208632,-0.0008028514566831291
0.02343444712460041,0.13351984322071075,9.606274604797363,-5.2359879191499203e-05,-0.0006981316837482154,-0.0003316125657875091
0.0334039032459259,0.13289734721183777,9.60964584350586,0.00047123889089562,0.0007853981805965304,0.0
0.04112280532717705,0.13197797536849976,9.612126350402832,-0.0008377580670639873,-0.00022689280740451068,0.0
0.006607996299862862,0.1414877474308014,9.59681224822998,-0.0008552113431505859,-0.0035953782498836517,0.00041887903353199363
0.019182344898581505,0.10566090792417526,9.606379508972168,-0.00010471975838299841,0.0009599310578778386,1.7453292457503267e-05
0.013876792974770069,0.13457328081130981,9.607146263122559,0.0009075712296180427,0.00013962633966002613,-1.7453292457503267e-05
0.019115306437015533,0.11036311835050583,9.607682228088379,5.2359879191499203e-05,0.0008203047327697277,0.0
0.009730035439133644,0.12672987580299377,9.599340438842773,-0.00013962633966002613,-0.0005410520825535059,-0.0005235987482592463
0.02478477731347084,0.12134771794080734,9.598737716674805,-0.00029670598451048136,-0.00038397242315113544,0.0
0.015447389334440231,0.11513236910104752,9.590923309326172,-3.490658491500653e-05,-0.00024434609804302454,0.0
0.012018891982734203,0.11814906448125839,9.624144554138184,-6.981316983001307e-05,-0.0005235987482592463,0.00029670598451048136
0.017592594027519226,0.12357911467552185,9.602243423461914,0.00029670598451048136,-0.00010471975838299841,0.00031415926059708
0.0355491079390049,0.12720872461795807,9.617460250854492,-8.726646046852693e-05,-0.0013788101496174932,0.0007679448463022709
0.01964203082025051,0.12808021903038025,9.597003936767578,-6.981316983001307e-05,-0.00024434609804302454,-0.00031415926059708
0.0354246087372303,0.10707827657461166,9.608601570129395,0.00027925267932005227,-0.0007330382941290736,0.00017453292093705386
0.01968991383910179,0.13064680993556976,9.59529972076416,-0.000715585018042475,-0.00022689280740451068,0.00024434609804302454
0.004807556979358196,0.12695014476776123,9.614893913269043,-0.00022689280740451068,-0.0006806784076616168,0.00029670598451048136
0.02706405706703663,0.13796348869800568,9.591459274291992,8.726646046852693e-05,0.00038397242315113544,0.0
0.0027772739995270967,0.13681425154209137,9.587848663330078,-0.00024434609804302454,0.0004886921960860491,0.00031415926059708
0.011415554210543633,0.13464990258216858,9.605125427246094,0.00022689280740451068,-0.0003490658418741077,0.0005061454721726477
0.03063620626926422,0.12424948811531067,9.614252090454102,-6.981316983001307e-05,0.0,0.0
0.02492842823266983,0.11107181012630463,9.59774112701416,5.2359879191499203e-05,-0.00043633230961859226,-0.00045378561480902135
0.04227202758193016,0.12057200074195862,9.613879203796387,-5.2359879191499203e-05,-0.00010471975838299841,0.0
0.029582755640149117,0.12866440415382385,9.600135803222656,0.0005759586347267032,0.0008901178953237832,5.2359879191499203e-05
0.031316157430410385,0.14523227512836456,9.603459358215332,-0.00047123889089562,-0.00031415926059708,-3.490658491500653e-05
0.023166295140981674,0.13318464159965515,9.603995323181152,0.0012391837080940604,-0.00010471975838299841,0.0
-0.06096595525741577,0.15168704092502594,9.664280891418457,-0.0008377580670639873,-0.03691371530294418,5.2359879191499203e-05
0.00823605339974165,0.12964123487472534,9.62746810913086,0.0002617993741296232,0.0050090947188436985,0.0009250245057046413
-0.02511996403336525,0.1262127310037613,9.653277397155762,0.0006108652451075613,0.00188495556358248,0.0005410520825535059
0.02282153069972992,0.13951492309570312,9.588729858398438,0.00010471975838299841,-0.0009773843921720982,0.00043633230961859226
0.04003105312585831,0.12720872461795807,9.588595390319824,0.00015707963029854,-0.0006806784076616168,0.0
0.032522834837436676,0.14583562314510345,9.584334373474121,-0.0003316125657875091,0.00020943951676599681,0.00043633230961859226
0.023118412122130394,0.13603854179382324,9.595108032226562,-0.00022689280740451068,0.00027925267932005227,0.00040142572834156454
0.016242263838648796,0.12983275949954987,9.618408203125,-0.0003316125657875091,-0.00013962633966002613,-6.981316983001307e-05
0.03251326084136963,0.13851892948150635,9.592857360839844,0.00027925267932005227,-0.00017453292093705386,-5.2359879191499203e-05
0.029237991198897362,0.12882721424102783,9.611369132995605,0.0,-0.00062831852119416,5.2359879191499203e-05
0.03378697484731674,0.1394478976726532,9.600356101989746,-0.00010471975838299841,-0.0006981316837482154,-3.490658491500653e-05
0.037636853754520416,0.11720095574855804,9.611963272094727,-5.2359879191499203e-05,-0.0007853981805965304,1.7453292457503267e-05
0.05481764301657677,0.12090718746185303,9.605393409729004,-0.00041887903353199363,0.00094247778179124,0.00022689280740451068
0.028347346931695938,0.14243584871292114,9.589160919189453,0.00041887903353199363,-0.0003316125657875091,-0.0003665191470645368
0.01666364260017872,0.1161092072725296,9.600872993469238,0.00024434609804302454,-0.0003490658418741077,-3.490658491500653e-05
0.031268272548913956,0.13879665732383728,9.6060152053833,0.00029670598451048136,-0.00029670598451048136,-0.00031415926059708
-0.006732495501637459,0.14349886775016785,9.60129451751709,-0.0007853981805965304,0.0012217304902151227,0.0
0.015610194765031338,0.13607683777809143,9.590885162353516,-0.00017453292093705386,-6.981316983001307e-05,-0.00010471975838299841
0.018406622111797333,0.12783122062683105,9.591794967651367,-0.00047123889089562,-5.2359879191499203e-05,-0.00043633230961859226
0.015294160693883896,0.12450806796550751,9.590099334716797,0.00017453292093705386,-0.00094247778179124,0.0
0.03146938607096672,0.12586797773838043,9.58364486694336,-0.00010471975838299841,0.0,-0.00029670598451048136
0.019057845696806908,0.11473972350358963,9.587964057922363,0.00029670598451048136,0.0008203047327697277,-5.2359879191499203e-05
0.05081453546881676,0.13037864863872528,9.607146263122559,0.0008726646192371845,0.0005061454721726477,0.0013613568153232336
-2.8730421036016196e-05,0.12964123487472534,9.607098579406738,-0.0027052604127675295,0.00125663704238832,0.0003490658418741077
0.02118389680981636,0.14264653623104095,9.594781875610352,-0.0005585053586401045,0.0007504915702156723,-0.0009599310578778386
0.01952710933983326,0.1384902000427246,9.59699535369873,-0.0010646508308127522,-0.00022689280740451068,8.726646046852693e-05
0.020369866862893105,0.12993811070919037,9.590205192565918,0.0005759586347267032,-0.0005410520825535059,-0.00027925267932005227
0.046198517084121704,0.11913547664880753,9.59791374206543,0.00024434609804302454,-0.00022689280740451068,0.0
0.019555838778614998,0.11913547664880753,9.605718612670898,-6.981316983001307e-05,-0.0005934119690209627,0.0007504915702156723
0.03485957533121109,0.13027329742908478,9.603947639465332,0.00043633230961859226,-0.0006981316837482154,-1.7453292457503267e-05
0.02269703336060047,0.12837709486484528,9.602951049804688,-6.981316983001307e-05,0.0,-0.00012217304902151227
0.022993912920355797,0.12743857502937317,9.585895538330078,-0.0003490658418741077,6.981316983001307e-05,-1.7453292457503267e-05
0.014106635935604572,0.12099337577819824,9.61099624633789,-8.726646046852693e-05,-0.00029670598451048136,-0.00038397242315113544
-0.004721365869045258,0.13773363828659058,9.583654403686523,-0.00020943951676599681,-6.981316983001307e-05,0.0008726646192371845
0.03640144318342209,0.14193785190582275,9.594743728637695,-0.0010471974965184927,-0.0006108652451075613,-6.981316983001307e-05
0.021883003413677216,0.12730449438095093,9.592378616333008,-0.00027925267932005227,0.0005410520825535059,0.0
0.009318233467638493,0.12100294977426529,9.60668659210205,0.00040142572834156454,-0.0006806784076616168,-6.981316983001307e-05
0.02947741188108921,0.1210891455411911,9.614568710327148,-0.0010122909443452954,-0.00012217304902151227,0.0002617993741296232
0.01478658989071846,0.1408461034297943,9.605738639831543,0.0009250245057046413,-0.0003316125657875091,0.0
0.02928587608039379,0.12046664953231812,9.591104507446289,-8.726646046852693e-05,-0.00027925267932005227,0.0015882495790719986
0.018100164830684662,0.1479904055595398,9.597789764404297,-0.0002617993741296232,-0.00031415926059708,-0.00010471975838299841
0.018895041197538376,0.12934434413909912,9.590070724487305,0.00029670598451048136,0.00017453292093705386,0.0
0.037550657987594604,0.13258130848407745,9.60364055633545,-0.00022689280740451068,0.0,0.00062831852119416
0.03479253873229027,0.1293826550245285,9.599053382873535,5.2359879191499203e-05,-0.0003665191470645368,-0.0002617993741296232
0.016529567539691925,0.12433568388223648,9.601016998291016,0.00024434609804302454,0.0007330382941290736,6.981316983001307e-05
0.016318878158926964,0.1408843994140625,9.597051620483398,-0.0005235987482592463,0.001117010717280209,-0.0004886921960860491
0.02031240612268448,0.12162545323371887,9.580254554748535,-0.0008901178953237832,-0.0006981316837482154,0.00043633230961859226
0.030339322984218597,0.13233232498168945,9.598076820373535,0.0008901178953237832,-0.00020943951676599681,-1.7453292457503267e-05
0.01222958229482174,0.12242989987134933,9.588251113891602,0.0008377580670639873,0.0003665191470645368,0.0008726646192371845
0.015887921676039696,0.12105083465576172,9.594313621520996,0.0006806784076616168,0.0006632251315750182,1.7453292457503267e-05
0.022524649277329445,0.14071202278137207,9.587053298950195,-6.981316983001307e-05,-0.0006806784076616168,0.0
0.03635355830192566,0.13133633136749268,9.598938941955566,-0.0018675023457035422,-0.00038397242315113544,0.00041887903353199363
0.023702597245573997,0.11853213608264923,9.607548713684082,0.0007853981805965304,-0.00045378561480902135,0.00017453292093705386
0.04516422376036644,0.14648683369159698,9.609951972961426,3.490658491500653e-05,0.0005585053586401045,8.726646046852693e-05
0.015562310814857483,0.11900140345096588,9.590367317199707,-0.0013962633674964309,-1.7453292457503267e-05,0.0
0.029046455398201942,0.13114479184150696,9.602386474609375,-0.00022689280740451068,-0.0004886921960860491,-3.490658491500653e-05
0.01967076025903225,0.12864524126052856,9.600547790527344,-0.0010122909443452954,-0.00027925267932005227,0.0
0.022380996495485306,0.13369223475456238,9.611302375793457,-0.0005934119690209627,6.981316983001307e-05,-0.0003665191470645368
0.027437550947070122,0.12485282868146896,9.608400344848633,-0.0005061454721726477,0.0002617993741296232,0.00041887903353199363
0.02893153391778469,0.12590627372264862,9.601888656616211,-0.0008377580670639873,-0.0010471974965184927,0.0
0.01928768865764141,0.13218866288661957,9.587398529052734,0.001972222002223134,0.00027925267932005227,0.0
0.02478477731347084,0.12143390625715256,9.593250274658203,0.00043633230961859226,-0.0006806784076616168,0.0009250245057046413
0.004817133769392967,0.1329452395439148,9.599723815917969,-0.00143117003608495,0.00019198621157556772,-0.0003316125657875091
0.027351360768079758,0.1356746256351471,9.587141036987305,-0.00043633230961859226,-0.0004886921960860491,0.0
0.03054043836891651,0.1235886886715889,9.602424621582031,3.490658491500653e-05,-0.00020943951676599681,0.0
0.04957912862300873,0.12572431564331055,9.595423698425293,-0.0006457717972807586,0.00029670598451048136,-0.00010471975838299841
0.023846248164772987,0.12480494379997253,9.597511291503906,0.0008028514566831291,-0.0005410520825535059,0.0003316125657875091
0.001283292076550424,0.13951492309570312,9.60364055633545,-5.2359879191499203e-05,0.00012217304902151227,0.0
0.028021736070513725,0.10557471215724945,9.605269432067871,0.00027925267932005227,-0.0006457717972807586,0.00017453292093705386
0.029659369960427284,0.12174994498491287,9.588461875915527,0.00024434609804302454,-0.0005061454721726477,-0.00045378561480902135
0.042923249304294586,0.11383949965238571,9.607385635375977,0.00012217304902151227,-0.0002617993741296232,-3.490658491500653e-05
0.015303737483918667,0.12451764196157455,9.597761154174805,-0.0009773843921720982,-5.2359879191499203e-05,0.0
0.037004780024290085,0.12958377599716187,9.60983657836914,-0.001483529806137085,3.490658491500653e-05,0.00045378561480902135
0.03233129903674126,0.12051453441381454,9.595855712890625,0.0005235987482592463,-0.000715585018042475,0.00010471975838299841
0.017851168289780617,0.12331096827983856,9.597549438476562,-0.001483529806137085,-0.0015009831404313445,-0.00024434609804302454
0.026834214106202126,0.13904565572738647,9.604397773742676,-0.00029670598451048136,-0.00027925267932005227,-0.00010471975838299841
0.027399243786931038,0.11877156049013138,9.622161865234375,0.0003316125657875091,-0.0003665191470645368,-0.0004886921960860491
0.035769373178482056,0.127486452460289,9.604043006896973,0.0008203047327697277,-0.0005585053586401045,0.0003490658418741077
0.017851168289780617,0.1362396478652954,9.593365669250488,5.2359879191499203e-05,-0.0010646508308127522,5.2359879191499203e-05
0.022572534158825874,0.15035586059093475,9.600422859191895,-0.0002617993741296232,-0.0006981316837482154,0.0006806784076616168
0.03712927922606468,0.12607866525650024,9.614453315734863,-0.00041887903353199363,0.00041887903353199363,-0.00012217304902151227
0.023137565702199936,0.12312900274991989,9.605164527893066,0.0,-0.00045378561480902135,-0.0007504915702156723
0.02341529354453087,0.13481271266937256,9.588844299316406,-1.7453292457503267e-05,-0.00062831852119416,-6.981316983001307e-05
0.021499931812286377,0.14720509946346283,9.592445373535156,3.490658491500653e-05,-0.0003316125657875091,0.00027925267932005227
0.04116111248731613,0.1340944468975067,9.611809730529785,-0.0005061454721726477,0.00041887903353199363,-6.981316983001307e-05
0.07863516360521317,0.13651737570762634,9.580761909484863,0.0005235987482592463,-0.017784904688596725,-0.00015707963029854
0.06155013665556908,0.13582785427570343,9.597723007202148,-0.0011344640515744686,0.013072515837848186,-0.0003490658418741077
0.008264783769845963,0.1256093978881836,9.617316246032715,-0.0002617993741296232,0.005427973810583353,8.726646046852693e-05
0.04219541326165199,0.13439132273197174,9.559041976928711,-0.00015707963029854,-0.00024434609804302454,0.0
0.027945121750235558,0.12886551022529602,9.609434127807617,-0.0006981316837482154,0.00019198621157556772,0.0
0.026317063719034195,0.13772405683994293,9.601237297058105,-0.00040142572834156454,0.00094247778179124,0.0
0.0308085884898901,0.12838667631149292,9.591602325439453,-0.0004886921960860491,0.00031415926059708,-0.00013962633966002613
0.03769431263208389,0.127486452460289,9.59841251373291,0.00038397242315113544,0.00041887903353199363,0.0
0.014259865507483482,0.12058157473802567,9.602645874023438,-1.7453292457503267e-05,0.0010122909443452954,0.0
0.023166295140981674,0.12630850076675415,9.580848693847656,-0.0007330382941290736,0.0,-0.00012217304902151227
0.02042732760310173,0.1337975561618805,9.594399452209473,5.2359879191499203e-05,-0.0008203047327697277,-0.00017453292093705386
0.01784159056842327,0.14201445877552032,9.588318824768066,-0.001518436474725604,-0.0006981316837482154,0.0
0.03592260181903839,0.13166193664073944,9.596409797668457,0.0006457717972807586,-3.490658491500653e-05,-0.00043633230961859226
0.017017986625432968,0.136986643075943,9.588959693908691,-0.0007330382941290736,0.00041887903353199363,0.0
0.03642059862613678,0.13740801811218262,9.595826148986816,-0.001658062799833715,0.00015707963029854,-0.00031415926059708
0.017496826127171516,0.1344679445028305,9.600404739379883,0.00020943951676599681,0.00024434609804302454,0.0010646508308127522
0.029793445020914078,0.12290873378515244,9.590252876281738,-0.0003316125657875091,0.0005585053586401045,0.0
0.019345149397850037,0.13568420708179474,9.582754135131836,-0.00022689280740451068,-0.0003665191470645368,0.0002617993741296232
0.04608359560370445,0.13412319123744965,9.600298881530762,-0.0005759586347267032,5.2359879191499203e-05,-0.00041887903353199363
0.023654712364077568,0.11436622589826584,9.604090690612793,0.0009075712296180427,0.0002617993741296232,0.0
0.01791820488870144,0.13395078480243683,9.592819213867188,0.0005061454721726477,0.0012740903766825795,0.00027925267932005227
0.04729027301073074,0.13728351891040802,9.586939811706543,0.0012042771559208632,0.0011693706037476659,0.0006108652451075613
0.017956512048840523,0.12147221714258194,9.594629287719727,-0.0002617993741296232,-0.0006632251315750182,0.0016929693520069122
0.02471773885190487,0.1294018030166626,9.606236457824707,-0.00045378561480902135,-0.0005235987482592463,0.0
-0.00036391866160556674,0.1213381439447403,9.606954574584961,0.0,-0.00027925267932005227,-1.7453292457503267e-05
0.01443224772810936,0.1513901650905609,9.608036994934082,0.0,0.00017453292093705386,0.00020943951676599681
0.03535757213830948,0.13228443264961243,9.598422050476074,0.00024434609804302454,0.00022689280740451068,0.0
0.007402871735394001,0.12363657355308533,9.576988220214844,-6.981316983001307e-05,-0.00062831852119416,0.0
0.02004425600171089,0.13156618177890778,9.592857360839844,-0.0005235987482592463,-0.0007679448463022709,-3.490658491500653e-05
0.018071433529257774,0.12031342089176178,9.602118492126465,0.0,-0.00019198621157556772,-0.00013962633966002613
0.027849353849887848,0.11556332558393478,9.589314460754395,0.00022689280740451068,0.00022689280740451068,0.0
0.03165134787559509,0.13617262244224548,9.586326599121094,0.0003490658418741077,-0.00024434609804302454,-0.00010471975838299841
0.037828389555215836,0.12141475826501846,9.597827911376953,-0.0005061454721726477,-0.0006981316837482154,5.2359879191499203e-05
0.019211074337363243,0.13250470161437988,9.595337867736816,-0.0008203047327697277,0.00038397242315113544,0.00017453292093705386
0.01737232692539692,0.13953407108783722,9.592024803161621,0.0005061454721726477,-0.0006806784076616168,-0.00010471975838299841
0.032024841755628586,0.12401964515447617,9.59262752532959,-0.00038397242315113544,-0.00038397242315113544,0.0009948377264663577
0.018942924216389656,0.13114479184150696,9.596160888671875,-0.00040142572834156454,-0.00029670598451048136,-1.7453292457503267e-05
0.013369223102927208,0.12789826095104218,9.606715202331543,-0.0006457717972807586,-0.0005061454721726477,-0.0004886921960860491
0.043210551142692566,0.136526957154274,9.610785484313965,0.0012391837080940604,0.00040142572834156454,0.00041887903353199363
0.01656787469983101,0.13030202686786652,9.627419471740723,0.001117010717280209,-0.003525565145537257,0.00015707963029854
0.049703627824783325,0.13368265330791473,9.591181755065918,-0.00029670598451048136,-0.0037873645778745413,0.00013962633966002613
0.03758896514773369,0.13372094929218292,9.594505310058594,0.0003316125657875091,0.0011868239380419254,-3.490658491500653e-05
0.03370078280568123,0.13337619602680206,9.607748985290527,-0.00012217304902151227,0.00012217304902151227,0.00031415926059708
0.026087220758199692,0.13097241520881653,9.590424537658691,-0.0008203047327697277,-0.0007853981805965304,-5.2359879191499203e-05
0.02983175218105316,0.1326770782470703,9.601284980773926,0.00013962633966002613,-0.00022689280740451068,3.490658491500653e-05
0.042214564979076385,0.1285877823829651,9.611043930053711,0.00047123889089562,0.0003490658418741077,5.2359879191499203e-05
0.024966735392808914,0.14377659559249878,9.586833953857422,0.00013962633966002613,-0.0003490658418741077,-1.7453292457503267e-05
0.014566323719918728,0.12745772302150726,9.59997272491455,8.726646046852693e-05,-0.0005585053586401045,-0.00043633230961859226
0.017353173345327377,0.12339715659618378,9.587637901306152,-0.00040142572834156454,-0.0006457717972807586,-0.00041887903353199363
0.0255892276763916,0.11774684488773346,9.603803634643555,-6.981316983001307e-05,1.7453292457503267e-05,0.0
0.029965827241539955,0.12254482507705688,9.605757713317871,0.00013962633966002613,0.00013962633966002613,-0.00043633230961859226
0.03243664652109146,0.13437217473983765,9.594082832336426,-6.981316983001307e-05,0.00038397242315113544,-0.00013962633966002613
0.022218191996216774,0.13749422132968903,9.605718612670898,-0.00010471975838299841,-0.0015533430268988013,0.00024434609804302454
0.026240449398756027,0.12972743809223175,9.588644027709961,-0.00027925267932005227,-0.0012217304902151227,0.00013962633966002613
0.024095244705677032,0.11812033504247665,9.599742889404297,-0.0009075712296180427,-0.0010995573829859495,-0.0004886921960860491
0.023118412122130394,0.12744814157485962,9.589045524597168,0.001343903481028974,-0.0004886921960860491,5.2359879191499203e-05
0.0195462629199028,0.13288776576519012,9.599685668945312,-0.0009773843921720982,8.726646046852693e-05,1.7453292457503267e-05
0.020695479586720467,0.13016794621944427,9.595970153808594,-0.00024434609804302454,-5.2359879191499203e-05,0.00043633230961859226
0.01407790556550026,0.1448204666376114,9.604598999023438,-0.0020420351065695286,-0.0002617993741296232,0.0
0.027427975088357925,0.14328818023204803,9.590386390686035,-0.0003665191470645368,0.00040142572834156454,-6.981316983001307e-05
0.0042999861761927605,0.11721053719520569,9.583520889282227,-0.0006806784076616168,-0.00010471975838299841,0.0003316125657875091
0.012076352722942829,0.12944969534873962,9.596266746520996,0.00038397242315113544,-0.00022689280740451068,0.0
0.03286759927868843,0.1343817561864853,9.604827880859375,0.0008377580670639873,-0.0003665191470645368,0.00019198621157556772
0.03256114199757576,0.13678553700447083,9.596678733825684,-0.0006981316837482154,-0.00029670598451048136,-3.490658491500653e-05
0.023635558784008026,0.12090718746185303,9.603697776794434,3.490658491500653e-05,-0.0005585053586401045,0.0
0.008753201924264431,0.13286861777305603,9.601706504821777,-0.0004886921960860491,-0.00041887903353199363,-0.0004886921960860491
0.010850521735846996,0.11472056806087494,9.598555564880371,0.0004886921960860491,-0.0004886921960860491,0.00024434609804302454
0.03640144318342209,0.12087845802307129,9.595414161682129,-0.001518436474725604,0.0005410520825535059,0.0
0.03307829052209854,0.1219223216176033,9.59868049621582,-0.0003316125657875091,0.00017453292093705386,-0.00045378561480902135
0.013867216184735298,0.12768757343292236,9.601131439208984,0.00029670598451048136,0.00043633230961859226,-0.00040142572834156454
0.026748022064566612,0.13087664544582367,9.588557243347168,0.0005235987482592463,0.00043633230961859226,0.00043633230961859226
0.036765363067388535,0.12770672142505646,9.600739479064941,-0.00024434609804302454,-0.00040142572834156454,0.0016755161341279745
0.006167463958263397,0.1357799619436264,9.60445499420166,-0.0010471974965184927,0.0005585053586401045,0.0
0.02793554589152336,0.12820471823215485,9.602347373962402,0.00024434609804302454,-0.0003665191470645368,-0.00017453292093705386
0.0213275495916605,0.12170206755399704,9.592646598815918,1.7453292457503267e-05,0.0005585053586401045,0.00024434609804302454
0.013196839019656181,0.1295933574438095,9.597320556640625,-0.0006632251315750182,6.981316983001307e-05,0.0
0.027303475886583328,0.12039003521203995,9.603564262390137,-8.726646046852693e-05,-0.0006632251315750182,-0.0003665191470645368
0.025435999035835266,0.13155660033226013,9.603976249694824,-0.00047123889089562,-0.0011344640515744686,0.0
0.01978568360209465,0.12223836779594421,9.608477592468262,-8.726646046852693e-05,-0.00024434609804302454,0.0
0.027380090206861496,0.1315087080001831,9.609885215759277,-0.00022689280740451068,0.00029670598451048136,-0.00031415926059708
0.031756691634655,0.12306196242570877,9.59231185913086,-0.00010471975838299841,0.00017453292093705386,0.00029670598451048136
0.01743936538696289,0.13217909634113312,9.600432395935059,-3.490658491500653e-05,-0.0005759586347267032,0.00015707963029854
0.01478658989071846,0.12081141769886017,9.600011825561523,0.0007504915702156723,0.0,5.2359879191499203e-05
0.011156979948282242,0.12348334491252899,9.612337112426758,-0.00043633230961859226,0.00038397242315113544,-0.00019198621157556772
0.01488235779106617,0.12691184878349304,9.587493896484375,0.00022689280740451068,-0.00045378561480902135,0.0
0.022907722741365433,0.10518206655979156,9.607672691345215,-0.0003490658418741077,-0.00012217304902151227,0.00015707963029854
0.019843144342303276,0.12586797773838043,9.6030855178833,0.00024434609804302454,-0.0006457717972807586,0.0006981316837482154
0.016251839697360992,0.12620316445827484,9.605949401855469,-0.0008203047327697277,-0.0006806784076616168,0.0
0.04696466028690338,0.11840763688087463,9.597750663757324,0.0007504915702156723,0.00062831852119416,-0.00031415926059708
0.026652254164218903,0.12132856994867325,9.602376937866211,-0.0003316125657875091,0.00031415926059708,3.490658491500653e-05
0.01857900433242321,0.12353122979402542,9.59737777709961,-0.00062831852119416,-0.0002617993741296232,0.0
0.025177424773573875,0.12850159406661987,9.5909423828125,0.00041887903353199363,0.00020943951676599681,-0.00017453292093705386
0.017266983166337013,0.11922166496515274,9.601189613342285,0.00015707963029854,0.0006457717972807586,3.490658491500653e-05
0.017506403848528862,0.12785036861896515,9.609770774841309,-0.0006632251315750182,0.00012217304902151227,0.00015707963029854
0.03649721294641495,0.12624147534370422,9.609214782714844,0.00041887903353199363,-0.00019198621157556772,0.0
0.012746729888021946,0.11568782478570938,9.609904289245605,-0.0005235987482592463,-0.00038397242315113544,-0.0003490658418741077
0.02621171995997429,0.12320561707019806,9.598718643188477,0.00038397242315113544,-0.00047123889089562,-6.981316983001307e-05
0.04257848486304283,0.12441229820251465,9.598833084106445,0.0009773843921720982,0.0003316125657875091,0.00029670598451048136
0.03254198655486107,0.11770853400230408,9.61099624633789,0.00022689280740451068,0.00010471975838299841,0.0
0.011712434701621532,0.12852075695991516,9.609683990478516,0.0,0.0,-0.00043633230961859226
0.022553378716111183,0.13192051649093628,9.594408988952637,0.0003490658418741077,0.0008028514566831291,-1.7453292457503267e-05
0.02606806717813015,0.13993629813194275,9.607969284057617,-3.490658491500653e-05,0.0007330382941290736,0.00015707963029854
0.026901250705122948,0.12601162493228912,9.607625007629395,0.0003316125657875091,0.0003665191470645368,-1.7453292457503267e-05
0.020887015387415886,0.10684843361377716,9.594772338867188,-3.490658491500653e-05,0.0008552113431505859,0.0003665191470645368
0.025464728474617004,0.12426864355802536,9.5867280960083,-8.726646046852693e-05,0.0005934119690209627,-0.00027925267932005227
0.019325995817780495,0.1224011704325676,9.603592872619629,-8.726646046852693e-05,0.00041887903353199363,-3.490658491500653e-05
0.020934900268912315,0.13458287715911865,9.601180076599121,-0.0007504915702156723,-0.0003665191470645368,3.490658491500653e-05
0.0063973069190979,0.14076948165893555,9.610584259033203,-0.0004886921960860491,6.981316983001307e-05,0.0004886921960860491
0.01517923828214407,0.13962984085083008,9.597119331359863,0.0008726646192371845,0.0002617993741296232,0.00027925267932005227
0.01772666908800602,0.1146918386220932,9.594676971435547,0.0005934119690209627,-0.0010646508308127522,0.0007330382941290736
0.03005201928317547,0.12314815819263458,9.594112396240234,-0.0011344640515744686,-5.2359879191499203e-05,-0.00031415926059708
0.03314532712101936,0.13401784002780914,9.608420372009277,0.002548180753365159,-0.00017453292093705386,0.00017453292093705386
0.02343444712460041,0.1228608563542366,9.604435920715332,-0.00015707963029854,-0.00012217304902151227,0.0
0.03808695822954178,0.10582371801137924,9.596219062805176,-0.0008203047327697277,-0.0007504915702156723,-0.00010471975838299841
0.011089942418038845,0.11877156049013138,9.612203598022461,-0.00038397242315113544,0.00017453292093705386,0.0005061454721726477
0.014202403835952282,0.14375744760036469,9.600528717041016,-0.00040142572834156454,-0.00029670598451048136,0.0
0.028443116694688797,0.14294342696666718,9.604827880859375,0.0009599310578778386,0.00029670598451048136,0.0
0.02213199995458126,0.11879070848226547,9.60347843170166,-8.726646046852693e-05,-0.0003316125657875091,0.0
0.03139277175068855,0.13396036624908447,9.592110633850098,-0.0010995573829859495,-5.2359879191499203e-05,0.00013962633966002613
0.01369483396410942,0.12499648332595825,9.601227760314941,-0.0009948377264663577,-0.0006981316837482154,0.0007504915702156723
0.028280310332775116,0.11676043272018433,9.606417655944824,0.0003316125657875091,-0.00024434609804302454,0.0
0.03154600039124489,0.11095688492059708,9.618063926696777,-0.001029744278639555,-0.00062831852119416,3.490658491500653e-05
0.018186355009675026,0.12283211946487427,9.601994514465332,0.0005235987482592463,0.0021816615480929613,0.0
0.0344860814511776,0.12597331404685974,9.600643157958984,-0.0003665191470645368,0.0006457717972807586,0.00045378561480902135
0.018119318410754204,0.12183613330125809,9.604981422424316,-0.00029670598451048136,3.490658491500653e-05,0.0005235987482592463
0.027791893109679222,0.11957601457834244,9.599666595458984,-8.726646046852693e-05,0.00029670598451048136,6.981316983001307e-05
0.010419566184282303,0.13642162084579468,9.60997200012207,0.0004886921960860491,0.0005934119690209627,-6.981316983001307e-05
0.03190034255385399,0.11869494616985321,9.616674423217773,-1.7453292457503267e-05,0.00024434609804302454,0.00012217304902151227
0.01223915908485651,0.1284441351890564,9.596122741699219,-6.981316983001307e-05,-0.0002617993741296232,0.0
0.03383485972881317,0.11738292127847672,9.58968734741211,-0.0013613568153232336,-0.00013962633966002613,0.001029744278639555
0.009835380129516125,0.13578954339027405,9.604857444763184,0.0005410520825535059,-0.0008552113431505859,0.00043633230961859226
0.027313053607940674,0.10780611634254456,9.607337951660156,-6.981316983001307e-05,0.00010471975838299841,0.0
0.035319264978170395,0.11554417759180069,9.613592147827148,-0.0004886921960860491,-0.000715585018042475,0.0003665191470645368
0.037100546061992645,0.1112729161977768,9.607596397399902,-6.981316983001307e-05,-0.0004886921960860491,0.00017453292093705386
0.01964203082025051,0.12110830098390579,9.601553916931152,-0.00017453292093705386,-0.00010471975838299841,0.0
0.02557007409632206,0.13520535826683044,9.595471382141113,0.0005585053586401045,-0.0006981316837482154,-0.0003316125657875091
0.016318878158926964,0.12485282868146896,9.61018180847168,-0.0002617993741296232,-0.0010122909443452954,-1.7453292457503267e-05
0.037311241030693054,0.14154520630836487,9.608170509338379,-0.0009599310578778386,-0.0006981316837482154,0.0
0.0279642753303051,0.12935392558574677,9.606734275817871,-0.0005934119690209627,-0.00038397242315113544,0.0006457717972807586
0.021978771314024925,0.14210066199302673,9.59040641784668,-8.726646046852693e-05,-0.00041887903353199363,0.0
0.018119318410754204,0.13015837967395782,9.623388290405273,0.00022689280740451068,-0.0004886921960860491,5.2359879191499203e-05
0.030913932248950005,0.12558066844940186,9.598919868469238,8.726646046852693e-05,0.00019198621157556772,0.0006632251315750182
0.02670971490442753,0.1156303659081459,9.60766315460205,-6.981316983001307e-05,-0.00041887903353199363,0.00013962633966002613
0.020819978788495064,0.11785218864679337,9.602424621582031,1.7453292457503267e-05,-6.981316983001307e-05,-0.0006457717972807586
0.005487510003149509,0.1185896024107933,9.599226951599121,5.2359879191499203e-05,-0.00027925267932005227,5.2359879191499203e-05
0.015447389334440231,0.133443221449852,9.618571281433105,-0.00047123889089562,-0.0003316125657875091,0.00029670598451048136
0.007125144358724356,0.12114660441875458,9.611522674560547,-0.00031415926059708,-0.0006981316837482154,0.0
0.012622231617569923,0.12226708978414536,9.599848747253418,-0.0005235987482592463,-0.0005235987482592463,0.00040142572834156454
0.008360552601516247,0.1294688582420349,9.596985816955566,0.000715585018042475,-0.0002617993741296232,-0.00027925267932005227
0.025752034038305283,0.13522452116012573,9.598699569702148,-0.00031415926059708,-0.0005934119690209627,0.0
0.01023760624229908,0.1277162879705429,9.591774940490723,-0.00013962633966002613,0.00020943951676599681,0.00040142572834156454
0.019967641681432724,0.12758222222328186,9.621109008789062,8.726646046852693e-05,-6.981316983001307e-05,-5.2359879191499203e-05
0.031756691634655,0.11580274999141693,9.607423782348633,-8.726646046852693e-05,-5.2359879191499203e-05,-0.00013962633966002613
0.024325087666511536,0.1355692744255066,9.609406471252441,-0.00017453292093705386,-0.0005759586347267032,0.0006806784076616168
0.02447831816971302,0.11702857911586761,9.596257209777832,-0.0007330382941290736,0.0006806784076616168,-0.0003490658418741077
0.011961431242525578,0.1235695406794548,9.596802711486816,-0.00040142572834156454,0.00015707963029854,3.490658491500653e-05
0.008465897291898727,0.1369674801826477,9.60983657836914,-0.0012391837080940604,-0.00013962633966002613,-0.00010471975838299841
0.022409727796912193,0.13166193664073944,9.603660583496094,-0.0003665191470645368,0.00020943951676599681,-0.00031415926059708
0.025866955518722534,0.11107181012630463,9.604952812194824,0.00019198621157556772,-0.00019198621157556772,0.0003316125657875091
0.022380996495485306,0.13091494143009186,9.606762886047363,-0.0016929693520069122,-0.0014486232539638877,0.00045378561480902135
0.023750480264425278,0.1303403526544571,9.598852157592773,0.0005759586347267032,-0.00017453292093705386,-0.00017453292093705386
0.032570719718933105,0.13987883925437927,9.609330177307129,0.0021118484437465668,-0.00020943951676599681,0.0005934119690209627
0.008312667720019817,0.13676637411117554,9.608601570129395,-0.00017453292093705386,0.0011868239380419254,-0.0005759586347267032
0.031909920275211334,0.12051453441381454,9.601418495178223,-0.0006981316837482154,-0.001117010717280209,-0.00031415926059708
0.037426162511110306,0.13006260991096497,9.600040435791016,-0.0006457717972807586,-0.00022689280740451068,-0.0002617993741296232
0.024602817371487617,0.1349467784166336,9.601332664489746,0.0018325956771150231,-0.0003665191470645368,0.00047123889089562
0.03426581621170044,0.12388557195663452,9.615267753601074,0.0009773843921720982,-0.0002617993741296232,0.0
0.0290273018181324,0.1190875917673111,9.611503601074219,0.0009948377264663577,-0.00029670598451048136,-0.0003316125657875091
0.006962338462471962,0.13261961936950684,9.600394248962402,-0.00027925267932005227,-0.00027925267932005227,0.0
0.03168007731437683,0.13797305524349213,9.593259811401367,0.0020420351065695286,-0.00047123889089562,0.0
0.03172796219587326,0.12848243117332458,9.604713439941406,0.00013962633966002613,-0.00012217304902151227,-0.00024434609804302454
0.027380090206861496,0.10901279747486115,9.609195709228516,-6.981316983001307e-05,-0.00012217304902151227,0.0006632251315750182
0.030894778668880463,0.11087068915367126,9.61137866973877,0.0009075712296180427,0.0004886921960860491,-0.00015707963029854
0.028213271871209145,0.12709380686283112,9.607519149780273,-0.00027925267932005227,-0.0013089969288557768,0.00040142572834156454
0.01909615285694599,0.13748463988304138,9.607854843139648,3.490658491500653e-05,-0.0007853981805965304,-5.2359879191499203e-05
0.021452046930789948,0.11783303320407867,9.611245155334473,-0.0010995573829859495,-0.0006108652451075613,-8.726646046852693e-05
0.01608903519809246,0.12354081124067307,9.6045503616333,-8.726646046852693e-05,0.00010471975838299841,0.0
0.02855803817510605,0.11922166496515274,9.601256370544434,-0.0003665191470645368,-0.0006632251315750182,-8.726646046852693e-05
0.02613510563969612,0.12888465821743011,9.588997840881348,0.0003490658418741077,-0.00031415926059708,-3.490658491500653e-05
0.018454505130648613,0.11991120129823685,9.611215591430664,-0.00040142572834156454,-0.0008028514566831291,0.00024434609804302454
0.020484788343310356,0.12791740894317627,9.604483604431152,5.2359879191499203e-05,-0.0006981316837482154,-6.981316983001307e-05
0.027878083288669586,0.1418420821428299,9.614472389221191,0.0009773843921720982,-0.0002617993741296232,-0.000715585018042475
0.012650961987674236,0.12461341172456741,9.593269348144531,-0.001483529806137085,0.0008901178953237832,0.00027925267932005227
0.0054587796330451965,0.1360289603471756,9.600422859191895,-0.0008901178953237832,-0.0006632251315750182,5.2359879191499203e-05
0.021155167371034622,0.11298716813325882,9.605718612670898,0.0009599310578778386,0.0003316125657875091,-3.490658491500653e-05
0.024756046012043953,0.1299668401479721,9.605058670043945,-0.00029670598451048136,0.0013089969288557768,0.00024434609804302454
0.01398213766515255,0.14044387638568878,9.601064682006836,-0.0006806784076616168,-0.0003665191470645368,-0.0003490658418741077
0.025416845455765724,0.11948023736476898,9.617250442504883,-0.00041887903353199363,-0.0004886921960860491,-6.981316983001307e-05
0.022457610815763474,0.12870271503925323,9.618390083312988,-0.00047123889089562,0.00038397242315113544,-0.0006457717972807586
0.022639572620391846,0.12491029500961304,9.592866897583008,0.00013962633966002613,-0.0003316125657875091,-0.00024434609804302454
0.023683443665504456,0.1184842512011528,9.5909423828125,-5.2359879191499203e-05,0.0005061454721726477,0.00029670598451048136
0.030885202810168266,0.13015837967395782,9.610823631286621,-0.00017453292093705386,-0.00029670598451048136,-5.2359879191499203e-05
0.032005686312913895,0.12988066673278809,9.602232933044434,-0.0012217304902151227,-0.00013962633966002613,0.0003316125657875091
0.03878606855869293,0.12020807713270187,9.605632781982422,0.000715585018042475,-3.490658491500653e-05,6.981316983001307e-05
0.03489788621664047,0.11917378008365631,9.59022331237793,0.0015882495790719986,0.0,0.00017453292093705386
0.014930241741240025,0.12030384689569473,9.608429908752441,-0.0003665191470645368,-0.0006632251315750182,0.0008552113431505859
0.015207969583570957,0.13868173956871033,9.607701301574707,-0.0003490658418741077,-0.0006981316837482154,0.0
0.01692221872508526,0.1318822056055069,9.589936256408691,-0.00022689280740451068,0.00040142572834156454,-8.726646046852693e-05
0.03129700571298599,0.13321338593959808,9.586517333984375,0.00024434609804302454,-0.0005585053586401045,8.726646046852693e-05
0.020111294463276863,0.12198936194181442,9.606935501098633,-0.0006108652451075613,-3.490658491500653e-05,0.00010471975838299841
0.03085647150874138,0.11984416097402573,9.609272003173828,-0.00019198621157556772,-0.0005410520825535059,-0.00062831852119416
0.023300372064113617,0.13075213134288788,9.60112190246582,0.00010471975838299841,0.0002617993741296232,-0.0006806784076616168
0.03019567020237446,0.12107956409454346,9.618887901306152,-0.0008377580670639873,-0.0003316125657875091,0.0003490658418741077
0.024842238053679466,0.1225256621837616,9.607748985290527,-0.0007504915702156723,0.0009948377264663577,-0.00020943951676599681
0.049847278743982315,0.1149216815829277,9.747264862060547,0.0008377580670639873,-0.004241149872541428,-0.00012217304902151227
0.031622614711523056,0.11838848888874054,9.598258972167969,-0.001483529806137085,0.0019896754529327154,-0.0004886921960860491
0.008025364018976688,0.11953770369291306,9.616493225097656,0.0025656339712440968,0.0005410520825535059,-8.726646046852693e-05
0.004481945652514696,0.14580687880516052,9.608495712280273,0.00043633230961859226,-0.0003490658418741077,-8.726646046852693e-05
0.02561795897781849,0.13157574832439423,9.6052885055542,-8.726646046852693e-05,-6.981316983001307e-05,0.0009948377264663577
0.036956898868083954,0.13397952914237976,9.610248565673828,0.00043633230961859226,-0.00012217304902151227,-5.2359879191499203e-05
0.029726408421993256,0.11770853400230408,9.620256423950195,-6.981316983001307e-05,-5.2359879191499203e-05,0.0003490658418741077
0.013752294704318047,0.13970644772052765,9.614204406738281,0.0,-5.2359879191499203e-05,0.0008901178953237832
0.04957912862300873,0.1356363147497177,9.602319717407227,0.0,-0.00062831852119416,-5.2359879191499203e-05
0.018808849155902863,0.12505394220352173,9.604857444763184,0.0,-0.00027925267932005227,0.0005759586347267032
0.039398983120918274,0.11583147943019867,9.611599922180176,-8.726646046852693e-05,0.0006457717972807586,0.00010471975838299841
0.02346317656338215,0.13457328081130981,9.60266399383545,0.00045378561480902135,-0.001029744278639555,-5.2359879191499203e-05
0.03191949799656868,0.11128249019384384,9.614654541015625,0.0012217304902151227,0.00015707963029854,-8.726646046852693e-05
0.030818164348602295,0.1298614889383316,9.61307430267334,0.00040142572834156454,-0.0005235987482592463,0.0006108652451075613
0.023405715823173523,0.1292390078306198,9.596726417541504,-1.7453292457503267e-05,0.0008726646192371845,-3.490658491500653e-05
0.01976652815937996,0.1305893361568451,9.603622436523438,0.0,-0.00013962633966002613,5.2359879191499203e-05
0.0193164199590683,0.14626656472682953,9.60937786102295,0.00017453292093705386,0.0007853981805965304,0.0003665191470645368
0.018847156316041946,0.1331942230463028,9.600825309753418,0.00040142572834156454,-0.00024434609804302454,-0.0003665191470645368
0.04781699925661087,0.12696930766105652,9.596152305603027,0.00012217304902151227,-0.0006981316837482154,0.00017453292093705386
0.08430462330579758,0.09040506184101105,9.561990737915039,0.003298672381788492,0.01111774705350399,-5.2359879191499203e-05
0.01803312636911869,0.12219047546386719,9.60866928100586,0.0006457717972807586,0.005061454605311155,0.00024434609804302454
0.025981876999139786,0.13310803472995758,9.57987117767334,-0.0007330382941290736,0.00753982225432992,-0.0012217304902151227
0.04188895598053932,0.13583743572235107,9.588251113891602,0.0,0.000715585018042475,-0.0006632251315750182
0.03187161311507225,0.10825622826814651,9.594849586486816,0.0006806784076616168,-0.00012217304902151227,-3.490658491500653e-05
0.025129541754722595,0.13327084481716156,9.606696128845215,0.00043633230961859226,-0.00024434609804302454,-5.2359879191499203e-05
0.035654451698064804,0.11791922152042389,9.607117652893066,0.00015707963029854,-0.000715585018042475,0.0003316125657875091
0.028596345335245132,0.11922166496515274,9.595098495483398,0.0005235987482592463,-5.2359879191499203e-05,-5.2359879191499203e-05
0.025627534836530685,0.13580870628356934,9.602347373962402,-0.00043633230961859226,-0.0012915435945615172,-5.2359879191499203e-05
0.023712173104286194,0.12334927171468735,9.584362983703613,5.2359879191499203e-05,-0.00020943951676599681,-0.0006806784076616168
0.013148955069482327,0.12009315192699432,9.60555648803711,0.0002617993741296232,-0.00022689280740451068,-3.490658491500653e-05
0.025790341198444366,0.1315087080001831,9.606160163879395,-0.00029670598451048136,-0.0006632251315750182,-0.00031415926059708
0.037905003875494,0.13626839220523834,9.587369918823242,5.2359879191499203e-05,-0.0006108652451075613,0.0005585053586401045
0.01743936538696289,0.13593319058418274,9.59437084197998,-6.981316983001307e-05,-0.0007504915702156723,-0.00017453292093705386
0.022409727796912193,0.1087542176246643,9.607969284057617,-0.00015707963029854,0.0003665191470645368,-6.981316983001307e-05
0.01616564951837063,0.1308383345603943,9.591277122497559,0.0012217304902151227,0.00012217304902151227,-3.490658491500653e-05
0.012536040507256985,0.12319604307413101,9.601668357849121,0.00043633230961859226,-0.00019198621157556772,-0.00012217304902151227
0.023233333602547646,0.12953588366508484,9.599292755126953,0.0007679448463022709,0.0008726646192371845,0.00017453292093705386
0.03762727230787277,0.1246517151594162,9.5773344039917,0.0015707963611930609,0.0006108652451075613,-0.00094247778179124
0.04008851200342178,0.13414233922958374,9.588423728942871,-0.0005061454721726477,0.00012217304902151227,0.0003665191470645368
0.021499931812286377,0.13866257667541504,9.599465370178223,0.0,-0.0007330382941290736,0.00010471975838299841
0.03528095781803131,0.13215036690235138,9.601007461547852,0.0005934119690209627,0.00013962633966002613,-0.0003665191470645368
0.029209261760115623,0.11634862422943115,9.593805313110352,-0.0006632251315750182,-0.0005235987482592463,0.00017453292093705386
0.03694731742143631,0.12595416605472565,9.58476448059082,0.0,-0.00031415926059708,-0.0005061454721726477
0.02872084453701973,0.1306755244731903,9.582467079162598,0.00045378561480902135,0.0009948377264663577,3.490658491500653e-05
0.010285490192472935,0.1234641969203949,9.597569465637207,-0.0006981316837482154,-0.00019198621157556772,-0.00012217304902151227
0.025905262678861618,0.12187444418668747,9.59574031829834,0.0017104226863011718,-0.0005235987482592463,-5.2359879191499203e-05
0.00994072575122118,0.13031160831451416,9.582725524902344,0.0006981316837482154,0.0004886921960860491,-0.00020943951676599681
0.023951593786478043,0.13739845156669617,9.583529472351074,0.002373647876083851,8.726646046852693e-05,-0.0004886921960860491
0.014719552360475063,0.11798626184463501,9.591219902038574,-0.00094247778179124,-0.00029670598451048136,-8.726646046852693e-05
0.01968991383910179,0.13301226496696472,9.591851234436035,-0.0008552113431505859,0.0006457717972807586,0.0
0.024440009146928787,0.12462298572063446,9.594130516052246,-0.00024434609804302454,-0.0006632251315750182,-5.2359879191499203e-05
0.03071282058954239,0.13167151808738708,9.597224235534668,-0.0006108652451075613,-0.0005934119690209627,0.00045378561480902135
0.021126436069607735,0.1306563764810562,9.589219093322754,-0.00038397242315113544,-0.0005235987482592463,-0.00012217304902151227
0.02353021502494812,0.12134771794080734,9.594724655151367,0.0008901178953237832,0.00041887903353199363,0.0006457717972807586
0.02900814823806286,0.14481090009212494,9.595778465270996,0.00015707963029854,-0.00024434609804302454,0.00010471975838299841
0.020561402663588524,0.12593501806259155,9.584420204162598,-0.0005061454721726477,0.0003490658418741077,-5.2359879191499203e-05
0.04111323133111,0.11674126982688904,9.711552619934082,-0.0019547687843441963,-0.004345869645476341,0.0009075712296180427
0.035817258059978485,0.11867579072713852,9.596658706665039,0.0015009831404313445,0.00094247778179124,-0.0011344640515744686
0.004558559972792864,0.14436078071594238,9.60232925415039,0.0021118484437465668,0.0007853981805965304,-0.0008901178953237832
0.03783796355128288,0.12572431564331055,9.578176498413086,-0.00031415926059708,0.0003316125657875091,3.490658491500653e-05
