accX,accY,accZ,gyroX,gyroY,gyroZ
-0.8387845754623413,5.927353858947754,7.784593105316162,-0.16954128444194794,0.9740508198738098,0.11475539952516556
-0.6777889132499695,5.912231922149658,8.449578285217285,0.07562511414289474,-0.1253146380186081,0.024958208203315735
-0.7392432689666748,6.0602126121521,8.393047332763672,0.23691099882125854,-0.01904154196381569,-0.01045452244579792
-1.2761286497116089,6.59559440612793,7.912549018859863,0.22109830379486084,-0.12597785890102386,-0.037891097366809845
-1.3161979913711548,6.81401252746582,7.838415145874023,0.10932742059230804,-0.2024581879377365,-0.02799508161842823
-1.0373022556304932,6.715744972229004,8.105961799621582,0.022165682166814804,-0.2559700012207031,-0.061191242188215256
-0.9941970109939575,6.903402805328369,7.983273506164551,-0.12391837686300278,-0.5694136619567871,-0.06258750706911087
-0.971413791179657,6.876721382141113,7.834612846374512,-0.30312877893447876,-0.7399672269821167,0.020751964300870895
-0.7220050096511841,6.404469966888428,8.421699523925781,-0.4767366945743561,-0.756425678730011,0.10545279085636139
0.2610541582107544,5.427482604980469,9.452269554138184,-0.6061702966690063,-0.3646865487098694,0.06253514438867569
-0.19756951928138733,4.50200891494751,10.126055717468262,-0.5362873077392578,0.08874998986721039,0.0590444877743721
0.19942741096019745,4.3625993728637695,9.446284294128418,-0.3687008023262024,0.14367550611495972,0.19425514340400696
1.0687428712844849,4.0020036697387695,8.699849128723145,-0.13524556159973145,-0.21912609040737152,0.14707890152931213
1.9988327026367188,3.8895912170410156,7.7876386642456055,-0.01242674421519041,-0.31927308440208435,-0.0216071754693985
1.6332285404205322,3.291672945022583,8.00241756439209,-0.03366740047931671,-0.5378581285476685,-0.2361430525779724
1.398558497428894,4.246748447418213,8.709933280944824,-0.13070771098136902,-0.8761552572250366,-0.427448570728302
1.0746901035308838,4.589301586151123,9.053845405578613,-0.23900538682937622,-0.5846154689788818,-0.2483079880475998
1.0367467403411865,4.1895751953125,9.12149715423584,-0.21406462788581848,-0.37569957971572876,-0.15646876394748688
0.8273211717605591,3.698007106781006,8.549541473388672,-0.12754866480827332,-0.21596704423427582,-0.10726793855428696
1.0958260297775269,3.7625739574432373,8.04078197479248,-0.09487609565258026,-0.2378883808851242,-0.08340928703546524
1.197129487991333,4.402984619140625,6.906811714172363,-0.193522110581398,-0.6200980544090271,-0.149208202958107
1.283368706703186,4.55070686340332,7.098376750946045,-0.40142571926116943,-0.7754148840904236,-0.1658760905265808
1.5679051876068115,4.987466812133789,8.301482200622559,-0.25041982531547546,-0.08040732145309448,-0.20441296696662903
1.3993438482284546,5.024615287780762,8.130019187927246,-0.12623965740203857,0.15173892676830292,-0.1745329201221466
1.1206682920455933,5.236942291259766,8.20324420928955,0.05722934752702713,0.2797588109970093,-0.13224360346794128
1.4750196933746338,5.1807074546813965,7.961429119110107,0.2834763824939728,0.6062226891517639,-0.11325441300868988
1.0432493686676025,5.876558303833008,7.328229904174805,0.1955816000699997,0.12894491851329803,-0.13978341221809387
1.972381591796875,5.936575889587402,7.498208522796631,-0.17373007535934448,-0.3453308343887329,-0.09328784793615341
2.159311294555664,5.401529312133789,7.6233391761779785,-0.2926393449306488,-0.5259898900985718,-0.13208651542663574
1.2376489639282227,5.409114360809326,8.701706886291504,-0.34463271498680115,-0.8149640560150146,-0.16837191581726074
1.439125895500183,5.625349044799805,9.841337203979492,-0.19109609723091125,-0.9874723553657532,-0.16985544562339783
1.6107134819030762,5.602968215942383,10.141436576843262,-0.09550441801548004,-0.9459859132766724,-0.17720328271389008
1.9244879484176636,5.511040210723877,10.215876579284668,0.13444271683692932,-0.7472801804542542,-0.16912239789962769
2.1963255405426025,5.463587284088135,9.76325798034668,0.3589444160461426,-0.5837602615356445,-0.19392353296279907
2.1842589378356934,5.601751804351807,8.979137420654297,0.4714832305908203,-0.39941859245300293,-0.23382176458835602
2.1335976123809814,5.835990905761719,8.673837661743164,0.44854962825775146,-0.1094321459531784,-0.31234413385391235
1.8581111431121826,5.702796459197998,8.695108413696289,0.31897637248039246,0.20315632224082947,-0.40133845806121826
0.8733760118484497,5.719000816345215,9.475196838378906,0.2688156068325043,0.2480287402868271,-0.4271693229675293
0.4671470522880554,5.888701438903809,9.560325622558594,0.4132590591907501,-0.1272868663072586,-0.3127804398536682
1.1289905309677124,5.591792106628418,8.005511283874512,0.40767401456832886,-0.5016425251960754,-0.1368512660264969
1.2678638696670532,4.801724433898926,8.430243492126465,-0.06958627700805664,0.21418680250644684,-0.06677629798650742
0.7781059145927429,4.599117755889893,9.88090991973877,-0.31154125928878784,0.5033180713653564,0.06928957253694534
0.23981280624866486,3.7349352836608887,9.890007019042969,-0.19828686118125916,0.9086882472038269,0.11733848601579666
-0.48753607273101807,4.028445243835449,9.54992389678955,0.023439772427082062,1.352281093597412,0.11863002926111221
-0.7986003160476685,4.292908668518066,8.73664379119873,0.14992378652095795,1.4342767000198364,0.1661728024482727
-0.548607349395752,3.882657527923584,8.236207008361816,0.157236710190773,1.307722806930542,0.21842795610427856
-0.8528720736503601,4.029297828674316,8.337472915649414,0.1448623239994049,1.049588680267334,0.2877524197101593
-1.2525314092636108,4.340687274932861,8.53689956665039,0.10637781769037247,0.730525016784668,0.328942209482193
-0.671468198299408,5.001180648803711,7.424899101257324,0.14292500913143158,0.5590289831161499,0.17261306941509247
-0.3854760229587555,5.286789894104004,7.185861110687256,0.13611823320388794,0.35964253544807434,0.16379915177822113
-0.44864463806152344,5.382844924926758,7.46104097366333,0.08895943313837051,0.26829200983047485,0.15714944899082184
-0.66973477602005,5.406193256378174,7.943558692932129,0.08906415104866028,0.32480576634407043,0.1635897159576416
-0.7639514207839966,5.430183410644531,8.118345260620117,0.1175130158662796,0.3779335916042328,0.16491615772247314
-1.329634189605713,5.633968353271484,7.327779769897461,0.22219786047935486,0.38205257058143616,0.17863444983959198
-1.4698865413665771,5.6585612297058105,7.4728684425354,0.1417381912469864,0.016266468912363052,0.1950230896472931
-0.5307274460792542,6.0390777587890625,7.742033958435059,0.024486970156431198,0.002914699725806713,0.19910715520381927
-0.6002072095870972,5.978397846221924,7.702414512634277,-0.007016223389655352,0.016179202124476433,0.1682322919368744
-0.9947333335876465,5.90645694732666,7.730867385864258,-0.02082177810370922,0.00815068744122982,0.1477421224117279
-1.1090515851974487,6.489397048950195,8.21186351776123,-0.019460421055555344,-0.2483079880475998,0.13836970925331116
-1.0140305757522583,6.592031955718994,8.410956382751465,0.10763445496559143,-0.24172809720039368,0.1396787017583847
-0.9605153799057007,6.562631130218506,7.988301753997803,0.15442673861980438,-0.2192133516073227,0.11904890835285187
-1.015486240386963,6.6166157722473145,8.048578262329102,0.11917108297348022,-0.25190338492393494,0.11307988315820694
-0.6682408452033997,6.59461784362793,8.43604564666748,0.2094046026468277,-0.16554448008537292,0.13812536001205444
-1.1413733959197998,6.713111400604248,8.094393730163574,0.22734658420085907,-0.06302383542060852,0.18343409895896912
-0.35302025079727173,6.420904159545898,7.955367088317871,0.13781119883060455,-0.034400440752506256,0.23952898383140564
0.04578671231865883,6.050377368927002,8.5364408493042,0.076619952917099,-0.11484266072511673,0.20125392079353333
0.2483648955821991,6.104946136474609,8.669912338256836,0.05885250121355057,-0.13779374957084656,0.17097245156764984
0.3523881733417511,6.191414833068848,8.823304176330566,0.07471754401922226,-0.13515830039978027,0.08250171691179276
0.2611403465270996,6.1440863609313965,8.687409400939941,0.106587253510952,-0.14597934484481812,0.03056071512401104
0.15660952031612396,6.057559967041016,8.429226875305176,0.061226148158311844,-0.1673247218132019,0.013596114702522755
-0.2260509431362152,5.064579010009766,8.633759498596191,-0.0385892279446125,-0.1667487621307373,0.039217546582221985
-0.07354987412691116,4.525950908660889,9.301358222961426,-0.03012438304722309,-0.2682396471500397,0.11571533232927322
0.9504501223564148,4.167605876922607,8.79295539855957,0.10088002681732178,-0.39037778973579407,0.021240657195448875
1.0899746417999268,4.359017372131348,7.977115631103516,0.12194615602493286,-0.3378957509994507,-0.073722705245018
0.589088499546051,4.677369594573975,7.333228588104248,0.018657568842172623,-0.1497492492198944,-0.0728849470615387
0.5867804884910583,4.494289875030518,7.823427200317383,-0.28930577635765076,-0.11763519048690796,0.07667231559753418
0.8226380944252014,4.0590434074401855,7.703764915466309,-0.3936939239501953,-0.1201135590672493,0.06487388908863068
1.1874377727508545,3.8312301635742188,7.891777992248535,-0.5298470258712769,-0.09637708216905594,-0.02099631167948246
0.029870059341192245,5.105070114135742,8.732687950134277,-0.24174554646015167,-0.07780677825212479,-0.05728170648217201
0.47004881501197815,5.376217842102051,8.23055648803711,0.00678933085873723,-0.17523105442523956,-0.07700392603874207
0.8030726909637451,5.3551201820373535,7.8223652839660645,0.06674139201641083,-0.3059038519859314,-0.13611823320388794
0.9118364453315735,5.4062700271606445,7.812854290008545,0.0858352929353714,-0.3128502666950226,-0.14323917031288147
0.841724693775177,5.232134819030762,8.121342658996582,0.11873474717140198,-0.33018139004707336,-0.07810348272323608
0.9204939007759094,5.2264556884765625,8.253512382507324,0.23123867809772491,-0.4717450439929962,-0.008691739290952682
1.0927135944366455,5.386168479919434,8.099727630615234,0.34342843294143677,-0.5949478149414062,0.02586578018963337
1.2869408130645752,5.669842720031738,7.8374857902526855,0.41774454712867737,-0.5365840196609497,0.047595128417015076
1.5616419315338135,5.788614273071289,7.6842570304870605,0.4354945421218872,-0.3029193580150604,0.03389429301023483
1.8340063095092773,6.131243705749512,7.717325687408447,0.38615408539772034,0.08737118542194366,-0.0022165682166814804
1.5069679021835327,6.317502975463867,7.606091022491455,0.16200146079063416,0.3807261288166046,0.0011344640515744686
1.3493720293045044,5.85952091217041,8.46418285369873,-0.1641656756401062,0.4075343906879425,-0.015847589820623398
1.4060763120651245,5.702413558959961,9.103894233703613,-0.05965535342693329,0.20378464460372925,-0.08199556916952133
1.0015711784362793,5.825628757476807,9.322637557983398,0.20662952959537506,0.06223843991756439,-0.10101965814828873
0.6783730983734131,5.941192150115967,9.173795700073242,0.32990214228630066,0.06569419056177139,-0.08463101834058762
0.057575758546590805,6.330153942108154,8.751248359680176,0.4018445909023285,0.21999874711036682,-0.012705996632575989
-0.28778302669525146,6.194642066955566,8.788454055786133,0.2969852387905121,0.37721800804138184,0.07120943069458008
-0.22576363384723663,6.151642322540283,8.934412956237793,0.2609965205192566,0.44087016582489014,0.09405579417943954
-0.4906197786331177,6.262369632720947,8.498113632202148,0.34114205837249756,0.37629297375679016,0.0826587900519371
-0.6411097049713135,6.459268569946289,7.755642414093018,0.3212278485298157,0.2015855312347412,0.06864380091428757
-1.1103157997131348,6.020066738128662,7.419458389282227,0.08412487059831619,0.0636696144938469,0.10838494449853897
-1.0115309953689575,5.225383281707764,8.28145694732666,-0.23638738691806793,0.013718287460505962,0.19369663298130035
-1.0415446758270264,4.778060436248779,9.940974235534668,-0.23137830197811127,0.017645278945565224,0.19481365382671356
-1.3221834897994995,4.955547332763672,10.253571510314941,0.16755160689353943,0.10360274463891983,0.24862214922904968
-1.0227645635604858,4.900164604187012,8.814990997314453,0.4996702969074249,0.36334264278411865,0.32878512144088745
-0.9047017693519592,4.842291831970215,8.053117752075195,0.5281715393066406,0.4836307466030121,0.3594156503677368
-0.7706072926521301,4.910938262939453,7.2517409324646,0.33477160334587097,0.5916142463684082,0.418739378452301
-0.7892054915428162,5.538544654846191,7.818887710571289,-0.27092745900154114,0.08740609139204025,0.4055795967578888
-0.5704999566078186,5.46328067779541,8.065040588378906,-0.22689279913902283,0.058171823620796204,0.3670078217983246
-0.20984698832035065,5.329751491546631,7.777400970458984,-0.1869247555732727,0.10409143567085266,0.3603057563304901
0.15921440720558167,5.2873454093933105,7.561635494232178,-0.22535690665245056,0.2555336654186249,0.3787015378475189
0.05435795336961746,5.506280422210693,7.700240612030029,-0.24331635236740112,0.41428878903388977,0.41289255023002625
-0.3479349613189697,5.967288970947266,8.374113082885742,-0.11938051879405975,0.4704011380672455,0.46073201298713684
-0.5798947811126709,6.259965896606445,7.999142646789551,0.0936194583773613,0.4787612557411194,0.4461061656475067
-0.7052264213562012,6.387691497802734,7.326457977294922,0.19573867321014404,0.44778168201446533,0.4199785888195038
-0.4819432199001312,6.242440223693848,6.777553558349609,0.012915436178445816,0.21183061599731445,0.3405137360095978
0.06423164159059525,6.2708353996276855,7.496407985687256,-0.10643018037080765,0.2824989855289459,0.31065115332603455
-0.3722217381000519,6.222654342651367,8.121909141540527,-0.10620328783988953,0.3873758316040039,0.27923521399497986
-0.6238810420036316,6.268431663513184,8.323394775390625,-0.06269222497940063,0.4182681441307068,0.3055373430252075
-0.47249090671539307,6.382989406585693,8.959763526916504,0.0797789990901947,0.528206467628479,0.3672521710395813
-0.04256890341639519,6.523701190948486,9.011305809020996,0.23078489303588867,0.7243989109992981,0.3400948643684387
-0.06570646911859512,6.5692009925842285,8.956075668334961,0.2874208092689514,0.8123809695243835,0.3110176622867584
-0.5136807560920715,6.634763717651367,8.752655029296875,0.37831756472587585,1.0175094604492188,0.29885271191596985
-0.539289116859436,6.682570934295654,8.570457458496094,0.527665376663208,1.249236822128296,0.3127281069755554
-1.5015571117401123,6.729516506195068,6.225557327270508,0.5242270827293396,1.0348056554794312,0.26743680238723755
-1.2478770017623901,6.559614181518555,6.78938102722168,0.150325208902359,0.4070456922054291,0.23397883772850037
-0.6826539039611816,6.877267360687256,8.11428451538086,0.07670722156763077,-0.03754203021526337,0.21710149943828583
-0.6610965132713318,6.928369522094727,8.125709533691406,0.10274752974510193,-0.25850072503089905,0.17404423654079437
-0.862190306186676,6.5894365310668945,7.8353118896484375,0.09496336430311203,-0.6476218700408936,0.11021754145622253
-0.9452691078186035,5.828042030334473,8.26402759552002,-0.11105529963970184,-0.8327489495277405,0.07279768586158752
-0.8532264232635498,5.131252765655518,9.477734565734863,-0.3589444160461426,-0.7601258158683777,0.1342507302761078
-0.32890585064888,4.704050540924072,10.017501831054688,-0.29775315523147583,-0.6027843356132507,0.17756979167461395
0.004003105219453573,4.701962947845459,9.441956520080566,-0.011030481196939945,-0.566307008266449,0.16205382347106934
0.2682463526725769,5.088310241699219,7.530635356903076,0.2683967351913452,-0.46956339478492737,0.16393877565860748
0.506277859210968,4.908563613891602,7.364056587219238,0.23776620626449585,-0.4024380147457123,0.13754940032958984
0.7460236549377441,4.616001605987549,8.505881309509277,0.02183406800031662,-0.4870515763759613,0.1616174876689911
0.6558005213737488,4.733470439910889,7.996978282928467,-0.03654719516634941,-0.35559338331222534,0.2321811467409134
0.2725559175014496,5.009006023406982,7.821722507476807,-0.2096489518880844,-0.1491732895374298,0.32822662591934204
-0.12876015901565552,5.3852105140686035,8.334150314331055,-0.26661649346351624,-0.05267403647303581,0.44348815083503723
-0.2544557452201843,5.474188804626465,7.4674859046936035,-0.15386822819709778,-0.27406904101371765,0.4908389449119568
0.8241224884986877,5.989832878112793,7.689418792724609,-0.2471560686826706,-0.09524261951446533,0.49530699849128723
0.6300197839736938,5.550400733947754,8.721549987792969,-0.2604205906391144,0.30838221311569214,0.5004208087921143
0.8024980425834656,5.733327388763428,7.898509502410889,-0.14594443142414093,0.601231038570404,0.5617167353630066
0.9120567440986633,5.514459133148193,7.099449157714844,-0.19662879407405853,0.7612253427505493,0.6145653128623962
1.2494093179702759,5.328659534454346,7.047562122344971,-0.4213748276233673,1.0824532508850098,0.6354219913482666
0.518287181854248,5.5443196296691895,8.38576889038086,-0.5371425151824951,1.3278639316558838,0.6676756739616394
-0.4536533057689667,5.421037673950195,9.67930793762207,-0.331822007894516,1.4395475387573242,0.828856885433197
0.7304613590240479,5.419361591339111,9.093609809875488,0.010873401537537575,0.6463477611541748,1.1209027767181396
0.6261124610900879,5.36627721786499,9.028141975402832,0.015289084054529667,0.8360825181007385,1.10592782497406
0.3864337205886841,5.328649997711182,9.254613876342773,0.06616543233394623,1.056028962135315,1.1168012619018555
0.5045061707496643,5.3179240226745605,8.61279582977295,0.08368853479623795,1.2098273038864136,1.113048791885376
0.45579853653907776,5.25027322769165,8.061372756958008,-0.009983283467590809,1.2779126167297363,1.1250392198562622
0.34539708495140076,5.276762962341309,8.190362930297852,-0.20640262961387634,1.2795357704162598,1.132299780845642
0.1404438614845276,4.918695449829102,9.042315483093262,-0.27001988887786865,1.1555999517440796,1.173576831817627
0.0805600956082344,4.843268871307373,9.180451393127441,-0.24577726423740387,1.0992956161499023,1.2074711322784424
0.17663462460041046,4.992801189422607,9.340566635131836,-0.15250687301158905,1.0102488994598389,1.2617857456207275
0.1276300996541977,5.139795303344727,9.06652545928955,-0.07119198143482208,1.0555751323699951,1.3095903396606445
-0.05964434891939163,5.031913757324219,8.947572708129883,-0.08684758096933365,1.1806628704071045,1.3469229936599731
-0.46769291162490845,4.8887200355529785,8.91096019744873,-0.1589645892381668,1.208797574043274,1.3328032493591309
-0.9154852032661438,4.808945655822754,9.167350769042969,-0.18648843467235565,1.1523362398147583,1.3069723844528198
-1.2164746522903442,4.65365743637085,8.91188907623291,-0.1178097277879715,1.0514386892318726,1.2989962100982666
-1.3007409572601318,4.464697360992432,8.456549644470215,0.012252211570739746,1.0031105279922485,1.3442176580429077
-1.4047738313674927,4.3457441329956055,8.449243545532227,-0.012060225009918213,0.9893922209739685,1.3758081197738647
-1.5498625040054321,4.375805854797363,8.265283584594727,-0.07695156335830688,0.965568482875824,1.4016389846801758
-1.8904712200164795,4.258968830108643,8.298944473266602,-0.14873695373535156,0.9352870583534241,1.420977234840393
-2.1072230339050293,4.18259334564209,8.481526374816895,-0.19254472851753235,0.9785537719726562,1.4574371576309204
-2.2354276180267334,4.050721168518066,8.577524185180664,-0.20813050866127014,1.0252937078475952,1.4920470714569092
-2.050595283508301,4.067461013793945,8.684496879577637,-0.054332099854946136,0.9796358346939087,1.5723670721054077
-2.028089761734009,4.157205581665039,8.59587287902832,-0.019547687843441963,1.0584897994995117,1.6233830451965332
-1.9565223455429077,4.077057361602783,8.594512939453125,-0.0731467455625534,1.2387125492095947,1.674591064453125
-2.0706875324249268,3.966196060180664,8.919254302978516,-0.14685200154781342,1.410435438156128,1.725624442100525
-2.1229865550994873,3.8818435668945312,8.998167037963867,-0.164148211479187,1.470527172088623,1.760251760482788
-2.03916072845459,3.8622303009033203,8.994967460632324,-0.19950859248638153,1.5084357261657715,1.7980382442474365
-1.9207147359848022,3.7614822387695312,9.095016479492188,-0.2877175211906433,1.5246323347091675,1.7966419458389282
-1.6106752157211304,3.796006679534912,9.465351104736328,-0.33622023463249207,1.4157936573028564,1.747406244277954
-1.2482314109802246,3.9043490886688232,9.906756401062012,-0.24012239277362823,1.2410861253738403,1.628392219543457
-1.136709451675415,4.29401969909668,9.845895767211914,-0.06319837272167206,1.0708292722702026,1.5432026386260986
-0.814459502696991,5.051526069641113,8.945792198181152,-0.021362829953432083,0.6776589751243591,1.469218134880066
-0.4588439464569092,4.955777168273926,8.637168884277344,-0.11803662031888962,0.570775032043457,1.4704573154449463
-0.10585243999958038,4.815218448638916,8.559385299682617,-0.1904154270887375,0.4155977964401245,1.4291105270385742
0.031153351068496704,4.7780985832214355,8.350505828857422,-0.20703095197677612,0.20605356991291046,1.3741326332092285
0.31468427181243896,4.804856300354004,8.287626266479492,-0.24439845979213715,-0.021676989272236824,1.2747361660003662
0.40807729959487915,4.968935489654541,8.35484504699707,-0.246527761220932,-0.19289378821849823,1.1692832708358765
0.46156376600265503,4.966196537017822,8.334752082824707,-0.2163335531949997,-0.26569145917892456,1.0823659896850586
0.366954505443573,5.026118755340576,8.367620468139648,-0.12119566649198532,-0.2732661962509155,0.9748885631561279
0.5373067259788513,4.8587446212768555,8.509308815002441,-0.04715879634022713,-0.20718804001808167,0.8894721269607544
0.5089593529701233,5.003661155700684,8.420378684997559,-0.018500490114092827,-0.19345229864120483,0.7831466794013977
0.43382933735847473,5.149678707122803,8.388028144836426,-0.03511602431535721,-0.10152580589056015,0.7030884623527527
0.2799204885959625,5.134146213531494,8.285202026367188,-0.043022364377975464,0.021450096741318703,0.6419669985771179
0.26143723726272583,5.159360885620117,8.45110034942627,-0.038205258548259735,0.05333726108074188,0.6036046743392944
0.3935684263706207,5.2236785888671875,8.707070350646973,-0.0023911010939627886,0.10663961619138718,0.5703037977218628
0.26914656162261963,5.412657737731934,8.933427810668945,0.10433578491210938,0.1379857361316681,0.5256233811378479
0.14264653623104095,5.45263147354126,8.552884101867676,0.1832072138786316,0.12725195288658142,0.4976980984210968
0.1613500416278839,5.515464782714844,8.087727546691895,0.1301666498184204,0.06775368005037308,0.4596324563026428
0.27181848883628845,5.5096516609191895,8.151740074157715,0.0676838681101799,-0.016667895019054413,0.43416810035705566
0.302062064409256,5.485498905181885,8.245658874511719,0.05768313258886337,-0.030351275578141212,0.4011988341808319
0.30659186840057373,5.519601821899414,8.511723518371582,0.09632471948862076,0.008813912980258465,0.3874107301235199
0.29492732882499695,5.524964809417725,8.490711212158203,0.13964378833770752,0.04511675983667374,0.38412952423095703
0.20788373053073883,5.511605262756348,8.303723335266113,0.23858651518821716,0.12016592174768448,0.3862762749195099
0.10608228296041489,5.5029096603393555,7.505438804626465,0.21722367405891418,0.12185888737440109,0.40655699372291565
0.09217676520347595,5.485106468200684,7.546868324279785,0.12505283951759338,0.08492772281169891,0.42092105746269226
0.06924989074468613,5.383965492248535,7.992793083190918,0.0881216749548912,0.12880529463291168,0.4291066527366638
0.07597280293703079,5.40596342086792,8.220329284667969,0.09901253134012222,0.17894861102104187,0.4328940212726593
0.12499647587537766,5.456787586212158,8.131791114807129,0.1811651736497879,0.4092448055744171,0.4388979375362396
-0.1195664256811142,5.634562015533447,7.5431809425354,0.30745720863342285,0.8513017892837524,0.4383743405342102
-0.3289824426174164,5.409593105316162,7.440115451812744,0.1333780586719513,0.6245136857032776,0.4473453462123871
-0.1759355068206787,5.057473182678223,8.137651443481445,-0.22528709471225739,0.5308418869972229,0.47849947214126587
-0.14105677604675293,4.428305625915527,9.494504928588867,-0.2842792272567749,0.7038214802742004,0.4940328896045685
-0.13962025940418243,4.479455471038818,9.954975128173828,-0.14737559854984283,0.7753101587295532,0.4974537491798401
0.1656212955713272,4.610858917236328,10.33360481262207,0.2379058301448822,0.8617039322853088,0.4707152843475342
0.0018483236199244857,4.706425666809082,9.599541664123535,0.5790478587150574,1.0312801599502563,0.49932125210762024
-0.3718099296092987,5.199439525604248,8.144059181213379,0.6918834447860718,1.356347680091858,0.6368357539176941
0.19113390147686005,5.167970180511475,7.976263523101807,0.2088460922241211,1.3894566297531128,0.7540171146392822
-0.11771810799837112,5.077718734741211,7.816943645477295,0.033196162432432175,1.3167113065719604,0.7791149616241455
-0.17284220457077026,5.013496398925781,8.013747215270996,-0.24324654042720795,1.2556596994400024,0.8376009464263916
-0.21340955793857574,4.963955879211426,8.666272163391113,-0.39594539999961853,1.1361221075057983,0.8693135976791382
-0.40513721108436584,5.090637683868408,8.7451753616333,-0.4115486443042755,1.0202147960662842,0.8913571238517761
-0.5523231625556946,5.099639892578125,8.67013168334961,-0.38957494497299194,0.8377929329872131,0.94467693567276
0.011061211116611958,5.232699871063232,8.471250534057617,-0.3315252959728241,0.8207759857177734,0.9953787326812744
0.28511109948158264,5.4145827293396,8.059735298156738,-0.3183306157588959,0.8665035963058472,0.9772272706031799
-1.2888370752334595,6.02194356918335,6.067749500274658,-0.06239552050828934,1.1203268766403198,0.9005898833274841
-1.5170810222625732,5.3418288230896,6.732303142547607,-0.5321334600448608,0.5710193514823914,0.9083042740821838
-1.0946193933486938,5.473470687866211,7.902196407318115,-0.7405781149864197,0.49242720007896423,0.9771749377250671
-0.6380259990692139,5.486111640930176,8.755010604858398,-0.8097454905509949,0.4408876299858093,0.9657256007194519
-0.5766386389732361,5.135466575622559,8.848787307739258,-0.6717073917388916,0.266215056180954,0.9418145418167114
-0.20268353819847107,5.106985092163086,8.960358619689941,-0.648250162601471,0.11524409055709839,0.8984605669975281
0.11913546919822693,5.242458820343018,9.240948677062988,-0.5144357681274414,0.015463616698980331,0.8252265453338623
0.5911379456520081,5.311325550079346,8.79184341430664,-0.015882495790719986,0.11269591003656387,0.6476218700408936
0.7995867133140564,5.402247905731201,9.25755500793457,0.23050563037395477,-0.1302190124988556,0.5774421691894531
1.1764053106307983,5.57374906539917,9.196971893310547,0.22979004681110382,0.030927233397960663,0.5332155227661133
0.9712222218513489,5.7995991706848145,9.045724868774414,0.15247195959091187,0.4375365972518921,0.5252219438552856
0.785240650177002,5.830273628234863,8.670438766479492,-0.14268065989017487,0.5957332253456116,0.5237383842468262
-0.08535807579755783,5.3607611656188965,8.994258880615234,0.0645073652267456,0.40804052352905273,0.405562162399292
0.321656197309494,4.853295803070068,8.439647674560547,0.05722934752702713,0.4081626832485199,0.29658380150794983
-0.2576639652252197,4.507496356964111,8.993233680725098,0.086428701877594,0.37885862588882446,0.11976449191570282
-1.1814044713974,4.712478160858154,9.391695976257324,0.16557937860488892,0.43340015411376953,0.13493140041828156
-1.4018625020980835,4.550017356872559,7.430184364318848,0.044488441199064255,0.2912256419658661,0.3871314823627472
-1.5270984172821045,4.538582801818848,7.676921367645264,0.08101818710565567,0.3983364999294281,0.3833790123462677
-1.643073558807373,4.74880313873291,7.992247104644775,0.15789993107318878,0.5054299235343933,0.4306774437427521
-1.8544431924819946,4.980322360992432,8.039815902709961,0.11871729791164398,0.4743804931640625,0.46301838755607605
-1.4498710632324219,5.375528335571289,8.01490592956543,0.03949680179357529,0.4597720801830292,0.4311661422252655
-1.3120511770248413,5.396128177642822,7.893845558166504,0.006527531426399946,0.5274385213851929,0.39854592084884644
-1.2888561487197876,5.319657325744629,7.618148326873779,-0.009581857360899448,0.7064918279647827,0.31405454874038696
-1.5010015964508057,5.25624942779541,7.712020397186279,0.07724827527999878,0.7364591360092163,0.2738596200942993
-1.573488473892212,5.422272682189941,7.78285026550293,0.21844540536403656,0.7369303703308105,0.32932618260383606
-2.092120409011841,5.607537269592285,4.872506618499756,0.020804325118660927,0.7557799220085144,0.4282688796520233
-1.7513872385025024,5.582741737365723,6.317024230957031,-0.39334484934806824,0.12740904092788696,0.45291292667388916
