accX,accY,accZ,gyroX,gyroY,gyroZ
0.1099500060081482,0.21495001018047333,9.793050765991211,0.007424999959766865,0.07369999587535858,0.0004124999977648258
0.12000000476837158,0.2460000067949295,9.795000076293945,-0.0010999999940395355,-0.0147124994546175,0.002474999986588955
0.20100000500679016,0.2770500183105469,9.826050758361816,-0.006324999965727329,-0.08167500048875809,0.004674999974668026
0.20805001258850098,0.2650500237941742,9.831000328063965,-0.0031624999828636646,-0.03698749840259552,0.002474999986588955
0.1080000028014183,0.25005000829696655,9.831000328063965,0.005362499970942736,0.07369999587535858,-0.0006874999962747097
0.04800000041723251,0.25995001196861267,9.778050422668457,0.0031624999828636646,0.057750001549720764,-0.002749999985098839
0.1080000028014183,0.2530499994754791,9.782999992370605,-0.002199999988079071,-0.015675000846385956,-0.002749999985098839
0.1770000010728836,0.15195000171661377,9.790050506591797,-0.007424999959766865,-0.0742499977350235,-0.002749999985098839
0.24705001711845398,0.0799500048160553,9.82395076751709,-0.0042624999769032,-0.040150001645088196,-0.0006874999962747097
0.2370000183582306,0.06105000153183937,9.793050765991211,0.002062499988824129,0.04922499880194664,0.0015124999918043613
0.1579500138759613,0.09495000541210175,9.781050682067871,0.0031624999828636646,0.04179999977350235,0.0057749999687075615
0.12000000476837158,0.16905000805854797,9.782999992370605,-0.002199999988079071,-0.0147124994546175,0.007837500423192978
0.07905000448226929,0.19995000958442688,9.80505084991455,-0.002199999988079071,-0.030662499368190765,0.007837500423192978
0.0690000057220459,0.1879500150680542,9.808950424194336,-0.0,0.007699999958276749,0.0035749999806284904
0.10305000841617584,0.1570500135421753,9.782999992370605,0.0031624999828636646,0.025712499395012856,0.002474999986588955
0.1099500060081482,0.2050500065088272,9.778050422668457,0.0010999999940395355,-0.006187499966472387,0.002474999986588955
0.1080000028014183,0.21495001018047333,9.829050064086914,-0.0010999999940395355,-0.023237500339746475,0.002474999986588955
0.09795000404119492,0.19305001199245453,9.808950424194336,-0.0010999999940395355,0.0034374999813735485,-0.0006874999962747097
0.1080000028014183,0.1380000114440918,9.769050598144531,0.0031624999828636646,0.021449999883770943,-0.0006874999962747097
0.1290000081062317,0.09195000678300858,9.769050598144531,0.0010999999940395355,-0.0019249999895691872,-0.0017874999903142452
0.16500000655651093,0.05895000323653221,9.784950256347656,-0.0010999999940395355,-0.028462499380111694,0.0004124999977648258
0.18405000865459442,0.1380000114440918,9.793050765991211,-0.0010999999940395355,-0.010449999943375587,0.0035749999806284904
0.1680000126361847,0.33900001645088196,9.793050765991211,0.0010999999940395355,0.014024999924004078,0.0035749999806284904
0.11505000293254852,0.2770500183105469,9.790050506591797,0.002062499988824129,0.01732499897480011,0.002474999986588955
0.09600000083446503,0.23805001378059387,9.795000076293945,0.0010999999940395355,-0.0019249999895691872,0.0004124999977648258
0.1270500123500824,0.23100000619888306,9.793050765991211,-0.0,-0.015675000846385956,-0.0006874999962747097
0.14400000870227814,0.14295001327991486,9.802050590515137,0.002062499988824129,-0.006187499966472387,-0.0017874999903142452
0.1080000028014183,0.06599999964237213,9.781050682067871,0.0010999999940395355,0.013062499463558197,-0.0017874999903142452
0.11295000463724136,0.15900000929832458,9.790050506591797,0.0010999999940395355,0.011962499469518661,-0.0006874999962747097
0.1270500123500824,0.21495001018047333,9.795000076293945,0.0010999999940395355,-0.008249999955296516,-0.0006874999962747097
0.15105000138282776,0.19305001199245453,9.808950424194336,-0.0010999999940395355,-0.015675000846385956,-0.0006874999962747097
0.1680000126361847,0.1360500007867813,9.802050590515137,0.002062499988824129,-0.0008249999955296516,-0.0006874999962747097
0.14595000445842743,0.16395001113414764,9.790050506591797,-0.0,0.011962499469518661,-0.0006874999962747097
0.1099500060081482,0.2580000162124634,9.782999992370605,-0.0,0.004537499975413084,-0.0017874999903142452
0.09300000220537186,0.2670000195503235,9.78795051574707,0.0010999999940395355,-0.0030249999836087227,-0.0017874999903142452
0.13395000994205475,0.23595000803470612,9.807000160217285,0.0010999999940395355,-0.005087499972432852,-0.0038499999791383743
0.1579500138759613,0.1860000044107437,9.814050674438477,-0.0,-0.005087499972432852,-0.0038499999791383743
0.19200000166893005,0.1469999998807907,9.78795051574707,-0.0,-0.0019249999895691872,-0.002749999985098839
0.15600000321865082,0.12600000202655792,9.782999992370605,0.0010999999940395355,0.006599999964237213,0.0004124999977648258
0.11700000613927841,0.1469999998807907,9.807000160217285,-0.0,0.008799999952316284,-0.0006874999962747097
0.08100000023841858,0.1860000044107437,9.81705093383789,-0.0,0.005499999970197678,-0.0006874999962747097
0.06000000238418579,0.15900000929832458,9.782999992370605,-0.0,0.0012374999932944775,-0.0017874999903142452
0.07905000448226929,0.15195000171661377,9.808950424194336,-0.0010999999940395355,-0.005087499972432852,-0.0017874999903142452
0.07200000435113907,0.20295001566410065,9.790050506591797,0.0010999999940395355,-0.0008249999955296516,-0.0038499999791383743
0.07905000448226929,0.2530499994754791,9.795000076293945,-0.0,0.007699999958276749,-0.006049999967217445
0.09105000644922256,0.2740500271320343,9.78795051574707,-0.0,0.0034374999813735485,-0.009212499484419823
0.12195000797510147,0.22605000436306,9.782999992370605,-0.0,-0.008249999955296516,-0.011274999938905239
0.17205001413822174,0.1789500117301941,9.796950340270996,-0.0010999999940395355,-0.01251249946653843,-0.011274999938905239
0.20805001258850098,0.13095000386238098,9.790050506591797,-0.0,-0.0019249999895691872,-0.009212499484419823
0.4429500102996826,0.004050000105053186,9.991050720214844,-0.015949999913573265,-0.16788749396800995,-0.0038499999791383743
0.1680000126361847,-0.05295000225305557,9.745050430297852,0.028737500309944153,0.33550000190734863,-0.00494999997317791
0.19395001232624054,-0.04800000041723251,9.703950881958008,0.0010999999940395355,0.06201250106096268,0.006737499963492155
0.20400001108646393,0.19305001199245453,9.77595043182373,-0.019112499430775642,-0.19236250221729279,0.018424998968839645
0.31800001859664917,0.35805001854896545,9.952950477600098,-0.023375000804662704,-0.2572624981403351,0.018424998968839645
0.05295000225305557,0.3850500285625458,9.76395034790039,0.020212499424815178,0.2546499967575073,0.008937500417232513
0.034050002694129944,0.3169500231742859,9.75195026397705,0.010587500408291817,0.11728750169277191,0.014162499457597733
0.010050000622868538,0.25995001196861267,9.766050338745117,-0.002199999988079071,-0.03382499888539314,0.006737499963492155
0.037950001657009125,0.2070000171661377,9.793050765991211,-0.012787500396370888,-0.15619999170303345,0.008937500417232513
0.1360500007867813,0.26205000281333923,9.84795093536377,-0.011687500402331352,-0.14135000109672546,0.004674999974668026
0.12000000476837158,0.21705001592636108,9.832950592041016,0.005362499970942736,0.10449999570846558,-0.0038499999791383743
0.10095000267028809,0.08505000174045563,9.766050338745117,0.0085249999538064,0.12691250443458557,-0.00494999997317791
0.13905000686645508,-0.0019500000635161996,9.747000694274902,-0.0,0.002337499987334013,0.0015124999918043613
0.10500000417232513,-0.010050000622868538,9.769050598144531,-0.010587500408291817,-0.1083500012755394,0.006737499963492155
0.09600000083446503,0.07095000147819519,9.781050682067871,-0.007424999959766865,-0.09019999951124191,0.006737499963492155
0.012000000104308128,0.12405000627040863,9.759000778198242,0.0085249999538064,0.0789249986410141,0.0035749999806284904
-0.028050001710653305,0.1380000114440918,9.703950881958008,0.012787500396370888,0.11096250265836716,0.0004124999977648258
0.07200000435113907,0.2530499994754791,9.738000869750977,0.006324999965727329,0.0193875003606081,-0.0006874999962747097
0.1360500007867813,0.29805001616477966,9.782999992370605,-0.006324999965727329,-0.09556250274181366,0.0004124999977648258
0.19905000925064087,0.2530499994754791,9.826050758361816,-0.0085249999538064,-0.12209999561309814,-0.0006874999962747097
0.16305001080036163,0.1860000044107437,9.819000244140625,0.0031624999828636646,0.03849999979138374,-0.002749999985098839
0.11700000613927841,0.18300001323223114,9.771000862121582,0.010587500408291817,0.11412499845027924,-0.0038499999791383743
0.13905000686645508,0.16395001113414764,9.77595043182373,0.0042624999769032,0.02681249938905239,-0.0017874999903142452
0.16305001080036163,0.22395001351833344,9.795000076293945,-0.0042624999769032,-0.07631249725818634,0.0004124999977648258
0.20805001258850098,0.2939999997615814,9.83595085144043,-0.007424999959766865,-0.09336250275373459,0.0004124999977648258
0.1680000126361847,0.3130500018596649,9.829050064086914,0.0010999999940395355,0.03959999978542328,-0.0006874999962747097
0.11700000613927841,0.22605000436306,9.778050422668457,0.005362499970942736,0.09391249716281891,-0.0038499999791383743
0.08895000070333481,0.1360500007867813,9.771000862121582,-0.0,0.022549999877810478,-0.0038499999791383743
0.08400000631809235,0.05895000323653221,9.77400016784668,-0.006324999965727329,-0.055137500166893005,-0.0017874999903142452
0.12000000476837158,0.04500000178813934,9.79995059967041,-0.005362499970942736,-0.0668250024318695,-0.0017874999903142452
0.12195000797510147,0.06599999964237213,9.81195068359375,-0.0,0.0193875003606081,-0.0006874999962747097
0.13395000994205475,0.15000000596046448,9.782999992370605,0.005362499970942736,0.05664999783039093,-0.0006874999962747097
0.13395000994205475,0.1980000138282776,9.77595043182373,0.002062499988824129,0.004537499975413084,0.0004124999977648258
0.12000000476837158,0.22200001776218414,9.79995059967041,-0.0031624999828636646,-0.04661250114440918,-0.0006874999962747097
0.13905000686645508,0.19305001199245453,9.81705093383789,-0.002199999988079071,-0.02736249938607216,0.0004124999977648258
0.13199999928474426,0.1789500117301941,9.826050758361816,0.002062499988824129,0.03423750028014183,-0.0017874999903142452
0.13395000994205475,0.17400000989437103,9.769050598144531,0.002062499988824129,0.029975000768899918,0.0004124999977648258
0.16305001080036163,0.2050500065088272,9.793050765991211,-0.0010999999940395355,-0.01993750035762787,0.0015124999918043613
0.1770000010728836,0.22905001044273376,9.829050064086914,-0.0031624999828636646,-0.04124999791383743,0.0004124999977648258
0.13395000994205475,0.26205000281333923,9.81705093383789,0.0010999999940395355,0.008799999952316284,0.0004124999977648258
0.13395000994205475,0.2530499994754791,9.81705093383789,0.0031624999828636646,0.03753750026226044,-0.0017874999903142452
0.12195000797510147,0.17595000565052032,9.771000862121582,-0.0,0.006599999964237213,-0.0006874999962747097
0.12195000797510147,0.13095000386238098,9.781050682067871,-0.0010999999940395355,-0.02736249938607216,-0.0017874999903142452
0.12495000660419464,0.12405000627040863,9.81195068359375,-0.002199999988079071,-0.017875000834465027,0.0004124999977648258
0.11295000463724136,0.14295001327991486,9.78795051574707,-0.0,0.022549999877810478,-0.0006874999962747097
0.12495000660419464,0.15900000929832458,9.78795051574707,0.0031624999828636646,0.0193875003606081,-0.0017874999903142452
0.1099500060081482,0.17100000381469727,9.77595043182373,-0.0,-0.015675000846385956,-0.0006874999962747097
0.15300001204013824,0.15195000171661377,9.795000076293945,-0.0010999999940395355,-0.02736249938607216,-0.0006874999962747097
0.16005000472068787,0.16395001113414764,9.793050765991211,0.002062499988824129,0.006599999964237213,0.002474999986588955
0.1360500007867813,0.1980000138282776,9.790050506591797,0.002062499988824129,0.025712499395012856,0.0004124999977648258
0.13905000686645508,0.22395001351833344,9.802050590515137,0.0010999999940395355,0.005499999970197678,0.0015124999918043613
0.18195000290870667,0.2460000067949295,10.144950866699219,0.030799999833106995,0.3482874929904938,-0.008112499490380287
0.08595000207424164,0.23805001378059387,10.003050804138184,-0.03506249934434891,-0.3679499924182892,0.004674999974668026
0.1770000010728836,0.17595000565052032,9.78795051574707,-0.01484999991953373,-0.19030000269412994,0.0015124999918043613
0.22995001077651978,0.15900000929832458,9.856950759887695,0.009624999947845936,0.10449999570846558,-0.002749999985098839
0.1080000028014183,0.1789500117301941,9.769050598144531,0.010587500408291817,0.1363999992609024,-0.0017874999903142452
0.07200000435113907,0.21000000834465027,9.766050338745117,-0.0,0.006599999964237213,0.0004124999977648258
0.08895000070333481,0.1860000044107437,9.782999992370605,-0.0085249999538064,-0.11041250079870224,0.006737499963492155
0.18405000865459442,0.19995000958442688,9.819000244140625,-0.0085249999538064,-0.11687500029802322,0.0035749999806284904
0.1680000126361847,0.21195000410079956,9.838050842285156,0.0031624999828636646,0.050187498331069946,0.0004124999977648258
0.3520500063896179,0.21705001592636108,10.494000434875488,0.032999999821186066,0.3620375096797943,-0.010312499478459358
0.1579500138759613,0.09000000357627869,10.31505012512207,-0.032999999821186066,-0.346637487411499,0.0004124999977648258
0.04800000041723251,0.06795000284910202,9.678000450134277,0.005362499970942736,0.06943749636411667,-0.0017874999903142452
0.10500000417232513,0.10200000554323196,9.78795051574707,-0.011687500402331352,-0.12636250257492065,0.004674999974668026
0.13905000686645508,0.11595000326633453,9.83595085144043,-0.01484999991953373,-0.19978749752044678,0.0057749999687075615
0.16005000472068787,0.22200001776218414,9.883950233459473,0.006324999965727329,0.08002500236034393,-0.0006874999962747097
0.040950000286102295,0.24105000495910645,9.75,0.013887500390410423,0.15344999730587006,-0.0017874999903142452
0.05700000375509262,0.16695000231266022,9.75,0.005362499970942736,0.03959999978542328,0.0035749999806284904
0.11295000463724136,0.15000000596046448,9.778050422668457,-0.007424999959766865,-0.08703749626874924,0.0004124999977648258
0.18000000715255737,0.2070000171661377,9.814050674438477,-0.011687500402331352,-0.15193749964237213,0.002474999986588955
0.24705001711845398,0.23595000803470612,9.87405014038086,-0.0,-0.017875000834465027,0.0004124999977648258
0.15300001204013824,0.25995001196861267,9.78795051574707,0.010587500408291817,0.13433749973773956,-0.002749999985098839
0.10500000417232513,0.22200001776218414,9.76395034790039,0.005362499970942736,0.059812501072883606,-0.0006874999962747097
0.11700000613927841,0.19500000774860382,9.769050598144531,-0.0031624999828636646,-0.047575000673532486,0.0004124999977648258
0.15600000321865082,0.18105000257492065,9.796950340270996,-0.0085249999538064,-0.1050499975681305,0.002474999986588955
0.16005000472068787,0.1570500135421753,9.826050758361816,-0.0031624999828636646,-0.025299999862909317,0.0004124999977648258
0.09300000220537186,0.16905000805854797,9.793050765991211,0.006324999965727329,0.09075000137090683,-0.002749999985098839
0.09300000220537186,0.15900000929832458,9.77400016784668,0.005362499970942736,0.05871250107884407,-0.0006874999962747097
0.08400000631809235,0.1279500126838684,9.77595043182373,-0.0010999999940395355,-0.02213750034570694,0.0015124999918043613
0.13905000686645508,0.10200000554323196,9.78795051574707,-0.006324999965727329,-0.07961250096559525,0.002474999986588955
0.15600000321865082,0.15495000779628754,9.820950508117676,-0.0010999999940395355,-0.03492499887943268,0.0035749999806284904
0.10305000841617584,0.16395001113414764,9.802050590515137,0.005362499970942736,0.06407500058412552,-0.0017874999903142452
0.1080000028014183,0.16905000805854797,9.759000778198242,0.005362499970942736,0.05128749832510948,-0.0006874999962747097
0.10500000417232513,0.16905000805854797,9.759000778198242,-0.002062499988824129,-0.0147124994546175,0.0004124999977648258
0.16995000839233398,0.18300001323223114,9.807000160217285,-0.0031624999828636646,-0.06572499871253967,0.002474999986588955
0.17205001413822174,0.22605000436306,9.82395076751709,-0.002062499988824129,-0.03272499889135361,0.0015124999918043613
0.13905000686645508,0.2550000250339508,9.802050590515137,0.0042624999769032,0.05238749831914902,-0.0017874999903142452
0.13395000994205475,0.21495001018047333,9.782999992370605,0.0042624999769032,0.04386249929666519,-0.002749999985098839
0.12000000476837158,0.19095000624656677,9.782999992370605,-0.002062499988824129,-0.0147124994546175,-0.0017874999903142452
0.14595000445842743,0.18300001323223114,9.78795051574707,-0.0031624999828636646,-0.05403750017285347,-0.0006874999962747097
0.15105000138282776,0.18300001323223114,9.819000244140625,-0.002062499988824129,-0.01677500084042549,-0.0006874999962747097
0.13905000686645508,0.23595000803470612,9.784950256347656,0.0031624999828636646,0.04606249928474426,-0.002749999985098839
0.10305000841617584,0.21705001592636108,9.78795051574707,0.0031624999828636646,0.029975000768899918,-0.0017874999903142452
0.022050000727176666,0.1860000044107437,9.62505054473877,0.0010999999940395355,-0.04441250115633011,-0.0006874999962747097
0.20595000684261322,0.15000000596046448,9.853050231933594,0.007424999959766865,0.07576250284910202,-0.06875000149011612
0.20595000684261322,0.05400000140070915,9.829050064086914,-0.012787500396370888,-0.11357499659061432,-0.01979999989271164
0.1579500138759613,0.05700000375509262,9.81195068359375,0.010587500408291817,0.1247124969959259,0.0035749999806284904
0.09300000220537186,0.028050001710653305,9.784950256347656,0.0031624999828636646,0.04386249929666519,0.0035749999806284904
0.09600000083446503,0.16695000231266022,9.76200008392334,-0.006324999965727329,-0.05609999969601631,0.006737499963492155
0.11295000463724136,0.2550000250339508,9.81705093383789,-0.006324999965727329,-0.08387500047683716,0.0057749999687075615
0.1270500123500824,0.2070000171661377,9.831000328063965,0.002062499988824129,0.02474999986588955,0.015262499451637268
0.06195000186562538,0.18300001323223114,9.778050422668457,0.0085249999538064,0.08855000138282776,-0.0017874999903142452
0.10095000267028809,0.16695000231266022,9.759000778198242,0.002062499988824129,0.011962499469518661,0.0015124999918043613
0.14400000870227814,0.16695000231266022,9.790050506591797,-0.005362499970942736,-0.07218749821186066,0.0004124999977648258
0.18000000715255737,0.15900000929832458,9.826050758361816,-0.0031624999828636646,-0.0625625029206276,0.0015124999918043613
0.1770000010728836,0.15495000779628754,9.838050842285156,0.005362499970942736,0.05128749832510948,-0.0017874999903142452
0.15300001204013824,0.1570500135421753,9.76200008392334,0.006324999965727329,0.05871250107884407,0.002474999986588955
0.1360500007867813,0.17400000989437103,9.766050338745117,-0.0,-0.02213750034570694,0.002474999986588955
0.16995000839233398,0.1380000114440918,9.793050765991211,-0.002199999988079071,-0.06572499871253967,0.0057749999687075615
0.1770000010728836,0.17400000989437103,9.820950508117676,0.0031624999828636646,0.0002749999985098839,0.004674999974668026
0.1270500123500824,0.22905001044273376,9.77400016784668,0.005362499970942736,0.059812501072883606,0.002474999986588955
0.08595000207424164,0.2070000171661377,9.76200008392334,0.0042624999769032,0.0193875003606081,0.004674999974668026
0.1080000028014183,0.21000000834465027,9.793050765991211,-0.0010999999940395355,-0.040150001645088196,0.004674999974668026
0.1360500007867813,0.25005000829696655,9.807000160217285,-0.0,-0.03382499888539314,0.002474999986588955
0.14100000262260437,0.25995001196861267,9.793050765991211,0.0042624999769032,0.02474999986588955,-0.0006874999962747097
0.1080000028014183,0.22200001776218414,9.795000076293945,0.0031624999828636646,0.02681249938905239,-0.002749999985098839
0.13395000994205475,0.21000000834465027,9.76395034790039,0.0010999999940395355,-0.017875000834465027,-0.002749999985098839
0.17205001413822174,0.23100000619888306,9.807000160217285,-0.002199999988079071,-0.03162499889731407,-0.0017874999903142452
0.21495001018047333,0.23400001227855682,9.814050674438477,0.0010999999940395355,0.0034374999813735485,-0.0017874999903142452
0.18405000865459442,0.22200001776218414,9.81195068359375,0.0010999999940395355,0.02681249938905239,-0.0017874999903142452
0.15600000321865082,0.21705001592636108,9.784950256347656,-0.0,0.002337499987334013,0.0004124999977648258
0.14595000445842743,0.18300001323223114,9.793050765991211,-0.0010999999940395355,-0.01677500084042549,0.0004124999977648258
0.16500000655651093,0.13305000960826874,9.807000160217285,-0.0,-0.0008249999955296516,0.0004124999977648258
0.13199999928474426,0.1360500007867813,9.76395034790039,0.0031624999828636646,0.03217500075697899,0.0004124999977648258
0.11505000293254852,0.1399500072002411,9.807000160217285,-0.0,-0.007149999961256981,0.0004124999977648258
0.09795000404119492,0.18105000257492065,9.795000076293945,-0.0031624999828636646,-0.02419999986886978,0.0015124999918043613
0.08400000631809235,0.22395001351833344,9.793050765991211,-0.002199999988079071,0.002337499987334013,0.0004124999977648258
0.10305000841617584,0.1860000044107437,9.771000862121582,0.002062499988824129,0.020487500354647636,-0.0017874999903142452
0.07695000618696213,0.10695000737905502,9.795000076293945,0.002062499988824129,0.0002749999985098839,-0.002749999985098839
0.13905000686645508,0.1469999998807907,9.796950340270996,-0.0010999999940395355,-0.018975000828504562,0.007837500423192978
0.1579500138759613,0.22395001351833344,9.807000160217285,-0.0010999999940395355,0.002337499987334013,-0.002749999985098839
0.15105000138282776,0.23595000803470612,9.78795051574707,0.002062499988824129,0.011962499469518661,-0.0038499999791383743
0.17505000531673431,0.20295001566410065,9.790050506591797,-0.0,-0.0028874999843537807,-0.00494999997317791
0.20100000500679016,0.23100000619888306,9.793050765991211,-0.0,-0.0147124994546175,-0.0006874999962747097
0.1870500147342682,0.23100000619888306,9.80505084991455,0.0010999999940395355,0.0002749999985098839,-0.0017874999903142452
0.15600000321865082,0.21000000834465027,9.80505084991455,-0.0,0.018287500366568565,-0.002749999985098839
0.1080000028014183,0.19500000774860382,9.78795051574707,-0.0010999999940395355,0.00976249948143959,-0.0038499999791383743
0.11700000613927841,0.19305001199245453,9.79995059967041,-0.002199999988079071,-0.010449999943375587,-0.002749999985098839
0.15600000321865082,0.19095000624656677,9.80505084991455,-0.0,-0.011412499472498894,-0.002749999985098839
0.15300001204013824,0.2050500065088272,9.80505084991455,-0.0,0.004537499975413084,-0.0017874999903142452
0.15105000138282776,0.21495001018047333,9.782999992370605,0.0010999999940395355,0.013062499463558197,-0.002749999985098839
0.13199999928474426,0.15000000596046448,9.790050506591797,-0.0,0.004537499975413084,-0.002749999985098839
0.12495000660419464,0.12405000627040863,9.782999992370605,0.0010999999940395355,-0.0028874999843537807,-0.0006874999962747097
0.1270500123500824,0.15900000929832458,9.802050590515137,-0.002199999988079071,-0.0028874999843537807,-0.0006874999962747097
0.13199999928474426,0.18300001323223114,9.784950256347656,-0.0,0.002337499987334013,-0.0006874999962747097
0.11295000463724136,0.18300001323223114,9.790050506591797,-0.0,0.0012374999932944775,-0.0017874999903142452
0.12000000476837158,0.19095000624656677,9.782999992370605,-0.0010999999940395355,-0.0008249999955296516,-0.002749999985098839
0.13395000994205475,0.21495001018047333,9.808950424194336,-0.0010999999940395355,0.0002749999985098839,-0.0017874999903142452
0.13905000686645508,0.2550000250339508,9.77400016784668,-0.0010999999940395355,0.0002749999985098839,-0.002749999985098839
0.14400000870227814,0.2070000171661377,9.79995059967041,-0.0010999999940395355,-0.003987499978393316,-0.00494999997317791
0.16995000839233398,0.18105000257492065,9.790050506591797,-0.0010999999940395355,-0.003987499978393316,-0.00494999997317791
0.16305001080036163,0.1399500072002411,9.80505084991455,-0.0,0.0012374999932944775,-0.0017874999903142452
0.4210500121116638,0.15900000929832458,10.06095027923584,-0.01484999991953373,-0.14451250433921814,-0.015537500381469727
0.18405000865459442,0.15195000171661377,9.855000495910645,-0.0031624999828636646,0.002337499987334013,-0.09322500228881836
0.27105000615119934,0.16395001113414764,9.867000579833984,-0.0,0.029012499377131462,0.016362499445676804
0.1080000028014183,0.1360500007867813,9.771000862121582,0.007424999959766865,0.09927500039339066,-0.002749999985098839
0.09300000220537186,0.10905000567436218,9.76395034790039,-0.006462499964982271,-0.04661250114440918,0.0057749999687075615
0.1360500007867813,0.15000000596046448,9.802050590515137,-0.011687500402331352,-0.11783749610185623,0.007837500423192978
0.06195000186562538,0.1570500135421753,9.796950340270996,0.005362499970942736,0.07479999959468842,0.007837500423192978
0.024000000208616257,0.10905000567436218,9.75,0.006324999965727329,0.07369999587535858,0.004674999974668026
0.036000002175569534,0.07304999977350235,9.782999992370605,-0.0010999999940395355,-0.018975000828504562,0.0004124999977648258
0.13905000686645508,0.1380000114440918,9.790050506591797,-0.005362499970942736,-0.09336250275373459,0.0035749999806284904
0.19200000166893005,0.18300001323223114,9.82395076751709,-0.0031624999828636646,-0.021037500351667404,0.0015124999918043613
0.15300001204013824,0.2050500065088272,9.796950340270996,0.007424999959766865,0.07686249911785126,0.0004124999977648258
0.1270500123500824,0.1879500150680542,9.778050422668457,0.002062499988824129,0.015124999918043613,0.0004124999977648258
0.1770000010728836,0.22905001044273376,9.790050506591797,-0.005362499970942736,-0.06146249920129776,0.0035749999806284904
0.1770000010728836,0.2740500271320343,9.80505084991455,-0.0010999999940395355,-0.030662499368190765,0.002474999986588955
0.18195000290870667,0.33705002069473267,9.81195068359375,0.0042624999769032,0.05238749831914902,-0.0006874999962747097
0.13199999928474426,0.3150000274181366,9.75195026397705,0.0031624999828636646,0.031075000762939453,-0.0017874999903142452
0.14100000262260437,0.21705001592636108,9.802050590515137,-0.0031624999828636646,-0.03492499887943268,-0.0038499999791383743
0.17205001413822174,0.14295001327991486,9.81705093383789,-0.0042624999769032,-0.03698749840259552,0.0004124999977648258
0.15600000321865082,0.12405000627040863,9.81705093383789,0.0010999999940395355,0.031075000762939453,0.0004124999977648258
0.10500000417232513,0.1380000114440918,9.77595043182373,0.002062499988824129,0.03849999979138374,0.0004124999977648258
0.07395000010728836,0.10200000554323196,9.76395034790039,-0.002199999988079071,-0.01251249946653843,0.0004124999977648258
0.09300000220537186,0.07605000585317612,9.79995059967041,-0.0,-0.03272499889135361,0.0015124999918043613
0.14400000870227814,0.11595000326633453,9.80505084991455,-0.0,0.004537499975413084,0.0015124999918043613
0.1270500123500824,0.19305001199245453,9.771000862121582,0.0042624999769032,0.025849999859929085,0.0015124999918043613
0.12000000476837158,0.22605000436306,9.793050765991211,-0.0,-0.0008249999955296516,-0.0006874999962747097
0.11505000293254852,0.23100000619888306,9.796950340270996,-0.002199999988079071,-0.02213750034570694,-0.0006874999962747097
0.1290000081062317,0.1860000044107437,9.802050590515137,0.0010999999940395355,-0.0008249999955296516,-0.002749999985098839
0.31095001101493835,0.1279500126838684,10.068000793457031,0.021312499418854713,0.2428250014781952,-0.006049999967217445
-0.31995001435279846,0.1360500007867813,9.390000343322754,-0.007424999959766865,-0.08703749626874924,-0.002749999985098839
0.6420000195503235,0.09495000541210175,10.30305004119873,-0.028737500309944153,-0.3306874930858612,0.007837500423192978
-0.0010500000789761543,0.2070000171661377,9.694950103759766,0.028737500309944153,0.36739999055862427,-0.00494999997317791
-0.030000001192092896,0.2580000162124634,9.61500072479248,-0.0042624999769032,-0.055137500166893005,0.004674999974668026
0.11505000293254852,0.23400001227855682,9.808950424194336,-0.02447500079870224,-0.3254624903202057,0.018424998968839645
0.14595000445842743,0.12105000764131546,9.81195068359375,0.021312499418854713,0.22165000438690186,-0.006049999967217445
0.04500000178813934,0.1189500093460083,9.739950180053711,0.011687500402331352,0.1428624987602234,-0.0006874999962747097
0.019050000235438347,0.17400000989437103,9.733050346374512,-0.0031624999828636646,-0.0518375001847744,0.002474999986588955
0.10500000417232513,0.22200001776218414,9.76200008392334,-0.015949999913573265,-0.20721249282360077,0.004674999974668026
0.283050000667572,0.1860000044107437,9.910050392150879,0.0010999999940395355,0.0034374999813735485,0.0004124999977648258
0.1360500007867813,0.1980000138282776,9.75,0.013887500390410423,0.13750000298023224,-0.002749999985098839
0.10095000267028809,0.16695000231266022,9.759000778198242,-0.0010999999940395355,-0.02956249937415123,0.002474999986588955
0.14595000445842743,0.2050500065088272,9.795000076293945,-0.011687500402331352,-0.15193749964237213,0.004674999974668026
0.16500000655651093,0.21495001018047333,9.871950149536133,0.0042624999769032,0.04702499881386757,-0.0006874999962747097
0.06195000186562538,0.25005000829696655,9.766050338745117,0.0085249999538064,0.1013374999165535,-0.0006874999962747097
0.10500000417232513,0.23595000803470612,9.771000862121582,-0.0010999999940395355,-0.018975000828504562,-0.002749999985098839
0.15300001204013824,0.23805001378059387,9.795000076293945,-0.009624999947845936,-0.11261250078678131,-0.0006874999962747097
0.24900001287460327,0.17400000989437103,9.86205005645752,0.0,0.002337499987334013,-0.0038499999791383743
0.13199999928474426,0.16905000805854797,9.766050338745117,0.007424999959766865,0.089649997651577,-0.002749999985098839
0.11295000463724136,0.15000000596046448,9.769050598144531,0.0,-0.0147124994546175,0.0015124999918043613
0.13199999928474426,0.16200000047683716,9.80505084991455,-0.007424999959766865,-0.08057499676942825,0.0015124999918043613
0.14100000262260437,0.1789500117301941,9.820950508117676,-0.0010999999940395355,-0.007149999961256981,0.0004124999977648258
0.1099500060081482,0.17400000989437103,9.784950256347656,0.0042624999769032,0.0705375000834465,-0.0017874999903142452
0.1099500060081482,0.1189500093460083,9.77595043182373,0.002062499988824129,0.018287500366568565,-0.002749999985098839
0.15300001204013824,0.13095000386238098,9.802050590515137,-0.0031624999828636646,-0.05609999969601631,0.0015124999918043613
0.22305001318454742,0.14505000412464142,9.831000328063965,-0.002062499988824129,-0.03492499887943268,0.002474999986588955
0.19905000925064087,0.1189500093460083,9.972000122070312,0.04262499883770943,0.5248374938964844,-0.008112499490380287
0.17205001413822174,0.16695000231266022,10.30305004119873,-0.028737500309944153,-0.3190000057220459,0.004674999974668026
-0.05205000191926956,0.19995000958442688,9.61305046081543,0.010587500408291817,0.11728750169277191,0.0004124999977648258
0.04500000178813934,0.19305001199245453,9.793050765991211,-0.0170499999076128,-0.23704999685287476,0.0057749999687075615
0.3540000021457672,0.19305001199245453,10.069950103759766,-0.018149999901652336,-0.2232999950647354,0.004674999974668026
0.04305000230669975,0.2530499994754791,9.727950096130371,0.020212499424815178,0.2461249977350235,-0.00494999997317791
0.04800000041723251,0.31995001435279846,9.742050170898438,0.0010999999940395355,0.03849999979138374,-0.0017874999903142452
0.09105000644922256,0.2770500183105469,9.76200008392334,-0.010587500408291817,-0.13062499463558197,0.007837500423192978
0.2560500204563141,0.15900000929832458,9.92400074005127,-0.015949999913573265,-0.19236250221729279,0.0004124999977648258
0.15300001204013824,0.1380000114440918,9.76395034790039,0.015949999913573265,0.19181250035762787,-0.007012499962002039
0.12495000660419464,0.12105000764131546,9.747000694274902,0.0042624999769032,0.0364375002682209,-0.002749999985098839
0.1099500060081482,0.16695000231266022,9.771000862121582,-0.007424999959766865,-0.09556250274181366,0.0015124999918043613
0.21495001018047333,0.1879500150680542,9.883950233459473,-0.0085249999538064,-0.11151249706745148,0.0015124999918043613
0.1360500007867813,0.20295001566410065,9.77595043182373,0.0085249999538064,0.1237500011920929,-0.0038499999791383743
0.09300000220537186,0.22605000436306,9.77400016784668,0.002062499988824129,0.033275000751018524,-0.0006874999962747097
0.12495000660419464,0.17400000989437103,9.771000862121582,-0.005362499970942736,-0.0668250024318695,-0.0006874999962747097
0.1680000126361847,0.1570500135421753,9.843000411987305,-0.0042624999769032,-0.07741250097751617,0.0015124999918043613
0.13199999928474426,0.1380000114440918,9.802050590515137,0.005362499970942736,0.06943749636411667,-0.0038499999791383743
0.10305000841617584,0.12600000202655792,9.757050514221191,0.005362499970942736,0.059812501072883606,-0.002749999985098839
0.13395000994205475,0.17400000989437103,9.77400016784668,-0.0031624999828636646,-0.03162499889731407,-0.0006874999962747097
0.18195000290870667,0.19500000774860382,9.81705093383789,-0.006324999965727329,-0.07851249724626541,0.0004124999977648258
0.20595000684261322,0.17400000989437103,9.82395076751709,0.0010999999940395355,0.010862499475479126,-0.0006874999962747097
0.1290000081062317,0.19095000624656677,9.778050422668457,0.005362499970942736,0.06943749636411667,-0.0006874999962747097
0.1099500060081482,0.23595000803470612,9.78795051574707,-0.0,0.00976249948143959,0.0004124999977648258
0.1270500123500824,0.2460000067949295,9.79995059967041,-0.0031624999828636646,-0.052937500178813934,0.0004124999977648258
0.14805001020431519,0.21195000410079956,9.81705093383789,-0.002199999988079071,-0.025299999862909317,-0.0017874999903142452
0.1579500138759613,0.18105000257492065,9.77595043182373,0.0031624999828636646,0.040699999779462814,-0.0038499999791383743
0.16305001080036163,0.16905000805854797,9.78795051574707,0.002062499988824129,0.021587500348687172,-0.0017874999903142452
0.16995000839233398,0.1469999998807907,9.793050765991211,-0.002199999988079071,-0.02956249937415123,0.0004124999977648258
0.1960500031709671,0.12405000627040863,9.790050506591797,-0.002199999988079071,-0.028462499380111694,0.0015124999918043613
0.15600000321865082,0.0799500048160553,9.814050674438477,0.002062499988824129,0.023649999871850014,0.0015124999918043613
0.1270500123500824,0.12105000764131546,9.78795051574707,0.002062499988824129,0.03217500075697899,0.0035749999806284904
0.10500000417232513,0.19500000774860382,9.778050422668457,-0.0031624999828636646,-0.013612499460577965,0.004674999974668026
0.11700000613927841,0.27900001406669617,9.79995059967041,-0.0010999999940395355,-0.02736249938607216,0.0015124999918043613
0.09795000404119492,0.2550000250339508,9.802050590515137,0.0010999999940395355,0.008799999952316284,-0.0006874999962747097
0.09105000644922256,0.24105000495910645,9.778050422668457,0.002062499988824129,0.02474999986588955,-0.0017874999903142452
0.12495000660419464,0.19995000958442688,9.781050682067871,0.0010999999940395355,-0.005087499972432852,-0.002749999985098839
0.1680000126361847,0.1789500117301941,9.802050590515137,-0.002199999988079071,-0.030662499368190765,-0.0017874999903142452
0.19905000925064087,0.17100000381469727,9.80505084991455,-0.0,-0.006187499966472387,-0.002749999985098839
0.16995000839233398,0.16200000047683716,9.781050682067871,0.002062499988824129,0.023649999871850014,-0.002749999985098839
0.17505000531673431,0.1360500007867813,9.795000076293945,0.0010999999940395355,0.004537499975413084,-0.0006874999962747097
0.18405000865459442,0.15900000929832458,9.78795051574707,0.0,-0.018975000828504562,0.0015124999918043613
0.18000000715255737,0.21000000834465027,9.802050590515137,0.0010999999940395355,-0.006187499966472387,0.0035749999806284904
0.1270500123500824,0.22605000436306,9.778050422668457,0.002062499988824129,0.0193875003606081,0.0015124999918043613
0.08595000207424164,0.2070000171661377,9.784950256347656,0.0010999999940395355,0.013062499463558197,0.0004124999977648258
0.1099500060081482,0.17400000989437103,9.796950340270996,-0.0010999999940395355,-0.01251249946653843,-0.0006874999962747097
0.12495000660419464,0.18300001323223114,9.790050506591797,-0.0010999999940395355,-0.0147124994546175,-0.0006874999962747097
0.12495000660419464,0.15495000779628754,9.80505084991455,0.0010999999940395355,0.005499999970197678,-0.0017874999903142452
0.11295000463724136,0.1360500007867813,9.796950340270996,0.0010999999940395355,0.014024999924004078,-0.0006874999962747097
0.13395000994205475,0.12405000627040863,9.782999992370605,-0.0010999999940395355,-0.005087499972432852,-0.0017874999903142452
0.16305001080036163,0.1189500093460083,9.78795051574707,0.0,-0.0147124994546175,-0.0006874999962747097
0.1680000126361847,0.14295001327991486,9.795000076293945,0.0,-0.0028874999843537807,0.0004124999977648258
0.15105000138282776,0.2050500065088272,9.820950508117676,0.0010999999940395355,0.00976249948143959,0.0015124999918043613
0.14100000262260437,0.23805001378059387,9.793050765991211,0.0,0.005499999970197678,0.0015124999918043613
0.1099500060081482,0.23400001227855682,9.77595043182373,0.0,-0.006187499966472387,0.0015124999918043613
0.14400000870227814,0.22200001776218414,9.795000076293945,0.0,-0.005087499972432852,-0.0006874999962747097
0.14805001020431519,0.19500000774860382,9.796950340270996,0.0010999999940395355,0.0034374999813735485,0.0004124999977648258
0.14595000445842743,0.19095000624656677,9.795000076293945,0.0,0.0034374999813735485,-0.0006874999962747097
0.15300001204013824,0.1789500117301941,9.782999992370605,-0.0010999999940395355,-0.0028874999843537807,-0.0017874999903142452
0.14400000870227814,0.16395001113414764,9.802050590515137,0.0,-0.0008249999955296516,0.0004124999977648258
0.13199999928474426,0.1879500150680542,9.790050506591797,0.0,0.0034374999813735485,0.0004124999977648258
0.13395000994205475,0.1879500150680542,9.781050682067871,0.0,0.002337499987334013,-0.0006874999962747097
0.14595000445842743,0.1789500117301941,9.795000076293945,0.0,-0.005087499972432852,-0.0017874999903142452
0.13199999928474426,0.1469999998807907,9.79995059967041,0.0,-0.0019249999895691872,-0.0017874999903142452
0.1270500123500824,0.1570500135421753,9.790050506591797,0.0010999999940395355,0.004537499975413084,0.002474999986588955
0.1360500007867813,0.1860000044107437,9.793050765991211,0.0010999999940395355,0.0034374999813735485,0.0004124999977648258
0.14100000262260437,0.2070000171661377,9.82395076751709,-0.0,-0.0008249999955296516,-0.0006874999962747097
0.07695000618696213,0.18300001323223114,9.726000785827637,-0.0,-0.045512501150369644,-0.0017874999903142452
0.04500000178813934,0.1279500126838684,9.730050086975098,0.007424999959766865,0.06091250106692314,-0.03904999792575836
0.1099500060081482,0.12105000764131546,9.747000694274902,0.0031624999828636646,0.05555000156164169,-0.018699999898672104
0.15600000321865082,0.19995000958442688,9.790050506591797,0.002062499988824129,0.006599999964237213,0.0015124999918043613
0.1360500007867813,0.22905001044273376,9.814050674438477,-0.002199999988079071,-0.011412499472498894,0.0004124999977648258
0.13395000994205475,0.24300001561641693,9.781050682067871,-0.0010999999940395355,-0.007149999961256981,-0.0006874999962747097
0.14100000262260437,0.23400001227855682,9.80505084991455,-0.0,0.005499999970197678,0.007837500423192978
0.15300001204013824,0.24105000495910645,9.784950256347656,0.002062499988824129,0.013062499463558197,-0.0038499999791383743
0.16305001080036163,0.23805001378059387,9.81195068359375,-0.0,-0.007149999961256981,-0.0038499999791383743
0.3469500243663788,0.21495001018047333,9.94800090789795,-0.0031624999828636646,-0.11041250079870224,-0.016637500375509262
0.1099500060081482,0.0880500078201294,9.829050064086914,-0.0010999999940395355,0.020487500354647636,-0.19868749380111694
0.1680000126361847,0.12105000764131546,9.781050682067871,-0.0,0.04496249929070473,-0.017737500369548798
0.1680000126361847,0.12405000627040863,9.771000862121582,-0.002199999988079071,-0.0008249999955296516,-0.0006874999962747097
0.2440500110387802,0.05895000323653221,9.859950065612793,-0.005362499970942736,-0.028462499380111694,0.004674999974668026
0.08895000070333481,0.10200000554323196,9.766050338745117,-0.0,0.002337499987334013,0.004674999974668026
0.1579500138759613,0.17595000565052032,9.843000411987305,-0.0,-0.011412499472498894,0.010999999940395355
0.07695000618696213,0.2070000171661377,9.781050682067871,0.0031624999828636646,0.005499999970197678,0.004674999974668026
0.13199999928474426,0.2580000162124634,9.831000328063965,-0.0,-0.025299999862909317,0.002474999986588955
0.09795000404119492,0.3079500198364258,9.782999992370605,-0.0,0.00976249948143959,-0.0006874999962747097
0.14400000870227814,0.27195000648498535,9.820950508117676,-0.0,-0.0147124994546175,-0.0006874999962747097
0.1270500123500824,0.18300001323223114,9.778050422668457,-0.0,-0.0019249999895691872,-0.002749999985098839
0.18195000290870667,0.16200000047683716,9.78795051574707,0.002062499988824129,0.011962499469518661,-0.0017874999903142452
0.18195000290870667,0.13305000960826874,9.80505084991455,-0.0,0.0002749999985098839,-0.0017874999903142452
0.1680000126361847,0.11400000751018524,9.782999992370605,-0.0010999999940395355,0.0002749999985098839,-0.0006874999962747097
0.16995000839233398,0.15195000171661377,9.80505084991455,-0.0,0.0012374999932944775,0.0015124999918043613
0.16995000839233398,0.22905001044273376,9.795000076293945,-0.0010999999940395355,-0.0008249999955296516,0.0035749999806284904
0.18405000865459442,0.24105000495910645,9.81195068359375,0.0010999999940395355,-0.0008249999955296516,0.0015124999918043613
0.15105000138282776,0.19305001199245453,9.78795051574707,-0.0010999999940395355,0.0002749999985098839,0.0004124999977648258
0.1099500060081482,0.1789500117301941,9.808950424194336,-0.0010999999940395355,0.0013749999925494194,0.0015124999918043613
0.10305000841617584,0.2070000171661377,9.784950256347656,-0.002062499988824129,-0.0008249999955296516,-0.0006874999962747097
0.1099500060081482,0.16905000805854797,9.796950340270996,-0.0010999999940395355,0.0002749999985098839,-0.0006874999962747097
0.15600000321865082,0.15495000779628754,9.793050765991211,0.0010999999940395355,-0.0008249999955296516,-0.0017874999903142452
0.16500000655651093,0.16905000805854797,9.78795051574707,0.0,-0.0008249999955296516,-0.0017874999903142452
0.16305001080036163,0.1789500117301941,9.795000076293945,-0.0010999999940395355,0.0002749999985098839,-0.0017874999903142452
0.14595000445842743,0.11595000326633453,9.76200008392334,0.0031624999828636646,0.004537499975413084,-0.0006874999962747097
0.15600000321865082,0.037050001323223114,9.843000411987305,-0.0010999999940395355,-0.01251249946653843,-0.02722499892115593
0.17505000531673431,0.1189500093460083,9.790050506591797,-0.0010999999940395355,-0.003987499978393316,0.002474999986588955
0.14805001020431519,0.19095000624656677,9.819000244140625,-0.002062499988824129,-0.013612499460577965,0.002474999986588955
0.11295000463724136,0.2959500253200531,9.79995059967041,0.0,-0.008249999955296516,0.0015124999918043613
0.11295000463724136,0.35295000672340393,9.795000076293945,0.002062499988824129,-0.0008249999955296516,0.0057749999687075615
0.16005000472068787,0.29805001616477966,9.79995059967041,0.0010999999940395355,0.002337499987334013,-0.0017874999903142452
0.18195000290870667,0.22905001044273376,9.796950340270996,0.0010999999940395355,0.0034374999813735485,-0.0038499999791383743
0.18405000865459442,0.15900000929832458,9.793050765991211,0.0,0.002337499987334013,-0.0038499999791383743
0.1680000126361847,0.10695000737905502,9.793050765991211,0.0,0.0013749999925494194,-0.002749999985098839
0.17205001413822174,0.13305000960826874,9.807000160217285,0.0,-0.0008249999955296516,-0.0006874999962747097
0.17505000531673431,0.19500000774860382,9.790050506591797,0.0,0.0013749999925494194,0.0004124999977648258
0.16995000839233398,0.19095000624656677,9.807000160217285,-0.0010999999940395355,-0.0008249999955296516,0.0004124999977648258
0.15105000138282776,0.17100000381469727,9.793050765991211,-0.0010999999940395355,-0.0008249999955296516,-0.0006874999962747097
0.12495000660419464,0.1189500093460083,9.784950256347656,0.0010999999940395355,-0.0008249999955296516,0.0004124999977648258
0.09600000083446503,0.14505000412464142,9.784950256347656,0.0,0.0002749999985098839,0.002474999986588955
0.09600000083446503,0.1789500117301941,9.778050422668457,-0.0,0.0002749999985098839,0.0015124999918043613
0.11505000293254852,0.19995000958442688,9.814050674438477,0.0010999999940395355,0.0012374999932944775,0.0004124999977648258
0.13199999928474426,0.1879500150680542,9.796950340270996,-0.0010999999940395355,-0.0019249999895691872,-0.00494999997317791
0.1579500138759613,0.13305000960826874,9.784950256347656,-0.0,0.0002749999985098839,-0.002749999985098839
0.18900001049041748,0.1570500135421753,9.80505084991455,0.002062499988824129,-0.0008249999955296516,-0.0006874999962747097
0.19200000166893005,0.20295001566410065,9.795000076293945,0.0010999999940395355,-0.0008249999955296516,0.0004124999977648258
0.1770000010728836,0.21495001018047333,9.781050682067871,0.0010999999940395355,-0.0008249999955296516,0.0004124999977648258
0.1360500007867813,0.21900001168251038,9.77400016784668,-0.0,0.0002749999985098839,0.0015124999918043613
0.13395000994205475,0.2550000250339508,9.829050064086914,-0.0010999999940395355,-0.005087499972432852,0.002474999986588955
0.16005000472068787,0.21495001018047333,9.853050231933594,-0.0010999999940395355,0.0012374999932944775,-0.0017874999903142452
0.1960500031709671,0.1570500135421753,9.766050338745117,-0.002199999988079071,0.0034374999813735485,0.0015124999918043613
0.18000000715255737,0.1380000114440918,9.766050338745117,0.0010999999940395355,0.025849999859929085,0.0004124999977648258
0.19905000925064087,0.08295000344514847,9.82395076751709,-0.0042624999769032,-0.04661250114440918,0.0035749999806284904
0.1099500060081482,0.1469999998807907,9.759000778198242,0.002062499988824129,0.0193875003606081,0.0057749999687075615
0.15600000321865082,0.19995000958442688,9.81705093383789,-0.0,-0.013612499460577965,0.0035749999806284904
0.09105000644922256,0.1789500117301941,9.790050506591797,0.0010999999940395355,-0.005087499972432852,0.002474999986588955
0.08895000070333481,0.1570500135421753,9.769050598144531,0.0031624999828636646,0.014024999924004078,0.0015124999918043613
0.1270500123500824,0.22905001044273376,9.814050674438477,-0.0010999999940395355,-0.013612499460577965,-0.0006874999962747097
0.13905000686645508,0.2770500183105469,9.781050682067871,-0.0010999999940395355,-0.0019249999895691872,-0.002749999985098839
0.15600000321865082,0.22200001776218414,9.793050765991211,0.0010999999940395355,0.002337499987334013,-0.0038499999791383743
0.20100000500679016,0.10005000233650208,9.782999992370605,-0.0,0.0012374999932944775,-0.002749999985098839
0.20805001258850098,0.06599999964237213,9.80505084991455,0.0010999999940395355,0.0012374999932944775,0.0004124999977648258
0.18900001049041748,0.12600000202655792,9.802050590515137,-0.0,-0.0008249999955296516,0.002474999986588955
0.15300001204013824,0.22605000436306,9.82395076751709,-0.0,-0.0008249999955296516,0.002474999986588955
0.12495000660419464,0.27900001406669617,9.782999992370605,-0.0,-0.0019249999895691872,0.0004124999977648258
0.10095000267028809,0.2939999997615814,9.79995059967041,-0.0010999999940395355,0.0002749999985098839,0.0004124999977648258
0.14400000870227814,0.16200000047683716,9.793050765991211,-0.0,0.0002749999985098839,-0.002749999985098839
0.17205001413822174,0.13095000386238098,9.784950256347656,0.0010999999940395355,0.002337499987334013,-0.0006874999962747097
0.1579500138759613,0.14295001327991486,9.782999992370605,0.0010999999940395355,0.002337499987334013,-0.0006874999962747097
0.14805001020431519,0.18300001323223114,9.80505084991455,0.0010999999940395355,0.0002749999985098839,-0.0017874999903142452
0.13905000686645508,0.1789500117301941,9.795000076293945,0.002062499988824129,0.0013749999925494194,-0.0006874999962747097
0.17205001413822174,0.15900000929832458,9.795000076293945,-0.0010999999940395355,0.0002749999985098839,-0.0017874999903142452
0.18900001049041748,0.11400000751018524,9.781050682067871,-0.0,-0.0019249999895691872,0.0015124999918043613
0.17205001413822174,0.13305000960826874,9.784950256347656,-0.002062499988824129,0.0002749999985098839,0.0015124999918043613
0.1290000081062317,0.22200001776218414,9.781050682067871,-0.0010999999940395355,-0.0019249999895691872,0.0015124999918043613
0.07905000448226929,0.2650500237941742,9.793050765991211,0.0010999999940395355,-0.0008249999955296516,0.0004124999977648258
0.1080000028014183,0.24105000495910645,9.814050674438477,-0.0,0.0002749999985098839,-0.0006874999962747097
0.14400000870227814,0.16695000231266022,9.790050506591797,-0.0,0.0002749999985098839,-0.0038499999791383743
0.18405000865459442,0.09000000357627869,9.782999992370605,0.002062499988824129,0.0013749999925494194,-0.0017874999903142452
0.17205001413822174,0.1189500093460083,9.793050765991211,-0.0,-0.0008249999955296516,-0.0017874999903142452
0.15300001204013824,0.15900000929832458,9.802050590515137,0.0010999999940395355,-0.0008249999955296516,0.0004124999977648258
0.1290000081062317,0.19095000624656677,9.784950256347656,0.002062499988824129,0.0013749999925494194,0.0004124999977648258
0.14805001020431519,0.23400001227855682,9.782999992370605,0.0010999999940395355,0.0002749999985098839,-0.0006874999962747097
0.16305001080036163,0.22395001351833344,9.80505084991455,-0.0,0.0002749999985098839,0.0004124999977648258
0.1870500147342682,0.2070000171661377,9.790050506591797,-0.0,-0.0008249999955296516,-0.0017874999903142452
0.1770000010728836,0.21900001168251038,9.796950340270996,-0.0,0.0013749999925494194,-0.0017874999903142452
0.18405000865459442,0.22395001351833344,9.81195068359375,-0.0,-0.0008249999955296516,-0.0006874999962747097
0.16995000839233398,0.23805001378059387,9.808950424194336,-0.0,-0.0008249999955296516,0.0015124999918043613
0.1680000126361847,0.22200001776218414,9.796950340270996,-0.002062499988824129,-0.0008249999955296516,-0.0006874999962747097
0.13905000686645508,0.17100000381469727,9.78795051574707,-0.0,-0.0008249999955296516,-0.0017874999903142452
0.14595000445842743,0.16695000231266022,9.78795051574707,-0.0010999999940395355,0.0013749999925494194,0.0004124999977648258
0.1360500007867813,0.1860000044107437,9.790050506591797,-0.0010999999940395355,0.0002749999985098839,-0.0006874999962747097
0.12195000797510147,0.16905000805854797,9.781050682067871,-0.0,0.0012374999932944775,-0.0006874999962747097
0.1290000081062317,0.0970500037074089,9.802050590515137,0.0010999999940395355,0.002337499987334013,-0.0017874999903142452
0.14805001020431519,0.046950001269578934,9.81705093383789,-0.0010999999940395355,-0.0019249999895691872,-0.0006874999962747097
0.15600000321865082,0.08505000174045563,9.795000076293945,-0.0031624999828636646,-0.005087499972432852,0.0015124999918043613
0.16500000655651093,0.1380000114440918,9.778050422668457,-0.0010999999940395355,-0.003987499978393316,0.0035749999806284904
0.1579500138759613,0.15000000596046448,9.77595043182373,-0.0010999999940395355,-0.0008249999955296516,0.0057749999687075615
0.14400000870227814,0.17100000381469727,9.77595043182373,0.002062499988824129,0.0002749999985098839,0.002474999986588955
0.14805001020431519,0.22200001776218414,9.79995059967041,0.002062499988824129,0.0002749999985098839,0.004674999974668026
0.15600000321865082,0.24105000495910645,9.79995059967041,0.002062499988824129,-0.0019249999895691872,0.0035749999806284904
0.1579500138759613,0.29100000858306885,9.795000076293945,0.0010999999940395355,-0.0008249999955296516,0.002474999986588955
0.15105000138282776,0.30105000734329224,9.814050674438477,-0.0,-0.0008249999955296516,0.0004124999977648258
0.17205001413822174,0.28395000100135803,9.793050765991211,-0.0,0.0002749999985098839,0.0004124999977648258
0.19395001232624054,0.2580000162124634,9.796950340270996,-0.0010999999940395355,0.0012374999932944775,-0.0006874999962747097
0.17205001413822174,0.2070000171661377,9.796950340270996,-0.0010999999940395355,0.0012374999932944775,-0.002749999985098839
0.17205001413822174,0.19305001199245453,9.790050506591797,-0.0,0.0034374999813735485,-0.002749999985098839
0.14400000870227814,0.1399500072002411,9.793050765991211,-0.0,-0.0008249999955296516,-0.0017874999903142452
0.1360500007867813,0.11205000430345535,9.781050682067871,-0.002199999988079071,-0.0008249999955296516,-0.0006874999962747097
0.1360500007867813,0.11595000326633453,9.790050506591797,-0.0,-0.0019249999895691872,0.0004124999977648258
0.11295000463724136,0.13305000960826874,9.795000076293945,-0.002199999988079071,0.0002749999985098839,0.0015124999918043613
0.09300000220537186,0.1399500072002411,9.790050506591797,-0.0,0.0002749999985098839,0.0004124999977648258
0.07905000448226929,0.11205000430345535,9.778050422668457,0.002062499988824129,0.0002749999985098839,-0.0006874999962747097
0.09600000083446503,0.09000000357627869,9.79995059967041,0.0010999999940395355,-0.0008249999955296516,-0.0017874999903142452
0.1579500138759613,0.10395000129938126,9.78795051574707,0.002062499988824129,-0.0008249999955296516,0.002474999986588955
0.1770000010728836,0.15900000929832458,9.795000076293945,0.0031624999828636646,0.0002749999985098839,0.0004124999977648258
0.18000000715255737,0.23805001378059387,9.795000076293945,0.002062499988824129,0.0002749999985098839,0.0004124999977648258
0.19200000166893005,0.3060000240802765,9.820950508117676,0.0010999999940395355,-0.0008249999955296516,0.0004124999977648258
0.17205001413822174,0.33195000886917114,9.808950424194336,-0.0,-0.0008249999955296516,0.0004124999977648258
0.20805001258850098,0.2939999997615814,9.802050590515137,-0.0,0.0002749999985098839,0.0004124999977648258
0.2659500241279602,0.22395001351833344,9.844950675964355,0.005362499970942736,0.031075000762939453,-0.002749999985098839
0.1290000081062317,0.10695000737905502,9.778050422668457,0.021312499418854713,0.3003000020980835,-0.07617499679327011
-0.016050001606345177,0.11595000326633453,9.651000022888184,-0.0042624999769032,-0.055137500166893005,-0.01979999989271164
0.30900001525878906,0.2550000250339508,10.039050102233887,-0.03189999982714653,-0.38499999046325684,0.010999999940395355
-0.0880500078201294,0.29805001616477966,9.61305046081543,0.025575000792741776,0.32903748750686646,-0.006049999967217445
-0.08295000344514847,0.16905000805854797,9.730050086975098,-0.005362499970942736,-0.03918749839067459,0.007837500423192978
0.15300001204013824,0.05895000323653221,9.898050308227539,-0.019112499430775642,-0.25946250557899475,0.004674999974668026
-0.022950001060962677,0.06105000153183937,9.670950889587402,0.0170499999076128,0.22591249644756317,-0.007012499962002039
0.034050002694129944,0.10905000567436218,9.718050003051758,-0.0031624999828636646,-0.06888750195503235,-0.002749999985098839
0.27105000615119934,0.17595000565052032,9.991050720214844,-0.0042624999769032,-0.0859375,-0.0038499999791383743
0.04305000230669975,0.23100000619888306,9.714000701904297,0.0085249999538064,0.06091250106692314,-0.007012499962002039
0.27105000615119934,0.1879500150680542,9.895950317382812,-0.007424999959766865,-0.13062499463558197,-0.002749999985098839
0.15300001204013824,0.23805001378059387,9.739950180053711,0.0085249999538064,0.08648750185966492,-0.006049999967217445
0.2989500164985657,0.23805001378059387,9.90000057220459,-0.010587500408291817,-0.09336250275373459,-0.0017874999903142452
0.14805001020431519,0.2460000067949295,9.742050170898438,0.0031624999828636646,0.03423750028014183,-0.00494999997317791
0.18405000865459442,0.20295001566410065,9.838050842285156,0.0010999999940395355,-0.006187499966472387,-0.002749999985098839
0.14595000445842743,0.2460000067949295,9.77595043182373,-0.0031624999828636646,-0.02956249937415123,-0.0006874999962747097
0.15300001204013824,0.24105000495910645,9.77595043182373,0.0010999999940395355,0.033275000751018524,-0.0017874999903142452
0.20400001108646393,0.15900000929832458,9.79995059967041,-0.0010999999940395355,0.0013749999925494194,-0.0017874999903142452
0.20100000500679016,0.06795000284910202,9.898050308227539,-0.0,-0.02956249937415123,-0.0006874999962747097
0.15600000321865082,-0.028950002044439316,9.829050064086914,-0.0,0.025849999859929085,0.004674999974668026
0.0499500036239624,0.0799500048160553,9.76395034790039,-0.0,0.027912499383091927,0.0057749999687075615
0.13905000686645508,0.1789500117301941,9.867000579833984,-0.0085249999538064,-0.04867500066757202,0.006737499963492155
0.024000000208616257,0.14295001327991486,9.735000610351562,-0.0,0.004537499975413084,0.002474999986588955
0.14595000445842743,0.11595000326633453,9.81705093383789,0.002062499988824129,0.010862499475479126,0.0057749999687075615
0.22005000710487366,0.07304999977350235,9.80505084991455,-0.0010999999940395355,-0.03698749840259552,0.004674999974668026
0.22005000710487366,0.1860000044107437,9.784950256347656,0.002062499988824129,0.007699999958276749,0.008937500417232513
0.20595000684261322,0.2580000162124634,9.76395034790039,0.0031624999828636646,0.008799999952316284,0.007837500423192978
0.1770000010728836,0.2959500253200531,9.78795051574707,0.0031624999828636646,0.002337499987334013,0.006737499963492155
0.14595000445842743,0.27000001072883606,9.80505084991455,0.0031624999828636646,0.002337499987334013,0.007837500423192978
0.12195000797510147,0.33195000886917114,9.808950424194336,0.0010999999940395355,0.0013749999925494194,0.006737499963492155
0.09795000404119492,0.41100001335144043,9.80505084991455,-0.0010999999940395355,-0.0019249999895691872,0.002474999986588955
0.10500000417232513,0.43695002794265747,9.796950340270996,-0.0010999999940395355,0.0013749999925494194,-0.00494999997317791
0.12495000660419464,0.2580000162124634,9.77400016784668,-0.0010999999940395355,0.0013749999925494194,-0.007012499962002039
0.1270500123500824,0.10395000129938126,9.80505084991455,-0.002062499988824129,0.0034374999813735485,-0.006049999967217445
0.1770000010728836,0.06405000388622284,9.78795051574707,-0.002062499988824129,0.002337499987334013,-0.002749999985098839
0.16305001080036163,0.013050000183284283,9.781050682067871,-0.002062499988824129,0.0002749999985098839,-0.00494999997317791
0.09795000404119492,-0.06195000186562538,9.781050682067871,-0.0,0.0013749999925494194,-0.0017874999903142452
0.08400000631809235,-0.07200000435113907,9.778050422668457,0.0010999999940395355,0.002337499987334013,0.0015124999918043613
0.09300000220537186,0.06599999964237213,9.808950424194336,0.002062499988824129,0.0002749999985098839,0.0035749999806284904
0.10095000267028809,0.19095000624656677,9.790050506591797,0.002062499988824129,-0.0019249999895691872,0.0015124999918043613
0.12000000476837158,0.24300001561641693,9.802050590515137,0.002062499988824129,-0.0028874999843537807,0.0004124999977648258
0.16305001080036163,0.21900001168251038,9.78795051574707,0.002062499988824129,-0.0008249999955296516,-0.0006874999962747097
0.16305001080036163,0.1879500150680542,9.77595043182373,0.0010999999940395355,0.0002749999985098839,-0.0006874999962747097
0.19200000166893005,0.24795001745224,9.808950424194336,0.0031624999828636646,0.0002749999985098839,0.0004124999977648258
0.20100000500679016,0.34095001220703125,9.802050590515137,0.0010999999940395355,0.0002749999985098839,-0.0006874999962747097
0.2659500241279602,0.33900001645088196,9.86205005645752,0.0042624999769032,0.025849999859929085,-0.0038499999791383743
0.17205001413822174,0.23595000803470612,9.832950592041016,0.021312499418854713,0.304562509059906,-0.010312499478459358
-0.022950001060962677,0.18105000257492065,9.541050910949707,-0.002062499988824129,0.0034374999813735485,0.0004124999977648258
0.4020000100135803,0.19095000624656677,10.05405044555664,-0.03506249934434891,-0.4487999975681305,0.013199999928474426
-0.004050000105053186,0.29805001616477966,9.61305046081543,0.028737500309944153,0.38128748536109924,-0.006049999967217445
-0.032999999821186066,0.27000001072883606,9.706050872802734,-0.0042624999769032,-0.01993750035762787,0.010999999940395355
0.010050000622868538,0.16905000805854797,9.781050682067871,-0.02241249941289425,-0.2615250051021576,0.0035749999806284904
0.022050000727176666,0.07095000147819519,9.742050170898438,0.018149999901652336,0.23759999871253967,-0.008112499490380287
0.028950002044439316,0.028050001710653305,9.714000701904297,-0.002062499988824129,-0.015675000846385956,-0.0017874999903142452
0.25905001163482666,0.037050001323223114,9.958050727844238,-0.01484999991953373,-0.20514999330043793,0.0015124999918043613
0.012000000104308128,0.0880500078201294,9.691950798034668,0.012787500396370888,0.16307500004768372,-0.00494999997317791
0.05505000427365303,0.1360500007867813,9.769050598144531,-0.006324999965727329,-0.0966624990105629,0.0015124999918043613
0.14400000870227814,0.1879500150680542,9.82395076751709,0.006324999965727329,0.0672374963760376,-0.0006874999962747097
0.1579500138759613,0.22605000436306,9.739950180053711,0.002062499988824129,-0.01993750035762787,-0.0017874999903142452
0.19200000166893005,0.14295001327991486,9.80505084991455,0.0010999999940395355,-0.015675000846385956,-0.07727500051259995
0.26295000314712524,0.07304999977350235,9.826050758361816,-0.0042624999769032,-0.035887498408555984,-0.017737500369548798
0.19905000925064087,0.27195000648498535,9.76395034790039,0.0010999999940395355,-0.011412499472498894,0.0035749999806284904
0.16005000472068787,0.286050021648407,9.771000862121582,0.002062499988824129,0.03423750028014183,0.0035749999806284904
0.18900001049041748,0.3079500198364258,9.784950256347656,-0.0,-0.005087499972432852,0.004674999974668026
0.1870500147342682,0.28200000524520874,9.81705093383789,-0.0010999999940395355,-0.011412499472498894,0.0057749999687075615
0.16305001080036163,0.15900000929832458,9.807000160217285,-0.002062499988824129,-0.005087499972432852,0.002474999986588955
0.10500000417232513,0.16695000231266022,9.771000862121582,-0.0,0.0013749999925494194,0.002474999986588955
0.09600000083446503,0.21495001018047333,9.769050598144531,-0.0010999999940395355,0.0013749999925494194,0.0015124999918043613
0.07905000448226929,0.1860000044107437,9.796950340270996,-0.0,0.0002749999985098839,-0.002749999985098839
0.1099500060081482,0.12105000764131546,9.793050765991211,-0.0,-0.0019249999895691872,-0.0017874999903142452
0.1270500123500824,0.07800000160932541,9.78795051574707,-0.0010999999940395355,0.0002749999985098839,-0.0006874999962747097
0.15105000138282776,0.10005000233650208,9.784950256347656,-0.0,0.002337499987334013,-0.0017874999903142452
0.1270500123500824,0.1279500126838684,9.796950340270996,0.0010999999940395355,0.0013749999925494194,0.0004124999977648258
0.10305000841617584,0.15900000929832458,9.814050674438477,0.002062499988824129,0.0002749999985098839,-0.0006874999962747097
0.11700000613927841,0.21705001592636108,9.795000076293945,0.0010999999940395355,0.0013749999925494194,-0.0006874999962747097
0.15300001204013824,0.21900001168251038,9.781050682067871,0.0010999999940395355,0.0002749999985098839,-0.0017874999903142452
0.20805001258850098,0.21495001018047333,9.819000244140625,0.002062499988824129,0.0002749999985098839,-0.0017874999903142452
0.20805001258850098,0.2670000195503235,9.778050422668457,0.002062499988824129,0.0002749999985098839,-0.0017874999903142452
0.19200000166893005,0.30300000309944153,9.79995059967041,-0.0,0.0002749999985098839,-0.0017874999903142452
0.16500000655651093,0.24300001561641693,9.782999992370605,-0.0,0.0013749999925494194,-0.0038499999791383743
0.18405000865459442,0.1860000044107437,9.790050506591797,-0.0,0.0013749999925494194,-0.002749999985098839
0.18900001049041748,0.14295001327991486,9.814050674438477,-0.0,-0.0008249999955296516,0.0004124999977648258
0.18900001049041748,0.13305000960826874,9.790050506591797,-0.0010999999940395355,0.0013749999925494194,0.0015124999918043613
0.14400000870227814,0.17595000565052032,9.782999992370605,-0.0010999999940395355,-0.0008249999955296516,-0.0006874999962747097
0.11700000613927841,0.21195000410079956,9.790050506591797,0.0010999999940395355,0.0013749999925494194,0.0015124999918043613
0.1579500138759613,0.18105000257492065,9.832950592041016,-0.0010999999940395355,0.006599999964237213,-0.0006874999962747097
0.025950001552700996,0.10695000737905502,9.534000396728516,0.04358749836683273,0.593037486076355,-0.01347499992698431
0.16995000839233398,0.032999999821186066,9.934050559997559,-0.03726249933242798,-0.48510000109672546,0.007837500423192978
0.32295000553131104,0.09000000357627869,10.008000373840332,-0.007424999959766865,-0.0859375,0.002474999986588955
0.016950000077486038,0.21705001592636108,9.711000442504883,0.005362499970942736,0.06297499686479568,0.0015124999918043613
0.21105000376701355,0.22605000436306,9.922050476074219,-0.012787500396370888,-0.16472500562667847,0.0035749999806284904
0.025950001552700996,0.23595000803470612,9.711000442504883,0.009624999947845936,0.10986249893903732,-0.0017874999903142452
0.28005000948905945,0.18300001323223114,9.891000747680664,-0.0085249999538064,-0.12113749980926514,0.007837500423192978
0.11505000293254852,0.1570500135421753,9.726000785827637,0.005362499970942736,0.059812501072883606,-0.002749999985098839
0.2350500077009201,0.1980000138282776,9.871950149536133,-0.002062499988824129,-0.03272499889135361,0.0015124999918043613
0.1579500138759613,0.27900001406669617,9.78795051574707,-0.0010999999940395355,-0.030662499368190765,0.0015124999918043613
0.12000000476837158,0.2959500253200531,9.76200008392334,0.0042624999769032,0.040699999779462814,-0.0006874999962747097
0.17505000531673431,0.25005000829696655,9.78795051574707,0.0010999999940395355,0.0013749999925494194,-0.002749999985098839
0.21300001442432404,0.18105000257492065,9.807000160217285,-0.0010999999940395355,-0.011412499472498894,-0.0017874999903142452
0.19905000925064087,0.11205000430345535,9.79995059967041,-0.0,0.0002749999985098839,-0.0006874999962747097
0.13395000994205475,0.07605000585317612,9.81705093383789,0.010587500408291817,0.15565000474452972,-0.0017874999903142452
0.034050002694129944,0.07800000160932541,9.678000450134277,-0.0010999999940395355,0.00976249948143959,0.002474999986588955
0.32295000553131104,0.15495000779628754,10.015050888061523,-0.019112499430775642,-0.24351249635219574,0.00989999994635582
-0.028050001710653305,0.1980000138282776,9.675000190734863,0.013887500390410423,0.17902499437332153,-0.0017874999903142452
0.022050000727176666,0.21195000410079956,9.739950180053711,-0.009624999947845936,-0.13488750159740448,0.013199999928474426
0.05700000375509262,0.17400000989437103,9.745050430297852,0.010587500408291817,0.1289750039577484,-0.0038499999791383743
0.04800000041723251,0.13305000960826874,9.754050254821777,-0.0042624999769032,-0.06146249920129776,0.0004124999977648258
0.14805001020431519,0.14505000412464142,9.814050674438477,0.0042624999769032,0.042762499302625656,-0.0017874999903142452
0.11505000293254852,0.23100000619888306,9.766050338745117,-0.0031624999828636646,-0.04977500066161156,0.0004124999977648258
0.11505000293254852,0.18300001323223114,9.76200008392334,0.006324999965727329,0.06517499685287476,-0.0017874999903142452
0.226950004696846,0.18105000257492065,9.844950675964355,-0.0042624999769032,-0.06888750195503235,0.0004124999977648258
0.1579500138759613,0.22605000436306,9.738000869750977,0.0031624999828636646,0.020487500354647636,0.0004124999977648258
0.1579500138759613,0.21195000410079956,9.766050338745117,0.0042624999769032,0.02681249938905239,-0.0006874999962747097
0.17205001413822174,0.21900001168251038,9.820950508117676,0.002062499988824129,-0.0008249999955296516,-0.0006874999962747097
0.14400000870227814,0.23595000803470612,9.81705093383789,0.0010999999940395355,0.0002749999985098839,0.0004124999977648258
0.13905000686645508,0.2740500271320343,9.808950424194336,-0.0,0.0012374999932944775,-0.0017874999903142452
0.15600000321865082,0.22200001776218414,9.784950256347656,0.0010999999940395355,0.0012374999932944775,-0.0017874999903142452
0.1680000126361847,0.1860000044107437,9.796950340270996,-0.0,0.0012374999932944775,-0.0017874999903142452
0.18405000865459442,0.1399500072002411,9.782999992370605,0.0010999999940395355,0.0012374999932944775,-0.002749999985098839
0.15600000321865082,0.10200000554323196,9.79995059967041,-0.0010999999940395355,0.0002749999985098839,-0.0017874999903142452
0.15300001204013824,0.1380000114440918,9.77400016784668,-0.0010999999940395355,-0.0008249999955296516,-0.0006874999962747097
0.13905000686645508,0.18300001323223114,9.796950340270996,0.0010999999940395355,0.0002749999985098839,0.0015124999918043613
0.13905000686645508,0.1399500072002411,9.802050590515137,-0.0,0.0012374999932944775,-0.0006874999962747097
0.1290000081062317,0.16695000231266022,9.793050765991211,-0.0,-0.0008249999955296516,0.0004124999977648258
0.13199999928474426,0.1980000138282776,9.79995059967041,-0.0,0.0002749999985098839,0.0015124999918043613
0.12495000660419464,0.23595000803470612,9.79995059967041,0.002062499988824129,0.0002749999985098839,-0.0017874999903142452
0.14100000262260437,0.19305001199245453,9.79995059967041,0.0010999999940395355,0.002337499987334013,-0.002749999985098839
0.17205001413822174,0.14505000412464142,9.781050682067871,0.0010999999940395355,-0.023099999874830246,-0.0017874999903142452
0.20595000684261322,0.10905000567436218,9.81705093383789,0.002062499988824129,0.014024999924004078,-0.0006874999962747097
0.19395001232624054,0.16200000047683716,9.771000862121582,0.0010999999940395355,0.025849999859929085,0.008937500417232513
0.2370000183582306,0.1879500150680542,9.826050758361816,-0.0042624999769032,-0.013612499460577965,0.0035749999806284904
0.18900001049041748,0.21195000410079956,9.83595085144043,-0.0042624999769032,-0.01993750035762787,0.0035749999806284904
0.16305001080036163,0.23805001378059387,9.802050590515137,-0.0010999999940395355,-0.007149999961256981,0.00989999994635582
0.13905000686645508,0.17400000989437103,9.790050506591797,-0.0010999999940395355,-0.0008249999955296516,0.004674999974668026
0.15300001204013824,0.15000000596046448,9.808950424194336,0.0010999999940395355,0.0002749999985098839,0.0035749999806284904
0.15600000321865082,0.1860000044107437,9.781050682067871,-0.0,-0.0008249999955296516,0.004674999974668026
0.1080000028014183,0.22605000436306,9.802050590515137,-0.0010999999940395355,0.0002749999985098839,0.0015124999918043613
0.11295000463724136,0.2530499994754791,9.80505084991455,-0.0010999999940395355,-0.0008249999955296516,0.0015124999918043613
0.12495000660419464,0.22605000436306,9.778050422668457,-0.0010999999940395355,0.0013749999925494194,0.0004124999977648258
0.15105000138282776,0.1570500135421753,9.793050765991211,0.0010999999940395355,0.0002749999985098839,-0.0006874999962747097
0.14400000870227814,0.16200000047683716,9.793050765991211,-0.0,0.0002749999985098839,-0.0006874999962747097
0.14595000445842743,0.20295001566410065,9.78795051574707,-0.0,0.0013749999925494194,-0.0017874999903142452
0.1360500007867813,0.24795001745224,9.808950424194336,-0.0010999999940395355,-0.0008249999955296516,-0.002749999985098839
0.13199999928474426,0.21900001168251038,9.790050506591797,0.0010999999940395355,0.0013749999925494194,-0.002749999985098839
0.16995000839233398,0.15495000779628754,9.793050765991211,-0.0,0.0002749999985098839,-0.0038499999791383743
0.1770000010728836,0.1189500093460083,9.790050506591797,-0.0010999999940395355,0.0013749999925494194,-0.002749999985098839
0.16995000839233398,0.1279500126838684,9.782999992370605,-0.0,0.0013749999925494194,-0.0017874999903142452
0.14100000262260437,0.14295001327991486,9.793050765991211,-0.0010999999940395355,0.0013749999925494194,-0.0006874999962747097
0.12195000797510147,0.1570500135421753,9.81705093383789,-0.0,0.0002749999985098839,-0.0006874999962747097
0.1290000081062317,0.16905000805854797,9.782999992370605,0.0010999999940395355,0.0002749999985098839,0.0004124999977648258
0.18195000290870667,0.1469999998807907,9.79995059967041,0.0010999999940395355,0.013062499463558197,-0.0006874999962747097
0.18405000865459442,0.09000000357627869,9.81705093383789,-0.0010999999940395355,-0.026399999856948853,0.002474999986588955
0.16005000472068787,0.15195000171661377,9.807000160217285,-0.0010999999940395355,-0.010449999943375587,0.0035749999806284904
0.1270500123500824,0.2580000162124634,9.814050674438477,-0.0,-0.006187499966472387,0.0015124999918043613
0.09300000220537186,0.3079500198364258,9.795000076293945,0.002062499988824129,0.002337499987334013,0.006737499963492155
0.11505000293254852,0.24795001745224,9.78795051574707,0.0031624999828636646,0.0034374999813735485,-0.0017874999903142452
0.14805001020431519,0.1570500135421753,9.829050064086914,0.002062499988824129,0.0012374999932944775,-0.0038499999791383743
0.1579500138759613,0.15195000171661377,9.784950256347656,-0.0,-0.0008249999955296516,-0.00494999997317791
0.16500000655651093,0.1980000138282776,9.796950340270996,-0.0,0.0012374999932944775,-0.002749999985098839
0.14805001020431519,0.24105000495910645,9.781050682067871,0.0010999999940395355,0.002337499987334013,-0.0038499999791383743
0.17205001413822174,0.22200001776218414,9.793050765991211,0.0010999999940395355,0.002337499987334013,-0.002749999985098839
0.18000000715255737,0.21495001018047333,9.814050674438477,0.002062499988824129,0.002337499987334013,-0.00494999997317791
0.20100000500679016,0.21495001018047333,9.78795051574707,0.0010999999940395355,0.002337499987334013,-0.002749999985098839
0.18000000715255737,0.16905000805854797,9.808950424194336,-0.0,0.0002749999985098839,-0.0038499999791383743
0.15300001204013824,0.2070000171661377,9.796950340270996,-0.0010999999940395355,-0.0008249999955296516,-0.002749999985098839
0.11700000613927841,0.2050500065088272,9.796950340270996,-0.0,0.0012374999932944775,-0.002749999985098839
0.16005000472068787,0.15900000929832458,9.78795051574707,-0.0,0.002337499987334013,-0.0038499999791383743
0.15600000321865082,0.15495000779628754,9.78795051574707,-0.002199999988079071,-0.0008249999955296516,-0.0017874999903142452
0.1870500147342682,0.14295001327991486,9.795000076293945,-0.0010999999940395355,0.0002749999985098839,-0.0017874999903142452
0.15300001204013824,0.1380000114440918,9.77595043182373,-0.0,0.0012374999932944775,-0.0017874999903142452
0.11295000463724136,0.14505000412464142,9.790050506591797,-0.0,0.0002749999985098839,-0.0006874999962747097
0.10095000267028809,0.18105000257492065,9.78795051574707,0.0010999999940395355,0.0012374999932944775,-0.0006874999962747097
0.08100000023841858,0.15900000929832458,9.747000694274902,0.0010999999940395355,0.002337499987334013,-0.0017874999903142452
0.19200000166893005,0.1469999998807907,9.82395076751709,0.0031624999828636646,-0.007149999961256981,-0.030524998903274536
0.1270500123500824,0.09195000678300858,9.82395076751709,0.0010999999940395355,0.02474999986588955,-0.037950001657009125
0.16995000839233398,0.10905000567436218,9.733050346374512,0.002062499988824129,0.020487500354647636,0.0015124999918043613
0.2179500162601471,0.0880500078201294,9.784950256347656,-0.0010999999940395355,0.004537499975413084,0.002474999986588955
0.1770000010728836,0.10200000554323196,9.76395034790039,-0.002199999988079071,-0.005087499972432852,0.004674999974668026
0.17205001413822174,0.17400000989437103,9.78795051574707,-0.002199999988079071,-0.0019249999895691872,0.007837500423192978
0.15300001204013824,0.1980000138282776,9.795000076293945,0.002062499988824129,0.0002749999985098839,0.013199999928474426
0.14595000445842743,0.21705001592636108,9.79995059967041,0.002062499988824129,0.0002749999985098839,0.007837500423192978
0.1579500138759613,0.23595000803470612,9.78795051574707,0.0010999999940395355,-0.0019249999895691872,0.006737499963492155
0.14595000445842743,0.2740500271320343,9.820950508117676,0.0010999999940395355,-0.0019249999895691872,0.0057749999687075615
0.13905000686645508,0.2550000250339508,9.802050590515137,-0.0010999999940395355,-0.0019249999895691872,0.0035749999806284904
0.13395000994205475,0.22605000436306,9.79995059967041,-0.0,0.0002749999985098839,0.0057749999687075615
0.1680000126361847,0.17100000381469727,9.796950340270996,-0.0,-0.0008249999955296516,0.004674999974668026
0.1770000010728836,0.1279500126838684,9.778050422668457,0.0010999999940395355,0.0013749999925494194,0.0057749999687075615
0.17205001413822174,0.1399500072002411,9.782999992370605,0.002062499988824129,0.0013749999925494194,0.0057749999687075615
0.11295000463724136,0.29100000858306885,9.807000160217285,0.0010999999940395355,0.0013749999925494194,0.004674999974668026
0.05295000225305557,0.3940500319004059,9.808950424194336,-0.0,0.0013749999925494194,0.0004124999977648258
0.024000000208616257,0.31005001068115234,9.78795051574707,-0.0010999999940395355,0.0013749999925494194,-0.006049999967217445
0.12195000797510147,0.1380000114440918,9.793050765991211,-0.0010999999940395355,0.0013749999925494194,-0.006049999967217445
0.18000000715255737,0.04005000367760658,9.781050682067871,-0.0010999999940395355,0.0013749999925494194,-0.002749999985098839
0.20100000500679016,0.07800000160932541,9.790050506591797,0.0010999999940395355,0.0013749999925494194,-0.0017874999903142452
0.15600000321865082,0.10695000737905502,9.79995059967041,-0.0,0.0013749999925494194,-0.0017874999903142452
0.14805001020431519,0.1360500007867813,9.796950340270996,-0.0,-0.0008249999955296516,-0.0017874999903142452
0.17205001413822174,0.15900000929832458,9.802050590515137,0.0010999999940395355,0.0013749999925494194,0.0015124999918043613
0.16305001080036163,0.2070000171661377,9.784950256347656,0.0010999999940395355,-0.0019249999895691872,0.0015124999918043613
0.1579500138759613,0.24105000495910645,9.807000160217285,0.0010999999940395355,-0.0019249999895691872,0.0015124999918043613
0.13199999928474426,0.2939999997615814,9.802050590515137,-0.0,-0.0019249999895691872,-0.0017874999903142452
0.283050000667572,0.2939999997615814,9.958050727844238,0.006324999965727329,0.03959999978542328,-0.00494999997317791
-0.4350000321865082,0.20295001566410065,8.824950218200684,0.03932499885559082,0.4877125024795532,-0.03258749842643738
0.24705001711845398,0.07800000160932541,9.838050842285156,-0.02447500079870224,-0.2870999872684479,0.0057749999687075615
0.44805002212524414,0.13095000386238098,10.080000877380371,-0.011687500402331352,-0.14657500386238098,0.0015124999918043613
0.07695000618696213,0.1469999998807907,9.709050178527832,0.0042624999769032,0.07369999587535858,-0.002749999985098839
0.28995001316070557,0.1570500135421753,9.951000213623047,-0.011687500402331352,-0.1434125006198883,0.0035749999806284904
0.012000000104308128,0.24105000495910645,9.691950798034668,0.0042624999769032,0.057750001549720764,0.0057749999687075615
0.22305001318454742,0.24105000495910645,9.907950401306152,-0.0042624999769032,-0.05719999969005585,0.0035749999806284904
0.07695000618696213,0.21705001592636108,9.781050682067871,-0.0010999999940395355,-0.010449999943375587,-0.0006874999962747097
0.09300000220537186,0.16905000805854797,9.77400016784668,0.002062499988824129,0.04702499881386757,-0.0038499999791383743
0.19395001232624054,0.1860000044107437,9.867000579833984,-0.005362499970942736,-0.04441250115633011,-0.0006874999962747097
0.18000000715255737,0.21705001592636108,9.81705093383789,-0.0031624999828636646,-0.025299999862909317,-0.002749999985098839
0.18000000715255737,0.22200001776218414,9.793050765991211,0.0010999999940395355,-0.005087499972432852,-0.002749999985098839
0.18900001049041748,0.1879500150680542,9.79995059967041,-0.002199999988079071,-0.003987499978393316,-0.002749999985098839
0.19395001232624054,0.15900000929832458,9.782999992370605,-0.0010999999940395355,0.0012374999932944775,-0.0017874999903142452
0.22995001077651978,0.12105000764131546,9.843000411987305,-0.0,-0.005087499972432852,-0.04647500067949295
0.05295000225305557,-0.028950002044439316,9.76200008392334,-0.005362499970942736,-0.0028874999843537807,-0.09226249903440475
0.21495001018047333,0.17400000989437103,9.766050338745117,-0.0,-0.0008249999955296516,0.014162499457597733
0.14400000870227814,0.24795001745224,9.80505084991455,0.0010999999940395355,0.0012374999932944775,0.0035749999806284904
0.11295000463724136,0.22905001044273376,9.782999992370605,-0.0010999999940395355,-0.0019249999895691872,0.002474999986588955
0.07905000448226929,0.26205000281333923,9.79995059967041,0.0010999999940395355,0.0002749999985098839,0.0004124999977648258
0.1270500123500824,0.27195000648498535,9.76200008392334,0.002062499988824129,-0.0008249999955296516,0.0057749999687075615
0.1270500123500824,0.19095000624656677,9.808950424194336,0.0010999999940395355,0.0002749999985098839,-0.002749999985098839
0.12195000797510147,0.1399500072002411,9.807000160217285,0.0010999999940395355,0.002337499987334013,-0.0038499999791383743
0.13395000994205475,0.17400000989437103,9.802050590515137,-0.0010999999940395355,-0.0008249999955296516,-0.002749999985098839
0.1680000126361847,0.22605000436306,9.790050506591797,-0.0010999999940395355,-0.0008249999955296516,-0.0017874999903142452
0.18195000290870667,0.17400000989437103,9.790050506591797,-0.0,0.0012374999932944775,-0.0017874999903142452
0.2370000183582306,0.12405000627040863,9.769050598144531,0.002062499988824129,0.0002749999985098839,-0.0017874999903142452
0.18000000715255737,0.10905000567436218,9.802050590515137,0.002062499988824129,0.0012374999932944775,0.0015124999918043613
0.13905000686645508,0.16200000047683716,9.795000076293945,0.0010999999940395355,-0.0008249999955296516,0.002474999986588955
0.09795000404119492,0.20295001566410065,9.795000076293945,-0.0010999999940395355,-0.0008249999955296516,0.002474999986588955
0.09105000644922256,0.22905001044273376,9.793050765991211,-0.0010999999940395355,-0.0008249999955296516,-0.0006874999962747097
0.1270500123500824,0.20295001566410065,9.80505084991455,-0.0,-0.0008249999955296516,-0.0006874999962747097
0.15105000138282776,0.17100000381469727,9.790050506591797,-0.0010999999940395355,0.0012374999932944775,-0.0006874999962747097
0.1770000010728836,0.19095000624656677,9.793050765991211,-0.0,-0.0008249999955296516,-0.0017874999903142452
0.15105000138282776,0.22905001044273376,9.795000076293945,-0.0010999999940395355,0.0012374999932944775,-0.0017874999903142452
0.1680000126361847,0.1879500150680542,9.77595043182373,0.0010999999940395355,0.0012374999932944775,-0.0038499999791383743
0.14595000445842743,0.14505000412464142,9.795000076293945,-0.0,0.0002749999985098839,-0.002749999985098839
0.13395000994205475,0.15000000596046448,9.80505084991455,0.005362499970942736,0.013062499463558197,-0.0017874999903142452
0.1290000081062317,0.1360500007867813,9.802050590515137,-0.002199999988079071,0.005499999970197678,0.0015124999918043613
