accX,accY,accZ,gyroX,gyroY,gyroZ
0.03184288367629051,0.13250470161437988,9.549742698669434,-0.004049163777381182,0.0008726646192371845,-0.0017104226863011718
0.020887015387415886,0.12297577410936356,9.542713165283203,-0.00019198621157556772,0.00022689280740451068,0.00019198621157556772
0.03796246275305748,0.12343546003103256,9.539859771728516,0.0005934119690209627,0.00029670598451048136,-8.726646046852693e-05
0.025416845455765724,0.12351207435131073,9.546027183532715,0.0005410520825535059,0.0013613568153232336,-6.981316983001307e-05
0.03156515583395958,0.10734643042087555,9.544925689697266,0.0005061454721726477,0.00045378561480902135,-5.2359879191499203e-05
0.03902548551559448,0.12294704467058182,9.547568321228027,0.00027925267932005227,0.00040142572834156454,6.981316983001307e-05
0.036602552980184555,0.13385502994060516,9.55463695526123,0.00040142572834156454,-0.00024434609804302454,-5.2359879191499203e-05
0.030894778668880463,0.11459606885910034,9.559060096740723,0.00029670598451048136,0.0006632251315750182,-3.490658491500653e-05
0.03718674182891846,0.13406571745872498,9.560018539428711,0.0016929693520069122,-3.490658491500653e-05,0.00013962633966002613
0.0340072400867939,0.12845370173454285,9.548057556152344,0.0006457717972807586,0.00024434609804302454,-0.0004886921960860491
0.03016694076359272,0.14057794213294983,9.549454689025879,0.0003490658418741077,-0.00027925267932005227,-5.2359879191499203e-05
0.04301901534199715,0.13304099440574646,9.554224967956543,-5.2359879191499203e-05,-0.0005934119690209627,-0.0008028514566831291
0.03667916730046272,0.13253343105316162,9.57622241973877,0.0010821041651070118,-0.002007128670811653,-5.2359879191499203e-05
0.020111294463276863,0.13270580768585205,9.552347183227539,-0.00029670598451048136,0.003036872949451208,-0.00022689280740451068
0.04116111248731613,0.12767799198627472,9.558083534240723,-0.00013962633966002613,0.002321287989616394,-5.2359879191499203e-05
0.02511996403336525,0.1370536834001541,9.556436538696289,0.00094247778179124,0.00017453292093705386,-0.00019198621157556772
0.0215669684112072,0.1356937736272812,9.57307243347168,-0.0007330382941290736,0.00015707963029854,-6.981316983001307e-05
0.052356403321027756,0.1298614889383316,9.559473037719727,1.7453292457503267e-05,0.00012217304902151227,-5.2359879191499203e-05
0.03632482886314392,0.135195791721344,9.573273658752441,1.7453292457503267e-05,-0.0003316125657875091,0.0003316125657875091
0.03950433060526848,0.1326770782470703,9.573426246643066,-6.981316983001307e-05,0.0005061454721726477,0.00012217304902151227
0.031239543110132217,0.12572431564331055,9.56912612915039,0.00010471975838299841,0.00019198621157556772,-0.0012217304902151227
0.01613691821694374,0.14415010809898376,9.58804988861084,0.00022689280740451068,-0.00015707963029854,0.00029670598451048136
0.03953305631875992,0.11549629271030426,9.5780611038208,-0.00047123889089562,-0.00020943951676599681,-1.7453292457503267e-05
0.039657559245824814,0.1296316534280777,9.576970100402832,0.0002617993741296232,0.0006632251315750182,-0.0003316125657875091
0.027715278789401054,0.1252550631761551,9.576031684875488,0.0006457717972807586,0.0005585053586401045,-0.00019198621157556772
0.049914319068193436,0.12851117551326752,9.57245922088623,0.00019198621157556772,0.0007504915702156723,-0.00022689280740451068
0.02720770798623562,0.1282142996788025,9.569931030273438,-0.00015707963029854,-0.00019198621157556772,-0.00029670598451048136
0.03378697484731674,0.1290091723203659,9.50142765045166,0.0006108652451075613,0.004450589418411255,-1.7453292457503267e-05
0.027265168726444244,0.13825078308582306,9.6404447555542,0.00062831852119416,0.009564404375851154,-0.00022689280740451068
0.047951072454452515,0.1173158809542656,9.57894229888916,-0.00094247778179124,-0.011309733614325523,-5.2359879191499203e-05
0.03699520602822304,0.13053187727928162,9.578051567077637,0.0006457717972807586,0.0007330382941290736,-0.0003665191470645368
0.022898145020008087,0.140779048204422,9.567258834838867,-0.0005934119690209627,-6.981316983001307e-05,-3.490658491500653e-05
0.031909920275211334,0.12874101102352142,9.573732376098633,8.726646046852693e-05,1.7453292457503267e-05,-0.0008028514566831291
0.0433637797832489,0.12987108528614044,9.593576431274414,6.981316983001307e-05,-0.00031415926059708,-0.00012217304902151227
0.02656606212258339,0.14079821109771729,9.584660530090332,0.00031415926059708,0.0005759586347267032,-0.00043633230961859226
0.0505942702293396,0.11616666615009308,9.58476448059082,0.001483529806137085,-0.00041887903353199363,-5.2359879191499203e-05
0.033356018364429474,0.13199713826179504,9.58604907989502,-0.0005759586347267032,-3.490658491500653e-05,-8.726646046852693e-05
0.03604710102081299,0.13432429730892181,9.593805313110352,0.0003490658418741077,-0.00020943951676599681,-5.2359879191499203e-05
0.02376963384449482,0.14709018170833588,9.581116676330566,-0.00015707963029854,0.0005759586347267032,-5.2359879191499203e-05
0.03897760435938835,0.14147816598415375,9.586200714111328,0.0005235987482592463,0.00047123889089562,-5.2359879191499203e-05
0.019938912242650986,0.14092271029949188,9.58031177520752,-0.0008726646192371845,-0.0002617993741296232,0.0
0.042501870542764664,0.12136687338352203,9.576308250427246,-0.0013613568153232336,-0.00022689280740451068,0.0005061454721726477
0.03549164533615112,0.11973881721496582,9.581681251525879,0.002024581888690591,0.00017453292093705386,-8.726646046852693e-05
0.018655620515346527,0.13637372851371765,9.587905883789062,1.7453292457503267e-05,0.0004886921960860491,-5.2359879191499203e-05
0.028941109776496887,0.11937489360570908,9.569260597229004,3.490658491500653e-05,0.0003316125657875091,-5.2359879191499203e-05
0.03138319402933121,0.14679329097270966,9.563629150390625,0.0009075712296180427,0.0006806784076616168,-0.0004886921960860491
0.0322355292737484,0.144533172249794,9.587141036987305,-0.0010471974965184927,0.00010471975838299841,0.0
0.028299463912844658,0.12446018308401108,9.58827018737793,-0.003089232835918665,-0.00024434609804302454,-0.00024434609804302454
0.043114785104990005,0.14679329097270966,9.595280647277832,-0.00045378561480902135,0.00020943951676599681,0.00024434609804302454
0.041812337934970856,0.11886732280254364,9.601131439208984,-0.0004886921960860491,-0.0007679448463022709,-0.00029670598451048136
0.0380294993519783,0.1267586201429367,9.582955360412598,0.0003490658418741077,-0.00010471975838299841,-8.726646046852693e-05
0.0347159244120121,0.13456369936466217,9.601007461547852,0.0,0.0012740903766825795,-5.2359879191499203e-05
0.024861391633749008,0.13791558146476746,9.57497787475586,1.7453292457503267e-05,0.002007128670811653,-6.981316983001307e-05
0.04547068104147911,0.1336156129837036,9.588615417480469,0.0007679448463022709,-5.2359879191499203e-05,-5.2359879191499203e-05
0.03521391749382019,0.1431349515914917,9.601112365722656,0.00022689280740451068,0.00029670598451048136,0.0
0.047146622091531754,0.13716861605644226,9.594074249267578,0.00019198621157556772,-0.00047123889089562,0.00024434609804302454
0.03301125392317772,0.13526281714439392,9.588547706604004,-0.00043633230961859226,0.0006981316837482154,0.00022689280740451068
0.04008851200342178,0.11547713726758957,9.587340354919434,-0.00040142572834156454,-0.0007853981805965304,0.0006981316837482154
0.03421793133020401,0.13405613601207733,9.589983940124512,-0.0019373154500499368,0.0009075712296180427,-5.2359879191499203e-05
0.06032430753111839,0.12574347853660583,9.672574996948242,0.0015533430268988013,0.008272860199213028,-5.2359879191499203e-05
0.038115691393613815,0.12457510083913803,9.58342456817627,-0.001029744278639555,-0.004433136433362961,-6.981316983001307e-05
0.031028853729367256,0.12682566046714783,9.565688133239746,-0.00031415926059708,-0.003926991019397974,-0.00040142572834156454
0.04776911064982414,0.13230359554290771,9.600298881530762,3.490658491500653e-05,0.0010122909443452954,0.00010471975838299841
0.03585556522011757,0.11914505064487457,9.601083755493164,0.0,-0.00027925267932005227,-8.726646046852693e-05
0.0392170213162899,0.12125195562839508,9.595911979675293,0.0009773843921720982,-0.00043633230961859226,-3.490658491500653e-05
0.05346731096506119,0.11567824333906174,9.588336944580078,-0.0005410520825535059,0.0005934119690209627,-0.00022689280740451068
0.037263356149196625,0.1233396902680397,9.588251113891602,-0.0005585053586401045,-0.00015707963029854,0.0008203047327697277
0.031143775209784508,0.13561715185642242,9.590693473815918,0.00031415926059708,0.00020943951676599681,0.00038397242315113544
0.02516784891486168,0.12049538642168045,9.582734107971191,-0.00015707963029854,-0.0006806784076616168,0.00022689280740451068
0.038661569356918335,0.1338646113872528,9.580034255981445,-0.0010646508308127522,8.726646046852693e-05,-0.00019198621157556772
0.03395935893058777,0.12109872698783875,9.592263221740723,0.00045378561480902135,-0.00020943951676599681,-0.0004886921960860491
0.041084498167037964,0.1255040466785431,9.596525192260742,-3.490658491500653e-05,0.0012217304902151227,-0.0008028514566831291
0.04805641621351242,0.13756124675273895,9.601112365722656,-0.0003316125657875091,-0.0002617993741296232,-0.0004886921960860491
0.03687070310115814,0.10880210250616074,9.590118408203125,0.00038397242315113544,-0.00043633230961859226,-0.0003665191470645368
0.019632453098893166,0.1377815306186676,9.592914581298828,-0.0006632251315750182,-5.2359879191499203e-05,-5.2359879191499203e-05
0.047884032130241394,0.13116393983364105,9.584708213806152,0.00022689280740451068,0.00031415926059708,0.00010471975838299841
0.04723281040787697,0.11998781561851501,9.597579002380371,0.00012217304902151227,-0.0002617993741296232,0.00043633230961859226
0.02687252126634121,0.13670893013477325,9.602022171020508,0.00019198621157556772,0.001117010717280209,-5.2359879191499203e-05
0.047970227897167206,0.13227485120296478,9.590578079223633,0.0005759586347267032,0.0008552113431505859,-5.2359879191499203e-05
0.04034708812832832,0.11503660678863525,9.59399700164795,0.0016755161341279745,0.00043633230961859226,-0.0005410520825535059
0.028902802616357803,0.1290283203125,9.590980529785156,-0.00047123889089562,-0.00013962633966002613,-0.00094247778179124
0.04639962688088417,0.12777376174926758,9.589936256408691,-0.002460914198309183,0.0004886921960860491,0.0006806784076616168
0.02971683070063591,0.12825259566307068,9.604120254516602,-0.0017104226863011718,-0.000715585018042475,-0.00024434609804302454
0.04401500150561333,0.1286931335926056,9.578913688659668,-5.2359879191499203e-05,0.00047123889089562,0.0003316125657875091
0.03841257095336914,0.11863747984170914,9.58653736114502,-0.0015358896926045418,-0.0003490658418741077,0.0
0.03189076483249664,0.12744814157485962,9.603717803955078,-0.0008726646192371845,-0.00027925267932005227,0.00029670598451048136
0.03794331103563309,0.11560162901878357,9.581442832946777,-0.0008552113431505859,8.726646046852693e-05,-0.0003665191470645368
0.043402086943387985,0.13298353552818298,9.587839126586914,0.00027925267932005227,0.0010122909443452954,0.00045378561480902135
0.024018630385398865,0.12898044288158417,9.602128028869629,-0.0002617993741296232,0.0006108652451075613,-0.00017453292093705386
0.03905421867966652,0.11274775117635727,9.600298881530762,6.981316983001307e-05,-0.00017453292093705386,0.0003665191470645368
0.04577713832259178,0.13870090246200562,9.589179992675781,-0.0016929693520069122,-0.0003316125657875091,-5.2359879191499203e-05
0.03118208236992359,0.11988247185945511,9.59231185913086,0.00031415926059708,-0.00062831852119416,0.00017453292093705386
0.03699520602822304,0.13964900374412537,9.59023380279541,-0.00010471975838299841,-0.0002617993741296232,0.0
0.04651454836130142,0.13716861605644226,9.613897323608398,0.0006457717972807586,0.0005235987482592463,-0.00045378561480902135
0.02782062254846096,0.11849382519721985,9.587101936340332,-0.0002617993741296232,0.00029670598451048136,-0.0007679448463022709
0.0329442135989666,0.12260227650403976,9.585694313049316,0.003909537568688393,0.013665927574038506,1.7453292457503267e-05
0.04053862392902374,0.11755530536174774,9.582955360412598,-0.00022689280740451068,0.007278022821992636,-0.00017453292093705386
0.050536807626485825,0.1097310483455658,9.594897270202637,-0.00012217304902151227,-0.00031415926059708,0.0
0.03580768033862114,0.1405492126941681,9.60019302368164,3.490658491500653e-05,0.00019198621157556772,0.0
0.03539587929844856,0.11306378245353699,9.605325698852539,8.726646046852693e-05,-0.0011519172694534063,-0.00015707963029854
0.046744391322135925,0.1396968811750412,9.603765487670898,0.0015707963611930609,-0.0013613568153232336,-0.00031415926059708
0.038326382637023926,0.1276109516620636,9.603104591369629,0.0005934119690209627,-0.0008028514566831291,0.00043633230961859226
0.036602552980184555,0.1554315835237503,9.603545188903809,0.0005759586347267032,0.0009773843921720982,-6.981316983001307e-05
0.03675578162074089,0.12636595964431763,9.598584175109863,-0.0005759586347267032,0.0006806784076616168,-0.00043633230961859226
0.04272213205695152,0.13385502994060516,9.598584175109863,0.00027925267932005227,-0.00062831852119416,-1.7453292457503267e-05
0.03559699282050133,0.12246821075677872,9.594467163085938,-5.2359879191499203e-05,-0.0010821041651070118,-0.00017453292093705386
0.03384443745017052,0.13407529890537262,9.590185165405273,-0.00027925267932005227,-0.00047123889089562,0.00024434609804302454
0.01708502322435379,0.1470327079296112,9.596257209777832,-0.0002617993741296232,-0.00024434609804302454,0.0
0.03528095781803131,0.12332054227590561,9.592120170593262,0.0004886921960860491,-0.0006806784076616168,0.00029670598451048136
0.03241749107837677,0.14067372679710388,9.596850395202637,-0.00040142572834156454,-0.0006108652451075613,-0.00029670598451048136
0.038948871195316315,0.10554599016904831,9.610546112060547,-0.00019198621157556772,-0.00040142572834156454,-6.981316983001307e-05
0.01973779872059822,0.13490848243236542,9.6043119430542,-3.490658491500653e-05,-0.0013613568153232336,0.0
0.009844956919550896,0.12079226970672607,9.56698989868164,0.0026179938577115536,0.0011519172694534063,8.726646046852693e-05
0.04732858017086983,0.12912409007549286,9.613016128540039,0.0,0.00022689280740451068,0.0
0.03812526538968086,0.13735057413578033,9.598623275756836,-0.0023038345389068127,-0.00062831852119416,-0.00017453292093705386
0.04101746529340744,0.12919111549854279,9.577630996704102,0.0,-0.0008377580670639873,0.00015707963029854
0.043679818511009216,0.1297561526298523,9.599493980407715,-0.00040142572834156454,-0.00045378561480902135,5.2359879191499203e-05
0.030846895650029182,0.13475525379180908,9.6045503616333,-0.00010471975838299841,0.0006457717972807586,0.0
0.05002924054861069,0.12758222222328186,9.594657897949219,0.00040142572834156454,-0.00017453292093705386,0.00029670598451048136
0.04133350029587746,0.12870271503925323,9.592925071716309,0.0003490658418741077,-0.00038397242315113544,-0.00013962633966002613
0.04317224398255348,0.11850340664386749,9.591172218322754,0.00040142572834156454,-0.00062831852119416,6.981316983001307e-05
0.04066311940550804,0.10766246169805527,9.606274604797363,0.0009948377264663577,5.2359879191499203e-05,-0.00017453292093705386
0.040960002690553665,0.11242213100194931,9.604378700256348,-0.00010471975838299841,-0.0011519172694534063,-0.00015707963029854
0.05073792114853859,0.14472469687461853,9.59937858581543,-0.00010471975838299841,-0.0005235987482592463,-0.0007853981805965304
0.0368419773876667,0.1388445496559143,9.60450267791748,-0.00015707963029854,-0.00027925267932005227,0.0
0.01829170063138008,0.14256034791469574,9.597081184387207,-0.00024434609804302454,-0.0005061454721726477,0.0
0.027667393907904625,0.13326126337051392,9.585244178771973,0.0,0.00010471975838299841,0.0
0.04276043921709061,0.13572250306606293,9.60165786743164,0.0007679448463022709,0.00015707963029854,0.0008028514566831291
0.023233333602547646,0.13295480608940125,9.59948444366455,0.0007853981805965304,-0.0011868239380419254,-0.00027925267932005227
0.010151415131986141,0.13113521039485931,9.590367317199707,0.0006457717972807586,0.00031415926059708,0.0
0.024861391633749008,0.13275370001792908,9.588414192199707,0.0,-0.0006457717972807586,0.00029670598451048136
0.04056735336780548,0.13291651010513306,9.595911979675293,-0.0007679448463022709,-0.000715585018042475,0.0
0.03578852862119675,0.12695014476776123,9.602951049804688,-0.0008377580670639873,-0.0003490658418741077,-0.00019198621157556772
0.04421611875295639,0.11876197904348373,9.599790573120117,0.0005410520825535059,-0.00010471975838299841,0.00043633230961859226
0.02981259860098362,0.14064498245716095,9.582399368286133,0.00022689280740451068,-0.0010646508308127522,-6.981316983001307e-05
0.048659756779670715,0.13795390725135803,9.605029106140137,-6.981316983001307e-05,8.726646046852693e-05,-0.00031415926059708
0.03284844756126404,0.14367124438285828,9.59846019744873,0.00022689280740451068,8.726646046852693e-05,-0.00017453292093705386
0.034725502133369446,0.13004346191883087,9.57671070098877,-0.0005235987482592463,0.00010471975838299841,0.00043633230961859226
0.043900080025196075,0.12538912892341614,9.593010902404785,0.0,-0.003089232835918665,-6.981316983001307e-05
0.05297889560461044,0.14841178059577942,9.604665756225586,-6.981316983001307e-05,0.0,0.0
0.035625722259283066,0.1023569107055664,9.587428092956543,-8.726646046852693e-05,0.000715585018042475,-0.00015707963029854
0.044302307069301605,0.13645035028457642,9.60964584350586,-0.00027925267932005227,0.0013089969288557768,-0.0003316125657875091
0.03923618048429489,0.12627018988132477,9.602971076965332,-0.0005235987482592463,0.0008726646192371845,0.00029670598451048136
0.04921520873904228,0.11151233315467834,9.59448528289795,-0.00010471975838299841,0.0009250245057046413,-0.00027925267932005227
0.04472368583083153,0.12544658780097961,9.587379455566406,-3.490658491500653e-05,-0.00045378561480902135,-0.0005061454721726477
0.03933194652199745,0.13075213134288788,9.598422050476074,0.00020943951676599681,-6.981316983001307e-05,0.0
0.03146938607096672,0.13487015664577484,9.584564208984375,-0.0005585053586401045,-0.0009948377264663577,0.0
0.04593036696314812,0.1300913393497467,9.59213924407959,0.00010471975838299841,-0.001117010717280209,-0.00013962633966002613
0.04263594374060631,0.11443326622247696,9.59840202331543,0.0003490658418741077,5.2359879191499203e-05,-0.00017453292093705386
0.03421793133020401,0.14404475688934326,9.588509559631348,5.2359879191499203e-05,0.00020943951676599681,0.0
0.022716186940670013,0.12267889082431793,9.583491325378418,0.0005410520825535059,-0.00031415926059708,1.7453292457503267e-05
0.049540821462869644,0.12446975708007812,9.587599754333496,0.00045378561480902135,0.0,-0.00043633230961859226
0.042837053537368774,0.12744814157485962,9.588404655456543,-0.0005934119690209627,0.0008726646192371845,0.00012217304902151227
0.03828807547688484,0.11697111278772354,9.597234725952148,0.00047123889089562,-0.00041887903353199363,0.00013962633966002613
0.01670195162296295,0.12826217710971832,9.585148811340332,0.0003490658418741077,0.00015707963029854,-0.00017453292093705386
0.0319865345954895,0.12283211946487427,9.579948425292969,-0.00040142572834156454,-0.0002617993741296232,0.0006108652451075613
0.03203441947698593,0.11342769861221313,9.597234725952148,0.0002617993741296232,-0.00031415926059708,-0.00045378561480902135
0.032474953681230545,0.138988196849823,9.586661338806152,-0.0007504915702156723,-0.00010471975838299841,0.0
0.05139872431755066,0.12011231482028961,9.582169532775879,0.00020943951676599681,-0.0006632251315750182,0.00029670598451048136
0.04172614589333534,0.1304648369550705,9.598105430603027,-0.00012217304902151227,-0.00045378561480902135,0.00029670598451048136
0.0387381836771965,0.11205822229385376,9.593039512634277,-0.000715585018042475,-0.0006457717972807586,-1.7453292457503267e-05
0.03530968725681305,0.10765288770198822,9.604339599609375,-0.0028972465079277754,-0.00010471975838299841,0.00015707963029854
0.020053833723068237,0.1504516303539276,9.583893775939941,8.726646046852693e-05,0.010629055090248585,0.00029670598451048136
