accX,accY,accZ,gyroX,gyroY,gyroZ
3.2979750633239746,5.450312614440918,7.524198055267334,-0.5568665862083435,1.0840388536453247,0.25912538170814514
3.063218116760254,4.487329959869385,8.017666816711426,-1.1843068599700928,1.073386311531067,0.2793653905391693
2.833252191543579,4.420256614685059,8.329078674316406,-1.1427615880966187,1.0968220233917236,0.23675484955310822
2.536212921142578,4.367556095123291,8.28596019744873,-0.9914941191673279,1.0116009712219238,0.37204334139823914
2.6320321559906006,3.998652458190918,7.797282695770264,-0.9691236019134521,1.152215838432312,0.416784405708313
2.243964433670044,4.080098628997803,8.640491485595703,-0.9776456952095032,1.3727253675460815,0.34221595525741577
1.0845528841018677,3.6441216468811035,10.125687599182129,-0.9211867451667786,1.1341062784194946,0.48922231793403625
1.0462253093719482,3.1219074726104736,9.761574745178223,-0.8082687854766846,0.7026745080947876,0.7310371994972229
1.6642587184906006,2.930269241333008,8.923157691955566,-0.7528750896453857,0.8155924677848816,0.7661908864974976
1.8702698945999146,2.7961223125457764,8.83212947845459,-0.7091992497444153,1.2374368906021118,0.6532729268074036
1.6738406419754028,2.5278286933898926,9.96279525756836,-0.6655234694480896,1.260872721672058,0.500940203666687
1.645094871520996,2.5613653659820557,11.275517463684082,-0.4972118139266968,0.8070703744888306,0.3219759464263916
1.8031964302062988,2.259535074234009,11.131789207458496,-0.25433170795440674,0.1700427085161209,0.14620743691921234
1.6163491010665894,2.3505632877349854,10.135270118713379,-0.048735812306404114,-0.06751108169555664,0.005592633970081806
1.7936145067214966,2.7050940990448,9.349553108215332,-0.028495801612734795,0.118910051882267,-0.009321057237684727
1.1420444250106812,3.026088237762451,9.028558731079102,-0.18935060501098633,0.45553335547447205,0.0822916179895401
1.4342927932739258,3.3758280277252197,9.469326972961426,-0.43329599499702454,0.7420892715454102,0.25912538170814514
1.1755810976028442,2.7146761417388916,9.723247528076172,-0.6229129433631897,0.6888260841369629,0.24847275018692017
0.9168694019317627,2.326608419418335,10.571247100830078,-0.5898897647857666,0.5343628525733948,0.20266640186309814
1.5061571598052979,2.7242579460144043,11.069506645202637,-0.2788327634334564,0.34794172644615173,0.12064110487699509
1.4390836954116821,1.9145861864089966,10.178388595581055,-0.03488738462328911,0.5098618268966675,-0.12756532430648804
1.405547022819519,1.4690271615982056,10.686229705810547,0.14727269113063812,0.8241145610809326,-0.33955278992652893
0.8258412480354309,1.191151738166809,11.026388168334961,0.4530033767223358,0.8677904009819031,-0.5643234252929688
-0.007785305380821228,1.4594453573226929,10.863494873046875,0.7629950642585754,0.5322323441505432,-0.6591318845748901
-0.9659767150878906,1.8570947647094727,9.795111656188965,0.8407593369483948,0.12423637509346008,-0.5057339072227478
-0.812666118144989,2.551783561706543,9.157914161682129,0.6671213507652283,-0.06325002759695053,-0.17976324260234833
-0.07485870271921158,2.7194669246673584,9.023767471313477,0.47111284732818604,-0.13781848549842834,-0.007190529722720385
0.6389939188957214,2.9015233516693115,8.947112083435059,0.10466215014457703,-0.5074649453163147,0.013049479573965073
0.7970954775810242,2.9398510456085205,9.004603385925293,0.08868319541215897,-0.36258912086486816,-0.060453712940216064
0.5192199945449829,3.035670280456543,9.359134674072266,0.21118851006031036,-0.15273217856884003,-0.06684529036283493
0.35153648257255554,3.2320995330810547,9.435790061950684,0.34328120946884155,-0.20812588930130005,-0.027430538088083267
0.38986414670944214,3.404573917388916,9.387880325317383,0.37630438804626465,-0.27843329310417175,-0.0050600022077560425
0.46651944518089294,3.5818393230438232,9.268106460571289,0.36671701073646545,-0.37856805324554443,0.032224226742982864
0.4617284834384918,3.5051839351654053,9.21540641784668,0.34434646368026733,-0.43502703309059143,0.03968106955289841
0.9791518449783325,3.4189467430114746,8.38656997680664,0.40080544352531433,-0.30186909437179565,-0.015712639316916466
0.8641688823699951,3.6153759956359863,8.65965461730957,0.28682222962379456,-0.06644582003355026,0.02583264373242855
1.3576374053955078,3.0069243907928467,8.084739685058594,-0.21598219871520996,-0.7269092798233032,0.14620743691921234
1.985252857208252,3.4141557216644287,8.257214546203613,-0.30972540378570557,-0.163384810090065,0.04394212365150452
1.5876034498214722,3.4908111095428467,9.574728012084961,-0.270310640335083,0.031558435410261154,-0.01784316636621952
0.8114683628082275,3.222517490386963,9.910094261169434,0.008788425475358963,-0.4733765423297882,0.017310533672571182
1.3863831758499146,3.4956021308898926,10.092150688171387,0.2324937880039215,-0.7514103651046753,0.09933583438396454
1.85110604763031,3.5291388034820557,9.536399841308594,0.44767704606056213,-0.6619281768798828,0.08442214131355286
2.1098177433013916,3.256054162979126,8.918366432189941,0.6000097393989563,-0.3466101586818695,0.0684431865811348
2.138563394546509,3.1650259494781494,8.793801307678223,0.7225150465965271,-0.07816372066736221,-0.019973693415522575
1.9038065671920776,3.481229305267334,8.697982788085938,0.7597993016242981,0.02197106182575226,-0.1296958476305008
1.7744507789611816,3.8740875720977783,8.525507926940918,0.6820350289344788,0.09334372729063034,-0.1478053331375122
1.4630385637283325,4.214245796203613,8.750682830810547,0.5488771200180054,0.06138581782579422,-0.06151897460222244
1.5157390832901,4.314855575561523,8.798592567443848,0.3986749053001404,-0.20919114351272583,0.04394212365150452
1.8558969497680664,4.00823450088501,8.353034019470215,0.18881797790527344,-0.5010733604431152,-0.002929474925622344
2.1768910884857178,4.0944719314575195,8.468016624450684,0.06311687082052231,-0.5554018020629883,-0.12543480098247528
2.0092077255249023,4.142381191253662,9.028558731079102,0.10998847335577011,-0.45313653349876404,-0.13608743250370026
2.028371572494507,4.142381191253662,8.290751457214355,0.16964323818683624,-0.5042691826820374,-0.1201084777712822
2.24875545501709,4.357974529266357,7.735000133514404,0.08122635632753372,-0.2635195851325989,-0.10626004636287689
2.0331623554229736,4.357974529266357,8.18535041809082,-0.002929474925622344,0.014514217153191566,-0.07110634446144104
1.875060796737671,4.075307846069336,8.76984691619873,-0.0007989477599039674,-0.025965800508856773,-0.06684529036283493
1.7648688554763794,4.142381191253662,9.100422859191895,0.05139897018671036,-0.28908592462539673,-0.10732531547546387
1.8990156650543213,4.38192892074585,8.76984691619873,0.09933583438396454,-0.560728132724762,-0.08921582996845245
2.6655688285827637,4.353183269500732,8.142231941223145,0.1994706094264984,-0.4414186179637909,-0.019973693415522575
2.646404981613159,4.017816543579102,8.257214546203613,0.2836264371871948,-0.06964161247015,-0.18935060501098633
2.3062469959259033,4.209454536437988,8.343451499938965,0.3177148699760437,0.018775271251797676,-0.38962018489837646
2.0427443981170654,4.482539176940918,8.376988410949707,0.3454117476940155,-0.07709845900535583,-0.34807488322257996
1.6355129480361938,4.952053070068359,8.630908966064453,0.33369383215904236,-0.13675321638584137,-0.09454214572906494
1.740913987159729,4.923307418823242,9.090841293334961,0.2996053993701935,-0.23795326054096222,-0.024234747514128685
1.9900437593460083,4.578358173370361,8.674027442932129,0.26764747500419617,-0.4914860129356384,-0.010386320762336254
2.497885227203369,4.453793525695801,8.118276596069336,0.28256118297576904,-0.46165862679481506,-0.07004108279943466
2.7518060207366943,4.286109924316406,8.218887329101562,0.33795487880706787,-0.3199785649776459,-0.22024326026439667
2.727851152420044,4.290900707244873,8.228468894958496,0.3507380485534668,-0.3082606792449951,-0.31505173444747925
2.426020860671997,4.966425895690918,8.257214546203613,0.3028011918067932,-0.37217649817466736,-0.36192330718040466
2.45955753326416,5.114945411682129,8.051203727722168,0.15472954511642456,-0.33489224314689636,-0.2191779911518097
2.497885227203369,4.928098201751709,8.041621208190918,0.09614004194736481,-0.30613014101982117,-0.15526217222213745
2.622450113296509,4.6885504722595215,8.463225364685059,0.06205160543322563,-0.31145647168159485,-0.11265163123607635
2.88116192817688,4.707714080810547,8.276378631591797,0.10466215014457703,-0.3519364893436432,-0.14674006402492523
2.9721899032592773,4.793951511383057,8.060785293579102,0.12703268229961395,-0.285890132188797,-0.15100112557411194
2.9242804050445557,4.952053070068359,7.86435604095459,0.1675127148628235,-0.07709845900535583,-0.15419691801071167
2.4883034229278564,5.344911575317383,7.787700653076172,0.07163897901773453,-0.04194475710391998,-0.02210422046482563
2.5266308784484863,5.263465404510498,7.59127140045166,-0.11797794699668884,-0.05153212696313858,0.03435475379228592
2.541003942489624,4.985589504241943,8.420106887817383,-0.2277000993490219,-0.19321219623088837,-0.03914843872189522
2.5937044620513916,5.014335632324219,8.38656997680664,-0.15632744133472443,-0.38602492213249207,-0.07856319099664688
2.7182693481445312,5.124527454376221,7.596062660217285,-0.03488738462328911,-0.33489224314689636,-0.0636495053768158
3.1494553089141846,5.253883361816406,7.212785720825195,0.0354200154542923,0.0294279083609581,-0.04340949282050133
2.914698600769043,5.229928493499756,7.414006233215332,0.013049479573965073,0.2456764280796051,-0.024234747514128685
2.387693166732788,5.277838230133057,7.696672439575195,-0.09773793816566467,0.3159838318824768,0.024767380207777023
2.421229839324951,4.985589504241943,7.993711948394775,-0.1531316488981247,0.1934785097837448,0.12383689731359482
2.6032862663269043,4.880188465118408,8.204513549804688,-0.12863057851791382,0.13382373750209808,0.12170637398958206
2.545794725418091,4.6502227783203125,8.650073051452637,0.007723161485046148,-0.09520793706178665,0.04500738903880119
2.7134783267974854,4.59273099899292,8.62132740020752,0.12170637398958206,-0.1442100703716278,-0.06151897460222244
2.7038965225219727,4.755623817443848,8.367406845092773,0.17283903062343597,-0.25925853848457336,-0.16484954953193665
2.651195764541626,5.2059736251831055,7.830819129943848,0.08335687965154648,-0.2006690353155136,-0.15952323377132416
2.6320321559906006,5.182018756866455,8.127859115600586,0.02157158963382244,-0.16551533341407776,-0.10306425392627716
2.6368229389190674,4.961635112762451,8.429689407348633,0.040746334940195084,-0.2613890767097473,-0.12863057851791382
2.6607778072357178,5.225137710571289,7.998502731323242,0.09294424951076508,-0.31252172589302063,-0.14141374826431274
2.804506540298462,5.526968002319336,7.7637457847595215,0.11424952745437622,-0.17936377227306366,-0.05832318589091301
2.8619980812072754,5.258674144744873,7.749372959136963,0.13129374384880066,-0.0504668653011322,0.026897907257080078
2.7805516719818115,5.138900279998779,7.960175037384033,0.031158961355686188,-0.16125428676605225,-0.0018642114009708166
2.914698600769043,5.16285514831543,7.639181137084961,0.05779055133461952,-0.15699322521686554,-0.029561065137386322
2.905116558074951,5.148482322692871,7.672717571258545,-0.02210422046482563,-0.2773680090904236,-0.04554001986980438
2.9242804050445557,5.033499240875244,7.897892951965332,-0.05299686640501022,-0.38815543055534363,-0.07004108279943466
2.9578170776367188,5.071826934814453,8.501553535461426,-0.11584742367267609,-0.6715155839920044,-0.11158636957406998
2.9242804050445557,5.0191264152526855,8.650073051452637,-0.11584742367267609,-0.925048291683197,-0.12330426275730133
3.4033761024475098,5.2443013191223145,7.687090873718262,-0.08921582996845245,-1.2275831699371338,-0.09028109163045883
3.7052063941955566,5.5030131340026855,5.219747543334961,-0.03808317333459854,-0.6992124319076538,-0.04234423115849495
3.6812517642974854,5.292211055755615,7.011565685272217,-0.14247901737689972,0.4917523264884949,0.04287686198949814
3.106336832046509,5.776097774505615,7.720627307891846,-0.22450430691242218,0.4342280924320221,0.18029586970806122
3.6285510063171387,5.320956707000732,6.661825656890869,-0.3235738277435303,0.7016092538833618,0.3890875577926636
3.432121992111206,4.563985347747803,7.849983215332031,-0.3970770239830017,1.1213231086730957,0.3549990952014923
2.7470149993896484,4.290900707244873,9.699292182922363,-0.30546435713768005,0.6078660488128662,0.21225377917289734
2.8284614086151123,4.6118950843811035,9.52681827545166,-0.11691268533468246,-0.37217649817466736,0.0684431865811348
3.321929931640625,4.496912002563477,8.702773094177246,0.1483379602432251,-0.5703155398368835,-0.003994738683104515
3.321929931640625,4.875397682189941,7.86435604095459,0.2186453640460968,-0.4030691385269165,-0.11478215456008911
3.0105175971984863,5.177227973937988,8.041621208190918,0.171773761510849,-0.2677806615829468,-0.03275685757398605
3.6045963764190674,5.067036151885986,6.934910297393799,0.1771000772714615,-0.19427745044231415,0.07163897901773453
2.991353750228882,5.220346450805664,7.816446304321289,0.06311687082052231,0.2968090772628784,0.056725289672613144
3.0823819637298584,5.378448009490967,7.663136005401611,-0.008255792781710625,0.2041311413049698,0.105727419257164
3.250065565109253,4.769996643066406,7.327768802642822,-0.07430213689804077,0.13062795996665955,0.14514216780662537
3.1590373516082764,4.774787425994873,7.476288318634033,-0.01784316636621952,0.29467856884002686,0.0684431865811348
2.5266308784484863,5.311374664306641,7.931429386138916,-0.05938844755291939,0.25313326716423035,0.1153147891163826
2.497885227203369,5.196392059326172,7.897892951965332,-0.07536740601062775,0.1093226820230484,0.303866446018219
3.1925740242004395,4.7604146003723145,8.889620780944824,0.15366427600383759,-1.0283788442611694,-0.025300011038780212
3.211737871170044,5.1293182373046875,7.140921592712402,0.14940322935581207,-1.192429542541504,0.10466215014457703
4.256166458129883,4.496912002563477,7.140921592712402,0.029028434306383133,-1.0347704887390137,0.105727419257164
4.874199867248535,4.367556095123291,6.963655948638916,-0.0007989477599039674,-0.9111998677253723,0.015180006623268127
4.864617824554443,5.608414173126221,7.624808311462402,-0.34807488322257996,-0.8771114349365234,-0.15100112557411194
4.907736778259277,5.416775703430176,7.70146369934082,-0.32996541261672974,-1.0518146753311157,-0.016777902841567993
5.209567070007324,4.736459732055664,7.409214973449707,-0.138217955827713,-0.9889641404151917,0.024767380207777023
5.468278408050537,4.506494045257568,7.179249286651611,0.027963170781731606,-0.7546061277389526,-0.060453712940216064
4.716098308563232,4.746041774749756,7.6918816566467285,0.08335687965154648,-0.819587230682373,-0.05193160101771355
5.635962009429932,5.785679340362549,4.9083356857299805,0.15686006844043732,-0.7791072130203247,0.060986343771219254
6.282741546630859,4.477748394012451,4.582550525665283,0.056725289672613144,0.5173186659812927,-0.040213704109191895
5.386832237243652,5.56050443649292,7.476288318634033,-0.08282424509525299,0.7367629408836365,-0.05086633935570717
5.343713760375977,5.07661771774292,7.346932888031006,0.03435475379228592,0.38096490502357483,0.13768532872200012
5.655126094818115,4.70292329788208,6.4989333152771,0.024767380207777023,0.3351585865020752,0.16112112998962402
5.82280969619751,4.746041774749756,6.072537899017334,-0.1339569091796875,0.7325019240379333,0.09294424951076508
5.219149112701416,4.51607608795166,7.4667067527771,-0.251135915517807,1.0456894636154175,0.019441060721874237
5.070629119873047,4.482539176940918,8.707564353942871,-0.15845796465873718,0.8528767228126526,0.001331579522229731
4.634652137756348,4.61668586730957,7.476288318634033,0.15686006844043732,0.5066660046577454,0.036485280841588974
5.238312721252441,5.598832130432129,5.775498867034912,0.10359688848257065,0.8102661371231079,0.17923060059547424
5.482651710510254,4.59273099899292,4.855635166168213,-0.15526217222213745,1.7690033912658691,0.31558436155319214
4.069319248199463,4.38192892074585,6.379159450531006,-0.06471476703882217,3.1826083660125732,0.18349166214466095
2.469139575958252,4.846652030944824,9.435790061950684,-0.2894853949546814,2.6691513061523438,0.2761695981025696
1.7265411615371704,4.640640735626221,9.220196723937988,-0.6527402997016907,1.204413652420044,0.5669865608215332
3.6093873977661133,3.404573917388916,7.519407272338867,-0.8167908787727356,0.30426591634750366,0.7864308953285217
4.289703369140625,3.739940881729126,9.708874702453613,-0.827443540096283,0.19773955643177032,0.6554034352302551
3.7004153728485107,2.3170266151428223,8.903993606567383,-0.44714441895484924,-0.14101427793502808,0.09614004194736481
3.9447543621063232,3.289590835571289,7.49066162109375,-0.15419691801071167,0.24035011231899261,-0.3789675533771515
3.796234607696533,5.306583881378174,7.610435485839844,-0.4269044101238251,0.8496809005737305,-0.40453386306762695
2.0810720920562744,5.402402877807617,8.113486289978027,-0.6783066391944885,0.9466199278831482,0.12277163565158844
2.2200098037719727,5.086199760437012,8.032039642333984,-0.7241129875183105,1.0627336502075195,0.4125233590602875
3.0775909423828125,4.602313041687012,7.931429386138916,-0.5675191879272461,1.5644727945327759,0.772582471370697
3.1973650455474854,3.8309690952301025,7.8404011726379395,-0.2191779911518097,2.597778558731079,0.8769782781600952
2.770969867706299,2.259535074234009,9.25373363494873,-0.04660528525710106,3.214566230773926,0.4636560082435608
1.7840327024459839,2.618856906890869,10.020286560058594,0.3262369930744171,2.6957828998565674,-0.24154852330684662
0.9360332489013672,3.8357601165771484,9.814275741577148,0.48389601707458496,1.8755297660827637,-0.35766226053237915
0.4186098873615265,4.38192892074585,9.79990291595459,0.3262369930744171,1.260872721672058,-0.337422251701355
0.3802822232246399,3.5435116291046143,9.483699798583984,0.04394212365150452,0.035819489508867264,-0.10519478470087051
0.23176254332065582,3.6393308639526367,9.517236709594727,0.1430116444826126,-0.08029424399137497,-0.07004108279943466
0.33237263560295105,3.8740875720977783,9.086050033569336,0.1430116444826126,-0.13142690062522888,0.023702116683125496
0.5000561475753784,3.88366961479187,8.89441204071045,0.10785794258117676,-0.11970899999141693,0.06418213248252869
0.8162593245506287,3.7591047286987305,9.071677207946777,0.06950845569372177,0.018775271251797676,0.10040109604597092
0.9072874784469604,3.668076515197754,9.25373363494873,0.08442214131355286,0.04860265180468559,0.08655267208814621
0.7396039962768555,3.7159860134124756,9.3687162399292,0.09614004194736481,-0.07922898232936859,0.02263685315847397
0.7779316306114197,3.893251419067383,9.229779243469238,-0.05299686640501022,0.1615206003189087,-0.08282424509525299
0.9647789597511292,3.969906806945801,9.435790061950684,0.019441060721874237,-0.03448791056871414,-0.07430213689804077
0.45214658975601196,3.2656362056732178,9.751993179321289,0.237820103764534,-0.45313653349876404,-0.110521100461483
0.6629486680030823,4.2765278816223145,10.135270118713379,0.5904223918914795,-0.7918903827667236,-0.040213704109191895
0.9647789597511292,4.142381191253662,9.186659812927246,0.6660560965538025,-0.9431577920913696,0.04394212365150452
1.2570273876190186,4.060935020446777,8.812965393066406,0.680969774723053,-0.9048082828521729,0.03968106955289841
1.5253210067749023,4.367556095123291,8.453643798828125,0.6703171730041504,-0.7482145428657532,0.015180006623268127
2.2535464763641357,4.477748394012451,8.147022247314453,0.4263717830181122,-0.8962861895561218,-0.14460954070091248
2.387693166732788,4.640640735626221,7.921847343444824,0.3922833502292633,-0.7588672041893005,-0.1957421898841858
2.167309284210205,4.659804821014404,7.174458026885986,0.3826959729194641,-0.5021386742591858,-0.17443692684173584
1.9325523376464844,5.062244892120361,7.188831329345703,0.2996053993701935,-0.01850895583629608,-0.06897582113742828
2.0762810707092285,4.918516159057617,8.161395072937012,0.27723485231399536,0.20945745706558228,0.05779055133461952
2.1960549354553223,4.444211483001709,8.712355613708496,0.4764391779899597,-0.09946899116039276,-0.003994738683104515
2.2727103233337402,4.803533554077148,8.108695030212402,0.35819488763809204,-0.21451745927333832,-0.04767054691910744
2.4403936862945557,4.971216678619385,7.984129905700684,0.11744531989097595,-0.32637014985084534,-0.05938844755291939
2.5841224193573,4.899352550506592,8.223677635192871,-0.1009337306022644,-0.43822282552719116,-0.1201084777712822
2.4930942058563232,5.0957818031311035,8.616536140441895,-0.2234390527009964,-0.6395576596260071,-0.20532956719398499
2.3445746898651123,5.16285514831543,8.846502304077148,-0.22663484513759613,-0.8632630109786987,-0.1627190262079239
2.4835124015808105,5.148482322692871,7.869146823883057,-0.18189376592636108,-0.8962861895561218,-0.0966726765036583
2.723060131072998,5.297001838684082,7.596062660217285,-0.21704746782779694,-0.5628587007522583,-0.011451584286987782
2.766178846359253,4.995171546936035,8.4009428024292,-0.1339569091796875,-0.3274354040622711,0.052464235574007034
2.9961447715759277,4.789160251617432,8.28596019744873,0.06950845569372177,-0.29228171706199646,0.029028434306383133
2.9338624477386475,4.961635112762451,7.696672439575195,0.10466215014457703,-0.17510271072387695,-0.00612526573240757
2.7470149993896484,5.148482322692871,7.557734966278076,-0.10839057713747025,-0.2986733019351959,0.031158961355686188
2.88116192817688,4.746041774749756,7.366096496582031,-0.30013802647590637,-0.36791542172431946,0.05992107838392258
3.4081671237945557,4.664595603942871,7.897892951965332,-0.28309381008148193,-0.1165132075548172,-0.0007989477599039674
2.88116192817688,4.942471027374268,8.707564353942871,-0.14034847915172577,-0.012117373757064342,-0.02636527456343174
2.8907437324523926,4.875397682189941,8.123067855834961,-0.007190529722720385,-0.03768370300531387,0.05033370852470398
3.2931840419769287,4.602313041687012,7.984129905700684,0.0354200154542923,0.10080057382583618,0.05352949723601341
3.1207096576690674,4.578358173370361,8.439270973205566,0.06737792491912842,0.09760478138923645,-0.03382211923599243
3.168619155883789,4.6885504722595215,8.961484909057617,0.03328948840498924,-0.3178480267524719,-0.04980107396841049
2.694314479827881,4.894561767578125,8.736310005187988,0.029028434306383133,-0.6800376772880554,-0.07004108279943466
3.2261106967926025,5.0191264152526855,7.6918816566467285,0.0822916179895401,-0.7972166538238525,-0.024234747514128685
3.2261106967926025,4.966425895690918,7.265486240386963,0.013049479573965073,-0.615056574344635,0.019441060721874237
3.350675582885742,4.774787425994873,7.706254482269287,-0.07004108279943466,-0.5894902944564819,0.03968106955289841
4.351985454559326,4.674177646636963,7.179249286651611,0.026897907257080078,-0.7503450512886047,-0.019973693415522575
4.328031063079834,4.6885504722595215,7.8068647384643555,0.0727042406797409,-0.547944962978363,-0.07110634446144104
4.251375675201416,4.884979724884033,7.744582176208496,0.17390428483486176,-0.6012081503868103,-0.07217161357402802
4.399895191192627,4.966425895690918,7.155294418334961,0.1675127148628235,-0.6693850159645081,-0.06151897460222244
4.586742401123047,4.793951511383057,7.342141628265381,0.07376950979232788,-0.8206524848937988,-0.09773793816566467
4.347194671630859,4.86581563949585,7.303813934326172,0.017310533672571182,-1.0560756921768188,-0.10306425392627716
4.5627875328063965,5.215555667877197,7.093011856079102,-0.009321057237684727,-1.1828421354293823,-0.04340949282050133
4.74484395980835,5.009544372558594,6.987610816955566,0.011984216049313545,-1.2520842552185059,0.0002663159102667123
5.784482002258301,5.1724371910095215,3.954935073852539,0.2090579867362976,-0.27843329310417175,0.052464235574007034
5.329340934753418,4.554403781890869,6.374368190765381,0.048203181475400925,0.5173186659812927,-0.21172115206718445
4.524460315704346,5.426357746124268,7.663136005401611,0.052464235574007034,0.2882869839668274,-0.07962846010923386
5.147284507751465,5.335329532623291,6.398323059082031,-0.05193160101771355,0.0762995108962059,0.16112112998962402
5.449114799499512,5.2490925788879395,5.3155670166015625,-0.21704746782779694,0.6568682193756104,0.293213814496994
5.152075290679932,5.2107648849487305,4.937081336975098,-0.2287653684616089,1.8307887315750122,0.40400123596191406
4.534041881561279,5.124527454376221,5.7946624755859375,-0.02210422046482563,3.277416706085205,0.43702441453933716
3.3363027572631836,4.7604146003723145,7.624808311462402,0.20799273252487183,3.818570613861084,0.5094623565673828
2.3445746898651123,4.1280083656311035,11.443201065063477,0.33475908637046814,2.33465838432312,0.3177148699760437
2.6799416542053223,4.0513529777526855,10.801212310791016,0.46152547001838684,0.11038794368505478,0.1153147891163826
3.5279409885406494,4.266946315765381,7.682299613952637,0.14940322935581207,-1.1082736253738403,-0.1723063886165619
3.652505874633789,4.923307418823242,6.427068710327148,-0.29694223403930664,-0.9942904710769653,-0.372575968503952
3.0440542697906494,5.455103397369385,7.3565144538879395,-0.48975494503974915,-0.5788376331329346,-0.204264298081398
3.652505874633789,4.961635112762451,9.018977165222168,-0.3491401672363281,-0.4978775978088379,-0.014647374860942364
4.145974636077881,4.42983865737915,9.268106460571289,0.008788425475358963,-0.6725808382034302,-0.1009337306022644
4.078901290893555,4.5735673904418945,8.170977592468262,0.20160114765167236,-0.8355661630630493,-0.25965800881385803
3.916008472442627,4.990380764007568,7.773327827453613,0.12383689731359482,-0.8728504180908203,-0.25965800881385803
3.7483251094818115,5.344911575317383,7.505034446716309,-0.008255792781710625,-1.0358357429504395,-0.17443692684173584
4.131601810455322,5.2443013191223145,7.270277500152588,-0.0540621280670166,-0.9974862337112427,-0.04660528525710106
4.510087013244629,4.798742294311523,7.442751884460449,-0.03169159218668938,-0.8749809265136719,-0.07962846010923386
4.232211589813232,5.062244892120361,7.116966724395752,0.0588558167219162,-0.8068040609359741,-0.11904320865869522
4.505296230316162,5.5796685218811035,5.2724480628967285,0.21118851006031036,-0.13888375461101532,0.08016108721494675
4.917318344116211,5.680278301239014,6.010255813598633,0.16538217663764954,0.7772429585456848,0.048203181475400925
3.8249802589416504,5.6563239097595215,6.6474528312683105,0.08868319541215897,0.9412935972213745,0.22610220313072205
4.720889568328857,5.10057258605957,5.895272731781006,0.052464235574007034,1.2310452461242676,0.4071970283985138
4.653815746307373,4.674177646636963,5.847362995147705,-0.012516847811639309,2.0800604820251465,0.32836753129959106
4.37114953994751,5.1293182373046875,7.979339122772217,-0.08388951420783997,2.6201491355895996,0.349672794342041
2.6320321559906006,4.894561767578125,9.493281364440918,-0.07856319099664688,2.251567840576172,0.41784965991973877
2.6703596115112305,4.449002742767334,8.55904483795166,-0.056192658841609955,1.5847128629684448,0.6713824272155762
3.1638283729553223,3.845341920852661,7.941011428833008,-0.0870852991938591,1.5996265411376953,0.735298216342926
3.844144105911255,4.1280083656311035,8.209304809570312,-0.1296958476305008,1.4100096225738525,0.40400123596191406
2.8476250171661377,3.921997308731079,8.650073051452637,-0.15419691801071167,1.271525263786316,0.13555480539798737
2.5649585723876953,3.8740875720977783,7.830819129943848,-0.06471476703882217,1.271525263786316,-0.17763271927833557
2.3829023838043213,4.386720180511475,7.67750883102417,-0.05938844755291939,1.7445024251937866,-0.5014728307723999
1.4869933128356934,5.598832130432129,8.808174133300781,-0.27244117856025696,1.7157402038574219,-0.337422251701355
0.8785417675971985,5.555713653564453,9.507654190063477,-0.5675191879272461,1.0616683959960938,0.08335687965154648
1.132462501525879,4.108844757080078,9.162705421447754,-0.7155908346176147,0.54181969165802,0.171773761510849
1.0653890371322632,4.544821739196777,9.124378204345703,-0.2798980176448822,0.7868303656578064,0.0354200154542923
0.5335928201675415,4.137590408325195,9.766366004943848,-0.3043990731239319,0.47364285588264465,0.04713791608810425
0.6006662249565125,4.022607326507568,9.440581321716309,-0.17976324260234833,0.08801741153001785,-0.03701791167259216
0.7970954775810242,4.314855575561523,9.244152069091797,-0.011451584286987782,0.1093226820230484,-0.03701791167259216
0.9168694019317627,4.338810443878174,8.755474090576172,0.040746334940195084,0.07523424178361893,-0.05086633935570717
0.859377920627594,4.4058837890625,8.563836097717285,-0.007190529722720385,0.10506162792444229,-0.04660528525710106
0.6821125149726868,4.540030479431152,8.45843505859375,-0.20532956719398499,0.23715431988239288,0.05139897018671036
0.6629486680030823,3.9459519386291504,8.741101264953613,-0.38003280758857727,0.14341111481189728,0.12596742808818817
0.7635588049888611,3.807014226913452,8.72193717956543,-0.4173170328140259,0.06138581782579422,0.09720530360937119
0.8929146528244019,3.850132942199707,9.047722816467285,-0.3821633458137512,0.019840534776449203,0.023702116683125496
0.9743608832359314,3.6393308639526367,8.444062232971191,-0.04554001986980438,0.6121271252632141,0.1153147891163826
0.8929146528244019,3.778268575668335,9.066885948181152,-0.0007989477599039674,0.654737651348114,0.03755054250359535
0.43298274278640747,3.878878593444824,9.220196723937988,-0.09986846894025803,0.13062795996665955,-0.012516847811639309
0.41381892561912537,3.586630344390869,9.282479286193848,-0.08602003753185272,-0.08562056720256805,-0.02636527456343174
0.46651944518089294,3.5674664974212646,9.910094261169434,0.15899059176445007,-0.2986733019351959,-0.10519478470087051
0.40902796387672424,4.075307846069336,11.213234901428223,0.6468813419342041,-0.35300174355506897,-0.08388951420783997
0.35153648257255554,3.955533981323242,10.585619926452637,1.2263847589492798,-0.7535408735275269,-0.08815056830644608
0.399446040391922,3.926788091659546,9.301643371582031,1.5203975439071655,-1.0528799295425415,-0.1201084777712822
0.3611183762550354,3.7303590774536133,8.439270973205566,1.609879732131958,-1.4385054111480713,-0.0966726765036583
1.3288917541503906,4.961635112762451,6.906164646148682,1.3201279640197754,-1.4608758687973022,-0.0870852991938591
1.5492757558822632,5.268256187438965,6.92053747177124,0.7406245470046997,-1.427852749824524,-0.12863057851791382
2.2727103233337402,4.822697162628174,6.671407699584961,0.3613906800746918,-1.2712589502334595,-0.2287653684616089
1.7888236045837402,5.182018756866455,7.188831329345703,0.14727269113063812,-0.8813725113868713,-0.2937464416027069
1.6163491010665894,5.766515731811523,7.38046932220459,-0.05938844755291939,-0.5127912759780884,-0.09986846894025803
2.018789529800415,5.450312614440918,7.485870361328125,-0.23515695333480835,-0.24647536873817444,0.10785794258117676
2.090653896331787,4.7652058601379395,8.640491485595703,-0.4822981059551239,0.08269108831882477,0.18242639303207397
2.325410842895508,4.501703262329102,9.028558731079102,-0.5227781534194946,-0.09840372949838638,0.06418213248252869
2.4164390563964844,4.61668586730957,9.15312385559082,-0.4162517786026001,-0.19853851199150085,-0.030626330524683
2.1768910884857178,4.769996643066406,9.071677207946777,-0.26818013191223145,-0.1495363861322403,-0.06897582113742828
1.9181793928146362,4.793951511383057,9.124378204345703,-0.1669800728559494,-0.163384810090065,-0.03701791167259216
2.0427443981170654,4.731668949127197,8.9806489944458,-0.1392832249403,-0.2486059069633484,0.05033370852470398
2.2631282806396484,4.578358173370361,8.712355613708496,-0.1392832249403,-0.3050648868083954,0.06950845569372177
2.9003255367279053,4.353183269500732,7.8404011726379395,-0.15419691801071167,-0.2805638015270233,0.031158961355686188
2.8955347537994385,4.362765312194824,7.7637457847595215,-0.1861548274755478,-0.06964161247015,-0.04660528525710106
2.45955753326416,4.698132514953613,8.429689407348633,-0.2000032514333725,0.08269108831882477,-0.1243695318698883
2.210427761077881,4.640640735626221,8.300333023071289,-0.19148114323616028,0.06564687192440033,-0.10732531547546387
2.1816821098327637,4.59273099899292,7.931429386138916,-0.20639483630657196,0.08056056499481201,-0.05086633935570717
2.2248005867004395,4.568776607513428,8.094322204589844,-0.26818013191223145,0.2265016883611679,-0.02636527456343174
1.9229704141616821,4.458584308624268,8.376988410949707,-0.3235738277435303,0.22330589592456818,-0.002929474925622344
1.721750259399414,4.271737098693848,9.018977165222168,-0.4205128252506256,0.0954742506146431,0.09720530360937119
1.8702698945999146,4.151963233947754,9.335180282592773,-0.33955278992652893,-0.13142690062522888,0.11957584321498871
2.013998508453369,4.30527400970459,8.903993606567383,-0.22663484513759613,-0.1910816729068756,0.1249021589756012
1.6163491010665894,4.559194564819336,8.626118659973145,-0.1531316488981247,-0.21345220506191254,0.19414429366588593
1.7313320636749268,4.410675048828125,8.065576553344727,-0.14674006402492523,-0.06325002759695053,0.3731085956096649
2.8619980812072754,4.290900707244873,7.88831090927124,-0.17017586529254913,0.1615206003189087,0.4199801981449127
2.9338624477386475,4.257364273071289,7.926638603210449,-0.23196116089820862,0.45127230882644653,0.01837579719722271
1.7840327024459839,4.21903657913208,8.353034019470215,-0.2277000993490219,0.46405547857284546,-0.03808317333459854
2.4403936862945557,3.668076515197754,8.060785293579102,-0.016777902841567993,0.0624510794878006,0.0492684431374073
2.3302018642425537,3.9411611557006836,7.821237564086914,-0.12650005519390106,0.3106575012207031,-0.003994738683104515
1.7600778341293335,4.180708885192871,8.017666816711426,-0.3512706756591797,0.5908218622207642,0.05566002428531647
1.165999174118042,3.6824493408203125,8.875247955322266,-0.617586612701416,0.5567334294319153,0.22290641069412231
1.9229704141616821,3.3183367252349854,9.201032638549805,-0.7720498442649841,0.42783650755882263,0.26338642835617065
2.2918741703033447,3.260845184326172,9.402253150939941,-0.8327698707580566,0.3820301592350006,0.16112112998962402
2.6416139602661133,3.1362802982330322,10.039450645446777,-0.7986814379692078,0.35220280289649963,0.016245270147919655
2.833252191543579,2.85361385345459,10.69581127166748,-0.5621928572654724,0.2318280041217804,-0.26818013191223145
1.6019762754440308,2.5326197147369385,10.585619926452637,-0.24048326909542084,-0.04301001876592636,-0.4269044101238251
1.0893439054489136,3.0931615829467773,10.341280937194824,0.03328948840498924,-0.2624543309211731,-0.3129211962223053
1.3911741971969604,3.807014226913452,10.058614730834961,0.5488771200180054,-0.3476754128932953,-0.016777902841567993
2.39727520942688,3.553093433380127,9.25373363494873,0.7672561407089233,-0.06325002759695053,-0.12543480098247528
2.3397836685180664,3.634539842605591,8.760265350341797,1.4160016775131226,1.094691514968872,-0.7624624371528625
0.8162593245506287,3.778268575668335,8.113486289978027,1.2945616245269775,1.325853705406189,-0.7400919198989868
0.524010956287384,4.209454536437988,8.276378631591797,0.9057404398918152,1.0797778367996216,-0.5792371034622192
0.35632744431495667,4.300482749938965,8.51113510131836,0.42850229144096375,0.4565986394882202,-0.5089297294616699
0.016169480979442596,3.9076244831085205,8.525507926940918,0.03328948840498924,-0.17403744161128998,-0.47910231351852417
-0.10360444337129593,3.7255680561065674,8.654864311218262,-0.16911059617996216,-0.7599324584007263,-0.4247738718986511
0.5000561475753784,4.070517063140869,8.856083869934082,-0.11584742367267609,-1.0741852521896362,-0.3885549008846283
0.5719205141067505,4.908934593200684,8.784219741821289,0.04394212365150452,-1.0230525732040405,-0.21704746782779694
1.0270614624023438,4.343601703643799,9.047722816467285,0.21758009493350983,-0.8717851042747498,-0.15206637978553772
1.165999174118042,4.61668586730957,8.491971015930176,0.37630438804626465,-1.033705234527588,-0.1627190262079239
1.237863540649414,4.832279205322266,8.127859115600586,0.3731085956096649,-0.9815073013305664,-0.12117373943328857
1.405547022819519,4.49212121963501,8.554253578186035,0.23462431132793427,-0.9037430286407471,-0.10626004636287689
1.5253210067749023,4.175918102264404,9.20582389831543,0.15153375267982483,-1.2776505947113037,-0.22237378358840942
1.9948347806930542,4.736459732055664,7.8404011726379395,0.11211899667978287,-1.6057517528533936,-0.2181127369403839
2.3829023838043213,5.1293182373046875,6.5468430519104,-0.03382211923599243,-1.4555495977401733,-0.1861548274755478
2.5649585723876953,5.28741979598999,6.882209777832031,-0.4301002025604248,-0.5340965390205383,-0.11584742367267609
2.469139575958252,4.870606899261475,8.295541763305664,-0.3555317521095276,-0.001464737462811172,-0.002929474925622344
2.536212921142578,4.736459732055664,7.610435485839844,-0.08495477586984634,0.3596596419811249,-0.002929474925622344
2.1481454372406006,4.784369468688965,7.816446304321289,-0.0050600022077560425,0.7921566963195801,0.027963170781731606
1.3049368858337402,4.439420700073242,8.314705848693848,-0.27776750922203064,0.18389113247394562,0.2420811653137207
1.7840327024459839,4.386720180511475,8.228468894958496,-0.5728455185890198,-0.04194475710391998,0.30599698424339294
1.8606879711151123,4.175918102264404,8.132649421691895,-0.7890940308570862,-0.2347574681043625,0.3081275224685669
2.0475351810455322,4.439420700073242,7.988921165466309,-0.9829720258712769,-0.24541011452674866,0.3464770019054413
3.542313814163208,4.755623817443848,7.49066162109375,-1.1555447578430176,-0.025965800508856773,0.040746334940195084
1.683422565460205,3.5387206077575684,8.17576789855957,-1.2684626579284668,0.28189539909362793,-0.15952323377132416
1.070180058479309,3.3566644191741943,9.569936752319336,-1.133174180984497,0.1892174482345581,0.14194637537002563
1.4678294658660889,3.596212148666382,10.025077819824219,-0.739026665687561,-0.05259739235043526,0.435959130525589
1.8415241241455078,3.557884454727173,9.339970588684082,-0.32463908195495605,0.03688475489616394,0.5861613154411316
2.1050267219543457,3.327918529510498,8.760265350341797,-0.06684529036283493,0.4193144142627716,0.6042708158493042
2.095444917678833,3.2416813373565674,8.83212947845459,0.01837579719722271,0.8731167316436768,0.5552686452865601
2.430811882019043,3.1171164512634277,8.798592567443848,0.0588558167219162,1.278982162475586,0.5158539414405823
2.6320321559906006,2.772167444229126,9.4645357131958,0.05992107838392258,1.5623422861099243,0.38589176535606384
1.8558969497680664,2.585320234298706,10.235879898071289,0.052464235574007034,1.3716601133346558,0.13662005960941315
0.7683497667312622,2.6092751026153564,10.365235328674316,-0.08282424509525299,0.692021906375885,0.08442214131355286
0.9408242106437683,2.8631956577301025,9.972376823425293,-0.31931278109550476,0.12956269085407257,0.10253162682056427
1.3624284267425537,2.470337152481079,9.04293155670166,-0.07536740601062775,-0.463789165019989,0.6713824272155762
1.8031964302062988,2.6140658855438232,9.383089065551758,-0.07536740601062775,-0.342349112033844,0.5627255439758301
2.5984952449798584,2.585320234298706,10.092150688171387,0.12170637398958206,-0.18042902648448944,0.23462431132793427
2.838043212890625,2.479919195175171,10.245461463928223,0.34434646368026733,-0.07177213579416275,-0.09880319982767105
2.612868309020996,2.6380207538604736,9.613055229187012,0.5147886276245117,0.14021532237529755,-0.42264336347579956
1.7600778341293335,3.2368903160095215,9.402253150939941,0.5041360259056091,0.35220280289649963,-0.5568665862083435
0.792304515838623,3.035670280456543,8.99502182006836,0.2996053993701935,0.04434159770607948,-0.5675191879272461
0.5144290328025818,2.920687198638916,9.36392593383789,0.04181159660220146,-0.37750279903411865,-0.4162517786026001
0.9647789597511292,2.887150526046753,9.37829875946045,0.008788425475358963,-0.6768419146537781,-0.27350643277168274
1.5349029302597046,3.030879259109497,9.335180282592773,0.11638005077838898,-0.7780419588088989,-0.23622220754623413
1.7840327024459839,3.06441593170166,8.779428482055664,0.28256118297576904,-0.5948165655136108,-0.251135915517807
1.6642587184906006,3.2033536434173584,8.760265350341797,0.37630438804626465,-0.482963889837265,-0.2798980176448822
1.4822022914886475,3.4237377643585205,8.693191528320312,0.4316980838775635,-0.5277049541473389,-0.24154852330684662
1.4774113893508911,3.4956021308898926,8.808174133300781,0.43276336789131165,-0.598012387752533,-0.15952323377132416
1.9229704141616821,3.4524834156036377,8.88003921508789,0.4593949317932129,-0.6864292621612549,-0.16591481864452362
2.325410842895508,4.544821739196777,7.873938083648682,0.5893571376800537,0.23076273500919342,-0.10732531547546387
2.162518262863159,4.377138137817383,8.065576553344727,0.48496127128601074,0.3106575012207031,-0.0540621280670166
2.1050267219543457,3.998652458190918,8.333869934082031,0.284691721200943,0.23928484320640564,-0.029561065137386322
2.162518262863159,4.161545276641846,8.391361236572266,0.1760348230600357,0.15832480788230896,-0.06897582113742828
1.875060796737671,4.372347354888916,8.616536140441895,0.13022847473621368,0.09014793485403061,-0.04660528525710106
1.6403039693832397,4.750833034515381,7.77811861038208,0.03755054250359535,0.14554163813591003,0.12277163565158844
1.4917842149734497,4.501703262329102,8.190140724182129,-0.08921582996845245,0.43209755420684814,0.5275717973709106
1.5157390832901,4.21903657913208,8.927948951721191,-0.10306425392627716,0.24035011231899261,0.5669865608215332
2.1529364585876465,4.19508171081543,8.535090446472168,-0.11478215456008911,0.19134798645973206,0.5414202213287354
2.311038017272949,4.185499668121338,8.333869934082031,-0.110521100461483,0.2925480306148529,0.4764391779899597
2.3014559745788574,4.084889888763428,8.381779670715332,-0.08815056830644608,0.6142576336860657,0.3592601716518402
2.2200098037719727,4.0944719314575195,8.693191528320312,-0.0679105594754219,0.7058703303337097,0.33475908637046814
1.7648688554763794,4.036980152130127,9.210615158081055,-0.0966726765036583,0.6675208210945129,0.3123885691165924
1.5157390832901,3.8980424404144287,9.25373363494873,-0.2095906287431717,0.29574382305145264,0.31132328510284424
2.0810720920562744,3.816596269607544,8.908784866333008,-0.3139864504337311,0.03795001655817032,0.29640960693359375
2.0714900493621826,3.8645057678222656,8.856083869934082,-0.41305598616600037,0.07203845679759979,0.19307903945446014
1.9756709337234497,3.6728675365448,8.439270973205566,-0.4247738718986511,0.18602167069911957,0.20373167097568512
1.9660890102386475,3.6824493408203125,9.191451072692871,-0.4588623046875,0.32450592517852783,0.19840535521507263
1.6882134675979614,3.299172878265381,9.866975784301758,-0.2649843394756317,0.20732693374156952,0.17496955394744873
2.2631282806396484,3.5818393230438232,9.593891143798828,0.2751043438911438,0.014514217153191566,0.04500738903880119
2.128981590270996,3.4956021308898926,8.999813079833984,0.40080544352531433,0.014514217153191566,-0.029561065137386322
2.138563394546509,3.4908111095428467,8.923157691955566,0.4221107065677643,0.027297381311655045,-0.06471476703882217
2.210427761077881,3.438110589981079,8.707564353942871,0.40080544352531433,-0.03768370300531387,-0.17337165772914886
1.7936145067214966,3.5291388034820557,8.865666389465332,0.3315632939338684,-0.08775109052658081,-0.25433170795440674
1.7600778341293335,3.591421127319336,9.133959770202637,0.3219759464263916,-0.13675321638584137,-0.25965800881385803
1.7025864124298096,3.4908111095428467,9.392671585083008,0.3869570195674896,-0.37217649817466736,-0.3352917432785034
1.5636485815048218,3.878878593444824,8.951903343200684,0.42743703722953796,-0.6129260659217834,-0.38962018489837646
1.7600778341293335,4.0513529777526855,8.803383827209473,0.24527695775032043,-0.8664588332176208,-0.3512706756591797
1.889433741569519,4.2046637535095215,8.482389450073242,0.1483379602432251,-0.9996167421340942,-0.39068543910980225
2.2295916080474854,4.578358173370361,7.926638603210449,0.02157158963382244,-0.9878988862037659,-0.34381383657455444
2.5314218997955322,4.367556095123291,8.18535041809082,-0.11584742367267609,-0.7578019499778748,-0.3406180441379547
2.6751506328582764,4.482539176940918,8.214096069335938,-0.24794010818004608,-1.2520842552185059,-0.40559911727905273
2.7518060207366943,4.884979724884033,7.222367763519287,-0.23622220754623413,-1.1689937114715576,-0.280963271856308
2.9721899032592773,5.1341094970703125,6.575588703155518,-0.09028109163045883,0.16684691607952118,0.06950845569372177
1.9085975885391235,4.904143333435059,8.166186332702637,-0.2649843394756317,0.44168493151664734,0.24634221196174622
2.6416139602661133,5.388030052185059,7.6152262687683105,-0.44288337230682373,0.5535376071929932,0.6522076725959778
3.317138910293579,4.180708885192871,6.752853870391846,-0.5792371034622192,2.3612899780273438,0.8641951084136963
2.464348554611206,3.5243477821350098,9.469326972961426,-0.4950812757015228,2.840658664703369,0.7587340474128723
0.998315691947937,3.33750057220459,11.256353378295898,-0.2894853949546814,2.3772690296173096,0.6447508335113525
0.9647789597511292,3.4956021308898926,10.513755798339844,0.006657897960394621,1.667803406715393,0.6181192398071289
1.0605981349945068,3.2656362056732178,8.52071762084961,0.019441060721874237,1.710413932800293,0.5819002389907837
0.7970954775810242,3.1266982555389404,8.606954574584961,-0.17763271927833557,2.0161445140838623,0.48922231793403625
0.4234008193016052,3.145862102508545,10.144851684570312,-0.32676962018013,1.6102792024612427,0.3518033027648926
0.2844630777835846,3.179399013519287,10.192761421203613,-0.32996541261672974,0.4587291479110718,0.31984540820121765
0.4761013686656952,3.0835797786712646,9.598682403564453,-0.3459443747997284,0.13488900661468506,0.1771000772714615
0.43298274278640747,3.0883708000183105,9.076468467712402,-0.38962018489837646,0.14447638392448425,0.08761793375015259
0.3802822232246399,3.112325429916382,8.99502182006836,-0.4258391261100769,0.2318280041217804,0.06950845569372177
0.25571733713150024,2.9733877182006836,8.951903343200684,-0.45140546560287476,0.4608596861362457,0.06737792491912842
0.14073435962200165,2.738630771636963,9.498072624206543,-0.41944757103919983,0.43635863065719604,0.05352949723601341
-0.14672306180000305,2.690721273422241,9.986749649047852,-0.3885549008846283,0.10399636626243591,-0.02636527456343174
-0.012576262466609478,2.9063143730163574,10.49459171295166,-0.34274858236312866,-0.2869553864002228,-0.07643266767263412
0.19343489408493042,2.7961223125457764,10.168806076049805,-0.21278640627861023,-0.5958818197250366,-0.10519478470087051
0.49047422409057617,2.4942920207977295,9.675337791442871,0.06418213248252869,-0.8941556811332703,-0.16591481864452362
0.7635588049888611,2.805704355239868,8.55904483795166,0.21651484072208405,-0.31145647168159485,-0.2277000993490219
0.1311524510383606,2.954223871231079,9.387880325317383,0.2474074810743332,0.031558435410261154,-0.18722008168697357
-0.11318635940551758,3.327918529510498,9.68971061706543,0.1664474457502365,-0.30186909437179565,-0.11904320865869522
-0.10360444337129593,3.102743625640869,9.809484481811523,0.08122635632753372,-1.1562105417251587,-0.09241162240505219
0.35632744431495667,3.0500431060791016,9.771157264709473,-0.008255792781710625,-1.57912015914917,-0.11584742367267609
0.4569375216960907,2.7577946186065674,10.130478858947754,0.040746334940195084,-2.080859422683716,-0.20852535963058472
2.545794725418091,2.949432849884033,9.277688026428223,0.6340981721878052,-1.7815202474594116,-0.3033338189125061
3.0344724655151367,2.7817494869232178,9.344761848449707,0.6767086982727051,-1.900829792022705,-0.42796966433525085
3.130291700363159,2.815286159515381,8.003293991088867,0.6127929091453552,-1.6249265670776367,-0.6463487148284912
2.909907579421997,3.8740875720977783,7.624808311462402,0.3688475489616394,-1.2531495094299316,-0.6346307992935181
3.321929931640625,3.9076244831085205,7.605644226074219,0.036485280841588974,-0.8728504180908203,-0.38003280758857727
3.585432529449463,3.2081446647644043,8.084739685058594,-0.04660528525710106,-0.4968123435974121,-0.318247526884079
3.5231499671936035,3.509974956512451,8.889620780944824,0.05779055133461952,-0.33915331959724426,-0.3597927987575531
3.537523031234741,3.8309690952301025,8.055994033813477,0.08016108721494675,-0.6619281768798828,-0.29268118739128113
3.4464948177337646,3.7926414012908936,7.682299613952637,-0.07856319099664688,-0.6289049983024597,-0.32037803530693054
3.5662686824798584,3.993861675262451,7.854773998260498,0.19627483189105988,-0.08668582886457443,-0.1712411344051361
3.09196400642395,4.496912002563477,7.955384254455566,0.25379905104637146,0.20626167953014374,-0.0732368752360344
3.1590373516082764,4.295691967010498,7.21757698059082,-0.023169483989477158,0.23502379655838013,0.09507478028535843
3.0105175971984863,4.410675048828125,6.8726277351379395,-0.30013802647590637,0.5663207769393921,0.30599698424339294
3.0392634868621826,4.161545276641846,6.843882083892822,-0.38003280758857727,1.1958916187286377,0.5158539414405823
2.9194893836975098,3.6153759956359863,9.062095642089844,-0.43755704164505005,1.2406326532363892,0.5510076284408569
3.3363027572631836,2.882359504699707,11.045551300048828,-0.30546435713768005,-0.16551533341407776,0.09614004194736481
3.0105175971984863,3.332709550857544,8.937530517578125,-0.015712639316916466,-0.4872249662876129,-0.1392832249403
3.202155828475952,3.557884454727173,8.4488525390625,0.11105373501777649,-0.06644582003355026,-0.10519478470087051
3.063218116760254,3.327918529510498,9.632219314575195,0.284691721200943,0.0294279083609581,-0.0679105594754219
2.866788864135742,3.327918529510498,9.248942375183105,0.4114580750465393,-0.3370227813720703,-0.10199899226427078
3.6764607429504395,3.7638957500457764,7.835610389709473,0.6202497482299805,-0.05792371183633804,-0.08815056830644608
2.9769809246063232,3.893251419067383,8.688400268554688,0.5819002389907837,0.24248063564300537,-0.09773793816566467
2.5984952449798584,3.888460636138916,8.266796112060547,0.43702441453933716,-0.07283740490674973,-0.08388951420783997
2.7565970420837402,4.602313041687012,7.552943706512451,0.15579481422901154,-0.28269433975219727,-0.07217161357402802
3.1111278533935547,4.084889888763428,7.696672439575195,-0.0050600022077560425,-0.18575534224510193,-0.04980107396841049
3.283602237701416,4.0561442375183105,8.103903770446777,0.006657897960394621,-0.10053425282239914,-0.060453712940216064
3.1638283729553223,4.0944719314575195,8.951903343200684,0.06205160543322563,-0.08668582886457443,-0.11265163123607635
2.981771945953369,4.099262714385986,8.645281791687012,0.15472954511642456,-0.294412225484848,-0.1723063886165619
2.8859527111053467,4.377138137817383,7.7637457847595215,0.1675127148628235,-0.29334697127342224,-0.09773793816566467
3.0153086185455322,4.175918102264404,8.041621208190918,0.09614004194736481,-0.13675321638584137,-0.010386320762336254
3.1590373516082764,4.017816543579102,8.276378631591797,0.06950845569372177,-0.1303616315126419,-0.016777902841567993
3.2979750633239746,4.223827362060547,8.271587371826172,0.020506324246525764,-0.21664799749851227,-0.0636495053768158
3.4800314903259277,4.2813191413879395,8.463225364685059,-0.05086633935570717,-0.2816290855407715,0.001331579522229731
3.590223550796509,3.8980424404144287,8.530299186706543,-0.05193160101771355,-0.23262694478034973,0.0023968431632965803
3.6429240703582764,3.9124152660369873,8.827338218688965,0.06524740159511566,-0.20812588930130005,-0.048735812306404114
3.5279409885406494,4.1663360595703125,8.24763298034668,0.13555480539798737,-0.20812588930130005,-0.024234747514128685
3.5662686824798584,4.343601703643799,7.7254180908203125,0.04181159660220146,-0.06325002759695053,0.048203181475400925
3.6429240703582764,4.113635540008545,7.524198055267334,-0.06578002870082855,0.22969746589660645,0.08974846452474594
3.2596473693847656,4.1663360595703125,8.530299186706543,0.10040109604597092,0.6142576336860657,0.09081372618675232
2.7901337146759033,4.5735673904418945,8.482389450073242,0.06524740159511566,0.5194491744041443,0.15686006844043732
2.8284614086151123,4.607104301452637,7.629599094390869,-0.04554001986980438,0.4810996949672699,0.29108327627182007
2.9961447715759277,4.084889888763428,8.343451499938965,-0.1243695318698883,0.6451503038406372,0.35393384099006653
2.986562967300415,3.926788091659546,8.899202346801758,-0.048735812306404114,0.47470811009407043,0.2793653905391693
3.1255006790161133,4.338810443878174,8.089530944824219,0.016245270147919655,0.5343628525733948,0.2793653905391693
2.9338624477386475,4.271737098693848,6.934910297393799,-0.06471476703882217,0.9540767669677734,0.39547911286354065
2.6703596115112305,4.38192892074585,6.618707180023193,-0.33955278992652893,1.5101443529129028,0.5520728826522827
2.3397836685180664,4.472957134246826,7.3613057136535645,-0.7113298177719116,2.140780448913574,0.7321024537086487
2.1193995475769043,3.6010031700134277,8.223677635192871,-0.851944625377655,2.5913870334625244,0.8322372436523438
1.9708799123764038,3.026088237762451,8.573417663574219,-0.8455530405044556,2.661694288253784,0.8141277432441711
1.669049620628357,2.139761209487915,9.133959770202637,-0.8828372359275818,2.424140691757202,0.508397102355957
1.5540666580200195,2.18287992477417,9.517236709594727,-0.890294075012207,2.1482372283935547,0.3123885691165924
0.9120784401893616,2.2643260955810547,9.929258346557617,-0.8540751338005066,1.4334453344345093,0.14407691359519958
0.5815024375915527,2.4655463695526123,10.264625549316406,-0.739026665687561,0.7325019240379333,0.18349166214466095
0.7827225923538208,2.542201519012451,10.839540481567383,-0.6644582152366638,0.5087965726852417,-0.07856319099664688
0.37549126148223877,2.432009696960449,11.14137077331543,-0.46099284291267395,0.18389113247394562,-0.21172115206718445
0.025751395151019096,2.0199873447418213,11.649211883544922,0.16325165331363678,-0.7375619411468506,-0.17443692684173584
1.3049368858337402,3.294381856918335,9.459744453430176,0.5936181545257568,-0.17616797983646393,-0.18828535079956055
0.27967211604118347,2.9781787395477295,9.680129051208496,0.5701823830604553,0.1945437788963318,-0.09241162240505219
0.19822585582733154,3.217726469039917,9.541191101074219,0.30493173003196716,-0.3082606792449951,-0.0913463607430458
0.2844630777835846,2.6476025581359863,9.665756225585938,0.23568958044052124,-0.9261136054992676,-0.09241162240505219
0.8929146528244019,3.06441593170166,10.599992752075195,0.37736964225769043,-1.0070736408233643,-0.2138516753911972
1.070180058479309,3.394991874694824,11.237190246582031,0.5392897129058838,-1.1061431169509888,-0.2990727722644806
0.998315691947937,3.442901611328125,10.32211685180664,0.9419593811035156,-1.3287832736968994,-0.35766226053237915
1.2091177701950073,3.5003929138183594,8.39615249633789,1.116662621498108,-0.862197756767273,-0.28309381008148193
1.1755810976028442,3.7926414012908936,8.616536140441895,1.016527771949768,-0.7407577037811279,-0.29694223403930664
1.649885892868042,4.03218936920166,8.34824275970459,0.8727172613143921,-0.8366314172744751,-0.337422251701355
2.133772611618042,4.482539176940918,8.38656997680664,0.7044056057929993,-0.7386271953582764,-0.34274858236312866
2.0762810707092285,4.51607608795166,8.242841720581055,0.6447508335113525,-0.6512755751609802,-0.280963271856308
2.0092077255249023,4.396302223205566,7.394842147827148,0.5201149582862854,-0.5074649453163147,-0.16591481864452362
1.9277613162994385,4.4058837890625,8.089530944824219,0.34754225611686707,-0.38176384568214417,-0.11371689289808273
2.162518262863159,4.137590408325195,8.4488525390625,0.30599698424339294,-0.5277049541473389,-0.138217955827713
2.1960549354553223,4.357974529266357,8.161395072937012,0.34434646368026733,-0.6193176507949829,-0.18508955836296082
2.311038017272949,4.645431995391846,8.02724838256836,0.2644517123699188,-0.8014777302742004,-0.14567480981349945
2.7134783267974854,4.520866870880127,7.902683734893799,0.08016108721494675,-0.9527451395988464,-0.15845796465873718
3.283602237701416,4.449002742767334,8.257214546203613,0.0492684431374073,-0.9346356987953186,-0.2660495936870575
2.727851152420044,4.693341255187988,7.897892951965332,0.15046848356723785,-0.7993472218513489,-0.318247526884079
2.6607778072357178,5.07661771774292,8.357824325561523,0.13555480539798737,-0.73649662733078,-0.2277000993490219
2.502676248550415,4.7268781661987305,8.903993606567383,-0.0050600022077560425,-1.2904337644577026,-0.16165375709533691
2.9721899032592773,4.640640735626221,8.180559158325195,-0.16591481864452362,-1.9125477075576782,-0.15206637978553772
3.5566868782043457,4.86581563949585,6.978028774261475,-0.2798980176448822,-1.796433925628662,-0.1435442715883255
3.91121768951416,4.856234073638916,7.040311336517334,-0.32676962018013,-1.0986863374710083,-0.148870587348938
3.7531158924102783,4.851442813873291,8.439270973205566,-0.23835274577140808,-0.7119956016540527,-0.1712411344051361
3.590223550796509,4.798742294311523,8.889620780944824,-0.023169483989477158,-0.8536756634712219,-0.11904320865869522
3.8585171699523926,5.023917198181152,7.758955001831055,0.0684431865811348,-0.9964209794998169,-0.015712639316916466
4.246584415435791,5.004753589630127,7.011565685272217,0.020506324246525764,-0.7705850601196289,0.07590003311634064
4.768798828125,4.712505340576172,7.184040069580078,-0.06471476703882217,-0.4659196734428406,0.0684431865811348
4.687352657318115,4.520866870880127,7.854773998260498,-0.04554001986980438,-0.37856805324554443,-0.02210422046482563
4.399895191192627,4.6837592124938965,7.59127140045166,0.026897907257080078,-0.4126565158367157,-0.05086633935570717
4.399895191192627,4.769996643066406,7.231949806213379,0.02157158963382244,-0.43502703309059143,-0.016777902841567993
4.692143440246582,4.669386386871338,7.610435485839844,-0.03275685757398605,-0.5074649453163147,-0.012516847811639309
4.5627875328063965,4.698132514953613,7.016356468200684,0.001331579522229731,-0.8547409176826477,-0.06151897460222244
5.108956813812256,5.081408977508545,4.529850006103516,0.07590003311634064,0.29574382305145264,0.12383689731359482
4.165138244628906,4.602313041687012,7.140921592712402,-0.0870852991938591,0.5982787013053894,0.07483477145433426
4.232211589813232,5.229928493499756,7.212785720825195,-0.1243695318698883,0.3298322558403015,0.24953800439834595
4.548414707183838,5.2443013191223145,6.470187664031982,-0.0966726765036583,0.5801692008972168,0.45619916915893555
4.773590087890625,4.880188465118408,6.2402215003967285,-0.10519478470087051,0.8486156463623047,0.5542033910751343
4.390313148498535,3.998652458190918,7.912265777587891,-0.2330264151096344,1.5740602016448975,0.5169191956520081
4.016618728637695,4.21903657913208,8.755474090576172,-0.09773793816566467,1.4899044036865234,0.4402202069759369
3.7099974155426025,3.854923963546753,9.124378204345703,0.04394212365150452,1.1554116010665894,0.416784405708313
3.4896132946014404,3.442901611328125,9.569936752319336,0.013049479573965073,0.29574382305145264,0.22716747224330902
3.432121992111206,4.2382001876831055,8.712355613708496,-0.09347688406705856,-0.7056040167808533,0.14727269113063812
3.8153984546661377,4.693341255187988,7.069056987762451,-0.2798980176448822,-0.8664588332176208,0.2665822207927704
4.55799674987793,4.252573490142822,7.543362140655518,-0.4066644012928009,-0.39667755365371704,0.31984540820121765
4.534041881561279,3.965115785598755,8.290751457214355,-0.3278348743915558,-0.2347574681043625,0.21118851006031036
3.94954514503479,4.084889888763428,8.281168937683105,-0.27350643277168274,-0.2763027548789978,0.1621863842010498
4.093274116516113,3.893251419067383,8.055994033813477,0.013049479573965073,0.30533120036125183,0.23568958044052124
4.37114953994751,3.7974324226379395,7.054684162139893,-0.06897582113742828,0.4757733643054962,0.2878875136375427
4.677770614624023,3.711195230484009,6.815136432647705,-0.07217161357402802,1.6923044919967651,0.2900180220603943
3.4848225116729736,3.409364938735962,10.06340503692627,-0.11797794699668884,1.7338497638702393,0.2239716798067093
3.1255006790161133,3.2464723587036133,10.101733207702637,0.11957584321498871,0.6856303215026855,0.21118851006031036
3.652505874633789,3.294381856918335,8.463225364685059,0.21225377917289734,0.2893522381782532,0.09614004194736481
3.168619155883789,3.514765977859497,9.4166259765625,0.011984216049313545,-0.11544794589281082,-0.1669800728559494
3.0728001594543457,3.917206287384033,8.487180709838867,0.08548741042613983,-0.4733765423297882,-0.1201084777712822
3.398585081100464,3.8740875720977783,8.683609962463379,0.14407691359519958,-0.3668501675128937,-0.10626004636287689
3.3075571060180664,3.931579113006592,8.142231941223145,0.20586219429969788,-0.5330312848091125,-0.14567480981349945
3.4800314903259277,4.0513529777526855,7.428379058837891,0.31132328510284424,-0.44887545704841614,-0.12543480098247528
3.508777141571045,4.0896806716918945,7.275068283081055,0.3230412006378174,0.3074617087841034,-0.07217161357402802
2.8955347537994385,4.080098628997803,8.549463272094727,0.06205160543322563,0.09121319651603699,-0.016777902841567993
3.4225399494171143,3.783059597015381,8.329078674316406,-0.22237378358840942,-0.482963889837265,-0.20213377475738525
3.623760223388672,3.7255680561065674,8.420106887817383,-0.1573926955461502,-0.4595280885696411,-0.2426137924194336
3.8249802589416504,3.926788091659546,8.611745834350586,0.04287686198949814,-0.35832804441452026,-0.3320959508419037
3.757906913757324,3.9794886112213135,8.975857734680176,0.29108327627182007,-0.28802067041397095,-0.40879490971565247
3.733952283859253,3.816596269607544,9.4166259765625,0.5669865608215332,-0.6161218881607056,-0.48336338996887207
3.2692294120788574,4.310064792633057,9.785530090332031,0.6639255881309509,-1.4502233266830444,-0.48975494503974915
3.4800314903259277,4.357974529266357,7.7254180908203125,0.3986749053001404,-2.3141520023345947,-0.42264336347579956
4.5675787925720215,3.8309690952301025,6.887001037597656,-0.23196116089820862,-2.6571669578552246,-0.26285380125045776
5.132911682128906,4.151963233947754,6.33604097366333,-0.3651190996170044,-2.3801984786987305,-0.35233595967292786
5.061047077178955,4.544821739196777,6.704944610595703,-0.43862229585647583,-2.0829899311065674,-0.38962018489837646
4.965228080749512,5.071826934814453,7.040311336517334,-0.15845796465873718,-1.812412977218628,-0.12330426275730133
5.808436393737793,4.410675048828125,6.115656852722168,-0.013582111336290836,-1.6259918212890625,0.04500738903880119
6.115057945251465,4.334019660949707,6.350413799285889,0.02157158963382244,-1.2552800178527832,-0.07430213689804077
6.206086158752441,4.707714080810547,5.646142959594727,0.020506324246525764,-1.1711242198944092,-0.06471476703882217
6.689972877502441,4.61668586730957,3.2746191024780273,0.18455693125724792,0.12104058265686035,-0.0018642114009708166
5.956956386566162,4.70292329788208,5.904854774475098,0.008788425475358963,0.7793735265731812,-0.07856319099664688
5.746154308319092,5.2059736251831055,6.944492340087891,0.0354200154542923,0.5098618268966675,0.12170637398958206
6.004865646362305,4.674177646636963,6.618707180023193,0.027963170781731606,0.17643429338932037,0.25486433506011963
6.752254962921143,4.587940216064453,5.713216304779053,0.011984216049313545,0.3117227852344513,0.2569948434829712
7.025339603424072,4.338810443878174,5.564696788787842,-0.02210422046482563,0.9604683518409729,0.1856221854686737
5.324550151824951,5.148482322692871,7.00677490234375,0.14727269113063812,2.1290626525878906,0.18775272369384766
4.649024963378906,4.544821739196777,7.552943706512451,0.12383689731359482,1.7998961210250854,0.49454864859580994
5.741363048553467,3.5674664974212646,6.973237991333008,0.05139897018671036,1.441967487335205,0.5062665343284607
6.0144476890563965,3.3422913551330566,6.728899002075195,-0.04234423115849495,1.559146523475647,0.14514216780662537
4.960437297821045,4.142381191253662,6.508515357971191,-0.0732368752360344,1.8670077323913574,-0.07217161357402802
4.342403888702393,2.666766405105591,6.2066850662231445,-0.251135915517807,3.5629074573516846,0.13662005960941315
3.3363027572631836,4.013025283813477,12.022907257080078,0.171773761510849,2.46994686126709,-0.08602003753185272
2.3685293197631836,3.586630344390869,10.686229705810547,0.7885614037513733,0.28615644574165344,-0.11265163123607635
2.4068570137023926,4.084889888763428,5.933600425720215,0.3741738498210907,0.5897566080093384,-0.012516847811639309
3.365048408508301,5.5413408279418945,7.696672439575195,-0.4343612492084503,0.39374807476997375,0.15366427600383759
3.3842122554779053,4.908934593200684,7.859565258026123,-0.8572708964347839,0.23502379655838013,0.24421168863773346
3.202155828475952,4.108844757080078,8.199723243713379,-0.9701888561248779,0.27124276757240295,0.47004759311676025
3.7435340881347656,3.7638957500457764,8.204513549804688,-0.8764456510543823,0.6270408034324646,0.46046021580696106
3.7004153728485107,3.6872403621673584,8.343451499938965,-0.7592666745185852,1.0190578699111938,0.3869570195674896
3.1494553089141846,3.7974324226379395,8.654864311218262,-0.4492749273777008,1.723197102546692,0.25806012749671936
2.2583374977111816,3.1602351665496826,9.157914161682129,-0.07536740601062775,2.4656858444213867,0.0023968431632965803
2.023580551147461,3.404573917388916,10.48500919342041,-0.1009337306022644,1.12771475315094,-0.044474758207798004
1.9565070867538452,3.3758280277252197,10.427517890930176,-0.08495477586984634,0.2786996066570282,-0.17550218105316162
2.5218400955200195,3.3039636611938477,8.741101264953613,-0.20106850564479828,0.024101590737700462,-0.030626330524683
2.0810720920562744,3.5003929138183594,9.248942375183105,-0.12543480098247528,0.02197106182575226,-0.09241162240505219
1.7936145067214966,3.668076515197754,9.31601619720459,-0.13289164006710052,-0.2773680090904236,-0.06151897460222244
1.5444847345352173,3.4285285472869873,8.956694602966309,-0.18508955836296082,-0.7780419588088989,-0.08815056830644608
1.9277613162994385,3.596212148666382,8.664445877075195,-0.17550218105316162,-0.9484841227531433,-0.02210422046482563
2.3062469959259033,3.3422913551330566,9.459744453430176,-0.11797794699668884,-0.840892493724823,-0.025300011038780212
2.421229839324951,3.21293568611145,9.876558303833008,0.0492684431374073,-0.9996167421340942,-0.08495477586984634
2.7853426933288574,3.438110589981079,9.584309577941895,0.25379905104637146,-1.092294692993164,-0.040213704109191895
3.274020195007324,3.4668562412261963,9.162705421447754,0.4444812536239624,-1.032639980316162,0.015180006623268127
3.877680778503418,2.992551565170288,8.674027442932129,0.5169191956520081,-0.937831461429596,-0.07004108279943466
3.317138910293579,3.7638957500457764,7.639181137084961,0.08335687965154648,-0.9559409618377686,-0.19680745899677277
4.26095724105835,3.39978289604187,7.658344745635986,-0.5781718492507935,-1.2872380018234253,-0.20852535963058472
4.0070366859436035,3.332709550857544,8.324288368225098,-0.5653886795043945,-0.7237134575843811,-0.056192658841609955
4.778380870819092,3.2368903160095215,8.89441204071045,0.006657897960394621,-0.4467449486255646,-0.015712639316916466
4.385522365570068,3.371037244796753,8.242841720581055,0.5446160435676575,0.047537390142679214,-0.10519478470087051
3.6045963764190674,4.080098628997803,7.351723670959473,0.5105276107788086,0.32770171761512756,0.09614004194736481
4.572369575500488,3.361455202102661,6.460605621337891,-0.20532956719398499,1.082973599433899,0.6010749936103821
4.874199867248535,3.1602351665496826,7.064266204833984,-0.13502216339111328,1.8457024097442627,0.48496127128601074
3.61417818069458,3.1219074726104736,9.766366004943848,0.10359688848257065,-0.12823110818862915,0.06311687082052231
3.9830820560455322,2.9685966968536377,9.665756225585938,0.1813611388206482,-0.012117373757064342,-0.0774979293346405
3.805816650390625,3.1171164512634277,9.555563926696777,0.42850229144096375,-0.19001640379428864,-0.1627190262079239
4.09806489944458,3.5003929138183594,8.429689407348633,0.7960182428359985,-0.02383527345955372,-0.17337165772914886
3.2979750633239746,4.19508171081543,7.634390354156494,0.4082622826099396,0.41718387603759766,0.0354200154542923
3.5950143337249756,3.969906806945801,7.327768802642822,0.19627483189105988,0.5844302773475647,0.1291632205247879
3.7770707607269287,3.8980424404144287,8.017666816711426,0.21225377917289734,1.015861988067627,0.10253162682056427
3.274020195007324,3.88366961479187,9.167496681213379,0.32410645484924316,1.0201231241226196,0.06311687082052231
2.8955347537994385,3.7974324226379395,8.937530517578125,0.5360939502716064,0.7516766786575317,0.02583264373242855
2.8907437324523926,4.1280083656311035,8.218887329101562,0.651142418384552,0.6994787454605103,0.05033370852470398
2.9721899032592773,3.9842796325683594,8.487180709838867,0.4593949317932129,0.6483460664749146,-0.0018642114009708166
2.9290714263916016,3.926788091659546,8.803383827209473,0.4402202069759369,0.44168493151664734,-0.1296958476305008
2.7038965225219727,3.9076244831085205,9.057304382324219,0.5328981280326843,0.21052272617816925,-0.2798980176448822
2.3685293197631836,3.9746978282928467,9.138751029968262,0.7022750377655029,-0.1399490088224411,-0.4066644012928009
2.0762810707092285,4.439420700073242,8.405734062194824,0.823715090751648,-0.47231125831604004,-0.47058022022247314
2.392484188079834,5.201182842254639,7.38046932220459,0.6937529444694519,-0.5404881238937378,-0.4269044101238251
2.4835124015808105,5.344911575317383,7.452333927154541,0.3986749053001404,-0.509595513343811,-0.31505173444747925
2.833252191543579,4.837069988250732,7.634390354156494,0.27297380566596985,-0.5000081062316895,-0.30546435713768005
2.9242804050445557,4.899352550506592,7.634390354156494,0.2644517123699188,-0.4030691385269165,-0.3842938542366028
2.766178846359253,5.16285514831543,7.610435485839844,0.2527337968349457,-0.26458486914634705,-0.38109806180000305
2.6991055011749268,5.191600799560547,7.634390354156494,0.1909485012292862,-0.21238693594932556,-0.34807488322257996
2.7518060207366943,5.416775703430176,7.7302093505859375,0.16112112998962402,-0.12503531575202942,-0.3118559420108795
2.6655688285827637,5.64674186706543,7.849983215332031,-0.014647374860942364,-0.11118689179420471,-0.029561065137386322
2.833252191543579,5.5748772621154785,7.873938083648682,0.023702116683125496,-0.13249216973781586,-0.04554001986980438
2.689523458480835,5.507803916931152,7.375678539276123,0.07163897901773453,0.07310371845960617,-0.048735812306404114
2.5889134407043457,5.632369041442871,7.471497535705566,0.05139897018671036,0.1380847990512848,-0.012516847811639309
2.684732675552368,5.440730571746826,7.826028347015381,0.0002663159102667123,0.07416898012161255,0.016245270147919655
2.689523458480835,5.392820835113525,8.257214546203613,-0.010386320762336254,-0.1165132075548172,-0.003994738683104515
2.914698600769043,5.306583881378174,8.180559158325195,-0.008255792781710625,-0.3668501675128937,-0.03275685757398605
2.6272411346435547,5.661114692687988,7.543362140655518,-0.15100112557411194,0.2786996066570282,0.036485280841588974
2.7470149993896484,5.570086479187012,7.231949806213379,-0.1904158741235733,0.29574382305145264,0.11744531989097595
