accX,accY,accZ,gyroX,gyroY,gyroZ
-3.4055888652801514,4.281742095947266,8.369477272033691,-0.36309829354286194,0.36964327096939087,-0.10534807294607162
-1.8253393173217773,4.263565540313721,8.133936882019043,-1.102070689201355,-0.9524435997009277,-0.40777871012687683
-1.7387362718582153,4.36651611328125,8.84064769744873,-1.1978893280029297,-0.6351776719093323,-0.32794737815856934
-2.0337977409362793,4.568155765533447,9.016295433044434,-1.1595618724822998,-0.5446823239326477,-0.2246587872505188
-0.5379387736320496,3.1996302604675293,9.159343719482422,0.3240378201007843,0.03525565192103386,0.021764256060123444
-0.7351922988891602,3.3035480976104736,9.08806324005127,0.0665144994854927,-0.06677629798650742,-0.021694442257285118
-0.8380758762359619,3.234604597091675,9.178584098815918,0.005462880712002516,-0.0826587900519371,0.04029965400695801
-0.6827688217163086,3.123178482055664,9.199576377868652,-0.0509810671210289,0.007522369269281626,0.008517206646502018
-0.9749093055725098,3.097531795501709,9.698030471801758,-0.03436553105711937,0.2891137897968292,0.04886921867728233
-1.6304800510406494,2.922142267227173,8.763822555541992,-0.040735986083745956,0.6486515998840332,0.20095720887184143
-0.5474198460578918,3.1359732151031494,9.195075035095215,0.09164723753929138,0.11353366822004318,-0.106569804251194
-0.3605188727378845,3.599672555923462,9.611665725708008,0.1912357211112976,-0.1261698454618454,-0.10702358931303024
-0.2146066576242447,3.6749367713928223,10.120588302612305,0.6979571580886841,0.14009757339954376,-0.08251916617155075
-1.1402050256729126,3.563951015472412,9.21323299407959,1.5549486875534058,0.43500587344169617,0.00019198621157556772
-1.314905047416687,4.2773942947387695,8.424142837524414,1.2169482707977295,-0.04574507847428322,0.054227378219366074
-0.8697559833526611,4.257675647735596,7.833981037139893,0.7116754651069641,-0.03595378249883652,-0.006143558770418167
-0.5137477517127991,3.9060633182525635,7.6622209548950195,0.26855382323265076,0.25621432065963745,-0.09454448521137238
-0.8739027380943298,4.30202579498291,7.930131912231445,-0.12177161872386932,0.6204994320869446,-0.16603317856788635
-1.1139070987701416,4.31644868850708,8.412975311279297,-0.31932544708251953,0.707416832447052,-0.2082352340221405
-2.1085541248321533,4.6145172119140625,9.065720558166504,-0.5797285437583923,0.7376459240913391,-0.22247712314128876
-2.2021484375,3.853026866912842,9.378087997436523,-0.5379802584648132,0.6317743062973022,-0.025673793628811836
-1.8392640352249146,3.6590583324432373,9.15919017791748,-0.4312185049057007,0.41832050681114197,-0.004694935865700245
-1.7037808895111084,3.788048267364502,9.128994941711426,-0.40941932797431946,0.29338985681533813,-0.07269296050071716
-1.6434853076934814,3.543973922729492,8.940169334411621,-0.3874456286430359,0.3004060685634613,-0.24954716861248016
-2.13295578956604,3.4158456325531006,8.924491882324219,-0.3606199324131012,0.575469970703125,-0.3015579879283905
-1.9843908548355103,3.5109050273895264,8.929730415344238,-0.27831020951271057,0.8931198716163635,-0.1668011099100113
-1.5997097492218018,3.513854742050171,9.435490608215332,-0.23047073185443878,0.9439787864685059,-0.0855560377240181
-2.798170566558838,2.8913910388946533,8.599311828613281,-0.1465727537870407,1.2843878269195557,0.07571238279342651
-3.2428982257843018,4.097982406616211,10.15452766418457,0.19420278072357178,0.6050358414649963,0.14646802842617035
-4.394796371459961,3.3596298694610596,9.378653526306152,0.28955012559890747,-0.05735151842236519,0.004642575979232788
-3.3632402420043945,3.6381235122680664,8.881529808044434,0.10018189996480942,-0.46703264117240906,-0.04007275775074959
-3.1595895290374756,3.2533369064331055,8.71679973602295,-0.1603957563638687,-0.24130922555923462,-0.24689427018165588
-3.165517568588257,3.1920740604400635,8.78809928894043,-0.43874087929725647,-0.5121843218803406,-0.41207224130630493
-3.55094575881958,3.310577392578125,9.19185733795166,-0.5705655813217163,-1.0537774562835693,-0.4875577390193939
-3.42434024810791,3.3117170333862305,9.46022891998291,-0.48516660928726196,-1.301142930984497,-0.48724356293678284
-2.2738595008850098,3.390246868133545,9.71379280090332,-0.04789183288812637,-1.519152045249939,-0.4115311801433563
-1.1352729797363281,3.509075880050659,9.755461692810059,0.4559847116470337,-1.0127098560333252,-0.28874728083610535
-0.855381190776825,2.9078824520111084,9.533529281616211,0.8253487348556519,-0.8594000935554504,-0.25556856393814087
-0.8025363683700562,3.029775857925415,8.244453430175781,0.8105658292770386,-0.6847624778747559,-0.22272147238254547
-1.3327850103378296,3.851954460144043,7.468299865722656,0.3233920633792877,-0.6517931818962097,-0.08436921238899231
-1.1932892799377441,3.946448802947998,7.550727844238281,-0.36159729957580566,-0.37395423650741577,0.08723155409097672
-1.0656495094299316,3.6098239421844482,8.090332984924316,-0.577127993106842,-0.14791665971279144,0.1117534339427948
-1.1813565492630005,3.409496307373047,9.647042274475098,-0.6246358752250671,0.07464773207902908,0.1422966867685318
-1.3567557334899902,3.3668508529663086,9.759101867675781,-0.39067450165748596,0.09670869261026382,0.2601413130760193
-1.0796891450881958,3.3247032165527344,10.062216758728027,-0.08328711241483688,-0.00188495556358248,0.1973094642162323
-0.5072547197341919,3.4728851318359375,8.568541526794434,0.22132520377635956,-0.030892327427864075,0.045064400881528854
-0.8564250469207764,3.6755974292755127,8.639246940612793,-0.009180432185530663,0.03228859230875969,0.04132939502596855
-1.1272763013839722,3.469667434692383,9.281256675720215,-0.08199556916952133,-0.044977135956287384,0.02197369560599327
-0.7880083322525024,3.51975417137146,9.297144889831543,-0.04120722413063049,0.006911503616720438,-0.006806783843785524
-0.6244556903839111,3.50484299659729,9.259660720825195,0.018884463235735893,0.1875356286764145,-0.08388052135705948
-0.9566846489906311,3.2835421562194824,8.44145679473877,0.10150834918022156,0.42643630504608154,-0.07677703350782394
-1.8321675062179565,3.6393396854400635,9.70899486541748,0.30663689970970154,-0.14943508803844452,-0.043161991983652115
-1.0918134450912476,3.344287872314453,8.499798774719238,-0.36969563364982605,0.08621926605701447,-0.08475318551063538
-1.4660271406173706,3.238569498062134,9.089567184448242,-0.4726875126361847,-0.059917151927948,-0.03728023171424866
-1.361659049987793,3.3933403491973877,9.634871482849121,-0.39125046133995056,-0.2361605018377304,0.07766715437173843
-0.7296760082244873,3.182889938354492,9.886960983276367,-0.11990411579608917,-0.11568041890859604,0.08140215277671814
-1.5425457954406738,3.2153074741363525,9.375924110412598,0.35562828183174133,-0.025010569021105766,0.06476917117834091
-1.2294225692749023,3.2392590045928955,9.060540199279785,0.32183870673179626,-0.10878637433052063,0.13407619297504425
-0.9181954860687256,3.3629913330078125,8.886577606201172,0.1420348882675171,-0.033021628856658936,0.10185741633176804
-1.0826579332351685,3.4424309730529785,9.471625328063965,-0.007679448463022709,0.10663961619138718,0.10538297891616821
-0.9752349257469177,3.533017873764038,9.38608455657959,0.10068804770708084,0.10615092515945435,0.12198106199502945
-0.845421314239502,3.635776996612549,9.211528778076172,0.16180947422981262,0.07281513512134552,0.10297442227602005
-0.918703019618988,3.570932626724243,9.055349349975586,0.1812000870704651,0.015550883486866951,0.05811946466565132
-0.9584468007087708,3.632166624069214,9.155838966369629,0.15618951618671417,0.1327497363090515,0.0279427208006382
-1.1961047649383545,3.6133193969726562,9.143888473510742,0.12983503937721252,0.13238322734832764,0.050823986530303955
-1.223963737487793,3.5881996154785156,9.228911399841309,-0.07093018293380737,0.04516912251710892,-0.06784094870090485
-1.414791226387024,3.5431981086730957,9.320417404174805,0.0010646508308127522,0.05612978711724281,0.055745817720890045
-1.0727746486663818,3.5627827644348145,9.122041702270508,0.07470009475946426,0.03234095126390457,0.10796606540679932
-1.2498019933700562,3.609182357788086,9.221429824829102,0.020891591906547546,-0.05143485218286514,0.027436574921011925
-1.0220080614089966,3.646771192550659,9.088666915893555,0.09841911494731903,-0.027000242844223976,0.07581710070371628
-1.006168007850647,3.8278303146362305,9.054593086242676,0.09040805697441101,0.044715333729982376,-0.04846779257059097
-1.228838324546814,3.726546049118042,9.164535522460938,0.020298179239034653,-0.04914847016334534,0.0062831854447722435
-1.1050390005111694,3.6803572177886963,9.184646606445312,0.04756022244691849,-0.05333726108074188,0.05159193277359009
-1.0420522689819336,3.7192389965057373,9.140124320983887,0.052237704396247864,-0.0302465558052063,0.010384708642959595
-1.3543998003005981,3.7422711849212646,9.242518424987793,0.020350538194179535,0.010681414976716042,-0.05215043947100639
-1.7013674974441528,3.8526246547698975,9.088733673095703,-0.01935570128262043,-0.013159782625734806,0.0031241392716765404
-1.649451732635498,3.861109733581543,8.958098411560059,-0.11704178154468536,-0.08161159604787827,0.11679743230342865
-1.2541402578353882,3.5950851440429688,9.026677131652832,-0.22026054561138153,0.08030259609222412,0.031101766973733902
-1.2619932889938354,3.594845771789551,9.576395034790039,-0.13004447519779205,0.0007853981805965304,0.04583234712481499
-1.4652513265609741,3.6098239421844482,9.590694427490234,-0.03914773464202881,-0.13784609735012054,0.12116075307130814
-0.12614569067955017,3.733776569366455,8.96259880065918,0.572659969329834,-0.39587557315826416,-0.011728612706065178
-0.5046019554138184,3.6204159259796143,8.578271865844727,0.5262691378593445,-0.27289968729019165,-0.1022588387131691
-0.5571977496147156,3.7581112384796143,8.426191329956055,0.3756123185157776,-0.22891739010810852,-0.02569124661386013
-0.46958911418914795,4.09183406829834,8.242230415344238,0.12388347089290619,-0.1650557816028595,0.08255407214164734
-0.49453669786453247,3.878549098968506,9.30621337890625,-0.12597785890102386,-0.08955284208059311,0.11138691008090973
-0.19715771079063416,4.025619983673096,8.925124168395996,0.10768681764602661,-0.13226105272769928,-0.02151990868151188
-0.5200875997543335,4.140158653259277,8.978142738342285,0.05544910952448845,-0.18994417786598206,0.09662142395973206
-0.10809341073036194,3.5724265575408936,8.99726676940918,-0.13377948105335236,0.1382300704717636,-0.1434660702943802
-0.5506663918495178,4.085743427276611,9.008203506469727,-0.15257668495178223,0.011815878562629223,-0.11929325759410858
-0.5834382176399231,4.202676296234131,9.017923355102539,-0.14505431056022644,-0.011309733614325523,-0.028588492423295975
-0.4141298532485962,3.6699087619781494,9.360878944396973,-0.04553563892841339,-0.16135568916797638,-0.09023351967334747
-0.5493256449699402,3.8665590286254883,9.304011344909668,0.006894050631672144,-0.17100736498832703,-0.09913469851016998
-0.2512379288673401,3.5668528079986572,8.875592231750488,-0.04593706503510475,-0.0872664600610733,-0.060789816081523895
-0.4672236442565918,3.7767093181610107,9.128592491149902,-0.01251401100307703,0.05841616913676262,-0.07068583369255066
-0.5557612180709839,3.814671754837036,8.78090763092041,-0.1575334221124649,0.11170107126235962,0.01621410809457302
-0.39094439148902893,3.9485652446746826,9.134807586669922,-0.3650006949901581,0.005061454605311155,-0.07354817539453506
-0.6394816637039185,3.8060142993927,10.003951072692871,-0.299515962600708,-0.13072516024112701,-0.08649851381778717
-0.5625224709510803,3.6499698162078857,9.989097595214844,-0.02640683203935623,-0.29853856563568115,-0.04831071197986603
-0.18067602813243866,3.7086660861968994,8.282731056213379,0.11552334576845169,-0.2664419710636139,-0.05621705576777458
-0.012660537846386433,3.731123685836792,7.807003021240234,0.08243189752101898,-0.10304424166679382,-0.10063568502664566
-0.3876499831676483,4.013055324554443,8.86761474609375,-0.12880529463291168,-0.2811201810836792,-0.11669271439313889
-0.3752001225948334,3.978214979171753,9.129205703735352,-0.22303561866283417,-0.4319689869880676,-0.10646508634090424
0.16724935173988342,3.584866762161255,8.714041709899902,-0.19486601650714874,-0.2151816487312317,-0.10342821478843689
-0.1872074156999588,3.531093120574951,9.21666145324707,-0.04221951588988304,0.14245377480983734,-0.030805060639977455
-0.3967670798301697,3.548417568206787,9.625945091247559,0.07134906202554703,0.05023057386279106,-0.010855947621166706
-0.14883315563201904,3.6022870540618896,9.316125869750977,0.1480737328529358,0.020001472905278206,-0.08072147518396378
-0.21761377155780792,3.6957757472991943,9.30296802520752,0.19603538513183594,0.14034192264080048,-0.13802063465118408
-0.5579255819320679,3.6755974292755127,9.56541919708252,0.25155431032180786,0.16669639945030212,-0.1273392289876938
-0.6399987936019897,3.6364474296569824,9.17713737487793,0.2821848392486572,0.19980528950691223,-0.042760565876960754
-0.416380375623703,3.7247073650360107,9.030478477478027,0.253421813249588,0.30604347586631775,0.026197392493486404
-0.7161248326301575,3.970745086669922,8.521145820617676,-0.13618804514408112,0.23774875700473785,0.020367993041872978
-0.5366650819778442,3.864614963531494,8.815919876098633,-0.24380503594875336,0.306410014629364,0.12924163043498993
-0.5478699207305908,3.6704258918762207,9.282635688781738,-0.23626522719860077,0.41640064120292664,0.1278802752494812
-0.9362956285476685,3.7984678745269775,9.4769868850708,-0.15805701911449432,0.4663170576095581,0.05886995419859886
-1.0687716007232666,3.798266649246216,9.383950233459473,-0.060301125049591064,0.31841787695884705,0.0452214814722538
-0.8567028045654297,3.761693000793457,9.814475059509277,0.07223917543888092,0.2615375816822052,0.08724901080131531
-0.9721128940582275,4.010929107666016,8.512621879577637,-0.15001104772090912,0.2986956536769867,-0.012042772024869919
-1.0489188432693481,3.616039276123047,8.45938491821289,-0.2128952592611313,0.3255213499069214,0.1252797394990921
-1.8352513313293457,3.946707248687744,8.990198135375977,-0.05792747810482979,-0.0982096791267395,-0.06473426520824432
-1.654038906097412,3.7501721382141113,9.133123397827148,-0.10526080429553986,-0.06588617712259293,0.019984019920229912
-1.6461093425750732,3.765169382095337,9.12131404876709,-0.14439108967781067,0.027454029768705368,0.08683013170957565
-1.7335360050201416,3.7308077812194824,9.365581512451172,-0.1414414793252945,0.062343161553144455,0.1002517119050026
-1.7517319917678833,3.8675644397735596,9.161431312561035,-0.07663740962743759,0.08548622578382492,0.15706217288970947
-1.7249647378921509,3.8776872158050537,9.384637832641602,0.09040805697441101,0.17058847844600677,0.19458675384521484
-1.5198009014129639,3.9571173191070557,9.088581085205078,0.18957766890525818,0.17704619467258453,0.18704693019390106
-1.470643162727356,4.099438190460205,9.120375633239746,0.013700834475457668,0.12430234998464584,0.14358823001384735
-1.5114881992340088,3.8624792098999023,8.811677932739258,0.09546951204538345,0.2525840401649475,0.17325884103775024
-1.7378551959991455,3.9009110927581787,8.86864948272705,0.20458748936653137,0.20127137005329132,0.1278628259897232
-1.7893401384353638,4.038002967834473,8.783626556396484,0.19566886126995087,0.11873474717140198,0.09662142395973206
-1.690488338470459,4.259313583374023,8.53956127166748,0.09531243145465851,-0.02042035199701786,0.053127821534872055
-1.4998140335083008,4.129385948181152,8.725104331970215,-0.10115928202867508,-0.001745329238474369,-0.012531463988125324
-1.7822628021240234,3.9991211891174316,8.849400520324707,0.14648547768592834,0.397533655166626,0.10323622822761536
-2.636906623840332,4.174549102783203,9.39644718170166,0.18592992424964905,0.24324654042720795,0.18423695862293243
-1.8251382112503052,4.339193344116211,8.717672348022461,0.10562732815742493,-0.2027374505996704,0.11079350113868713
-1.5354493856430054,4.168285846710205,8.476144790649414,0.001745329238474369,-0.2312910258769989,-0.015376350842416286
-1.4207096099853516,4.10990571975708,8.26981258392334,-0.16709782183170319,-0.14107497036457062,-0.1287354826927185
-1.5670433044433594,4.016952991485596,8.327770233154297,-0.2684316337108612,-0.12390092015266418,-0.16920967400074005
-1.6968951225280762,4.175410747528076,8.821550369262695,-0.402647465467453,-0.2142915278673172,-0.14955726265907288
-1.5374891757965088,4.104226589202881,9.279829978942871,-0.30740484595298767,-0.2148500233888626,-0.1097288504242897
-1.5649172067642212,3.787330150604248,9.295171737670898,-0.05284857004880905,-0.15392059087753296,-0.07398450374603271
-1.668997883796692,3.879286527633667,9.019752502441406,0.13233086466789246,-0.1149299293756485,-0.057421330362558365
-1.5830844640731812,3.964242458343506,8.906584739685059,0.14521139860153198,-0.12716469168663025,-0.014695672318339348
-1.5171194076538086,3.92804217338562,8.902627944946289,0.13152800500392914,-0.0518362782895565,0.010000736452639103
-1.4966824054718018,4.002406120300293,8.823447227478027,0.1051386371254921,-0.012444197200238705,0.012566370889544487
-1.4707484245300293,4.085704803466797,8.862070083618164,0.03857177495956421,-0.010541788302361965,-0.008360126987099648
-1.2710624933242798,4.117586135864258,8.737936019897461,0.026738444343209267,0.0029321531765162945,0.03577924892306328
-1.3632488250732422,4.228227138519287,8.841978073120117,0.007958701811730862,0.017732545733451843,0.032445669174194336
-1.2467565536499023,4.001419544219971,8.874635696411133,-0.016842426732182503,0.10950195789337158,0.03159045800566673
-1.384902000427246,4.073676586151123,8.933427810668945,0.027977628633379936,0.10047860443592072,0.07497934252023697
-1.48539137840271,4.075534343719482,8.977173805236816,0.11311478912830353,0.1347917765378952,0.08759807795286179
-1.4202021360397339,4.038816928863525,8.931071281433105,0.1978679746389389,0.22085396945476532,0.07822565734386444
-1.2864044904708862,4.607909202575684,8.543669700622559,-0.20696114003658295,0.06901031732559204,-0.1419999897480011
-1.0749773979187012,4.444183826446533,8.701276779174805,-0.11667525768280029,0.1328020989894867,-0.16580627858638763
-2.2373526096343994,4.587252140045166,8.916916847229004,0.039217546582221985,0.24176301062107086,-0.059777528047561646
-2.634253740310669,4.487001895904541,8.649388313293457,0.11632619053125381,0.24495695531368256,0.08243189752101898
-2.3815698623657227,4.308873176574707,8.316882133483887,-0.008970992639660835,0.19484855234622955,0.13919000327587128
-3.085397958755493,4.334069728851318,8.716598510742188,-0.392873615026474,1.183577537536621,-0.01811651699244976
-3.3858799934387207,4.0513529777526855,8.43088436126709,-0.25569072365760803,1.3861404657363892,0.05998696759343147
-2.1185715198516846,4.373267650604248,8.641277313232422,-0.18769270181655884,0.7880859971046448,0.06543239206075668
-3.8349554538726807,4.889438629150391,7.715094566345215,-0.4064173698425293,-0.46476373076438904,-0.18880972266197205
-3.0663211345672607,4.411804676055908,8.516730308532715,-0.36246997117996216,-0.4626518785953522,-0.2918365001678467
-3.717160701751709,3.887857675552368,8.533882141113281,-0.3119252324104309,-0.14107497036457062,-0.18558086454868317
-3.4537603855133057,3.9668376445770264,8.833885192871094,-0.25942572951316833,-1.0559417009353638,-0.1923701912164688
-3.08176851272583,3.9941890239715576,8.512526512145996,-0.06352998316287994,-1.3775708675384521,-0.20322613418102264
-1.961435317993164,3.325833320617676,8.325769424438477,0.08824384957551956,-0.9375908970832825,-0.342800110578537
-2.2750661373138428,3.7350597381591797,8.447088241577148,0.03778637945652008,-0.6075142025947571,-0.22828906774520874
-2.1305904388427734,3.767439126968384,8.687542915344238,-0.07822565734386444,-0.43455207347869873,0.017610372975468636
-2.1828701496124268,3.917086124420166,8.8390474319458,-0.1612858772277832,-0.31700414419174194,0.11257373541593552
-2.3168976306915283,3.942483901977539,9.189980506896973,-0.1362578570842743,-0.2886599898338318,0.07154104858636856
-1.0822269916534424,3.6479012966156006,8.863659858703613,-0.10433578491210938,-0.14091788232326508,-0.27228882908821106
-1.5144187211990356,3.8959693908691406,8.978926658630371,-0.252392053604126,0.010175269097089767,-0.16739453375339508
-1.693313479423523,3.6211533546447754,9.271047592163086,-0.16170474886894226,0.04459316283464432,-0.029600784182548523
-1.7797632217407227,3.7057836055755615,9.091005325317383,0.07578219473361969,-0.004328416660428047,0.1111949235200882
-1.4484344720840454,3.6971356868743896,8.927030563354492,0.11287043988704681,-0.08389797806739807,0.10266026854515076
-1.5750782489776611,3.74037504196167,8.868391990661621,0.09702285379171371,-0.12257447093725204,0.006824237294495106
-1.7579281330108643,3.7997989654541016,8.882689476013184,0.0743335708975792,-0.16484634578227997,0.0006108652451075613
-1.4851998090744019,3.711376428604126,8.87971019744873,0.0408930629491806,-0.13761921226978302,0.03986331820487976
-1.3319518566131592,3.887809991836548,8.902388572692871,-0.0038397242315113544,-0.057997290045022964,0.015254177153110504
-1.4007420539855957,3.858351707458496,9.018814086914062,-0.0446455217897892,-0.002199114765971899,-0.041119955480098724
-1.6988680362701416,3.9008631706237793,9.165932655334473,-0.022444933652877808,-0.017296213656663895,-0.01567305624485016
-1.5916460752487183,3.7728500366210938,9.17602825164795,0.05841616913676262,-0.07525859773159027,0.06230825558304787
-1.365097165107727,3.8288071155548096,8.930123329162598,0.08862782269716263,-0.07534586638212204,0.0443488173186779
-1.3914812803268433,3.779036521911621,8.891874313354492,0.01160643994808197,-0.05536184459924698,-0.04194026067852974
-1.6376147270202637,3.8539845943450928,9.140094757080078,-0.03618067502975464,-0.12393582612276077,-0.07309439033269882
-1.6199647188186646,3.86918306350708,9.064830780029297,0.01722639985382557,-0.19573867321014404,-0.005340707488358021
-1.334039568901062,3.7740087509155273,9.104085922241211,0.07333873212337494,-0.16355480253696442,-0.003909537568688393
-1.2254194021224976,3.8096823692321777,8.994977951049805,0.03529055789113045,-0.16296139359474182,-0.06265731900930405
-1.231539011001587,3.829927682876587,8.97864818572998,0.027262043207883835,-0.15132004022598267,-0.015865042805671692
-1.1231008768081665,3.783250331878662,9.006938934326172,0.03364994749426842,-0.032759830355644226,0.00376991112716496
-1.0812406539916992,3.8059282302856445,8.91295337677002,0.0031590459402650595,-0.05167919769883156,0.02591813914477825
-1.1827547550201416,3.9031999111175537,8.999852180480957,0.012234757654368877,-0.05930628627538681,-0.005951572675257921
-1.4141207933425903,3.8667984008789062,9.11206340789795,0.051975905895233154,-0.03220132365822792,0.05522221699357033
-1.231979489326477,3.909731149673462,9.082279205322266,0.09717993438243866,-0.02157226949930191,0.11849040538072586
-0.9580253958702087,3.840538740158081,8.99034309387207,0.050911255180835724,-0.01719149388372898,0.08450884371995926
-1.03961980342865,3.8616747856140137,8.947275161743164,0.01984439417719841,-0.04401720315217972,0.01401499379426241
-1.233827829360962,3.906858205795288,8.980362892150879,0.03193952515721321,-0.0469493567943573,-0.002949606394395232
-1.0558046102523804,3.9077296257019043,8.971304893493652,-0.0009250245057046413,-0.010402162559330463,0.055833082646131516
-1.085071325302124,3.976041078567505,8.967799186706543,-0.011920598335564137,-0.007400196045637131,0.00027925267932005227
-1.2573198080062866,3.979402542114258,9.060808181762695,-0.015097098425030708,-0.003857177682220936,-0.03166027367115021
-1.1411243677139282,3.9796035289764404,9.081388473510742,-0.015795229002833366,0.005340707488358021,-0.012810716405510902
-1.0625275373458862,3.9481725692749023,9.070959091186523,-0.00040142572834156454,0.013124875724315643,0.004782202187925577
-1.0444464683532715,3.885923385620117,9.017473220825195,0.015114551410079002,0.0020769417751580477,-0.004782202187925577
-1.108122706413269,3.9953861236572266,8.988149642944336,-0.07581710070371628,0.0010821041651070118,-0.0823795422911644
-0.8963890671730042,3.8001725673675537,9.10567569732666,-0.1823520064353943,-0.35294046998023987,-0.3044726848602295
-1.0373597145080566,3.790452003479004,9.188114166259766,-0.15933111310005188,-0.38238418102264404,-0.2790781557559967
-0.6968371868133545,3.5825014114379883,9.10714054107666,-0.061505403369665146,-0.23636993765830994,-0.15709708631038666
-1.1560258865356445,3.5601394176483154,9.223987579345703,0.053668875247240067,-0.007295476272702217,0.07730063050985336
-0.8957761526107788,3.5582337379455566,9.025134086608887,0.061278510838747025,-0.018500490114092827,0.10557496547698975
-0.7255005240440369,3.6593360900878906,8.969454765319824,0.0024434609804302454,-0.01616174913942814,0.09491100162267685
-0.753196656703949,3.675415515899658,8.951393127441406,-0.03741985931992531,0.05794493108987808,0.07175048440694809
-0.8799073696136475,3.7555830478668213,8.972375869750977,-0.0414690226316452,0.07492698729038239,0.06799802929162979
-0.8247737288475037,3.739800453186035,9.089289665222168,-0.014905111864209175,0.02427753061056137,0.08717919886112213
-0.6408511400222778,3.764431953430176,9.115052223205566,0.01120501384139061,-0.0016406094655394554,0.06981316953897476
-0.7122462391853333,3.744014263153076,9.069083213806152,0.020786872133612633,0.016004668548703194,0.021013764664530754
-0.9162130951881409,3.688277244567871,9.050848960876465,0.03317870944738388,-0.039304815232753754,0.022270401939749718
-0.815761923789978,3.704136371612549,9.07638931274414,0.035325463861227036,-0.15018558502197266,0.03562216833233833
-0.6856322884559631,3.7072486877441406,9.080384254455566,0.032393310219049454,-0.08655087649822235,0.016999507322907448
-0.8520580530166626,3.668893575668335,9.173259735107422,0.00799360778182745,0.05279621109366417,-0.010035643354058266
-0.9941012263298035,3.659843683242798,9.115148544311523,-0.03298672288656235,0.039217546582221985,-0.00020943951676599681
-0.9431047439575195,3.758082389831543,9.14749813079834,-0.08183848857879639,-0.054628804326057434,-0.016755159944295883
-0.7250121235847473,3.7162797451019287,8.995972633361816,-0.10273008048534393,-0.07703883200883865,-0.06501351296901703
-0.959404468536377,3.7159061431884766,9.290346145629883,-0.07325147092342377,-0.14561282098293304,-0.09904743731021881
-0.5798181891441345,3.463202953338623,8.559481620788574,0.018570303916931152,0.12496557086706161,-0.27007225155830383
-0.2096937596797943,3.6985435485839844,8.542367935180664,-0.3522248864173889,0.12917181849479675,-0.2831447720527649
-1.014164686203003,3.647489547729492,9.12513542175293,-0.5133187770843506,0.06752678751945496,-0.11726867407560349
-0.8072673082351685,3.4576196670532227,9.348572731018066,0.10107201337814331,0.18456856906414032,-0.0927293449640274
-1.255797028541565,3.8124117851257324,9.12121868133545,0.024033183231949806,0.12377875298261642,-0.1008102148771286
-1.1601725816726685,3.4326624870300293,9.178354263305664,-0.02307325229048729,0.14959217607975006,-0.03520328924059868
-0.9591363072395325,3.3059232234954834,9.161203384399414,-0.019984019920229912,0.41369539499282837,0.03986331820487976
-1.012019395828247,3.327049493789673,9.146980285644531,-0.021868975833058357,0.4948880970478058,0.039304815232753754
-1.1153148412704468,3.409515380859375,8.892151832580566,-0.08019787818193436,0.5549448728561401,-0.03237585723400116
-1.3601841926574707,3.4928431510925293,8.865853309631348,-0.17062339186668396,0.48523643612861633,-0.08018042892217636
-1.5291094779968262,3.472234010696411,9.191167831420898,-0.21469295024871826,0.40739476680755615,-0.042760565876960754
-1.8165669441223145,3.434932231903076,9.238889694213867,-0.1941155195236206,0.4818330407142639,0.031695179641246796
-1.6723880767822266,3.1275646686553955,9.519671440124512,-0.12507028877735138,0.7375412583351135,0.17329373955726624
-1.8755313158035278,3.3469598293304443,9.331543922424316,-0.03406882658600807,1.103955626487732,0.18301522731781006
-3.1772875785827637,3.6803953647613525,10.374516487121582,0.4270995259284973,0.013491394929587841,-0.10985102504491806
-2.222269296646118,3.8694512844085693,8.803001403808594,0.3628365099430084,-0.7791498899459839,-0.08915141969919205
-1.789435863494873,3.0813279151916504,8.448782920837402,0.1929461508989334,-0.5314003825187683,-0.2684316337108612
-1.8683104515075684,2.924546003341675,8.729134559631348,0.05478588491678238,-0.7981914281845093,-0.40907028317451477
-1.8111368417739868,3.519514560699463,8.040657997131348,-0.10190977156162262,-1.2302477359771729,-0.3867824077606201
-0.9771215319633484,3.2487878799438477,8.721320152282715,-0.23137830197811127,-0.8687551021575928,-0.1768716722726822
-1.1672307252883911,3.0396878719329834,9.381401062011719,-0.08545131981372833,-0.4398927688598633,0.10362019389867783
-1.1577305793762207,3.1860790252685547,9.464518547058105,0.023282691836357117,-0.339815616607666,0.23657937347888947
-0.9954132437705994,3.32033634185791,9.772690773010254,0.23088960349559784,-0.10307914763689041,0.23427554965019226
-1.1658899784088135,3.375546455383301,9.685675621032715,0.22856831550598145,0.05365142226219177,0.24174554646015167
-0.780461847782135,3.5484845638275146,9.3980073928833,0.09162978827953339,0.17119935154914856,0.2535439729690552
-0.44924798607826233,3.5914077758789062,9.202229499816895,-0.07206464558839798,0.27721065282821655,0.2019345909357071
-0.6069013476371765,3.6269471645355225,9.242576599121094,-0.15186110138893127,0.2773677110671997,0.11287043988704681
-0.7446349859237671,3.587289810180664,9.237011909484863,0.1276184767484665,0.255236953496933,0.12833406031131744
-0.690516471862793,3.46525239944458,8.694438934326172,0.2598271667957306,0.4478863775730133,0.16702800989151
-1.0462470054626465,3.8089544773101807,9.025382995605469,0.20179496705532074,-0.03694862127304077,0.08789478242397308
-0.8222454190254211,3.795489549636841,8.76343822479248,0.05424483120441437,-0.069708451628685,-0.006806783843785524
-1.3569663763046265,3.494337320327759,8.968125343322754,-0.15622441470623016,-0.18938568234443665,0.023265238851308823
-0.9386036396026611,3.529033899307251,9.445297241210938,-0.036966074258089066,-0.1376715749502182,0.002373647876083851
-1.1108424663543701,3.436933755874634,9.308952331542969,0.16140805184841156,0.050823986530303955,0.01507964450865984
-1.1370446681976318,3.4827206134796143,9.057791709899902,0.18135716021060944,0.0547160729765892,0.08588765561580658
-1.032590389251709,3.6131184101104736,8.939969062805176,0.05792747810482979,-0.008866272866725922,0.08780751377344131
-0.9250333309173584,3.5973548889160156,9.037919044494629,-0.04548327997326851,0.05215043947100639,0.018168877810239792
-1.1475120782852173,3.57584547996521,9.141589164733887,-0.06572909653186798,0.04663519561290741,0.0371580608189106
-1.1009591817855835,3.5981497764587402,9.201386451721191,-0.015009831637144089,-0.042097341269254684,0.04761258140206337
-0.9797264337539673,3.5908138751983643,9.28865909576416,0.08405505865812302,-0.07714354991912842,0.05567600205540657
-0.9330108165740967,3.5820224285125732,9.002082824707031,0.1595405489206314,-0.07073819637298584,0.06754424422979355
-0.955832302570343,3.691255569458008,8.958480834960938,0.08096582442522049,-0.07278022915124893,0.027122415602207184
-0.9141444563865662,3.7323591709136963,9.056833267211914,-0.059498272836208344,-0.021467549726366997,0.015114551410079002
-1.0069916248321533,3.645162343978882,9.25803279876709,-0.08222246170043945,0.006544984877109528,0.03893829509615898
-0.9143838882446289,3.6844847202301025,8.979318618774414,-0.05199335888028145,0.054628804326057434,-0.020036378875374794
-0.9770928025245667,3.6222259998321533,9.042353630065918,-0.08684758096933365,0.04557054489850998,-0.002687806962057948
-0.9554300904273987,3.6033883094787598,9.014304161071777,-0.09639453142881393,0.05700245499610901,0.07435102760791779
-0.7958230376243591,3.5463297367095947,8.888367652893066,-0.1468694508075714,0.03530801087617874,0.1180889755487442
-0.7148320078849792,3.558137893676758,8.759291648864746,-0.20886355638504028,0.06468190252780914,0.08691739290952682
-0.8345420360565186,3.5278847217559814,9.048300743103027,-0.2508387267589569,0.10796606540679932,0.0449422262609005
-0.9632735252380371,3.309753894805908,9.336516380310059,-0.2344500720500946,0.0114493602886796,0.049672070890665054
-1.2706793546676636,3.5259406566619873,9.255054473876953,-0.15226252377033234,-0.04253367334604263,0.10739010572433472
-1.0372064113616943,3.4106838703155518,8.722575187683105,-0.01218239776790142,-0.032759830355644226,0.08503244072198868
-0.8347719311714172,3.5813043117523193,8.817893981933594,-0.05633922666311264,0.01607448235154152,-0.006998770404607058
-0.4391348958015442,3.3119468688964844,9.086943626403809,-0.15835371613502502,0.14999359846115112,-0.1281420737504959
-1.1418713331222534,3.5064613819122314,9.354530334472656,-0.2111499309539795,0.19739674031734467,-0.2211855798959732
-1.3917014598846436,3.3602044582366943,9.306568145751953,-0.1578301191329956,0.10189232230186462,-0.20205676555633545
-1.3176249265670776,2.8235585689544678,9.446877479553223,-0.05619960278272629,0.2777167856693268,-0.011571533046662807
-0.9113671779632568,3.1212918758392334,9.084617614746094,-0.1889493465423584,0.41743040084838867,-0.03495894372463226
-1.3835420608520508,3.0721724033355713,9.181351661682129,-0.25300294160842896,0.6622826457023621,-0.1278977245092392
-2.0817296504974365,2.8058509826660156,9.41012191772461,-0.27550020813941956,0.7904945015907288,-0.029880037531256676
-2.703704833984375,2.628459930419922,9.434160232543945,-0.30023154616355896,0.8369202613830566,0.12072442471981049
-2.264838218688965,3.176473379135132,10.507863998413086,0.08040732145309448,0.0033684854861348867,-0.059288833290338516
-2.1200079917907715,3.367521286010742,9.976025581359863,0.19371409714221954,-0.3661002516746521,-0.1598547101020813
-2.766998052597046,2.9110331535339355,9.846711158752441,0.3047693967819214,-0.45951029658317566,-0.17870426177978516
-3.3361763954162598,2.5564422607421875,9.681960105895996,0.5095489025115967,-0.5971993207931519,-0.059288833290338516
-2.3277289867401123,2.7161545753479004,9.241819381713867,0.5586624145507812,-0.8253836631774902,-0.028326693922281265
-0.6754617094993591,2.9543395042419434,7.941671848297119,-0.051923543214797974,-1.2233710289001465,-0.5305975675582886
-1.0884040594100952,3.0653634071350098,8.765814781188965,-0.2582912743091583,-1.0076658725738525,-0.44743260741233826
-0.8891586065292358,3.0137252807617188,9.033782005310059,-0.25799456238746643,-0.5652597546577454,-0.054541539400815964
-0.835882842540741,2.9262027740478516,9.742437362670898,0.09489355236291885,0.05930628627538681,0.24326398968696594
-1.185512900352478,3.026988983154297,9.604493141174316,0.1169545128941536,-0.026720991358160973,0.20633281767368317
-1.034639835357666,3.146507740020752,9.568608283996582,0.09260717034339905,-0.1869422197341919,0.29562386870384216
-0.38307225704193115,3.0419766902923584,9.492894172668457,0.09147270768880844,-0.14999359846115112,0.2923775613307953
-0.15562310814857483,3.0283584594726562,9.253533363342285,0.11217231303453445,0.11892673373222351,0.1653175801038742
-0.4910794794559479,3.2381768226623535,9.137604713439941,0.04948008432984352,0.366327166557312,0.11479030549526215
-0.5847215056419373,3.315404176712036,9.318002700805664,-0.05614724010229111,0.29789280891418457,0.16453218460083008
-1.0920048952102661,3.240657329559326,9.609990119934082,0.04461061581969261,0.12740904092788696,0.226962611079216
-0.7056478261947632,3.1878890991210938,9.525781631469727,0.31813862919807434,-0.25654593110084534,0.19437731802463531
-0.4657200872898102,3.3360326290130615,9.283258438110352,0.3665715157985687,-0.3142116367816925,0.1644623726606369
-0.3111312985420227,3.3498616218566895,8.821436882019043,0.22485077381134033,-0.14681710302829742,0.04064871743321419
-0.5730378031730652,3.3259196281433105,8.762662887573242,-0.06717772036790848,0.03380702808499336,-0.020926497876644135
-0.8497691750526428,3.1230828762054443,9.130614280700684,-0.2154783457517624,0.020053833723068237,0.026598818600177765
-0.8739410638809204,3.200808048248291,9.314909934997559,-0.19620990753173828,-0.16547466814517975,0.07278022915124893
-0.3754778504371643,3.511431932449341,9.430683135986328,0.010245082899928093,-0.17034412920475006,0.03291691094636917
-0.6300389170646667,3.115124464035034,9.19201946258545,0.2620611786842346,0.19750145077705383,0.03160791099071503
-0.7701092958450317,3.2848925590515137,9.076590538024902,0.20945696532726288,0.11384782940149307,0.05466371029615402
-0.6007722020149231,3.2925539016723633,8.988399505615234,0.04485496133565903,0.02139773592352867,0.02989749051630497
-0.7648612260818481,3.2777674198150635,9.368837356567383,-0.040858156979084015,0.018483037129044533,0.03637266159057617
-0.7778473496437073,3.283503770828247,9.395402908325195,0.040334559977054596,0.04525638744235039,0.09299114346504211
-0.7178486585617065,3.250779867172241,9.214765548706055,0.11044443398714066,0.09594074636697769,0.11007791757583618
-0.6255761384963989,3.2645609378814697,9.09847354888916,0.06599090248346329,0.09960594028234482,0.07901105284690857
-0.7644781470298767,3.275200843811035,9.371355056762695,0.054768431931734085,0.016528267413377762,0.039444439113140106
-0.7195150256156921,3.354851007461548,9.283746719360352,0.055292028933763504,0.056409042328596115,0.028588492423295975
-0.632931113243103,3.3394131660461426,9.162466049194336,0.020001472905278206,0.08124507963657379,0.013037609867751598
-0.7629745602607727,3.3771936893463135,9.187010765075684,-0.002687806962057948,0.062203533947467804,0.00205948855727911
-0.8114523887634277,3.3114585876464844,9.169821739196777,0.0325503908097744,-0.005201081279665232,0.06763150542974472
-0.6532626748085022,3.371093273162842,9.27901554107666,0.04433136433362961,-0.020751964300870895,0.051260318607091904
-0.8170069456100464,3.3607215881347656,9.519086837768555,0.08747590333223343,-0.0019024088978767395,0.02679080329835415
-0.858187198638916,3.4143710136413574,9.367151260375977,0.17763960361480713,-0.020978856831789017,0.03651228919625282
-0.7833157181739807,3.4748005867004395,9.22114372253418,0.21436133980751038,-0.006143558770418167,0.04530874639749527
-0.5649741291999817,3.6451239585876465,9.197134971618652,0.3150493800640106,0.09292133152484894,0.08042477071285248
-0.5610093474388123,3.551290512084961,9.068622589111328,0.3366914689540863,0.23485150933265686,0.10616837441921234
-0.5929958820343018,3.8181960582733154,9.043196678161621,0.29478609561920166,0.4190360903739929,0.18757052719593048
-0.7907377481460571,3.7614822387695312,9.152506828308105,0.21394245326519012,0.5479810237884521,0.2134712189435959
-0.8727152347564697,3.7458910942077637,9.113480567932129,0.17587682604789734,0.506302535533905,0.19196876883506775
-0.9793433547019958,3.779888868331909,8.966516494750977,0.11653563380241394,0.39358919858932495,0.12320279330015182
-1.0278116464614868,3.9493982791900635,9.139749526977539,0.07641051709651947,0.32932618260383606,0.06572909653186798
-0.7625244855880737,4.130428791046143,8.730618476867676,0.00923279207199812,0.6362597942352295,0.16091935336589813
-1.131221890449524,4.2851996421813965,8.920795440673828,-0.14275047183036804,0.5621181726455688,0.005462880712002516
-1.7727434635162354,4.203806400299072,9.12389087677002,-0.07974409312009811,0.5548750758171082,0.009791296906769276
-1.8501144647598267,4.09614372253418,9.15341567993164,-0.015690509229898453,0.5662546157836914,0.044226642698049545
-1.840413212776184,3.955470085144043,9.003214836120605,0.07483971863985062,0.5435478687286377,0.12679816782474518
-1.7465126514434814,3.9906935691833496,8.84392261505127,0.07098253816366196,0.47310638427734375,0.14060372114181519
-1.7080042362213135,4.0234270095825195,8.752099990844727,0.0625002384185791,0.42531928420066833,0.11304497718811035
-1.8111560344696045,4.078206539154053,8.73872184753418,0.062029000371694565,0.36878806352615356,0.025010569021105766
-2.282172203063965,4.092035293579102,8.65290355682373,0.11796680092811584,0.2243795245885849,-0.015114551410079002
-2.3556740283966064,4.036566257476807,8.593393325805664,0.13957397639751434,0.13779374957084656,-0.001972222002223134
-2.1114752292633057,3.932255744934082,8.366451263427734,0.10002481937408447,-0.0006806784076616168,0.08234463632106781
-1.6731926202774048,3.961752414703369,8.747445106506348,0.010541788302361965,0.16119861602783203,0.20317377150058746
-1.7016452550888062,3.915889024734497,8.758075714111328,-0.03556980937719345,0.6982364058494568,0.21903881430625916
-2.2772114276885986,3.8956246376037598,8.520149230957031,-0.0895702987909317,1.0593276023864746,0.19015362858772278
-3.020611047744751,4.40720796585083,7.8458380699157715,-0.24244368076324463,0.46095889806747437,0.1425585001707077
-2.7030153274536133,4.692012786865234,8.71364974975586,-0.28098055720329285,-0.7366511225700378,-0.06403613090515137
-2.075437545776367,4.365826606750488,8.782832145690918,-0.05089380219578743,-1.0646508932113647,-0.3173706829547882
-1.9242485761642456,4.115939140319824,8.34158992767334,-0.055344391614198685,-1.0918431282043457,-0.5805139541625977
-2.3634886741638184,3.9338552951812744,8.080613136291504,-0.3331833481788635,-1.2756786346435547,-0.6399075388908386
-1.8612427711486816,3.6333541870117188,8.583921432495117,-0.5175424814224243,-1.2755041122436523,-0.6369055509567261
-1.0720086097717285,3.4998152256011963,9.52591609954834,-0.5005604028701782,-0.9042550921440125,-0.6099750995635986
-1.3348535299301147,3.636888027191162,10.058098793029785,-0.2623753547668457,-0.433138370513916,-0.48862236738204956
-1.8737596273422241,3.8600850105285645,10.021065711975098,0.003455751808360219,-0.17905332148075104,-0.2813819944858551
-1.2450039386749268,3.457667589187622,9.005330085754395,-0.18510961532592773,-0.24017475545406342,-0.31758010387420654
-1.1358283758163452,3.471362590789795,8.980497360229492,-0.20498892664909363,-0.2511528730392456,-0.18858282268047333
-0.8037526607513428,3.4810829162597656,9.379592895507812,-0.2301216572523117,-0.3199537694454193,-0.12770573794841766
-0.8051699995994568,3.3756518363952637,9.285661697387695,-0.06590363383293152,-0.24603906273841858,-0.10604620724916458
-0.7315530776977539,3.522081136703491,9.309029579162598,0.0013613568153232336,-0.3789633512496948,-0.08745844662189484
-0.4274894893169403,3.5696682929992676,9.292825698852539,0.01940806210041046,-0.42781510949134827,-0.08248426020145416
-0.32701921463012695,3.4453327655792236,9.132499694824219,0.061505403369665146,-0.2824815511703491,-0.0927467942237854
-0.41658151149749756,3.4742164611816406,9.255743980407715,0.03211405873298645,-0.12372639030218124,-0.1391201913356781
-0.6662105321884155,3.377126693725586,9.567401885986328,-0.15891222655773163,0.5404062867164612,0.017069319263100624
-1.1378586292266846,3.47391939163208,9.755461692810059,-0.01935570128262043,0.3767118752002716,0.06037093698978424
-0.9849936962127686,3.513385534286499,9.27914047241211,-0.009093165397644043,-0.023352505639195442,-0.06347762793302536
-0.9746316075325012,3.2160160541534424,8.973937034606934,0.021956242620944977,-0.1868898570537567,-0.08271115273237228
-1.105958342552185,3.331665515899658,9.053387641906738,-0.004852015525102615,-0.3559249937534332,-0.09456194192171097
-0.8054572939872742,3.314685821533203,9.415417671203613,-0.02082177810370922,-0.12568116188049316,0.020978856831789017
-0.8437166213989258,3.2671849727630615,9.256203651428223,0.016510814428329468,0.04417428374290466,0.02768092229962349
-0.9929519891738892,3.315375566482544,9.229944229125977,-0.010105456225574017,0.08079128712415695,0.039933133870363235
-0.9174771904945374,3.3426597118377686,9.318778038024902,-0.06647959351539612,0.08574802428483963,0.05117305368185043
-0.822685956954956,3.4023616313934326,9.410343170166016,-0.07110471278429031,0.09344492852687836,0.04700171574950218
-0.7622179985046387,3.487978219985962,9.442991256713867,-0.026249751448631287,0.077178455889225,0.020699605345726013
-0.6819931268692017,3.5387353897094727,9.419143676757812,0.0075747291557490826,0.250542014837265,0.00027925267932005227
-0.645170271396637,3.4752986431121826,9.324246406555176,0.022881265729665756,0.4687081575393677,0.017924530431628227
-1.3901118040084839,3.3268771171569824,9.837850570678711,0.18947294354438782,0.8083667159080505,0.059288833290338516
-1.3948235511779785,3.4373743534088135,10.0574951171875,0.3272666931152344,0.04581489413976669,0.012566370889544487
-1.4074745178222656,3.864835262298584,9.21634578704834,0.29099875688552856,-0.26422539353370667,0.02045525796711445
-0.6130209565162659,3.3736023902893066,8.496829986572266,0.03286454826593399,-0.11876965314149857,-0.04820599406957626
-1.1099518537521362,3.301919937133789,8.215826988220215,-0.26371926069259644,0.11154399067163467,-0.1302015632390976
-1.649384617805481,3.150855541229248,8.975364685058594,-0.3611784279346466,-0.26485371589660645,-0.027715828269720078
-1.245703101158142,3.2184102535247803,9.140249252319336,-0.1976236253976822,-0.5839522480964661,0.12655381858348846
-0.6269552111625671,3.0351293087005615,9.28572940826416,0.2183406949043274,-0.2231752574443817,0.21259856224060059
-0.7933235168457031,3.424809694290161,9.251386642456055,0.4542393982410431,0.04363323003053665,0.3373197913169861
-0.7029184103012085,3.254620313644409,9.228862762451172,0.4504345655441284,0.10349802672863007,0.4306250810623169
-0.8762490749359131,3.452113151550293,8.99949836730957,0.3128677308559418,0.23427554965019226,0.4397706091403961
-1.0382311344146729,3.6595466136932373,8.64195728302002,0.0207345113158226,0.2969154119491577,0.28187066316604614
-1.1248725652694702,3.7005257606506348,8.963363647460938,-0.26654669642448425,0.2664419710636139,0.18268361687660217
-1.1096837520599365,3.4615461826324463,9.490202903747559,-0.2892185151576996,0.2978578805923462,0.25417229533195496
-1.151563048362732,3.3996706008911133,9.802082061767578,-0.17720328271389008,0.38604938983917236,0.3580368459224701
-1.1463820934295654,3.278294086456299,9.968756675720215,0.10735519975423813,0.5367760062217712,0.5458866357803345
-1.5256330966949463,3.6204733848571777,9.383710861206055,0.26364943385124207,0.6926164627075195,0.5633399486541748
-1.2083631753921509,3.619525194168091,9.071247100830078,0.1174955666065216,0.6568022966384888,0.3818780481815338
-0.9245736002922058,3.8496177196502686,9.152976036071777,-0.03799581900238991,0.5338438749313354,0.22251202166080475
-1.2251225709915161,3.736764430999756,9.243380546569824,0.029042279347777367,0.5477541089057922,0.3058689534664154
-0.943583607673645,3.761817455291748,8.509040832519531,0.34925782680511475,1.1130138635635376,0.33278194069862366
-2.6994526386260986,4.183579921722412,8.64486026763916,-0.15336208045482635,0.32649874687194824,0.16432274878025055
-1.6834971904754639,3.8747568130493164,9.04239273071289,-0.3257831633090973,-0.5212251543998718,-0.13896311819553375
-1.8968589305877686,4.0449652671813965,9.091252326965332,-0.06023131310939789,-0.28235936164855957,-0.18760544061660767
