accX,accY,accZ,gyroX,gyroY,gyroZ
-0.38315072655677795,4.067200183868408,7.314858913421631,-1.9152889251708984,-0.8331453800201416,1.0569775104522705
-0.7731808423995972,3.808476448059082,9.072088241577148,-1.7970480918884277,-1.7235469818115234,1.344590425491333
-0.6726822853088379,2.89890456199646,8.198408126831055,-1.6351326704025269,-2.0610928535461426,1.7843984365463257
1.043868899345398,2.7478578090667725,5.940481185913086,-1.9833307266235352,-0.3240971565246582,1.9590966701507568
2.6336004734039307,2.611466884613037,8.45444107055664,-2.7064907550811768,-0.10798799991607666,1.6746795177459717
4.005585193634033,2.6784658432006836,10.4823579788208,-2.6553595066070557,0.5480623841285706,1.4127652645111084
4.271188259124756,3.5309088230133057,11.107183456420898,-2.228334426879883,1.3266146183013916,0.9515193700790405
0.3209373354911804,1.3666008710861206,11.626725196838379,1.0167648792266846,-0.05792204663157463,0.864303469657898
1.0773683786392212,1.6824533939361572,12.038589477539062,1.294657588005066,-0.1664426624774933,0.9717588424682617
1.9992033243179321,2.3482563495635986,13.862817764282227,2.0540356636047363,-0.2719007432460785,0.9802806973457336
2.6192433834075928,2.6521449089050293,12.440882682800293,2.758021354675293,-0.12183602899312973,0.7268883585929871
2.353640079498291,2.9754750728607178,9.871889114379883,3.0476317405700684,0.3447360396385193,0.40518802404403687
2.4852454662323,3.8659040927886963,8.332406997680664,2.715412139892578,1.4331378936767578,0.2551233172416687
1.6064813137054443,4.507778644561768,9.074481010437012,2.251103639602661,1.7089000940322876,0.1262301206588745
1.0414760112762451,4.861916542053223,8.688937187194824,1.845249891281128,1.0071778297424316,0.048468101769685745
1.2400803565979004,4.842773914337158,8.001897811889648,1.2808095216751099,0.4065195620059967,0.00585878174751997
1.2640085220336914,4.842773914337158,8.294121742248535,0.9688294529914856,0.19773387908935547,-0.059120431542396545
1.0151549577713013,4.854738235473633,9.088837623596191,0.45658549666404724,-0.3688369393348694,-0.28162097930908203
0.4405784606933594,4.864309310913086,9.290133476257324,0.1529940962791443,-0.7820141911506653,-0.46058014035224915
0.3496512174606323,5.017749309539795,9.32602596282959,0.05712312087416649,-0.8842765688896179,-0.42755791544914246
1.098903775215149,4.622634410858154,8.696115493774414,0.15938548743724823,-0.829949676990509,-0.18801362812519073
1.9657038450241089,4.17009162902832,8.217551231384277,0.2254299372434616,-0.732081413269043,-0.15925233066082
2.432603359222412,4.11505651473999,8.006683349609375,0.26377832889556885,-0.39653298258781433,-0.2944037914276123
2.3198416233062744,4.064807415008545,8.08803939819336,0.3234313726425171,-0.01637795753777027,-0.47229769825935364
1.7548363208770752,4.182055950164795,8.030611991882324,0.420367568731308,-0.014247491955757141,-0.580951452255249
1.8146568536758423,4.330410957336426,7.705187797546387,0.4842815697193146,-0.41464194655418396,-0.5830819010734558
2.2959132194519043,4.071985721588135,7.427321434020996,0.48534679412841797,-0.7905360460281372,-0.5617772936820984
2.525923490524292,4.040879249572754,7.293323516845703,0.46404212713241577,-0.8629719018936157,-0.6065170764923096
2.2241287231445312,4.550849437713623,7.214360237121582,0.39267152547836304,-0.7022548913955688,-0.6097127795219421
1.8293129205703735,4.723132610321045,6.809674263000488,0.2616478502750397,-0.624492883682251,-0.5031894445419312
1.7165511846542358,4.696811676025391,6.692425727844238,0.08908011019229889,-0.5989272594451904,-0.39560091495513916
1.2711870670318604,5.010570526123047,7.115955352783203,-0.08561810106039047,-0.4732297658920288,-0.37749195098876953
0.6343970894813538,5.134997367858887,7.724330425262451,-0.21650861203670502,-0.3539236783981323,-0.26151469349861145
1.1467602252960205,5.1804609298706055,8.100004196166992,-0.2708354890346527,-0.31770575046539307,-0.06764229387044907
1.6064813137054443,4.972285270690918,8.078468322753906,-0.2623136341571808,-0.3336842358112335,0.022902509197592735
1.8460626602172852,4.960321426391602,8.052146911621094,-0.2388785034418106,-0.3560541272163391,0.0026630824431777
2.2241287231445312,5.0464630126953125,8.054539680480957,-0.1653774231672287,-0.42529428005218506,-0.11131685227155685
2.5618157386779785,5.087141036987305,8.08803939819336,-0.12489857524633408,-0.46683835983276367,-0.18375270068645477
3.033500909805298,5.2283172607421875,8.492725372314453,-0.07283531129360199,-0.45831650495529175,-0.2668408751487732
2.370389938354492,5.38624382019043,8.631509780883789,0.22116900980472565,-0.21437814831733704,-0.5063851475715637
1.197009563446045,5.824429512023926,8.08086109161377,0.39373674988746643,-0.3464670479297638,-0.43927547335624695
1.3408780097961426,6.360720634460449,7.216753005981445,0.37136685848236084,-0.724624752998352,-0.20612259209156036
2.025524377822876,6.434898376464844,6.833602428436279,0.24247366189956665,-0.5936011075973511,0.032489608973264694
2.698206663131714,6.308078765869141,7.195217609405518,0.1934729516506195,0.2254299372434616,0.2551233172416687
2.509173631668091,6.327221393585205,7.994719505310059,0.29467007517814636,0.6652380228042603,0.28388461470603943
2.5713870525360107,6.236293792724609,7.834400653839111,0.4480636417865753,0.7621742486953735,0.3359478712081909
2.8154549598693848,6.2291154861450195,7.477570533752441,0.5384752750396729,0.7174344658851624,0.3572525382041931
2.8513472080230713,6.528517246246338,7.429714202880859,0.5501928329467773,0.7323477268218994,0.329689621925354
2.5283162593841553,6.593123912811279,6.862316131591797,0.48534679412841797,0.5395405292510986,0.2444709837436676
2.808276414871216,6.595516681671143,7.159325122833252,0.30638766288757324,0.48627886176109314,0.20505735278129578
2.6814568042755127,6.413362979888916,7.970791339874268,0.3031919598579407,0.4075847864151001,0.08681648969650269
2.2241287231445312,6.415755748748779,7.9612202644348145,0.4480636417865753,0.3213009238243103,-0.032489608973264694
1.7333009243011475,6.7677998542785645,6.7570319175720215,0.559779942035675,0.34793174266815186,-0.059120431542396545
1.352842092514038,7.390232563018799,5.756234169006348,0.35006219148635864,0.48627886176109314,0.059120431542396545
1.072582721710205,7.256234645843506,5.703591823577881,-0.04726971685886383,0.583215057849884,0.2849498391151428
1.225723385810852,7.1509504318237305,6.867101669311523,-0.36351075768470764,0.5810846090316772,0.4371449947357178
1.5777673721313477,5.944070339202881,8.866305351257324,-0.4412727653980255,0.0027962366584688425,0.44034069776535034
0.4573282301425934,5.280959606170654,7.769794464111328,-0.40505486726760864,-0.5722964406013489,0.4882761836051941
1.0893324613571167,6.303293228149414,7.791329860687256,-0.41464194655418396,-1.0760184526443481,0.5617772936820984
0.7950153350830078,5.9922261238098145,6.536593437194824,-0.41464194655418396,-1.4817391633987427,0.8770862221717834
1.3145569562911987,5.554040431976318,6.036194324493408,-0.433816134929657,-1.5744143724441528,1.0196943283081055
2.9138598442077637,4.878666400909424,6.902994155883789,-0.5776225924491882,-1.8364617824554443,0.9930635094642639
1.3624134063720703,4.359124660491943,7.4464640617370605,-0.6085143685340881,-2.184659719467163,0.8280855417251587
3.10528564453125,4.625027179718018,7.630711555480957,-0.5115781426429749,-0.9801475405693054,0.8728253245353699
4.00319242477417,4.23230504989624,7.587640762329102,-0.44766417145729065,-0.4636426866054535,0.7098446488380432
4.060619831085205,3.818047523498535,8.164609909057617,-0.5499265193939209,-0.3336842358112335,0.4456668794155121
3.3807592391967773,4.016951084136963,8.997910499572754,-0.49879536032676697,-0.14846685528755188,0.23275341093540192
3.5458641052246094,4.553242206573486,9.256634712219238,-0.2697702646255493,0.10825430601835251,0.16564373672008514
3.82582426071167,4.802095890045166,8.808876991271973,-0.0930747389793396,0.19986434280872345,0.09853405505418777
3.7923247814178467,4.885844707489014,8.741878509521484,-0.04300878196954727,0.1721682846546173,0.038881003856658936
3.4860434532165527,5.247459888458252,8.847162246704102,0.03581846132874489,-0.08561810106039047,-0.09001219272613525
2.8636105060577393,5.735895156860352,7.719544887542725,0.18814678490161896,-0.32729285955429077,-0.051663801074028015
3.026322364807129,5.467898845672607,7.774580001831055,0.15832026302814484,-0.4327509105205536,0.044207170605659485
2.923431158065796,5.491827011108398,7.822436332702637,0.09121058136224747,-0.7649704813957214,0.0953383520245552
3.2057840824127197,5.740680694580078,6.656533718109131,0.06138405203819275,-1.137802004814148,0.18801362812519073
3.835395574569702,5.877071380615234,4.307679176330566,-0.03661738336086273,-0.3485974967479706,0.28388461470603943
4.256831645965576,5.647360324859619,7.144968509674072,-0.02596505545079708,0.713173508644104,0.26897132396698
4.458127498626709,6.131010055541992,8.631509780883789,0.18069015443325043,0.965633749961853,0.1922745555639267
3.667897939682007,5.948856353759766,6.9460649490356445,0.29573532938957214,0.8772193789482117,0.21677492558956146
4.036691665649414,5.5229339599609375,6.625426769256592,0.24993029236793518,1.5950533151626587,0.2135792225599289
4.434199333190918,5.735895156860352,7.95643424987793,0.2169080674648285,2.013556718826294,0.11983871459960938
4.18983268737793,4.919344425201416,8.540582656860352,0.265908807516098,1.9794692993164062,-0.051663801074028015
1.532303810119629,6.523731708526611,8.765806198120117,0.16045072674751282,1.3958547115325928,-0.16351327300071716
2.346461772918701,6.43968391418457,10.36510944366455,0.13381989300251007,0.6247591972351074,-0.030359141528606415
3.0478577613830566,5.56361198425293,10.245169639587402,0.4800206422805786,0.12316756695508957,-0.0047935484908521175
3.7851462364196777,5.649753570556641,8.6243314743042,0.8793498873710632,-0.05898727849125862,-0.435014545917511
2.909074068069458,5.836393356323242,9.021839141845703,0.5853455662727356,-0.6351451873779297,-0.6342130899429321
2.746062994003296,5.697609901428223,6.852745056152344,0.8878717422485352,-0.05472634732723236,-0.3924052119255066
3.026322364807129,5.683252811431885,7.176074981689453,0.8484581112861633,0.27443066239356995,-0.44034069776535034
3.1100711822509766,5.213960647583008,7.566105365753174,0.8239577412605286,0.23288656771183014,-0.5308855175971985
2.8827531337738037,5.2115678787231445,7.271788120269775,0.9017197489738464,-0.008921326138079166,-0.6768224239349365
2.025524377822876,5.735895156860352,6.227919101715088,0.9464595317840576,-0.1643121987581253,-0.7226274609565735
2.923431158065796,5.865107536315918,6.254240036010742,0.8452624082565308,-0.22716094553470612,-0.6097127795219421
2.659921407699585,5.723930835723877,6.558128833770752,0.774957001209259,-0.32835808396339417,-0.6107779741287231
1.2329018115997314,6.4564337730407715,7.034599304199219,0.7834789156913757,-0.26444411277770996,-0.5287550687789917
2.518744945526123,7.002296447753906,1.975873351097107,0.6918688416481018,-0.10692276805639267,0.12196917831897736
3.318246841430664,6.583552360534668,2.1577277183532715,0.4587159752845764,0.7802832126617432,0.14114338159561157
2.899502754211426,6.593123912811279,6.395416736602783,0.03049229457974434,1.4810733795166016,-0.15712186694145203
0.6032904386520386,7.067201614379883,7.219145774841309,-0.14939893782138824,0.8292838931083679,-0.16244803369045258
0.6272186636924744,5.982655048370361,6.440880298614502,-0.30811864137649536,0.16790735721588135,0.041011471301317215
2.2025933265686035,6.114260196685791,6.416952133178711,-0.44553372263908386,-0.18242116272449493,-0.060185667127370834
2.7125635147094727,6.442076683044434,6.943672180175781,-0.36351075768470764,-0.03129122033715248,-0.2657756507396698
2.063809633255005,6.566802501678467,7.544569969177246,-0.05685681104660034,0.3010614812374115,-0.4446016252040863
0.701396107673645,6.877869606018066,7.202396392822266,0.3095833361148834,0.48521363735198975,-0.4872109591960907
0.5985047817230225,7.179664134979248,6.440880298614502,0.481085866689682,0.5246272683143616,-0.3572525382041931
0.9050851464271545,7.124629497528076,6.141777515411377,0.5065183043479919,0.5555190443992615,-0.22636201977729797
1.1563315391540527,7.105486869812012,6.055336952209473,0.5150401592254639,0.590671718120575,-0.18907886743545532
1.623231053352356,7.189235687255859,5.717948913574219,0.5001268982887268,0.6716294288635254,-0.18801362812519073
1.4365909099578857,7.270591735839844,5.416153907775879,0.37243208289146423,0.5853455662727356,-0.2636451721191406
0.4573282301425934,7.71595573425293,5.143372058868408,0.16045072674751282,0.4182371199131012,-0.24021004140377045
0.5697908997535706,7.921738624572754,5.291727066040039,-0.11650986224412918,0.2914743721485138,-0.013315413147211075
1.4605190753936768,7.77099084854126,6.402595043182373,-0.3155752718448639,0.17642922699451447,0.15286093950271606
1.3983057737350464,8.328817367553711,7.456035137176514,-0.1037270650267601,0.0667102187871933,0.034620072692632675
1.2831511497497559,8.288139343261719,7.664510250091553,0.04966649040579796,0.11038476973772049,-0.01438064593821764
0.6367899179458618,8.508278846740723,7.350750923156738,0.20092958211898804,0.14660269021987915,-0.0740336924791336
-0.4501497745513916,8.647361755371094,6.572485446929932,0.27336543798446655,0.183885857462883,-0.052729032933712006
-1.3432707786560059,8.604290962219238,5.619843006134033,0.21158191561698914,0.36923640966415405,0.10066451877355576
-1.0869396924972534,8.517850875854492,5.871089458465576,0.04434032365679741,0.6929340958595276,0.29240646958351135
-0.6415755748748779,8.05095100402832,7.010671138763428,-0.06963960826396942,0.8175663352012634,0.4019923210144043
-0.5003990530967712,7.742276668548584,7.472784996032715,-0.0824224054813385,0.7557828426361084,0.4105141758918762
-0.5530411601066589,7.002296447753906,8.009076118469238,-0.0185084231197834,0.5139749050140381,0.3328853249549866
-0.7636095285415649,6.786942481994629,8.171788215637207,0.05499265342950821,0.4171718955039978,0.28388461470603943
-1.501197099685669,6.69362211227417,7.551748275756836,0.2477998286485672,0.22223423421382904,0.28068891167640686
-1.383948802947998,6.751049995422363,6.572485446929932,0.3745625615119934,0.1519288569688797,0.4680367708206177
-1.0151549577713013,6.667301177978516,6.026622772216797,0.416106641292572,0.20945143699645996,0.5788210034370422
0.14117653667926788,6.401398658752441,5.296513080596924,0.40012815594673157,0.4926702678203583,0.7055837512016296
0.4262215197086334,6.387042045593262,5.346762180328369,0.28295251727104187,0.7003906965255737,0.6448654532432556
0.02871387079358101,6.449255466461182,5.4520463943481445,0.1412765234708786,0.6354115009307861,0.5585815906524658
-0.09571290761232376,6.669693946838379,5.093122959136963,-0.05472634732723236,0.3766930401325226,0.5244941115379333
-0.12442677468061447,6.724729061126709,4.942076206207275,-0.18242116272449493,0.2509955167770386,0.5223636627197266
0.32572299242019653,6.782156467437744,5.1290154457092285,-0.41357672214508057,0.11571093648672104,0.5372769236564636
1.0606186389923096,6.853941440582275,5.782555103302002,-0.5200999975204468,0.11571093648672104,0.47016721963882446
1.0941181182861328,6.961618423461914,6.438487529754639,-0.5051867365837097,0.11784140020608902,0.31584158539772034
0.7157530784606934,7.0648088455200195,6.948457717895508,-0.3667064607143402,0.1625811904668808,0.18588316440582275
0.3520440459251404,7.454838752746582,6.917351245880127,-0.11650986224412918,0.23501703143119812,0.11983871459960938
-0.0023928226437419653,7.802097320556641,6.450451850891113,0.0880148783326149,0.38947582244873047,0.2018616646528244
0.22492532432079315,7.663313388824463,5.902195930480957,0.13595037162303925,0.3948020040988922,0.3359478712081909
0.7396813035011292,7.636992454528809,5.883053779602051,0.05499265342950821,0.3330184817314148,0.3615134656429291
0.6798607110977173,7.665706634521484,5.9452667236328125,-0.009986559860408306,0.2563216984272003,0.310515433549881
0.4668995141983032,7.687242031097412,6.254240036010742,-0.04620448127388954,0.2062557488679886,0.28388461470603943
0.4381856322288513,7.680063247680664,6.481558322906494,-0.03022598661482334,0.08375394344329834,0.27003657817840576
0.7061817646026611,7.806882858276367,6.002694606781006,0.011318100616335869,-0.01637795753777027,0.2561885416507721
1.0606186389923096,7.759026527404785,5.935695648193359,-0.0025299284607172012,0.04647079110145569,0.222101092338562
1.0965110063552856,7.668099403381348,6.2327046394348145,0.000665770610794425,0.0773625448346138,0.13155627250671387
0.7731808423995972,7.895417213439941,6.4456658363342285,0.0347532257437706,0.0347532257437706,0.027163442224264145
0.2706880569458008,8.187641143798828,6.498308181762695,0.08162347972393036,-0.09200949966907501,0.01118494663387537
0.019142581149935722,8.223533630371094,5.8734822273254395,0.10612384229898453,-0.3560541272163391,0.1262301206588745
0.385543555021286,7.821239948272705,5.581557750701904,0.03262276202440262,-0.5893401503562927,0.16777420043945312
0.8859425783157349,7.960023403167725,5.540580749511719,-0.04940018057823181,-0.9471253156661987,0.10492545366287231
1.2951152324676514,8.376673698425293,4.221537113189697,-0.22396524250507355,-0.829949676990509,0.4637758135795593
3.643969774246216,7.0887370109558105,5.3347978591918945,-0.5893401503562927,-0.8800156116485596,0.5255593657493591
2.094916343688965,6.399005889892578,7.041778087615967,-0.8001231551170349,-1.3039783239364624,0.20718781650066376
1.505982756614685,7.229913711547852,6.723532676696777,-0.8054493069648743,-2.2847917079925537,0.3615134656429291
1.908276081085205,7.055237770080566,6.98195743560791,-0.838471531867981,-2.4019672870635986,0.6906704902648926
3.9146578311920166,6.4325056076049805,7.1255269050598145,-0.6319494843482971,-2.259226083755493,0.8366073966026306
5.047060966491699,5.786144256591797,6.187241077423096,-0.36031508445739746,-1.7373950481414795,0.6565830111503601
5.329414367675781,5.419743061065674,5.435296535491943,-0.2079867422580719,-0.9013202786445618,0.3391435742378235
4.905585289001465,5.587540149688721,5.181657314300537,-0.23142187297344208,-0.11118369549512863,0.09107742458581924
4.458127498626709,5.134997367858887,6.809674263000488,-0.3880111277103424,0.06990591436624527,0.01118494663387537
4.5323052406311035,4.941178798675537,7.549355506896973,-0.40292438864707947,-0.039813082665205,-0.010119713842868805
4.436592102050781,5.010570526123047,7.719544887542725,-0.3443365693092346,-0.29640108346939087,-0.055924732238054276
3.9768712520599365,5.142175674438477,7.0633134841918945,-0.28574874997138977,-0.25485700368881226,0.015445878729224205
3.8138601779937744,5.1565327644348145,6.79531717300415,-0.3784240186214447,-0.12290126085281372,0.11238208413124084
4.074976921081543,5.340780258178711,7.3292155265808105,-0.4423380196094513,0.1828206181526184,0.1816222369670868
3.691826343536377,5.31685209274292,8.562117576599121,-0.3379451632499695,0.4798874855041504,0.18481792509555817
2.6240291595458984,5.458327770233154,8.397012710571289,-0.04726971685886383,0.03155753016471863,0.20718781650066376
3.1100711822509766,5.556433200836182,6.625426769256592,0.014513799920678139,0.08588441461324692,0.3359478712081909
4.563411712646484,5.441278457641602,9.364311218261719,0.12849372625350952,1.4267464876174927,0.14114338159561157
3.0765717029571533,5.877071380615234,8.315656661987305,0.651390016078949,0.8804150819778442,0.0047935484908521175
2.9760732650756836,5.917749404907227,7.355536937713623,0.7195649147033691,0.9485899806022644,0.054859500378370285
2.334198474884033,6.044867992401123,6.687640190124512,0.6364767551422119,1.095458984375,0.14433906972408295
2.4038894176483154,5.84357213973999,7.348358154296875,0.48534679412841797,1.0252867937088013,0.2774932086467743
2.456531524658203,6.032904148101807,7.494320392608643,0.4491288661956787,0.7951964735984802,0.35299158096313477
2.501995086669922,6.128616809844971,7.295716285705566,0.461911678314209,0.7547175884246826,0.39453569054603577
2.698206663131714,6.178866386413574,7.092027187347412,0.5171706080436707,0.9475247859954834,0.477623850107193
2.5450658798217773,6.092724800109863,7.544569969177246,0.5576494932174683,1.1146332025527954,0.5266245603561401
2.5211377143859863,5.946463584899902,8.021040916442871,0.6556509137153625,1.057243824005127,0.5617772936820984
2.525923490524292,6.138188362121582,7.731509208679199,0.8410014510154724,0.8037183284759521,0.5639077425003052
2.3198416233062744,6.312864303588867,7.698009490966797,0.8718932271003723,0.7206301689147949,0.5969299674034119
1.5777673721313477,6.477969169616699,6.845566272735596,0.9187634587287903,0.5917369723320007,0.7513887286186218
2.1020946502685547,6.485147476196289,6.366703033447266,0.8846760392189026,0.7834789156913757,0.9653674364089966
2.5235304832458496,6.140581130981445,5.976373672485352,0.8292838931083679,1.028482437133789,1.0740212202072144
2.8298118114471436,6.032904148101807,5.615057468414307,0.6812165379524231,1.35537588596344,1.1336742639541626
3.4525439739227295,5.989833354949951,6.493522644042969,0.49373549222946167,1.8463151454925537,1.0729559659957886
2.461317300796509,6.09033203125,7.853542804718018,0.40225863456726074,1.8846635818481445,0.9303479194641113
1.2855439186096191,6.085546016693115,9.651450157165527,0.3447360396385193,0.9592423439025879,0.9845415949821472
1.012762188911438,5.776573181152344,9.591629981994629,0.48534679412841797,-0.4189028739929199,1.2039796113967896
0.7878368496894836,6.293721675872803,7.829614639282227,0.7035863995552063,-1.0057131052017212,1.499049186706543
1.9130617380142212,6.286543369293213,5.650949954986572,0.6961297988891602,-1.006778359413147,1.871747612953186
4.1036906242370605,5.5229339599609375,5.471189022064209,0.44486793875694275,-0.9098421335220337,1.9995754957199097
5.530710220336914,5.1182475090026855,6.0625152587890625,0.32556185126304626,-0.663906455039978,1.7567024230957031
4.900799751281738,5.245067119598389,6.40020227432251,0.37349733710289,-0.0717700719833374,1.421287178993225
4.000799655914307,5.740680694580078,6.888637065887451,0.4832163453102112,0.5800193548202515,1.2955896854400635
3.950550079345703,5.652146339416504,6.79531717300415,0.5416709780693054,0.8250229954719543,1.3126333951950073
4.750051975250244,5.26899528503418,6.977171897888184,0.5714974999427795,1.0890675783157349,1.3041114807128906
4.929513931274414,5.166104316711426,7.137789726257324,0.5896064639091492,1.1551120281219482,1.2348713874816895
4.350151538848877,5.340780258178711,7.156932353973389,0.6567161679267883,1.2882661819458008,1.0740212202072144
3.5626137256622314,5.357530117034912,7.195217609405518,0.559779942035675,1.1295465230941772,1.0878691673278809
4.458127498626709,5.350351333618164,5.420939922332764,0.5480623841285706,0.8931978940963745,1.2210233211517334
3.8784663677215576,5.089533805847168,8.653044700622559,0.7493914365768433,1.4437901973724365,1.0718907117843628
4.235296249389648,5.027320384979248,7.772187232971191,0.6226286888122559,0.7408695816993713,1.131543755531311
4.347758769989014,5.489434242248535,7.51585578918457,0.5107792615890503,0.7078473567962646,1.1666964292526245
4.582554340362549,5.5468621253967285,7.456035137176514,0.43528082966804504,1.2254174947738647,1.2945244312286377
5.341378211975098,5.398207664489746,7.654639720916748,0.5054530501365662,1.9475122690200806,1.2753502130508423
2.11405873298645,5.7047882080078125,8.619544982910156,0.5267577171325684,1.812227725982666,0.5884081125259399
2.8513472080230713,5.388636589050293,8.135895729064941,0.5139749050140381,1.9581645727157593,0.7833457589149475
2.6503500938415527,5.326423168182373,9.210871696472168,0.4310199022293091,1.203047513961792,0.734345018863678
3.2751760482788086,5.240281581878662,8.298907279968262,0.47789016366004944,0.24566936492919922,0.7865414619445801
3.457329511642456,5.307280540466309,7.937291622161865,0.5512580871582031,0.2616478502750397,0.7801500558853149
3.248854875564575,6.260222434997559,6.354738712310791,0.7888050675392151,1.7632269859313965,0.7737586498260498
3.392723321914673,6.03529691696167,6.86470890045166,0.8410014510154724,2.5407140254974365,0.7364754676818848
2.5953152179718018,6.186044692993164,7.197610378265381,0.7025212049484253,2.247907876968384,0.6192998290061951
1.1730812788009644,6.4085774421691895,6.630212306976318,0.5395405292510986,2.013556718826294,0.6991923451423645
1.1515458822250366,6.351149559020996,6.730710983276367,0.30532240867614746,1.9411208629608154,0.9292826652526855
1.572981834411621,6.1573309898376465,8.011468887329102,0.04114462435245514,1.4469859600067139,1.0495208501815796
1.651944875717163,5.8387861251831055,7.970791339874268,-0.16218173503875732,0.38947582244873047,1.1176958084106445
2.056631088256836,5.946463584899902,7.551748275756836,-0.10053136944770813,0.5065183043479919,1.1123695373535156
2.2025933265686035,5.927320957183838,7.094419956207275,0.09334104508161545,1.24991774559021,1.092130184173584
2.425424814224243,5.585147380828857,7.336394309997559,0.37349733710289,2.449103832244873,1.0740212202072144
2.008774518966675,5.487041473388672,7.590033531188965,0.6247591972351074,3.4918339252471924,0.9271522164344788
1.3719847202301025,6.068796634674072,8.164609909057617,0.6279548406600952,3.5438971519470215,0.9706935882568359
1.6304094791412354,5.446064472198486,7.269395351409912,0.16364642977714539,1.3873329162597656,1.0814778804779053
2.868396043777466,5.71914529800415,7.192824840545654,0.04007939249277115,1.2531135082244873,1.0463250875473022
3.208176851272583,5.740680694580078,7.954041481018066,0.05179695412516594,1.3425930738449097,0.8440639972686768
2.252842426300049,5.865107536315918,8.164609909057617,0.1828206181526184,1.4682905673980713,0.6928009390830994
1.9058831930160522,5.963212966918945,9.031410217285156,0.26484355330467224,1.1540467739105225,0.71197509765625
1.6639090776443481,5.71914529800415,7.958827018737793,0.3958672285079956,0.8282186985015869,0.7524539828300476
3.1818559169769287,5.441278457641602,6.5389862060546875,0.3138442933559418,0.7557828426361084,0.6970618367195129
3.177070379257202,5.4556355476379395,6.716353893280029,0.03262276202440262,0.7706961035728455,0.3679048418998718
2.4828526973724365,5.944070339202881,7.369893550872803,-0.08135717362165451,0.7621742486953735,0.23807957768440247
1.158724308013916,6.49980354309082,8.253443717956543,-0.18348638713359833,0.6609770655632019,0.306254506111145
1.348056435585022,6.358327865600586,7.681259632110596,-0.21650861203670502,0.5075835585594177,0.5415378212928772
1.6040884256362915,6.183651924133301,7.3292155265808105,-0.2942706346511841,0.40012815594673157,0.6086475253105164
1.9800606966018677,5.970391750335693,7.784151077270508,-0.30811864137649536,0.4299546778202057,0.6182346343994141
1.9489539861679077,5.915356636047363,8.22712230682373,-0.17283405363559723,0.4501941204071045,0.5404726266860962
1.4820544719696045,6.121438503265381,7.288537979125977,0.007057168986648321,0.48308318853378296,0.4999937415122986
1.3193426132202148,6.214758396148682,6.651747703552246,0.03688369318842888,0.5533885359764099,0.519167959690094
1.3408780097961426,6.164509296417236,6.498308181762695,-0.03661738336086273,0.7259563207626343,0.6107779741287231
1.3097712993621826,5.941677570343018,7.048956394195557,-0.11544463038444519,0.6822817325592041,0.6842790842056274
1.0151549577713013,5.97517728805542,7.35314416885376,-0.15046416223049164,0.4288894534111023,0.7290188670158386
0.8715856671333313,6.142973899841309,7.16650390625,-0.14833369851112366,0.30745288729667664,0.7663019895553589
1.1084750890731812,6.360720634460449,6.601199626922607,-0.16324695944786072,0.26484355330467224,0.903717041015625
1.5777673721313477,5.963212966918945,6.352345943450928,-0.19413872063159943,0.9358072280883789,0.9813459515571594
1.3049856424331665,6.02811861038208,7.322037220001221,-0.1536598652601242,1.4949214458465576,0.8600425124168396
0.7444669604301453,6.233901023864746,8.528617858886719,-0.15898603200912476,1.3500497341156006,0.8696296215057373
0.7636095285415649,5.855535984039307,8.483154296875,-0.18455162644386292,0.7206301689147949,0.9303479194641113
1.6974085569381714,5.654539108276367,7.9851484298706055,-0.1983996480703354,0.4480636417865753,0.8706948161125183
2.2743778228759766,6.164509296417236,8.535796165466309,-0.1440727710723877,0.6322157979011536,0.6533873081207275
1.6160526275634766,6.55483865737915,9.122337341308594,-0.0717700719833374,0.5224968194961548,0.47016721963882446
0.6487540602684021,6.2530436515808105,7.613961696624756,-0.1430075317621231,-0.004660394508391619,0.4094489514827728
0.8859425783157349,6.892226696014404,7.432106971740723,-0.37096738815307617,-0.12716218829154968,0.5074504017829895
1.0414760112762451,7.086344242095947,8.823234558105469,-0.30918389558792114,0.3671059310436249,0.6970618367195129
1.4676976203918457,6.504589080810547,9.6466646194458,0.07416684925556183,0.8963935971260071,0.8685643672943115
1.9106688499450684,5.948856353759766,9.455238342285156,0.457650750875473,1.1359378099441528,0.9122389554977417
1.4437693357467651,6.15254545211792,7.944470405578613,0.37882348895072937,0.9965254664421082,0.8525858521461487
1.2448660135269165,5.735895156860352,8.107182502746582,0.20732097327709198,0.7866745591163635,0.8728253245353699
1.197009563446045,5.19960355758667,9.12712287902832,-0.04726971685886383,0.3298227787017822,0.8461945056915283
1.572981834411621,5.154139995574951,9.596415519714355,0.03901416063308716,0.07310161739587784,0.6959966421127319
1.1467602252960205,5.314459323883057,8.854341506958008,0.3308880031108856,0.12316756695508957,0.45951488614082336
0.19621145725250244,5.525326728820801,7.772187232971191,0.5395405292510986,0.3553883731365204,0.3380783200263977
-0.5697908997535706,5.826822280883789,7.065706253051758,0.5352795720100403,0.4820179343223572,0.3902747631072998
-0.5530411601066589,5.989833354949951,6.522236347198486,0.36923640966415405,0.5193011164665222,0.5351464152336121
-0.41904306411743164,5.948856353759766,6.4289164543151855,0.12849372625350952,0.5757584571838379,0.6054518222808838
-0.6272186636924744,5.654539108276367,7.159325122833252,-0.07496577501296997,0.6492595076560974,0.6352783441543579
-0.8333004713058472,5.4173502922058105,8.044968605041504,-0.14620323479175568,0.5885412693023682,0.6704310178756714
0.0023928226437419653,5.450850009918213,7.717152118682861,0.06244928762316704,0.2477998286485672,0.6853442788124084
0.21296121180057526,5.549254894256592,7.496713161468506,0.09760197252035141,0.41184571385383606,0.5969299674034119
-0.30658039450645447,5.671288967132568,7.69322395324707,0.09760197252035141,0.5107792615890503,0.47336292266845703
-0.7181459069252014,5.972784519195557,7.860721588134766,0.05392742156982422,0.41291093826293945,0.4435364007949829
-0.6343970894813538,5.953641891479492,7.724330425262451,-0.0003994623839389533,0.21903854608535767,0.5106461048126221
0.08135596662759781,5.723930835723877,7.855936050415039,-0.013182258233428001,0.16045072674751282,0.5319507122039795
0.768395185470581,5.599503993988037,7.772187232971191,0.22436471283435822,0.04327509179711342,0.2956021726131439
0.14835500717163086,6.358327865600586,6.13699197769165,0.2818872928619385,0.11890663951635361,0.11451254785060883
-0.41186460852622986,6.806085109710693,6.543771743774414,0.1199718713760376,0.2062557488679886,0.12516488134860992
-0.22971096634864807,6.968796730041504,6.618248462677002,0.02410089783370495,0.205190509557724,0.25192761421203613
0.34247273206710815,6.691229343414307,7.930113315582275,0.04220985993742943,0.40332385897636414,0.3370130956172943
-0.3329014480113983,6.492326259613037,6.567699909210205,0.11784140020608902,0.19240771234035492,0.29453691840171814
-0.15074782073497772,6.93529748916626,6.577271461486816,-0.04300878196954727,0.37136685848236084,0.3328853249549866
-0.019142581149935722,6.944868564605713,7.970791339874268,-0.1143793985247612,0.5001268982887268,0.4147751033306122
0.035892341285943985,6.449255466461182,8.277371406555176,-0.03022598661482334,0.3234313726425171,0.4243622124195099
0.2392822653055191,6.298507213592529,8.068897247314453,0.05499265342950821,0.09653674066066742,0.35299158096313477
0.4573282301425934,6.389434814453125,7.808079242706299,0.10186290740966797,-0.11011846363544464,0.2231663167476654
0.3041875660419464,6.734300136566162,7.075277328491211,0.23288656771183014,-0.218639075756073,0.1059906855225563
0.11964113265275955,6.688836574554443,7.0561347007751465,0.2573869228363037,-0.31770575046539307,0.07829462736845016
0.3568296730518341,6.4564337730407715,7.269395351409912,0.29573532938957214,-0.4764254689216614,0.07190322875976562
0.8620143532752991,7.160521984100342,6.8264241218566895,0.43421560525894165,-0.8416672348976135,0.01118494663387537
0.8620143532752991,7.189235687255859,5.988337993621826,0.3532578945159912,-0.9354077577590942,0.07829462736845016
2.0997018814086914,6.794120788574219,7.144968509674072,0.06990591436624527,-1.0323439836502075,-0.050598569214344025
1.9513468742370605,6.990332126617432,7.664510250091553,-0.48068639636039734,-0.671363115310669,-0.10066451877355576
2.2887349128723145,6.583552360534668,8.025826454162598,-0.44766417145729065,-0.7766880393028259,-0.11025162041187286
2.384746789932251,6.648158550262451,8.028219223022461,-0.4114462435245514,-0.838471531867981,-0.15179570019245148
2.063809633255005,6.523731708526611,7.939684867858887,-0.34220612049102783,-0.8821461200714111,-0.1912093311548233
2.344068765640259,6.3631134033203125,7.944470405578613,-0.24420467019081116,-0.8565804958343506,-0.1294258087873459
2.501995086669922,6.209972858428955,7.7817583084106445,-0.1983996480703354,-0.7649704813957214,-0.10172975063323975
3.088535785675049,5.848357677459717,7.724330425262451,-0.13128997385501862,-0.4934692084789276,-0.07935985922813416
3.7683966159820557,5.304887771606445,8.260622024536133,-0.11864032596349716,-0.6074491143226624,-0.23701435327529907
2.588136672973633,5.697609901428223,7.872685432434082,0.01664426550269127,-0.9620385766029358,-0.5021241903305054
2.008774518966675,6.248258113861084,4.214358806610107,0.04327509179711342,-0.38588064908981323,-0.3689700961112976
2.628814697265625,5.544469356536865,6.352345943450928,-0.17283405363559723,0.4703003764152527,-0.14327384531497955
3.4860434532165527,5.597111225128174,8.135895729064941,-0.08348763734102249,0.5171706080436707,-0.1177082508802414
3.2177481651306152,5.558825969696045,7.436892986297607,0.08588441461324692,0.28614822030067444,-0.1166430190205574
2.6862425804138184,5.8148579597473145,5.368297576904297,0.0454055592417717,0.4533897936344147,-0.0015978495357558131
2.659921407699585,5.690431118011475,4.281357765197754,-0.05472634732723236,0.8154358863830566,0.0857512578368187
2.5378875732421875,5.453242778778076,5.071587562561035,-0.4125114977359772,1.782401204109192,0.19547025859355927
2.4996023178100586,5.079962253570557,8.100004196166992,-0.7436658143997192,1.6216840744018555,0.15712186694145203
1.4054841995239258,5.249852657318115,8.756235122680664,-0.5360785126686096,-0.13035789132118225,0.016511112451553345
2.2719850540161133,5.276174068450928,8.083253860473633,-0.3890763521194458,-0.19946488738059998,-0.029293907806277275
2.8130621910095215,5.441278457641602,8.203194618225098,-0.302792489528656,-0.302792489528656,-0.2657756507396698
2.7269206047058105,5.510969638824463,8.06650447845459,-0.23035664856433868,-0.34966275095939636,-0.38388335704803467
1.7117655277252197,6.138188362121582,8.011468887329102,-0.11331415921449661,0.5235620141029358,0.21784014999866486
2.4445674419403076,5.9321064949035645,8.449654579162598,-0.09733566641807556,0.42143282294273376,0.17949175834655762
2.087737798690796,6.109474182128906,8.655437469482422,-0.04833494871854782,0.2477998286485672,0.051663801074028015
1.6112669706344604,6.348756790161133,8.377870559692383,0.01770949922502041,0.14979839324951172,0.053794268518686295
1.5251253843307495,6.475576400756836,8.179265975952148,0.07416684925556183,0.1956034153699875,0.1720351278781891
1.8026927709579468,6.303293228149414,8.121539115905762,0.1199718713760376,0.26484355330467224,0.2902759909629822
2.221735715866089,6.080760478973389,8.155038833618164,0.18601632118225098,0.26271310448646545,0.2987978756427765
2.4278175830841064,6.056832313537598,7.925327777862549,0.25206077098846436,0.2062557488679886,0.18375270068645477
2.401496648788452,6.241079807281494,7.977969646453857,0.29786577820777893,0.23501703143119812,0.032489608973264694
2.1619153022766113,6.401398658752441,8.140681266784668,0.3298227787017822,0.29360485076904297,-0.017576344311237335
1.3767703771591187,6.722336292266846,8.423334121704102,0.38201919198036194,0.2563216984272003,-0.0005326165119186044
1.7285152673721313,6.454041004180908,6.8982086181640625,0.2509955167770386,0.41397619247436523,0.27003657817840576
1.3959128856658936,6.066403388977051,8.59322452545166,0.1721682846546173,0.7461957335472107,0.2742975056171417
1.0534402132034302,6.109474182128906,9.850353240966797,0.4821510910987854,0.6854774355888367,0.20505735278129578
0.6487540602684021,5.948856353759766,8.830412864685059,0.7184996604919434,0.49480074644088745,0.19333979487419128
0.646361231803894,5.860321521759033,6.558128833770752,0.7344781756401062,0.354323148727417,0.0846860259771347
0.05024927482008934,6.135795593261719,5.737091541290283,0.4990616738796234,0.6066502332687378,0.00905448105186224
-0.6367899179458618,5.941677570343018,6.934101104736328,0.20092958211898804,0.6939992904663086,0.07083799690008163
-0.859621524810791,5.960820198059082,7.731509208679199,0.13488513231277466,0.605584979057312,0.12196917831897736
-1.0319048166275024,5.757430553436279,8.263014793395996,0.1742987483739853,0.13808083534240723,0.24234052002429962
-0.40229329466819763,5.697609901428223,7.286144733428955,0.2808220684528351,-0.16750788688659668,0.3380783200263977
0.12442677468061447,5.810072422027588,6.558128833770752,0.3308880031108856,0.06457975506782532,0.2966673970222473
-0.11964113265275955,6.15972375869751,6.519843578338623,0.39373674988746643,0.6609770655632019,0.21890538930892944
-0.11964113265275955,6.190830230712891,5.837589740753174,-0.04194355010986328,0.2264951765537262,0.21890538930892944
0.04785645380616188,6.276971817016602,6.369095802307129,-0.345401793718338,-0.04620448127388954,0.1272953450679779
-0.05742774158716202,6.477969169616699,7.601997375488281,-0.37416309118270874,-0.01957365684211254,0.0037283156998455524
-0.5578267574310303,7.210771083831787,7.393822193145752,0.10079767554998398,0.04007939249277115,0.015445878729224205
-0.40707895159721375,7.234699249267578,6.5868425369262695,0.16364642977714539,-0.005725627299398184,0.13049104809761047
-0.26590242981910706,7.196413993835449,6.38584566116333,0.13808083534240723,-0.009986559860408306,0.1805569976568222
0.02392822690308094,7.146164894104004,6.369095802307129,0.005991935729980469,-0.18881255388259888,0.24021004140377045
0.27308088541030884,7.229913711547852,6.211169242858887,-0.05792204663157463,-0.34007564187049866,0.24660144746303558
0.7444669604301453,7.349554538726807,6.419344902038574,-0.04620448127388954,-0.13994498550891876,0.2252967804670334
0.7998009920120239,7.349554538726807,6.7881388664245605,0.10292813926935196,0.12636326253414154,0.09427312016487122
0.7420741319656372,7.483552932739258,6.962814807891846,0.16897258162498474,0.2041252851486206,0.043141938745975494
0.5578267574310303,7.65374231338501,6.936493873596191,0.27443066239356995,0.24247366189956665,-0.030359141528606415
0.5961119532585144,7.641777992248535,6.859923362731934,0.27336543798446655,0.05499265342950821,-0.09746882319450378
0.5315057039260864,7.811668395996094,6.759424686431885,0.14340700209140778,-0.10053136944770813,-0.18588316440582275
0.7396813035011292,7.931309700012207,7.144968509674072,0.10505861043930054,-0.07816147059202194,-0.2018616646528244
0.7902296781539917,7.790132999420166,7.338787078857422,0.18708154559135437,0.05499265342950821,-0.27323228120803833
0.7396813035011292,7.986344814300537,7.396214962005615,0.2264951765537262,0.14660269021987915,-0.2869471311569214
0.6248258352279663,7.893024444580078,7.451249599456787,0.2254299372434616,0.16790735721588135,-0.2741643488407135
0.3233301639556885,7.59870719909668,7.539783954620361,0.21051667630672455,0.14766792953014374,-0.23062294721603394
0.6176473498344421,7.445267677307129,7.441678524017334,0.19666863977909088,0.08375394344329834,-0.19653549790382385
1.1419745683670044,6.99751091003418,7.365108013153076,0.1742987483739853,0.1402112990617752,-0.0857512578368187
1.4724832773208618,6.614659309387207,7.585247993469238,0.15725502371788025,0.13808083534240723,-0.09107742458581924
1.5466607809066772,6.238687038421631,7.384250640869141,0.17536398768424988,-0.04620448127388954,-0.19653549790382385
1.5442678928375244,6.131010055541992,7.077670097351074,0.19240771234035492,-0.14101022481918335,-0.2668408751487732
1.6734803915023804,6.102295875549316,6.6230340003967285,0.2062557488679886,-0.19946488738059998,-0.4115794003009796
1.6806588172912598,6.1812591552734375,6.6107707023620605,0.21051667630672455,-0.1856168508529663,-0.48188477754592896
1.2831511497497559,6.274579048156738,6.45523738861084,0.22116900980472565,-0.16111649572849274,-0.5937342643737793
0.8715856671333313,6.566802501678467,6.452844619750977,0.14979839324951172,-0.11118369549512863,-0.6150389313697815
0.43100717663764954,7.045666217803955,7.135097980499268,0.0027962366584688425,-0.27616167068481445,-0.42968836426734924
0.37597227096557617,7.0046892166137695,7.3746795654296875,-0.00359516148455441,-0.3368799388408661,-0.3306216895580292
0.7229315638542175,6.837191581726074,7.259823799133301,0.08375394344329834,-0.33155378699302673,-0.14540430903434753
1.0319048166275024,6.789335250854492,6.5150580406188965,0.16364642977714539,-0.23248711228370667,-0.056989967823028564
0.7061817646026611,6.602694988250732,6.0987067222595215,0.13275466859340668,-0.08348763734102249,-0.0026630824431777
0.521934449672699,6.530910491943359,6.175277233123779,0.08908011019229889,-0.01957365684211254,0.036750540137290955
0.48843491077423096,6.399005889892578,6.414559364318848,0.01664426550269127,-0.09520520269870758,0.11025162041187286
0.8261220455169678,6.38464879989624,6.172883987426758,-0.0025299284607172012,-0.2697702646255493,0.1294258087873459
1.0534402132034302,6.4564337730407715,5.792126178741455,-0.00359516148455441,-0.30918389558792114,0.08042509108781815
1.1276177167892456,6.700800895690918,5.408975601196289,-0.01637795753777027,-0.23461757600307465,0.01438064593821764
1.2113664150238037,6.901797771453857,5.119443893432617,-0.0611177459359169,-0.06537867337465286,0.016511112451553345
1.2783654928207397,6.999903678894043,5.375475883483887,-0.11011846363544464,0.16471165418624878,0.023967742919921875
1.1611171960830688,7.050451755523682,5.95962381362915,-0.14194230735301971,0.2776263654232025,0.033554840832948685
1.0342975854873657,6.9807610511779785,6.158527374267578,-0.15898603200912476,0.2712349593639374,0.046337638050317764
0.9888339638710022,6.964011192321777,6.32363224029541,-0.18455162644386292,0.2488650679588318,0.061250898987054825
1.1060823202133179,7.131807804107666,6.6708903312683105,-0.22716094553470612,0.22010377049446106,0.0846860259771347
1.189831018447876,7.289734363555908,6.9699931144714355,-0.25485700368881226,0.20092958211898804,0.09959928691387177
1.1228320598602295,7.351947784423828,7.345965385437012,-0.23674803972244263,0.22862564027309418,0.13155627250671387
1.0701899528503418,7.289734363555908,7.561319351196289,-0.1749645173549652,0.20732097327709198,0.16670896112918854
1.1922239065170288,7.2921271324157715,7.506284713745117,-0.11011846363544464,0.14553746581077576,0.1816222369670868
1.292722463607788,7.4739813804626465,7.317251682281494,-0.0504654161632061,0.10399337112903595,0.14114338159561157
1.2592228651046753,7.553243637084961,7.271788120269775,-0.01957365684211254,0.12529803812503815,0.12409964948892593
1.1682956218719482,7.859525203704834,7.427321434020996,0.1199718713760376,0.24993029236793518,0.13368675112724304
1.1228320598602295,7.775776386260986,6.996314525604248,0.18708154559135437,0.2797568142414093,0.16670896112918854
1.0534402132034302,7.720741271972656,7.053741931915283,0.13488513231277466,0.3213009238243103,0.19547025859355927
1.0390832424163818,7.727920055389404,7.211967468261719,0.09973244369029999,0.289343923330307,0.19973118603229523
0.9194421172142029,7.553243637084961,7.17368221282959,0.0347532257437706,0.1412765234708786,0.18694838881492615
0.6080760359764099,7.272984504699707,7.267002582550049,-0.03768261894583702,0.09014534205198288,0.1496652364730835
0.521934449672699,7.296912670135498,7.657331466674805,-0.03129122033715248,0.05073172226548195,0.11131685227155685
0.48364928364753723,7.361518859863281,7.707581043243408,0.013448567129671574,0.01877473294734955,0.09853405505418777
0.39990049600601196,7.308876991271973,7.29810905456543,0.12423279881477356,0.010252867825329304,0.09214265644550323
0.30179476737976074,7.296912670135498,7.0633134841918945,0.1529940962791443,0.10186290740966797,0.10279498994350433
-0.2754737138748169,7.067201614379883,7.077670097351074,0.1423417627811432,0.098667211830616,0.1486000120639801
-0.5171487927436829,6.69362211227417,6.965207576751709,0.13275466859340668,0.03794892504811287,0.2252967804670334
-0.33050861954689026,6.0640106201171875,6.711568355560303,0.1306242048740387,-0.03874785080552101,0.2881455421447754
-0.3233301639556885,6.186044692993164,6.3738813400268555,0.15405932068824768,-0.11224892735481262,0.2348838746547699
-0.2826521694660187,6.389434814453125,5.765805244445801,0.10079767554998398,-0.15898603200912476,0.22103585302829742
-0.30179476737976074,6.468397617340088,5.926124572753906,-0.02276935614645481,-0.1474016159772873,0.25831902027130127
-0.20338992774486542,6.489933013916016,5.997909069061279,-0.1334204375743866,-0.23461757600307465,0.32329821586608887
0.2584248483181,6.360720634460449,6.088836193084717,-0.23461757600307465,-0.2814878225326538,0.35512205958366394
0.8045865893363953,6.303293228149414,6.45523738861084,-0.279357373714447,-0.26550933718681335,0.2860150635242462
0.9361918568611145,6.355935096740723,6.656533718109131,-0.27722689509391785,-0.2729659676551819,0.21038351953029633
0.9290133714675903,6.437291145324707,6.785746097564697,-0.22396524250507355,-0.3656412363052368,0.028228675946593285
0.524327278137207,6.8252272605896,6.280561447143555,-0.14833369851112366,-0.40612009167671204,-0.10918638855218887
0.3520440459251404,6.889833927154541,5.997909069061279,-0.13981182873249054,-0.3997286856174469,-0.1294258087873459
0.44297128915786743,6.868298530578613,6.129813194274902,-0.18242116272449493,-0.45618605613708496,-0.15073047578334808
0.3927220106124878,7.227520942687988,6.148955821990967,-0.1983996480703354,-0.733146607875824,-0.1922745555639267
0.3520440459251404,7.406982421875,5.933302879333496,-0.197334423661232,-0.8587109446525574,-0.16457849740982056
0.6487540602684021,7.46201753616333,5.200799942016602,-0.2687050402164459,-0.9748213887214661,-0.0740336924791336
0.9170492887496948,7.574779033660889,5.73469877243042,-0.40612009167671204,-0.9961260557174683,-0.01118494663387537
1.0079765319824219,7.694420337677002,6.27577543258667,-0.4636426866054535,-1.0057131052017212,0.10172975063323975
0.8835497498512268,7.138986587524414,7.2813591957092285,-0.516904354095459,-1.1718894243240356,0.21677492558956146
2.149951219558716,7.110272407531738,6.7809600830078125,-0.4284899830818176,-1.5019785165786743,0.24660144746303558
2.4517459869384766,7.100701332092285,6.888637065887451,-0.38481542468070984,-1.1388672590255737,0.19440503418445587
3.0717861652374268,7.098308563232422,7.424928665161133,-0.283618301153183,-0.7011896371841431,0.08042509108781815
2.971287488937378,7.105486869812012,8.025826454162598,-0.09520520269870758,-0.4508598744869232,-0.10812114924192429
2.377568483352661,7.373483180999756,7.977969646453857,0.09334104508161545,-0.5541874766349792,-0.23275341093540192
1.7883358001708984,7.687242031097412,7.875078201293945,0.20199480652809143,-0.8054493069648743,-0.20505735278129578
2.418246269226074,7.428517818450928,4.944468975067139,-0.05366111174225807,0.05499265342950821,0.06551183015108109
3.10528564453125,7.375875949859619,8.58604621887207,-0.015312724746763706,0.15618979930877686,-0.19440503418445587
1.4892330169677734,7.663313388824463,6.948457717895508,0.33940985798835754,-0.11864032596349716,-0.16564373672008514
3.2344980239868164,7.593921661376953,4.305285930633545,0.2371474951505661,1.1476554870605469,0.07722939550876617
3.3975090980529785,6.971189498901367,4.853541851043701,0.015579032711684704,2.228733777999878,0.0750989317893982
3.4046874046325684,6.200401782989502,7.192824840545654,-0.27509641647338867,2.4618866443634033,-0.08149032294750214
2.9353952407836914,6.080760478973389,10.075279235839844,-0.3464670479297638,1.8601632118225098,-0.21038351953029633
2.049452543258667,5.4556355476379395,9.31166934967041,-0.1536598652601242,0.6876079440116882,-0.27949050068855286
2.152343988418579,5.891428470611572,7.599604606628418,-0.18348638713359833,0.07416684925556183,-0.3082517981529236
2.8827531337738037,6.114260196685791,7.642675399780273,-0.21331290900707245,-0.2516613006591797,-0.35618728399276733
2.9042885303497314,5.671288967132568,7.312466144561768,-0.05898727849125862,0.2797568142414093,-0.3924052119255066
2.6958138942718506,5.391029357910156,7.439285755157471,0.0560578890144825,0.34793174266815186,-0.6192998290061951
1.7979071140289307,5.793322563171387,7.511070251464844,0.1508636325597763,0.3106485903263092,-0.7449973225593567
0.5769693851470947,5.989833354949951,7.35314416885376,0.19027724862098694,0.08055824786424637,-0.6587134599685669
0.5027918815612793,6.056832313537598,7.2430739402771,0.18814678490161896,-0.06431344151496887,-0.5298202633857727
1.1994023323059082,6.135795593261719,6.855137825012207,0.14979839324951172,-0.32090145349502563,-0.2657756507396698
1.7668004035949707,6.083153247833252,6.560521602630615,0.12210233509540558,-0.3688369393348694,-0.18481792509555817
2.204986095428467,6.095117568969727,6.14417028427124,0.04966649040579796,-0.2505960762500763,-0.1699046641588211
1.6734803915023804,6.22193717956543,6.19920539855957,-0.05366111174225807,0.06457975506782532,-0.19973118603229523
1.2711870670318604,6.138188362121582,6.938886642456055,-0.17922545969486237,0.21903854608535767,-0.17416560649871826
1.017547845840454,5.929713726043701,7.487142086029053,-0.2410089671611786,0.0880148783326149,-0.14646953344345093
0.8979067206382751,5.924928188323975,7.83200740814209,-0.22716094553470612,-0.0238345880061388,-0.10492545366287231
1.2448660135269165,5.8698930740356445,7.975576877593994,-0.15152940154075623,-0.16111649572849274,-0.0740336924791336
1.7285152673721313,6.626623153686523,6.690032958984375,0.09227581322193146,0.10186290740966797,-0.4009270668029785
0.6798607110977173,6.655336856842041,6.534200668334961,0.07097115367650986,0.31597474217414856,-0.33381739258766174
0.5123631358146667,6.777370929718018,6.790531635284424,-0.007856093347072601,0.34899696707725525,-0.17629607021808624
0.9553344249725342,6.8874406814575195,7.362715244293213,-0.03448691964149475,0.1519288569688797,-0.046337638050317764
1.5275181531906128,6.731907367706299,7.0633134841918945,0.009187635034322739,-0.05153064802289009,0.020772043615579605
1.6758731603622437,6.652944087982178,6.828816890716553,0.02410089783370495,-0.06537867337465286,0.013315413147211075
1.6639090776443481,6.770192623138428,6.699604511260986,0.02623136341571808,0.06031882017850876,-0.041011471301317215
1.4030914306640625,6.8874406814575195,6.7091755867004395,0.005991935729980469,0.2062557488679886,-0.043141938745975494
1.3600205183029175,7.186842918395996,7.322037220001221,-0.03342168778181076,0.28508299589157104,0.17523083090782166
1.6423736810684204,7.048058986663818,7.6043901443481445,0.010252867825329304,0.21797330677509308,0.16670896112918854
1.3432707786560059,7.423732280731201,7.664510250091553,0.2371474951505661,0.15938548743724823,0.0047935484908521175
0.6822535395622253,7.46919584274292,7.558926582336426,0.2680392563343048,0.2605826258659363,0.07935985922813416
0.524327278137207,7.395018577575684,7.065706253051758,0.22436471283435822,0.07949301600456238,0.2125139832496643
0.8524430394172668,7.036095142364502,6.064908027648926,-0.04300878196954727,0.05073172226548195,0.3009283244609833
1.572981834411621,6.801299095153809,9.378668785095215,0.10292813926935196,0.4097152650356293,0.0005326165119186044
0.5147559642791748,6.906583309173584,8.595617294311523,0.36071452498435974,0.5203663110733032,-0.061250898987054825
-0.3640081584453583,6.6816582679748535,7.94925594329834,0.4512593448162079,0.5512580871582031,0.07296846061944962
-0.24885354936122894,6.202794551849365,6.6469621658325195,0.3766930401325226,0.4065195620059967,0.2114487588405609
-0.6990033388137817,6.224329948425293,7.05134916305542,0.04220985993742943,-0.09733566641807556,0.11983871459960938
-0.7396813035011292,6.37747049331665,6.687640190124512,0.09760197252035141,-0.2388785034418106,0.18268746137619019
-0.26590242981910706,6.248258113861084,6.630212306976318,0.12742850184440613,-0.11864032596349716,0.2657756507396698
0.2946162819862366,6.020939826965332,6.699604511260986,0.11571093648672104,-0.1260969638824463,0.2338186502456665
0.12921242415905,6.018547058105469,6.902994155883789,0.07310161739587784,-0.13142313063144684,0.08362079411745071
-0.13639089465141296,6.224329948425293,7.048956394195557,0.06884068250656128,-0.08561810106039047,0.012250179424881935
-0.4860421121120453,6.652944087982178,6.8742804527282715,0.12423279881477356,0.04220985993742943,-0.012250179424881935
-0.3448655605316162,6.820441722869873,6.436094760894775,0.15832026302814484,0.2467346042394638,0.035685304552316666
-0.38315072655677795,6.739085674285889,5.962016582489014,0.10079767554998398,0.3564535975456238,0.035685304552316666
-0.4621138870716095,6.861119747161865,6.1944193840026855,-0.04407401755452156,0.24993029236793518,0.0079892473295331
-0.44297128915786743,7.069594383239746,6.266204357147217,-0.15898603200912476,-0.09733566641807556,-0.010119713842868805
-0.3975076675415039,7.28255558013916,6.196812629699707,-0.2069215178489685,-0.27616167068481445,0.0005326165119186044
-0.41904306411743164,7.428517818450928,6.294918060302734,-0.16111649572849274,-0.19413872063159943,0.051663801074028015
-0.5099703073501587,7.342376232147217,6.45523738861084,-0.09094426780939102,-0.06644391268491745,0.14753477275371552
-0.1339980661869049,7.208378314971924,6.440880298614502,-0.02916075475513935,-0.04726971685886383,0.21038351953029633
0.11485548317432404,7.184450149536133,6.299703598022461,-0.011051792651414871,-0.0611177459359169,0.20825305581092834
0.4214358925819397,7.131807804107666,6.0864434242248535,-0.007856093347072601,-0.0717700719833374,0.18801362812519073
0.40229329466819763,7.112665176391602,5.997909069061279,-0.04620448127388954,-0.12716218829154968,0.14007814228534698
0.27308088541030884,7.115057945251465,5.8974103927612305,-0.07922670245170593,-0.16218173503875732,0.11983871459960938
0.2153540402650833,7.261020183563232,5.954838275909424,-0.1557903289794922,-0.24740037322044373,0.1283605843782425
0.6511468887329102,7.172485828399658,6.192026615142822,-0.1983996480703354,-0.29746630787849426,0.15712186694145203
0.9361918568611145,7.105486869812012,6.321238994598389,-0.19094301760196686,-0.2953358590602875,0.14433906972408295
1.2855439186096191,7.024130821228027,6.529414653778076,-0.1334204375743866,-0.17709499597549438,0.036750540137290955
0.9218349456787109,7.4261250495910645,6.359524250030518,-0.04726971685886383,-0.0824224054813385,-0.1294258087873459
0.7085745930671692,7.500302791595459,6.388238430023193,-0.10692276805639267,-0.10905323177576065,-0.13262151181697845
0.9050851464271545,7.4261250495910645,6.991528511047363,-0.17816022038459778,-0.1983996480703354,-0.13155627250671387
0.9936196208000183,7.320840835571289,7.745865821838379,-0.1653774231672287,-0.30811864137649536,-0.20825305581092834
0.9266205430030823,7.383054256439209,7.822436332702637,-0.05792204663157463,-0.43594661355018616,-0.3178389072418213
0.7878368496894836,7.433303356170654,7.798508167266846,0.05179695412516594,-0.45938172936439514,-0.4030575454235077
1.0247262716293335,7.639385223388672,7.424928665161133,0.17003782093524933,-0.5126433968544006,-0.47229769825935364
1.0223335027694702,8.060821533203125,6.39302396774292,0.13808083534240723,-0.4721645414829254,-0.5500596761703491
0.6343970894813538,8.077570915222168,6.634998321533203,-0.03022598661482334,-0.326227605342865,-0.5031894445419312
0.6702894568443298,7.656135082244873,7.69322395324707,-0.1440727710723877,-0.13355359435081482,-0.3785571753978729
1.048654556274414,7.083951473236084,8.540582656860352,-0.10479229688644409,-0.11864032596349716,-0.30931705236434937
1.2616157531738281,6.68644380569458,8.22712230682373,-0.013182258233428001,-0.28787922859191895,-0.3306216895580292
1.4270195960998535,6.470790863037109,7.551748275756836,0.0017310036346316338,-0.3794892728328705,-0.36470916867256165
1.8221344947814941,6.279364585876465,7.386643409729004,-0.02489982172846794,-0.30918389558792114,-0.3828181326389313
1.9441684484481812,6.04247522354126,7.590033531188965,-0.015312724746763706,-0.2740311920642853,-0.49147188663482666
1.628016710281372,5.886642932891846,7.424928665161133,0.05392742156982422,-0.35072797536849976,-0.6427350044250488
1.1778669357299805,5.963212966918945,6.6469621658325195,0.09334104508161545,-0.410381019115448,-0.7556496858596802
0.7444669604301453,6.126224040985107,6.282954216003418,0.07416684925556183,-0.38268497586250305,-0.7556496858596802
0.8883354067802429,6.4564337730407715,6.110671043395996,0.05286218971014023,-0.16111649572849274,-0.5095808506011963
0.9888339638710022,6.571588516235352,5.658128261566162,-0.0611177459359169,-0.20585627853870392,-0.37429624795913696
1.0773683786392212,6.593123912811279,5.444868087768555,-0.15685556828975677,-0.23142187297344208,-0.3061213493347168
0.9840483069419861,6.514160633087158,5.2941203117370605,-0.42316383123397827,-0.23035664856433868,-0.18907886743545532
0.8835497498512268,6.394220352172852,5.473581790924072,-0.5754921436309814,-0.19946488738059998,-0.13475197553634644
0.5841478109359741,6.09751033782959,6.5150580406188965,-0.8629719018936157,-0.12077079713344574,-0.050598569214344025
0.35443684458732605,5.714359760284424,7.963613033294678,-1.013169765472412,-0.18881255388259888,0.0015978495357558131
0.3807578980922699,5.434100151062012,8.851948738098145,-0.9417991638183594,-0.49986058473587036,0.026098208501935005
1.1204391717910767,5.2043890953063965,8.270193099975586,-0.7192986011505127,-0.9109073877334595,0.013315413147211075
2.0757737159729004,5.426921844482422,7.0872416496276855,-0.532882809638977,-1.0003869533538818,-0.137947678565979
2.231307029724121,5.671288967132568,6.721139907836914,-0.49133872985839844,-0.8927984237670898,-0.24340574443340302
1.7237296104431152,5.889035701751709,6.14417028427124,-0.49879536032676697,-0.5978620052337646,-0.3806876540184021
0.7950153350830078,6.265007972717285,6.369095802307129,-0.6202319264411926,-0.28787922859191895,-0.35299158096313477
0.2584248483181,6.550053119659424,7.475177764892578,-0.7214290499687195,-0.1536598652601242,-0.15073047578334808
0.7444669604301453,6.535696029663086,8.655437469482422,-0.6564498543739319,-0.11331415921449661,0.11557777971029282
1.2616157531738281,6.317649841308594,9.038588523864746,-0.45938172936439514,-0.07496577501296997,0.2764279842376709
1.592124342918396,5.98026180267334,8.947661399841309,-0.2591179311275482,0.0347532257437706,0.3318201005458832
1.776371717453003,6.15254545211792,8.46161937713623,0.04327509179711342,0.14660269021987915,0.3711005449295044
1.7572290897369385,6.162116527557373,8.203194618225098,0.06564498692750931,0.21051667630672455,0.3497959077358246
2.0374884605407715,6.078367710113525,8.926125526428223,0.1508636325597763,0.377758264541626,0.3094501793384552
2.3126630783081055,6.080760478973389,9.019445419311523,0.30745288729667664,0.270169734954834,0.18694838881492615
1.197009563446045,6.514160633087158,8.37547779083252,0.3351489305496216,0.04220985993742943,0.09959928691387177
1.2735798358917236,6.61705207824707,8.26540756225586,0.2371474951505661,-0.06750914454460144,0.24979715049266815
1.4030914306640625,5.568397521972656,8.076075553894043,0.11358047276735306,-0.04833494871854782,0.389209508895874
1.4533406496047974,5.616253852844238,7.5708909034729,0.11677616834640503,0.46390897035598755,0.2966673970222473
0.9912267923355103,5.7981085777282715,8.583653450012207,0.11677616834640503,0.7312824726104736,0.15499140322208405
0.7468597888946533,6.0711894035339355,9.007481575012207,0.1508636325597763,0.735543429851532,0.09853405505418777
-0.14117653667926788,6.176473617553711,9.515059471130371,0.21797330677509308,0.4777570068836212,0.1166430190205574
-0.6990033388137817,5.424529075622559,8.741878509521484,0.24247366189956665,0.22862564027309418,0.29347169399261475
-0.15314064919948578,5.26181697845459,8.176573753356934,0.3106485903263092,0.49480074644088745,0.4318188428878784
-0.07657032459974289,5.182853698730469,8.083253860473633,0.32875755429267883,0.5161054134368896,0.46058014035224915
0.04307080805301666,5.0703911781311035,7.475177764892578,0.3639102280139923,0.5331491231918335,0.5106461048126221
0.02153540402650833,5.237888813018799,7.070491790771484,0.3308880031108856,0.5533885359764099,0.5117112994194031
-0.08614161610603333,5.254638671875,7.135097980499268,0.24993029236793518,0.5043878555297852,0.5234288573265076
0.30179476737976074,5.26181697845459,7.1255269050598145,0.1849510818719864,0.3532578945159912,0.520233154296875
1.1060823202133179,5.467898845672607,6.852745056152344,0.10399337112903595,0.24993029236793518,0.3412740230560303
0.802193820476532,5.721538066864014,6.835995197296143,0.04114462435245514,0.2467346042394638,0.16351327300071716
-0.031106693670153618,6.22193717956543,6.886244297027588,-0.07496577501296997,0.10186290740966797,0.0750989317893982
0.5075774788856506,6.3702921867370605,7.123134136199951,0.02197043038904667,-0.004660394508391619,0.21890538930892944
0.5386841893196106,6.55483865737915,7.0322065353393555,0.03901416063308716,-0.05472634732723236,0.1581871062517166
0.34725838899612427,6.609873294830322,7.036992073059082,0.04220985993742943,-0.09200949966907501,0.14753477275371552
0.579362154006958,6.545267105102539,7.202396392822266,0.04753602296113968,-0.015312724746763706,0.19547025859355927
0.828514814376831,6.538088798522949,7.841578960418701,0.04327509179711342,0.012383334338665009,0.19866596162319183
0.8644071817398071,6.3631134033203125,8.236693382263184,0.06884068250656128,-0.3134448230266571,0.14007814228534698
1.0103694200515747,6.3702921867370605,7.63310432434082,0.10718907415866852,-0.6457974910736084,0.032489608973264694
1.158724308013916,6.9568328857421875,7.618747234344482,0.1625811904668808,-0.5904054045677185,-0.048468101769685745
1.0510473251342773,7.007081985473633,7.496713161468506,0.2552564740180969,-0.36138030886650085,-0.054859500378370285
1.3767703771591187,6.837191581726074,7.451249599456787,0.31703996658325195,-0.17816022038459778,-0.061250898987054825
0.1986042857170105,7.478767395019531,9.388239860534668,0.19773387908935547,0.4406070113182068,-0.27110180258750916
0.12681959569454193,7.347161769866943,9.596415519714355,0.35006219148635864,0.28401774168014526,-0.24021004140377045
0.23688943684101105,7.325626373291016,8.06650447845459,0.6183677911758423,0.1316894292831421,-0.2125139832496643
0.2946162819862366,7.46201753616333,6.443273067474365,0.6226286888122559,0.31917044520378113,-0.18907886743545532
0.734895646572113,7.7470622062683105,7.2574310302734375,0.5043878555297852,0.7461957335472107,-0.08042509108781815
1.256830096244812,7.170093059539795,7.796115398406982,0.4416722357273102,0.8186315894126892,0.049533337354660034
1.5538392066955566,6.858726978302002,7.9229350090026855,0.3873453438282013,0.7653699517250061,0.0740336924791336
2.1236300468444824,6.576374053955078,7.95643424987793,0.265908807516098,0.5693670511245728,0.039946239441633224
2.025524377822876,6.341578006744385,7.889435291290283,0.14873315393924713,0.33727940917015076,-0.07935985922813416
1.599302887916565,6.068796634674072,7.753044605255127,0.05073172226548195,0.10079767554998398,-0.18375270068645477
1.4629119634628296,5.910571098327637,7.741080284118652,-0.011051792651414871,-0.1143793985247612,-0.24127528071403503
1.6471593379974365,5.7119669914245605,7.513463020324707,0.004926702938973904,-0.3123795986175537,-0.3061213493347168
1.9920248985290527,5.453242778778076,6.366703033447266,0.07842778414487839,-0.3539236783981323,-0.5383421182632446
1.6974085569381714,5.688038349151611,5.964409351348877,-0.02489982172846794,-0.1856168508529663,-0.7513887286186218
0.7420741319656372,6.083153247833252,6.642176628112793,-0.16963836550712585,0.05818835273385048,-0.8408682942390442
-0.4501497745513916,6.351149559020996,7.207181930541992,-0.03342168778181076,-0.2921401560306549,-0.23062294721603394
-0.4381856322288513,6.387042045593262,6.960422039031982,-0.06644391268491745,-0.1664426624774933,-0.13262151181697845
-0.5841478109359741,6.399005889892578,7.312466144561768,-0.09946613013744354,-0.11757509410381317,-0.028228675946593285
-0.2706880569458008,6.193222999572754,7.322037220001221,-0.09520520269870758,-0.17070358991622925,0.0964035913348198
0.44297128915786743,5.900999546051025,7.0393853187561035,-0.06431344151496887,-0.22609570622444153,0.10386022180318832
0.7516453862190247,5.941677570343018,6.80249547958374,-0.0185084231197834,-0.14953207969665527,-0.025032976642251015
0.5985047817230225,6.2291154861450195,6.697211265563965,0.0347532257437706,-0.04513924941420555,-0.14007814228534698
0.6607181429862976,6.538088798522949,6.227919101715088,-0.06537867337465286,-0.09413997083902359,0.044207170605659485
0.8811569213867188,6.535696029663086,6.13699197769165,-0.1143793985247612,-0.0824224054813385,0.07722939550876617
0.8859425783157349,6.648158550262451,6.067300796508789,-0.17816022038459778,0.08055824786424637,0.07083799690008163
0.6583253145217896,6.870691299438477,6.804888725280762,-0.2633788585662842,0.2360822707414627,0.08042509108781815
0.8620143532752991,6.796513557434082,7.76261568069458,-0.17283405363559723,0.02516612969338894,0.1603175699710846
1.0869396924972534,6.882655143737793,7.317251682281494,-0.132355198264122,0.000665770610794425,0.10918638855218887
1.0965110063552856,6.99751091003418,7.286144733428955,-0.12915951013565063,0.05179695412516594,0.07083799690008163
0.9361918568611145,7.194021224975586,7.451249599456787,-0.09413997083902359,0.15618979930877686,0.020772043615579605
0.6894320249557495,7.304090976715088,7.671688556671143,-0.0003994623839389533,0.27230018377304077,-0.0079892473295331
0.5362913608551025,7.418946743011475,7.75543737411499,0.07310161739587784,0.25206077098846436,-0.021837277337908745
0.39511483907699585,7.574779033660889,7.5565338134765625,0.13488513231277466,0.21371237933635712,-0.01118494663387537
0.3161516785621643,7.454838752746582,7.432106971740723,0.17003782093524933,0.22862564027309418,0.031424373388290405
0.4956133961677551,7.569993495941162,7.250252723693848,0.19986434280872345,0.3117138147354126,0.038881003856658936
0.019142581149935722,7.64656400680542,7.5708909034729,0.17855969071388245,0.5086487531661987,0.07190322875976562
-0.1818545162677765,7.550850868225098,7.741080284118652,0.15832026302814484,0.5469971299171448,0.13155627250671387
-0.3448655605316162,7.1270222663879395,7.554141044616699,0.05712312087416649,0.38201919198036194,0.23701435327529907
-0.04785645380616188,6.4085774421691895,7.934898853302002,-0.16857312619686127,0.04647079110145569,0.245536208152771
0.2273181527853012,6.578766822814941,8.334799766540527,-0.08774857223033905,-0.005725627299398184,0.10066451877355576
-0.1698904037475586,6.794120788574219,7.973184108734131,0.12316756695508957,0.07097115367650986,-0.048468101769685745
-1.1395817995071411,6.774978160858154,7.183253765106201,0.2797568142414093,0.1934729516506195,-0.07722939550876617
-1.9369899034500122,6.38464879989624,6.168098449707031,0.21371237933635712,0.35006219148635864,0.17736129462718964
-0.8691928386688232,5.642574787139893,7.046563625335693,0.03155753016471863,0.27549588680267334,0.5010589957237244
-0.6726822853088379,5.721538066864014,6.4695940017700195,-0.013182258233428001,0.11890663951635361,0.47123244404792786
-0.7830511927604675,5.867500305175781,6.2159552574157715,-0.0717700719833374,0.11464570462703705,0.46271058917045593
-1.0701899528503418,5.963212966918945,6.452844619750977,-0.24313943088054657,0.1934729516506195,0.5212984085083008
-1.079761266708374,5.786144256591797,7.226324558258057,-0.3880111277103424,0.19027724862098694,0.6192998290061951
-0.4214358925819397,5.604289531707764,7.6860456466674805,-0.4284899830818176,0.02729659713804722,0.6182346343994141
0.20578274130821228,5.778965950012207,7.3052873611450195,-0.4114462435245514,-0.09094426780939102,0.4744281470775604
0.019142581149935722,6.233901023864746,6.996314525604248,-0.41464194655418396,0.013448567129671574,0.2987978756427765
-0.5338985323905945,6.602694988250732,7.381857872009277,-0.41464194655418396,0.1412765234708786,0.2636451721191406
-0.39032918214797974,6.526124477386475,7.566105365753174,-0.35072797536849976,0.098667211830616,0.2742975056171417
-0.47168517112731934,6.470790863037109,7.278966426849365,-0.26550933718681335,0.03049229457974434,0.23275341093540192
-0.8093722462654114,6.619444847106934,6.541378974914551,-0.2687050402164459,-0.04513924941420555,0.24021004140377045
-0.8979067206382751,6.808477878570557,6.46241569519043,-0.3986634612083435,-0.0930747389793396,0.3370130956172943
-0.45972105860710144,6.782156467437744,6.649354934692383,-0.5339480638504028,-0.19307348132133484,0.47123244404792786
-0.39032918214797974,6.688836574554443,6.699604511260986,-0.5967968106269836,-0.2399437427520752,0.5234288573265076
-0.14835500717163086,6.382256031036377,6.833602428436279,-0.724624752998352,-0.27829211950302124,0.6310173869132996
0.019142581149935722,6.1573309898376465,7.089634418487549,-0.792666494846344,-0.283618301153183,0.6864095330238342
0.5458626747131348,5.630610942840576,7.712366580963135,-0.8661676049232483,-0.30705341696739197,0.7396711707115173
0.9290133714675903,5.383851051330566,7.8056864738464355,-0.8544500470161438,-0.40505486726760864,0.6608439087867737
1.170688509941101,5.333601474761963,7.9612202644348145,-0.8437976837158203,-0.494534432888031,0.5255593657493591
1.3671990633010864,5.350351333618164,8.294121742248535,-0.7841446399688721,-0.5254262089729309,0.4222317337989807
1.7691932916641235,5.26899528503418,8.418548583984375,-0.6521888971328735,-0.42529428005218506,0.3307548463344574
1.9513468742370605,5.072783946990967,8.725129127502441,-0.5030562877655029,-0.283618301153183,0.17842653393745422
1.7787644863128662,5.151747226715088,9.15822982788086,-0.3464670479297638,-0.29746630787849426,-0.0633813664317131
1.0247262716293335,6.102295875549316,9.474381446838379,0.09014534205198288,-0.48814302682876587,-0.3615134656429291
0.8333004713058472,6.473183631896973,8.547760963439941,0.16684211790561676,-0.5946663618087769,-0.2657756507396698
0.7492526173591614,6.50698184967041,8.15982437133789,0.12849372625350952,-0.5648398399353027,-0.17629607021808624
1.2281162738800049,6.401398658752441,8.33719253540039,-0.012117025442421436,-0.31983622908592224,0.030359141528606415
1.410269856452942,5.867500305175781,8.849555015563965,-0.09200949966907501,-0.0930747389793396,0.15392617881298065
1.5873386859893799,5.257031440734863,9.455238342285156,-0.1143793985247612,0.03155753016471863,0.21784014999866486
1.7189439535140991,5.1182475090026855,9.579665184020996,-0.09733566641807556,0.02303566411137581,0.222101092338562
1.812264084815979,4.962714195251465,9.198907852172852,-0.06005251035094261,-0.09200949966907501,0.1720351278781891
1.7548363208770752,4.919344425201416,8.959625244140625,-0.07070484012365341,-0.1250317245721817,0.15499140322208405
1.77397882938385,4.792524814605713,8.842376708984375,-0.12170287221670151,-0.07603100687265396,0.1688394397497177
2.0231316089630127,4.558028221130371,9.067302703857422,-0.12489857524633408,-0.0238345880061388,0.20931829512119293
2.4852454662323,4.002593994140625,9.057730674743652,-0.03235645219683647,-0.006790860556066036,0.20079642534255981
2.7484560012817383,3.58115816116333,8.861519813537598,0.10186290740966797,0.02410089783370495,0.08894696086645126
2.769991397857666,3.5524442195892334,8.679366111755371,0.16471165418624878,-0.014247491955757141,-0.0037283156998455524
2.463710069656372,3.794119358062744,7.645068168640137,0.20732097327709198,-0.3752283453941345,-0.3487306535243988
2.3030917644500732,3.923630952835083,7.3914289474487305,0.20092958211898804,-0.48920828104019165,-0.4222317337989807
2.4756741523742676,4.2825541496276855,7.324429988861084,0.20945143699645996,-0.2090519815683365,-0.45099303126335144
2.6407787799835205,4.574777603149414,8.121539115905762,0.24034319818019867,0.2669740319252014,-0.4243622124195099
1.6351951360702515,4.723132610321045,8.210372924804688,0.5118444561958313,-0.2921401560306549,-0.3061213493347168
0.9936196208000183,5.058426856994629,6.745068073272705,0.33727940917015076,-0.2719007432460785,-0.19547025859355927
0.9170492887496948,5.3694939613342285,7.467999458312988,-0.02170412242412567,0.04007939249277115,0.08149032294750214
1.1850453615188599,5.00578498840332,8.942875862121582,-0.2729659676551819,-0.12183602899312973,0.329689621925354
1.446162223815918,4.366302967071533,9.306883811950684,-0.21650861203670502,-0.5616441369056702,0.3806876540184021
1.9657038450241089,3.995415687561035,8.368298530578613,-0.02703028731048107,-0.8821461200714111,0.24660144746303558
2.425424814224243,4.644169807434082,8.126324653625488,0.13701559603214264,-0.7713618874549866,0.039946239441633224
2.2193429470062256,5.613861083984375,8.078468322753906,0.354323148727417,-0.49986058473587036,0.019706811755895615
2.394318103790283,5.264209747314453,7.324429988861084,0.5363448262214661,-0.11544463038444519,0.22103585302829742
3.0622148513793945,4.675276279449463,7.264609336853027,0.5075835585594177,0.37882348895072937,0.15925233066082
2.2408783435821533,5.649753570556641,7.094419956207275,0.37882348895072937,-0.2814878225326538,-0.10066451877355576
1.8699909448623657,6.0161542892456055,6.45523738861084,0.2467346042394638,-0.2282261699438095,0.037815771996974945
2.4756741523742676,6.131010055541992,7.41535758972168,0.09440627694129944,-0.06431344151496887,0.21677492558956146
2.722134828567505,6.080760478973389,7.968398571014404,0.08055824786424637,-0.05792204663157463,0.23594911396503448
2.7412774562835693,6.15254545211792,8.145467758178711,0.15832026302814484,-0.1346188187599182,0.21784014999866486
1.939382791519165,6.466004848480225,7.259823799133301,0.18601632118225098,0.14660269021987915,0.4659062922000885
2.5474588871002197,6.1812591552734375,8.08803939819336,0.1402112990617752,0.2680392563343048,0.6065170764923096
2.9066812992095947,6.030511379241943,8.356334686279297,0.1615159511566162,0.2169080674648285,0.6139736771583557
2.9306094646453857,6.1334028244018555,6.776174545288086,0.24353890120983124,0.1732335239648819,0.5468640327453613
2.1930220127105713,6.245865345001221,6.550950050354004,0.16897258162498474,1.102915644645691,0.5234288573265076
1.7644076347351074,6.918547630310059,8.830412864685059,0.16897258162498474,1.3809415102005005,0.5905385613441467
0.8524430394172668,6.877869606018066,8.739485740661621,0.1402112990617752,0.9219591617584229,0.8238245844841003
1.4581263065338135,5.580361366271973,7.439285755157471,-0.08774857223033905,0.5864107608795166,1.0963910818099976
2.2025933265686035,5.113461971282959,7.156932353973389,-0.2708354890346527,0.5086487531661987,1.115565299987793
2.9282166957855225,4.921737194061279,7.973184108734131,-0.6042534112930298,0.44593316316604614,0.9653674364089966
2.262413740158081,5.178068161010742,8.377870559692383,-0.6947982311248779,0.40332385897636414,0.8110417723655701
1.7715860605239868,5.338387489318848,8.25822925567627,-0.7192986011505127,0.46177852153778076,0.8216941356658936
1.316949725151062,5.357530117034912,8.514261245727539,-0.9322120547294617,0.25206077098846436,0.9802806973457336
1.4988043308258057,4.148556232452393,9.096015930175781,-1.1772156953811646,-0.732081413269043,1.1656312942504883
1.4844473600387573,2.759821891784668,8.653044700622559,-1.2411296367645264,-1.2634994983673096,1.2806763648986816
2.5594229698181152,2.77657151222229,9.2255277633667,-1.1473891735076904,-1.188933253288269,1.192262053489685
2.2265214920043945,3.119044303894043,10.10159969329834,-0.769231379032135,-0.8139711618423462,1.045259952545166
1.872383713722229,3.104687452316284,10.0704927444458,-0.24420467019081116,-0.48920828104019165,1.078282117843628
1.3815559148788452,3.1238300800323486,9.381061553955078,0.2169080674648285,-0.1463363915681839,1.2646979093551636
2.1619153022766113,2.8100709915161133,8.531010627746582,0.45658549666404724,-0.04620448127388954,1.4979839324951172
2.94975209236145,2.5899314880371094,8.150253295898438,0.5065183043479919,-0.007856093347072601,1.5373975038528442
3.8210387229919434,2.446362018585205,7.937291622161865,0.5150401592254639,0.007057168986648321,1.4894620180130005
4.4844489097595215,2.6234309673309326,7.870292663574219,0.4916050434112549,0.10079767554998398,1.192262053489685
4.206582069396973,3.207578659057617,8.004290580749512,0.49373549222946167,0.13275466859340668,0.9122389554977417
3.972085475921631,3.4998021125793457,8.147860527038574,0.5267577171325684,0.18069015443325043,0.84193354845047
3.6583266258239746,3.8347973823547363,6.931707859039307,0.7035863995552063,0.7280867695808411,0.8344769477844238
4.302295207977295,3.6242289543151855,6.862316131591797,0.6311505436897278,1.4895951747894287,0.8078460693359375
3.5769708156585693,3.731905937194824,8.078468322753906,0.44273748993873596,1.4608339071273804,0.5447335243225098
3.416651725769043,4.1868414878845215,8.914161682128906,0.3660407066345215,1.0752196311950684,0.4232969582080841
2.5211377143859863,4.17726993560791,9.069695472717285,0.27230018377304077,0.4798874855041504,0.3998618423938751
2.4828526973724365,4.1006999015808105,8.17418098449707,0.22862564027309418,0.33727940917015076,0.454188734292984
2.7652056217193604,4.29451847076416,8.294121742248535,0.14873315393924713,0.8005226254463196,0.5266245603561401
2.9904301166534424,4.292125701904297,9.330811500549316,0.17855969071388245,1.3212884664535522,0.5692338943481445
2.861217737197876,4.426422595977783,9.776176452636719,0.33727940917015076,1.5513787269592285,0.5383421182632446
2.344068765640259,4.447957992553711,9.747462272644043,0.3852148950099945,1.462964415550232,0.5074504017829895
2.11405873298645,4.639383792877197,10.20449161529541,0.4873441159725189,1.1583077907562256,0.5138418078422546
2.4828526973724365,4.749454021453857,9.1414794921875,0.6993255019187927,1.1508511304855347,0.3806876540184021
1.9609181880950928,4.54845666885376,8.282156944274902,0.543801486492157,1.072023868560791,0.23275341093540192
2.2743778228759766,4.304089546203613,9.371489524841309,0.42143282294273376,1.049787163734436,0.12303441762924194
1.5227324962615967,4.754239559173584,9.54377269744873,0.4406070113182068,0.8324795961380005,0.055924732238054276
0.675075113773346,5.178068161010742,8.77059268951416,0.4523245692253113,0.47243085503578186,0.09427312016487122
1.3719847202301025,4.696811676025391,8.643473625183105,0.21158191561698914,0.39267152547836304,0.5436683297157288
1.714158296585083,4.1078782081604,8.657830238342285,0.10825430601835251,0.29573532938957214,0.5479292273521423
2.0231316089630127,4.064807415008545,9.397810935974121,0.17749445140361786,0.35964930057525635,0.4957328140735626
2.2169501781463623,4.256233215332031,9.249456405639648,0.3660407066345215,0.3639102280139923,0.4126446545124054
1.9154545068740845,4.383052825927734,8.554939270019531,0.4842815697193146,0.2691044807434082,0.32755914330482483
1.7691932916641235,4.55563497543335,8.145467758178711,0.4884093403816223,0.23288656771183014,0.2987978756427765
1.3073785305023193,4.926522731781006,7.714759349822998,0.41291093826293945,0.2595174014568329,0.3380783200263977
1.3384851217269897,4.9435715675354,8.25105094909668,0.30745288729667664,0.4267589747905731,0.5255593657493591
1.5897315740585327,4.814060211181641,8.7538423538208,0.2776263654232025,0.4692351520061493,0.6129084229469299
1.9058831930160522,4.184448719024658,9.069695472717285,0.2509955167770386,0.2467346042394638,0.6853442788124084
2.252842426300049,3.478266716003418,8.22712230682373,0.20945143699645996,-0.09627043455839157,0.5841471552848816
2.604886531829834,3.8587255477905273,7.750651836395264,0.11464570462703705,-0.1463363915681839,0.37642672657966614
2.0039889812469482,4.397409915924072,8.92373275756836,0.04966649040579796,0.3244965970516205,0.19653549790382385
1.7021942138671875,4.332803726196289,9.589237213134766,0.24460414052009583,0.5576494932174683,0.30199354887008667
1.970489501953125,3.9523448944091797,9.093623161315918,0.46723783016204834,0.6279548406600952,0.40838369727134705
1.95852530002594,4.060021877288818,7.812865257263184,0.5395405292510986,0.49693119525909424,0.4456668794155121
1.9441684484481812,4.194019794464111,7.331608772277832,0.4832163453102112,0.5235620141029358,0.4371449947357178
1.9130617380142212,4.30169677734375,7.283751964569092,0.2904091477394104,0.6567161679267883,0.46271058917045593
2.135594129562378,4.469493389129639,8.044968605041504,0.14979839324951172,0.7930659651756287,0.5127765536308289
2.056631088256836,4.395017147064209,8.327621459960938,0.11890663951635361,0.7930659651756287,0.5244941115379333
1.537089467048645,4.272983074188232,9.01705265045166,0.12529803812503815,0.773891806602478,0.5383421182632446
1.2281162738800049,4.141377925872803,9.285347938537598,0.15832026302814484,0.7770875096321106,0.5564510822296143
1.3336994647979736,3.4495530128479004,9.8838529586792,0.23182134330272675,0.5310186743736267,0.5564510822296143
1.7165511846542358,3.3583266735076904,10.398609161376953,0.3404751121997833,0.09121058136224747,0.4137098789215088
1.812264084815979,3.7582271099090576,10.214062690734863,0.43208515644073486,-0.09733566641807556,0.3115806579589844
1.477268934249878,4.677669048309326,6.907779693603516,0.6045197248458862,-0.0014646954368799925,0.627821683883667
2.1547367572784424,4.866702079772949,6.766603469848633,0.48641201853752136,0.38308441638946533,0.6587134599685669
2.3416759967803955,4.907380104064941,6.697211265563965,0.3575188219547272,0.6226286888122559,0.603321373462677
1.7117655277252197,5.230710506439209,6.642176628112793,0.20306004583835602,0.773891806602478,0.5990604162216187
1.1994023323059082,5.434100151062012,6.737889289855957,0.02623136341571808,0.9208939671516418,0.7663019895553589
1.3456636667251587,5.347958564758301,7.542177200317383,-0.08029194176197052,1.1007851362228394,0.9909330010414124
1.505982756614685,5.2977094650268555,7.939684867858887,-0.07709623873233795,1.1945257186889648,1.0729559659957886
1.5705889463424683,5.182853698730469,8.598010063171387,0.009187635034322739,1.3457887172698975,1.1592398881912231
1.3695918321609497,5.07517671585083,8.904590606689453,0.1615159511566162,1.3979852199554443,1.2242190837860107
1.3145569562911987,5.146961688995361,8.78494930267334,0.21903854608535767,1.1593730449676514,1.299850583076477
1.9513468742370605,4.967499732971191,8.811270713806152,0.17855969071388245,0.8505885601043701,1.4085043668746948
2.142772674560547,4.847559452056885,8.952446937561035,0.22116900980472565,0.8559147119522095,1.344590425491333
1.9728822708129883,4.991427898406982,9.215657234191895,0.3553883731365204,0.9102416038513184,1.223153829574585
1.3719847202301025,5.089533805847168,8.99551773071289,0.461911678314209,0.8836107850074768,1.1954578161239624
1.6184453964233398,5.292923450469971,8.5764741897583,0.5022573471069336,0.8559147119522095,1.2774807214736938
2.011167526245117,5.225924491882324,8.16700267791748,0.4310199022293091,0.666303277015686,1.3030463457107544
2.2983062267303467,5.388636589050293,8.107182502746582,0.31597474217414856,0.5416709780693054,1.2796111106872559
2.3799612522125244,5.487041473388672,8.06650447845459,0.28401774168014526,0.521431565284729,1.252980351448059
1.8699909448623657,5.776573181152344,8.21994400024414,0.30532240867614746,0.7398043274879456,1.2551108598709106
1.6256239414215088,5.283352375030518,9.064909934997559,0.3532578945159912,1.2296783924102783,1.5192886590957642
2.2671995162963867,4.8930230140686035,9.720842361450195,0.3884105980396271,1.0071778297424316,1.5798736810684204
2.724527597427368,4.830809593200684,9.43609619140625,0.4916050434112549,0.5885412693023682,1.4788097143173218
2.3126630783081055,5.015356063842773,5.6222357749938965,0.5182358622550964,0.4692351520061493,1.370155930519104
2.1164517402648926,5.240281581878662,7.966005802154541,0.02623136341571808,1.6195536851882935,1.3829387426376343
2.11405873298645,4.969892501831055,9.378668785095215,0.11890663951635361,1.905968189239502,1.2710893154144287
1.7404793500900269,4.873880386352539,9.558130264282227,0.29680055379867554,2.042318105697632,1.1421960592269897
