accX,accY,accZ,gyroX,gyroY,gyroZ
0.842806875705719,7.286197185516357,6.643967151641846,-0.12137019634246826,0.005323254037648439,-0.06494370102882385
0.8253483772277832,7.389339923858643,6.571460723876953,-0.09155996888875961,0.038327429443597794,-0.038327429443597794
0.9938427209854126,7.3833160400390625,6.26507043838501,-0.11072368919849396,-0.03193952515721321,-0.03619812801480293
1.1003559827804565,7.323786735534668,6.279033184051514,-0.126693457365036,-0.048973940312862396,-0.06920230388641357
0.9311816692352295,7.262935638427734,6.435480117797852,-0.16715018451213837,-0.042586032301187515,-0.09901253134012222
0.8385547995567322,7.358454704284668,6.620015621185303,-0.15543901920318604,-0.039392080157995224,-0.11178833991289139
1.2177292108535767,7.513886451721191,5.754779815673828,-0.18737854063510895,-0.13201670348644257,-0.15224507451057434
1.5127906799316406,7.597108364105225,5.254276752471924,-0.3960501253604889,-0.14798647165298462,-0.2938436269760132
1.4619091749191284,7.437175750732422,5.726403713226318,-0.5387133359909058,-0.08730136603116989,-0.37688639760017395
1.3772406578063965,6.8741936683654785,6.510159969329834,-0.7441909313201904,0.280003160238266,-0.5014505386352539
1.6198307275772095,7.427723407745361,7.031980991363525,-0.8368155360221863,0.3012961745262146,-0.5291314721107483
1.6938307285308838,7.546380043029785,6.938511371612549,-0.8006174564361572,0.2246413230895996,-0.6100449562072754
1.6193997859954834,7.25885534286499,6.752836227416992,-0.7058635354042053,0.018099064007401466,-0.7665486335754395
1.105594515800476,6.763734817504883,7.362773418426514,-0.6324025988578796,-0.12030554562807083,-0.9241169095039368
-0.1073560044169426,6.16929292678833,8.608524322509766,-0.5376486778259277,-0.02981022372841835,-0.9049532413482666
-0.5892130136489868,6.147371768951416,9.037029266357422,-0.4705756604671478,0.13095206022262573,-0.8282983303070068
-1.2112362384796143,6.2814178466796875,8.688567161560059,-0.27574455738067627,0.14159856736660004,-0.7058635354042053
-1.3590638637542725,5.875552654266357,7.861485958099365,0.05216789245605469,-0.12349949777126312,-0.5312607884407043
-1.6579655408859253,5.127824783325195,6.939852237701416,0.19163715839385986,-0.34920546412467957,-0.23741713166236877
-1.3732565641403198,5.600095272064209,6.755354881286621,0.048973940312862396,-0.3044901490211487,-0.040456730872392654
-1.0158981084823608,6.22604513168335,7.400832176208496,-0.06600835174322128,-0.3609166443347931,0.10007718205451965
-0.11789049208164215,6.526182174682617,7.73550271987915,-0.03087487444281578,-0.23954643309116364,0.14905111491680145
0.7400381565093994,6.783300399780273,7.430692195892334,-0.017034413293004036,-0.19589576125144958,0.07771950960159302
0.39172011613845825,6.8187150955200195,7.319562911987305,-0.004258603323251009,-0.2246413230895996,-0.022357666864991188
-0.18721699714660645,6.351137161254883,7.294184684753418,0.0,-0.280003160238266,0.0031939526088535786
-0.06700892001390457,6.150369167327881,7.553141117095947,-0.0074525559321045876,-0.19163715839385986,0.09688322991132736
0.2740977704524994,6.371726989746094,7.142784595489502,-0.06494370102882385,-0.05536184459924698,0.13414600491523743
0.03841257095336914,6.427464485168457,6.8981451988220215,-0.10752973705530167,-0.12456414848566055,0.1543743759393692
-0.23670993745326996,6.2908034324646,7.398255825042725,-0.11711159348487854,-0.21931807696819305,0.2672273516654968
0.3319225609302521,6.329522609710693,7.635473251342773,-0.07559020817279816,-0.22357667982578278,0.3374943137168884
0.7892054915428162,6.3389363288879395,7.249527931213379,-0.06920230388641357,-0.22144737839698792,0.32791244983673096
1.2259366512298584,6.3730010986328125,6.822478771209717,-0.11817624419927597,-0.2949082851409912,0.27893853187561035
0.5413002967834473,6.310943126678467,7.1599273681640625,-0.22677062451839447,-0.357722669839859,0.3162012994289398
0.8789114356040955,6.500305652618408,7.449970245361328,-0.18099063634872437,-0.3992440700531006,0.3502701222896576
1.360768437385559,6.691515922546387,7.582829475402832,-0.16076228022575378,-0.40456733107566833,0.2949082851409912
1.1939117908477783,6.5824360847473145,7.916916370391846,-0.12137019634246826,-0.4631231129169464,0.23315852880477905
1.4724915027618408,6.406002521514893,7.205483913421631,0.11072368919849396,-0.4237310290336609,0.17460273206233978
1.7346949577331543,6.250906467437744,7.301491737365723,-0.03300417587161064,-0.30661943554878235,0.0351334773004055
1.2424086332321167,6.1613922119140625,7.960280418395996,-0.05323254317045212,-0.22357667982578278,0.08091346174478531
1.3799124956130981,6.3279805183410645,8.079137802124023,0.07452555745840073,-0.16927948594093323,0.14798647165298462
1.7560511827468872,6.3193230628967285,7.046509265899658,0.13521066308021545,-0.14905111491680145,0.041521381586790085
1.5687862634658813,6.245610237121582,7.058432102203369,0.047909289598464966,-0.15863297879695892,0.022357666864991188
1.5915024280548096,6.336302757263184,7.536248207092285,0.22251202166080475,-0.4343775510787964,0.040456730872392654
1.7382957935333252,6.448456764221191,7.746257781982422,0.280003160238266,-0.16927948594093323,0.017034413293004036
1.4664006233215332,6.416805267333984,7.32954216003418,0.12562879920005798,-0.06813765317201614,0.043650683015584946
1.361314296722412,6.225709915161133,7.346665382385254,0.009581857360899448,-0.006387905217707157,0.126693457365036
1.471964716911316,6.791574478149414,6.938779830932617,-0.043650683015584946,-0.12030554562807083,0.1054004356265068
1.6938881874084473,6.473365783691406,7.5501532554626465,0.14159856736660004,-0.18844319880008698,0.2108008712530136
1.9819010496139526,6.4408721923828125,7.038349628448486,0.1788613349199295,-0.22251202166080475,0.2704213261604309
1.995844841003418,6.5678791999816895,6.6959404945373535,0.10327113419771194,-0.140533909201622,0.21931807696819305
1.6778661012649536,6.500621795654297,7.0141682624816895,0.05855579674243927,-0.2693566679954529,0.23209388554096222
2.3255550861358643,6.3927388191223145,7.456942558288574,0.07878416031599045,-0.27467992901802063,0.2736152708530426
2.3616788387298584,6.378536701202393,7.163882255554199,0.12137019634246826,-0.19057250022888184,0.25445154309272766
2.057730197906494,6.445229530334473,6.811398506164551,-0.008517206646502018,-0.3438822329044342,0.24806363880634308
2.6009361743927,6.472963809967041,7.078802108764648,-0.03406882658600807,-0.3651752471923828,0.22570598125457764
2.875819444656372,6.600114822387695,7.293370723724365,-0.009581857360899448,-0.3396236300468445,0.13521066308021545
2.8103044033050537,6.475741386413574,7.710670471191406,0.03406882658600807,-0.26509806513786316,0.08943066745996475
2.6035985946655273,6.335651397705078,7.7351484298706055,0.09155996888875961,-0.1362753063440323,0.05216789245605469
2.428103446960449,6.161592960357666,6.934747695922852,0.10646508634090424,-0.06600835174322128,0.05642649531364441
2.3991527557373047,6.345534801483154,6.982009410858154,0.047909289598464966,-0.10327113419771194,0.09262461960315704
2.4943175315856934,6.4082818031311035,6.911514759063721,0.03619812801480293,-0.1852492392063141,0.08304276317358017
2.929755926132202,6.552249908447266,6.132948875427246,-0.1756673902273178,-0.13946926593780518,-0.126693457365036
3.2277095317840576,6.566107749938965,6.661579132080078,-0.21505947411060333,-0.06920230388641357,-0.22357667982578278
2.997607707977295,6.673933029174805,7.010710716247559,-0.23954643309116364,0.03406882658600807,-0.406696617603302
3.0331950187683105,6.623310089111328,6.8329081535339355,-0.29597294330596924,-0.02342231757938862,-0.6132388710975647
3.0329556465148926,6.35152006149292,6.922910690307617,-0.34920546412467957,-0.05749114602804184,-0.7037342190742493
2.239000082015991,6.265434265136719,6.809646129608154,-0.4727049767971039,-0.29277896881103516,-0.8038113713264465
2.323228120803833,6.295677661895752,7.900626182556152,-0.45460590720176697,-0.3513347804546356,-0.7505788207054138
1.8725147247314453,6.87681770324707,8.555641174316406,-0.11178833991289139,-0.11285299062728882,-0.7218332886695862
1.4571685791015625,5.675168037414551,8.552117347717285,0.27148595452308655,0.021293016150593758,-0.46099382638931274
1.2113032341003418,5.884037971496582,6.989297389984131,0.31087803840637207,0.16395622491836548,-0.13201670348644257
2.0557188987731934,6.387557506561279,6.4904704093933105,-0.02768092229962349,-0.020228365436196327,-0.02661627158522606
1.9153422117233276,6.411499977111816,6.799609184265137,-0.13733996450901031,-0.048973940312862396,0.0074525559321045876
2.2761197090148926,6.35367488861084,7.131848335266113,-0.17460273206233978,-0.012775810435414314,-0.005323254037648439
2.2440567016601562,6.311776161193848,7.2617573738098145,-0.16076228022575378,0.09049531817436218,0.012775810435414314
2.0209743976593018,6.403407096862793,7.4211249351501465,-0.16182692348957062,0.1650208830833435,0.042586032301187515
2.2164180278778076,6.393303871154785,7.869022846221924,-0.13840460777282715,0.281067818403244,0.10965903848409653
2.307100534439087,6.352621555328369,7.557460308074951,-0.07984881103038788,0.5131617188453674,0.12456414848566055
2.0168564319610596,6.16010856628418,7.120499610900879,-0.07239625602960587,0.6686007380485535,0.15330971777439117
2.040032148361206,6.036050796508789,6.8064093589782715,-0.15011577308177948,0.7133160829544067,0.19802506268024445
1.9145665168762207,6.296721458435059,7.002475261688232,-0.27893853187561035,0.7143807411193848,0.16927948594093323
1.56417977809906,6.482913970947266,7.481880187988281,-0.34601151943206787,0.6483723521232605,0.11711159348487854
1.3199138641357422,6.0643310546875,8.376315116882324,-0.16076228022575378,0.45354124903678894,0.26403340697288513
2.101026773452759,6.305896282196045,8.217494010925293,-0.014905111864209175,0.48973938822746277,0.2352878302335739
2.19541597366333,6.0623674392700195,7.80618953704834,0.012775810435414314,0.716509997844696,0.12882275879383087
1.350885272026062,5.932697772979736,7.753287315368652,0.07133160531520844,0.6856351494789124,0.18631389737129211
0.9484007358551025,6.212522506713867,7.921848773956299,0.2108008712530136,0.5844933390617371,0.2278352826833725
0.7751275897026062,6.878033638000488,6.9858784675598145,0.28213247656822205,0.5099677443504333,0.16395622491836548
1.1295652389526367,6.624880313873291,7.063747406005859,0.1085943877696991,0.02768092229962349,0.06387905031442642
1.3490943908691406,6.349614143371582,8.297249794006348,0.07878416031599045,-0.17779669165611267,0.020228365436196327
1.5474300384521484,6.454777240753174,7.968382358551025,0.22889992594718933,0.06174974888563156,-0.0734609067440033
1.4618037939071655,6.129079818725586,6.927210807800293,0.3715631365776062,0.10114183276891708,-0.09581857919692993
0.9177262783050537,6.12230920791626,6.592779159545898,0.22144737839698792,0.015969762578606606,-0.042586032301187515
1.19134521484375,6.37289571762085,6.772985935211182,0.020228365436196327,0.041521381586790085,-0.0031939526088535786
1.4456669092178345,6.380289077758789,7.311107158660889,-0.06174974888563156,0.044715333729982376,-0.03300417587161064
1.1347366571426392,6.177988052368164,7.526728630065918,-0.07133160531520844,0.07239625602960587,-0.005323254037648439
1.266379475593567,6.536266803741455,7.881702423095703,-0.03087487444281578,0.03619812801480293,0.020228365436196327
1.325257658958435,6.704349040985107,8.13172435760498,0.0596204474568367,0.0596204474568367,-0.02768092229962349
1.1398699283599854,6.377866268157959,7.580971717834473,0.1511804163455963,0.13201670348644257,-0.06494370102882385
1.1586787700653076,6.334377765655518,7.2411956787109375,0.1682148277759552,0.08730136603116989,-0.02661627158522606
1.186585545539856,6.34988260269165,7.040581226348877,0.13095206022262573,0.070266954600811,0.0021293016616255045
1.0588213205337524,6.405638694763184,6.695356369018555,0.05110324174165726,0.005323254037648439,0.008517206646502018
1.1100956201553345,6.3839569091796875,7.046614170074463,-0.05323254317045212,-0.05323254317045212,0.02342231757938862
1.2281008958816528,6.3972015380859375,7.453916072845459,-0.07878416031599045,-0.02661627158522606,0.0074525559321045876
1.1351292133331299,6.370166301727295,7.354930400848389,-0.09368927031755447,-0.07984881103038788,0.02768092229962349
1.2282254695892334,6.435757637023926,7.210971832275391,-0.12882275879383087,-0.019163714721798897,0.024486970156431198
1.5194464921951294,6.403493881225586,7.066102981567383,-0.1575683206319809,0.041521381586790085,-0.019163714721798897
1.026930570602417,6.401386737823486,7.47208309173584,-0.19483110308647156,-0.019163714721798897,-0.047909289598464966
1.2333394289016724,6.506224155426025,8.067109107971191,-0.1511804163455963,-0.08517206460237503,-0.041521381586790085
1.1725267171859741,6.377799034118652,8.002849578857422,-0.06387905031442642,-0.06068509817123413,-0.06707300245761871
1.0580264329910278,5.8525590896606445,7.514010906219482,0.017034413293004036,0.07878416031599045,0.02768092229962349
1.1392185688018799,5.961092948913574,6.3673601150512695,-0.08943066745996475,0.1788613349199295,0.12243484705686569
1.16042160987854,6.163383960723877,7.406118392944336,-0.435442179441452,0.018099064007401466,0.19057250022888184
1.289555311203003,6.314237594604492,8.097142219543457,-0.4141491651535034,0.05749114602804184,0.17034412920475006
1.6936486959457397,6.578433036804199,8.467880249023438,-0.1575683206319809,0.12349949777126312,0.05642649531364441
1.0220942497253418,6.13001823425293,7.899946212768555,0.018099064007401466,-0.015969762578606606,-0.014905111864209175
1.2860311269760132,6.00877571105957,7.416557312011719,0.05110324174165726,0.010646508075296879,0.02981022372841835
1.113945484161377,6.012989521026611,7.61171293258667,-0.02555162087082863,0.022357666864991188,-0.045779984444379807
1.2499265670776367,6.056947231292725,7.987641334533691,0.06920230388641357,0.044715333729982376,-0.024486970156431198
1.3846722841262817,6.478221416473389,8.314008712768555,0.4162784814834595,0.03726277872920036,-0.08836601674556732
0.1677856594324112,6.506875038146973,7.995081901550293,0.5184849500656128,-0.27467992901802063,-0.12243484705686569
1.977074384689331,6.787504196166992,8.52719783782959,0.45034730434417725,-0.38433894515037537,0.11711159348487854
1.663395643234253,6.645097255706787,6.911189079284668,0.30981338024139404,-0.18844319880008698,-0.07665485888719559
1.4219738245010376,6.225212097167969,6.124492645263672,0.12137019634246826,-0.07878416031599045,-0.09688322991132736
0.9434494972229004,5.940244197845459,5.6963324546813965,0.018099064007401466,-0.06387905031442642,-0.11817624419927597
1.4164959192276,6.495794773101807,6.8356757164001465,-0.2768092155456543,-0.07665485888719559,-0.05216789245605469
1.5396920442581177,6.317101001739502,8.39163875579834,-0.2693566679954529,0.16715018451213837,-0.042586032301187515
0.8287481069564819,5.877449035644531,8.182768821716309,0.019163714721798897,0.13095206022262573,0.020228365436196327
1.388981819152832,6.215156078338623,7.110060691833496,0.10965903848409653,0.22251202166080475,0.05323254317045212
0.6694762706756592,6.615447044372559,7.843835830688477,0.4162784814834595,0.04684463515877724,-0.12349949777126312
0.880146861076355,6.7588791847229,8.569096565246582,0.3502701222896576,-0.328977108001709,0.05749114602804184
2.0718941688537598,7.092296123504639,7.958776473999023,0.203348308801651,-0.14479251205921173,-0.04684463515877724
1.3740801811218262,6.304632186889648,6.647462844848633,0.07559020817279816,-0.05536184459924698,-0.13201670348644257
0.9971179962158203,5.9860405921936035,5.807097911834717,-0.13840460777282715,0.03726277872920036,-0.07984881103038788
1.0407403707504272,6.248876094818115,5.682704448699951,-0.27148595452308655,0.07133160531520844,-0.048973940312862396
1.4748952388763428,6.298005104064941,5.9990458488464355,-0.39817941188812256,0.08730136603116989,-0.05642649531364441
1.0451648235321045,6.442155361175537,7.0794148445129395,-0.4375714957714081,0.10965903848409653,-0.1543743759393692
1.2950811386108398,6.50843620300293,7.891365051269531,-0.5301961302757263,0.03087487444281578,-0.17673203349113464
1.2453296184539795,6.316928863525391,8.647004127502441,-0.4035026729106903,0.1085943877696991,-0.17034412920475006
1.0886051654815674,6.160213947296143,8.571050643920898,-0.2693566679954529,0.14479251205921173,-0.16182692348957062
0.8614433407783508,5.754617214202881,7.9880146980285645,-0.010646508075296879,0.1682148277759552,-0.09368927031755447
0.6252697110176086,5.785281658172607,7.401196002960205,0.11711159348487854,0.07771950960159302,0.017034413293004036
0.7659242749214172,6.011630058288574,7.5204267501831055,0.13095206022262573,0.024486970156431198,0.06174974888563156
1.2752188444137573,6.307007312774658,7.515092849731445,0.08197811245918274,0.08197811245918274,0.08304276317358017
1.105297565460205,6.432214260101318,8.438010215759277,0.252322256565094,0.07452555745840073,0.008517206646502018
0.8021820783615112,6.306767463684082,8.063518524169922,0.2906496822834015,-0.12030554562807083,0.06813765317201614
1.4520258903503418,6.557431221008301,6.632791042327881,0.11498229205608368,-0.02661627158522606,-0.02661627158522606
1.0323989391326904,6.1717729568481445,6.377406120300293,-0.16715018451213837,0.044715333729982376,-0.07239625602960587
0.8288056254386902,6.043194770812988,6.866637706756592,-0.23635248839855194,0.041521381586790085,-0.045779984444379807
1.0794976949691772,6.265874862670898,7.786145210266113,-0.16289158165454865,0.02555162087082863,-0.014905111864209175
1.1604504585266113,6.310330390930176,8.080028533935547,-0.1085943877696991,0.0351334773004055,-0.009581857360899448
1.0310581922531128,6.095742702484131,7.25589656829834,-0.05642649531364441,0.2384817898273468,0.042586032301187515
0.7216028571128845,5.931078910827637,7.015777111053467,-0.18311993777751923,0.2491282969713211,0.07984881103038788
1.0966593027114868,6.12791109085083,7.2535881996154785,-0.3193952441215515,0.29277896881103516,0.14266321063041687
0.8600355982780457,5.957913398742676,7.839286804199219,-0.28958502411842346,0.29277896881103516,0.15011577308177948
0.7213825583457947,5.956658840179443,8.069197654724121,-0.0734609067440033,0.24061109125614166,0.23315852880477905
0.9739229679107666,6.292067527770996,8.044479370117188,0.1469218134880066,0.10114183276891708,0.21931807696819305
1.1217409372329712,6.299671173095703,7.89219856262207,0.22570598125457764,0.05855579674243927,0.18099063634872437
0.9574795365333557,6.156000137329102,7.711810111999512,0.2555162012577057,0.045779984444379807,0.16395622491836548
0.882742166519165,6.192076206207275,7.695921897888184,0.2938436269760132,0.0,0.1469218134880066
0.9974818825721741,6.407841205596924,7.439100742340088,0.3044901490211487,0.02555162087082863,0.10965903848409653
0.9331640601158142,6.426956653594971,7.2278265953063965,0.23315852880477905,0.012775810435414314,0.038327429443597794
0.8195351958274841,6.3690361976623535,7.428489685058594,0.15543901920318604,-0.03087487444281578,0.02555162087082863
0.9047400951385498,6.279914379119873,7.337098121643066,0.13733996450901031,-0.05110324174165726,0.03406882658600807
1.036248803138733,6.240792751312256,7.249997138977051,0.12882275879383087,-0.005323254037648439,0.03406882658600807
1.0728801488876343,6.267589092254639,7.011802673339844,0.05536184459924698,0.0734609067440033,0.048973940312862396
1.1036312580108643,6.374054908752441,7.007234573364258,-0.06920230388641357,0.17353808879852295,0.042586032301187515
0.8215750455856323,6.366345405578613,7.278191566467285,-0.1543743759393692,0.15863297879695892,0.02981022372841835
0.6026492714881897,6.564651966094971,6.738701343536377,-0.13414600491523743,0.03087487444281578,-0.0010646508308127522
1.1455680131912231,6.532885551452637,8.236360549926758,-0.32791244983673096,-0.0010646508308127522,-0.013840461149811745
1.2614378929138184,6.2588934898376465,8.339962005615234,-0.43970078229904175,0.3438822329044342,-0.06494370102882385
1.2037280797958374,6.150771141052246,7.728272438049316,-0.47802823781967163,0.7399323582649231,-0.10114183276891708
