accX,accY,accZ,gyroX,gyroY,gyroZ
-1.669256567955017,8.395181655883789,5.295131206512451,-0.34581953287124634,0.14564771950244904,-0.055606190115213394
-1.639951467514038,8.291531562805176,5.328123092651367,-0.31405454874038696,0.11999138444662094,-0.14357078075408936
-1.627492070198059,8.340001106262207,4.542269706726074,-0.43451717495918274,0.22050489485263824,-0.20626300573349
-1.6418955326080322,8.28630256652832,3.87204647064209,-0.7538251280784607,0.09875072538852692,-0.31440362334251404
-0.9729556441307068,8.340900421142578,4.952444553375244,-0.9454099535942078,-0.2332807034254074,-0.6678502559661865
-1.8217192888259888,9.192115783691406,4.013668060302734,-1.1196985244750977,-0.18957766890525818,-0.9068905115127563
-0.9816226363182068,8.597731590270996,1.4695225954055786,-1.5788073539733887,-0.44374996423721313,-1.2516279220581055
-1.8938612937927246,4.827150821685791,4.676565170288086,-2.3939459323883057,-2.8994107246398926,-2.4921905994415283
-2.4956583976745605,4.366918563842773,6.443974494934082,-2.441645860671997,-2.8972465991973877,-2.1491808891296387
-1.9944177865982056,4.414409637451172,5.89193868637085,-2.6047816276550293,-2.687859296798706,-1.856977939605713
-0.033643320202827454,3.72110652923584,5.6722564697265625,-3.209259033203125,-2.357032299041748,-1.625966191291809
-0.7972308397293091,2.5231149196624756,8.548554420471191,-3.9759297370910645,-2.008175849914551,-1.4287090301513672
-1.8119317293167114,1.469024658203125,12.26672077178955,-4.09101676940918,-1.2188507318496704,-1.0757511854171753
-4.2619757652282715,1.1538710594177246,16.080005645751953,-2.7339186668395996,0.8147022128105164,-0.47858673334121704
-3.8450686931610107,1.5112775564193726,16.415327072143555,-1.2008737325668335,1.9089887142181396,-0.10519099235534668
-1.1936148405075073,-0.2232162058353424,10.59677505493164,3.1545779705047607,-0.6841690540313721,-0.5671272873878479
-2.1487481594085693,-1.2196637392044067,9.962359428405762,2.4049065113067627,-1.7490817308425903,-0.5422388911247253
-0.21071846783161163,0.3079422116279602,12.550568580627441,1.3756859302520752,2.0415291786193848,0.30913272500038147
-0.9860471487045288,2.9126803874969482,6.748880863189697,0.003996803890913725,2.7057838439941406,0.00945968460291624
-6.902493000030518,4.300953388214111,7.293801307678223,-1.042240858078003,3.0360350608825684,0.6130120158195496
-5.221907138824463,2.860304832458496,7.371986389160156,-0.9259495139122009,1.4943335056304932,1.3513909578323364
-4.340438365936279,3.5740067958831787,9.774174690246582,-0.5811248421669006,1.003005862236023,1.2457985877990723
-5.454498767852783,3.8866031169891357,10.171113967895508,-0.0446455217897892,1.5509344339370728,1.1830190420150757
-4.632761001586914,3.789254903793335,9.333210945129395,0.5544387698173523,1.8964223861694336,1.3240067958831787
-3.904425621032715,4.216859340667725,8.210762023925781,0.9467538595199585,1.399457335472107,1.2670217752456665
-4.408730506896973,4.415932655334473,6.100454330444336,0.4126830995082855,1.305680751800537,0.7807730436325073
-3.9922354221343994,5.103508949279785,6.332883358001709,0.03445279970765114,1.576328992843628,0.5816135406494141
-4.618127822875977,4.744321346282959,6.631497859954834,0.018273597583174706,1.365440845489502,0.40968114137649536
-5.738958835601807,4.2407917976379395,7.237633228302002,0.17114698886871338,1.2220271825790405,0.4985533058643341
-6.357122421264648,4.538726329803467,6.842149257659912,0.3402170240879059,1.1187909841537476,0.6823364496231079
-5.6037917137146,4.882638931274414,5.616365909576416,0.40535271167755127,0.9278693795204163,0.7916638851165771
-5.078973293304443,5.987314224243164,3.2640342712402344,0.45951029658317566,-0.24012239277362823,0.5255186557769775
-5.022680759429932,5.463357448577881,4.329118728637695,0.2750813364982605,-0.4449542462825775,0.4158770442008972
-5.1876983642578125,5.207962989807129,6.025209426879883,-0.08314748853445053,-0.23979078233242035,0.21291270852088928
-5.128111839294434,5.0729780197143555,5.03092622756958,-0.06129596382379532,-0.6606420278549194,0.0872664600610733
-5.644397258758545,5.6102752685546875,5.153519153594971,-0.07478735595941544,-1.5073535442352295,0.026563910767436028
-5.388591289520264,5.580079555511475,6.535212516784668,-0.025970499962568283,-2.1715211868286133,-0.04970697686076164
-3.1732077598571777,5.317588806152344,7.796784400939941,-0.044313911348581314,-2.2766947746276855,-0.05605997517704964
-2.682779550552368,5.569190502166748,8.157552719116211,-0.4352676570415497,-1.2329354286193848,-0.27895596623420715
-2.8946280479431152,5.629218101501465,7.650719165802002,-0.7489905953407288,-0.4509930908679962,-0.4698426425457001
-2.9330501556396484,5.259275436401367,7.135678291320801,-0.8209854364395142,-0.3551745116710663,-0.5987875461578369
-2.978252649307251,4.856015682220459,7.155282020568848,-0.7696378231048584,-0.5370203852653503,-0.574859082698822
-3.5160956382751465,3.9561405181884766,8.385978698730469,-0.6293133497238159,-0.651513934135437,-0.2855009436607361
-3.455014944076538,3.874498128890991,8.865585327148438,-0.41900119185447693,-0.5776516199111938,0.1255589872598648
-3.589434862136841,3.759298801422119,8.909534454345703,-0.17240361869335175,-0.17409659922122955,0.4360705018043518
-3.1471874713897705,3.9733595848083496,8.555545806884766,0.10156071186065674,0.1653175801038742,0.6023829579353333
-2.6954495906829834,4.5590386390686035,8.298131942749023,0.46380379796028137,0.09011135250329971,0.71324622631073
-2.4791669845581055,4.726192474365234,8.137421607971191,0.5983163118362427,0.011327186599373817,0.6516361236572266
-2.8686366081237793,5.48135232925415,7.43073034286499,0.557126522064209,-0.11667525768280029,0.13758429884910583
-2.9618475437164307,5.3613739013671875,7.680005073547363,0.5758888125419617,-0.2183406949043274,0.14868459105491638
-3.070956230163574,5.308921813964844,8.04019832611084,0.5728170871734619,-0.14046409726142883,0.22715459764003754
-2.517761468887329,5.753821849822998,6.993252277374268,0.19366173446178436,0.4110075831413269,0.3623303472995758
-2.620310068130493,5.835148334503174,6.973505020141602,-0.026982789859175682,0.43999749422073364,0.3946712911128998
-2.7148044109344482,5.783308982849121,7.043501853942871,-0.17488199472427368,0.45347145199775696,0.426279217004776
-2.793870449066162,5.820629596710205,7.4672369956970215,-0.20083503425121307,0.518502414226532,0.4524940550327301
-2.916740894317627,6.010030269622803,6.446540832519531,0.1318945288658142,0.4395611584186554,0.5494471192359924
-3.0940937995910645,6.467006683349609,6.608714580535889,0.3689276874065399,0.10775662958621979,0.49031534790992737
-2.5163824558258057,6.534302711486816,8.140525817871094,0.5926091074943542,-0.12103858590126038,0.20573940873146057
-1.988508939743042,6.82407808303833,7.3578314781188965,0.4456174671649933,0.45005059242248535,0.0
-1.989706039428711,6.093396186828613,5.497125148773193,0.2214822769165039,0.3804643154144287,-0.19045032560825348
-2.9433834552764893,6.178217887878418,5.472991466522217,0.02949606440961361,-0.12362167239189148,-0.14482742547988892
-3.0303122997283936,6.400993824005127,7.303081035614014,-0.22759093344211578,-0.2347642332315445,-0.020629791542887688
-2.889437437057495,5.819806098937988,8.209104537963867,-0.3269001543521881,0.08100073039531708,0.03413863852620125
-3.14072322845459,5.6241230964660645,7.85434103012085,-0.1814269721508026,0.3095864951610565,0.13323843479156494
-3.015094757080078,6.2596306800842285,7.127796649932861,0.2997952103614807,-0.17957693338394165,0.11985176056623459
-2.706472635269165,6.121915817260742,7.5505266189575195,0.3280870020389557,-0.2079734355211258,0.021711895242333412
-2.7742857933044434,5.976617813110352,6.837351322174072,0.09377653896808624,0.08567821234464645,0.031101766973733902
-3.1432993412017822,5.833587169647217,5.964377403259277,-0.10220648348331451,-0.031956978142261505,0.05496041849255562
-2.8589928150177,6.481793403625488,6.783529758453369,-0.299620658159256,-0.18397516012191772,0.05770058557391167
-2.632453441619873,6.471776008605957,7.238562107086182,-0.3865380585193634,-0.1687733381986618,0.020647244527935982
-2.766298770904541,6.022604465484619,8.342960357666016,-0.35325464606285095,-0.08141960948705673,-0.014590952545404434
-2.958266019821167,5.724699020385742,8.54844856262207,-0.08147197216749191,0.13432054221630096,0.050823986530303955
-3.217395067214966,6.0951008796691895,7.63191032409668,0.4144284427165985,0.04297000542283058,0.12566371262073517
-2.473708152770996,6.395726680755615,7.446445941925049,0.5382421016693115,0.0325503908097744,0.010751227848231792
-2.572138547897339,6.330307483673096,6.214945316314697,0.24045400321483612,0.18598228693008423,-0.03445279970765114
-2.91557240486145,5.867766857147217,5.287057876586914,-0.010751227848231792,-0.1166578084230423,-0.02918190509080887
-2.871279716491699,6.321467876434326,6.351318836212158,-0.2595304548740387,-0.4191408157348633,-0.008115780539810658
-2.422299861907959,6.735252857208252,8.197966575622559,-0.49820423126220703,-0.1284911334514618,-0.09094911068677902
-2.7828762531280518,5.671087741851807,8.342040061950684,-0.4150218367576599,0.029024824500083923,-0.053441982716321945
-3.1703059673309326,5.493610382080078,8.230480194091797,0.015149458311498165,0.004468042869120836,0.12405800074338913
-3.240906238555908,5.9626922607421875,7.365665435791016,0.43905502557754517,-0.025097833946347237,0.22361157834529877
-2.830808162689209,6.508656024932861,7.105942249298096,0.5899910926818848,-0.20125392079353333,0.1434660702943802
-2.755429267883301,6.387212753295898,6.710506439208984,0.3571292757987976,-0.2203303575515747,0.06009168550372124
-2.929410934448242,6.290975570678711,6.685060977935791,0.21444860100746155,-0.18966493010520935,0.04401720315217972
-3.222595453262329,6.127633571624756,6.65291166305542,-0.0032463124953210354,-0.2494075447320938,0.041695915162563324
-2.774611473083496,6.0486345291137695,6.5332207679748535,-0.1200961023569107,-0.45291292667388916,0.04438372328877449
-2.2822582721710205,6.4798970222473145,6.876462936401367,-0.2344849854707718,-0.5510877370834351,-0.029129544273018837
-2.113945960998535,6.735875606536865,7.413127899169922,-0.3986506462097168,-0.45204028487205505,-0.15154694020748138
-2.150385618209839,6.474993705749512,7.4542999267578125,-0.5279970169067383,-0.4452334940433502,-0.2448173314332962
-2.238865852355957,6.3251261711120605,7.7722487449646,-0.548504650592804,-0.4781503975391388,-0.29194122552871704
-2.288464069366455,5.786201000213623,7.663733959197998,-0.4441863000392914,-0.40371209383010864,-0.2584308981895447
-2.4648687839508057,5.616040229797363,7.865574836730957,-0.28495991230010986,-0.514557957649231,-0.1696634590625763
-2.3514506816864014,5.680003643035889,8.160099983215332,-0.1025555431842804,-0.5123588442802429,-0.10152580589056015
-2.063974142074585,5.80504846572876,8.366470336914062,0.03234095126390457,-0.2869495749473572,-0.09951867163181305
-2.1118581295013428,5.742971420288086,8.09678840637207,0.12805481255054474,-0.15444418787956238,-0.14302973449230194
-2.3476200103759766,5.554930686950684,7.811657428741455,0.2295980602502823,-0.26855382323265076,-0.12369148433208466
-2.1990644931793213,5.470271587371826,7.751505374908447,0.3022212088108063,-0.2479938268661499,-0.015550883486866951
-1.9777637720108032,5.5735673904418945,7.755786418914795,0.3188192844390869,-0.10000736266374588,0.080075703561306
-1.9709641933441162,5.816789627075195,7.714931488037109,0.2888519763946533,0.04495968297123909,0.1082802265882492
-1.9915926456451416,5.9553751945495605,7.464593887329102,0.22471113502979279,0.13184216618537903,0.10861183702945709
-1.8832119703292847,6.344480991363525,7.373711109161377,-0.037768926471471786,0.08127998560667038,0.04120722413063049
-1.8594039678573608,6.257331848144531,7.4737396240234375,-0.0821002870798111,0.15097098052501678,0.014765485189855099
-2.1976473331451416,6.198904037475586,7.566683769226074,-0.09384635090827942,0.18193311989307404,0.015585790388286114
-2.3864922523498535,5.976118564605713,7.491361141204834,0.020367993041872978,-0.10409143567085266,0.11016517877578735
-2.064462661743164,6.204554080963135,8.593564987182617,0.38673004508018494,0.2220931500196457,0.1871865689754486
-1.5993170738220215,6.369170188903809,8.855502128601074,0.9061225652694702,0.5334599018096924,-0.03248057886958122
-2.3664958477020264,6.749101161956787,7.564949035644531,0.7762351632118225,0.3263416588306427,-0.08562584966421127
-2.0637059211730957,6.093530178070068,6.353780269622803,0.4109552204608917,0.39247217774391174,-0.012287117540836334
-2.6163835525512695,6.136826992034912,5.169033527374268,-0.14760249853134155,0.11040952801704407,0.18968237936496735
-1.7697938680648804,6.86068058013916,7.016207695007324,-0.636591374874115,-0.08332201838493347,-0.1535191535949707
-3.1344504356384277,5.872315883636475,7.77976655960083,0.5210331678390503,0.0009599310578778386,0.06930702179670334
-2.2762441635131836,6.377999782562256,6.792972564697266,0.4325973093509674,-0.11979939788579941,0.24534092843532562
-2.513892412185669,6.524860382080078,6.128504753112793,0.19371409714221954,0.13089969754219055,0.15559610724449158
-2.4331886768341064,6.833032131195068,7.368739604949951,-0.21682225167751312,-0.1581268310546875,0.1276359260082245
-2.1027984619140625,6.377338886260986,7.9340105056762695,-0.24443335831165314,-0.08857546001672745,0.11486011743545532
-2.1913647651672363,6.20305061340332,8.011659622192383,-0.19891516864299774,-0.002321287989616394,0.12220795452594757
-2.3712172508239746,6.052523612976074,8.053481101989746,-0.0420449823141098,0.294890820980072,0.21378538012504578
-2.1532492637634277,6.505984306335449,7.279819011688232,0.16406095027923584,0.7030186057090759,0.358822226524353
-2.264512538909912,6.655545234680176,7.071743488311768,0.13760176301002502,0.626747727394104,0.3753854036331177
-2.414092540740967,6.579074382781982,6.309142589569092,0.10334094613790512,0.7783644795417786,0.3919660449028015
-2.6840341091156006,7.02200174331665,6.046211242675781,0.2773328125476837,0.415370911359787,0.2750988006591797
-2.5364267826080322,6.82598352432251,6.0507988929748535,0.20317377150058746,-0.05832890421152115,0.14985397458076477
-2.311228036880493,6.662383079528809,6.4511189460754395,-0.13032373785972595,-0.007853982038795948,0.1330988109111786
-2.7256836891174316,6.475741863250732,6.914157390594482,-0.47919759154319763,-0.04366813600063324,0.08861036598682404
-2.7121708393096924,6.194757461547852,8.29235553741455,-0.0021293016616255045,-0.24675464630126953,0.25099578499794006
-2.259570837020874,6.496014595031738,8.608514785766602,0.3813369870185852,-0.04850269854068756,0.33854150772094727
-1.7164126634597778,6.761656284332275,8.141733169555664,0.5814040899276733,0.4133986830711365,0.2805616855621338
-1.9646052122116089,6.791584014892578,6.548342704772949,0.5286777019500732,0.6029763221740723,0.19495327770709991
-2.4900078773498535,6.86978816986084,5.947484016418457,0.3329389989376068,0.3222925066947937,0.203365758061409
-2.3242239952087402,6.810105323791504,6.071226119995117,0.21188296377658844,0.2866528630256653,0.22191861271858215
-2.084190845489502,6.899169445037842,6.166994094848633,-0.0010646508308127522,0.32759830355644226,0.19538961350917816
-2.279998302459717,6.810622692108154,6.344461917877197,-0.13573426008224487,0.39159953594207764,0.17177531123161316
-2.692519187927246,6.703639984130859,6.509393692016602,-0.2330014556646347,0.43598324060440063,0.1717054843902588
-2.858398914337158,6.491494655609131,6.8196821212768555,-0.24593433737754822,0.4444655478000641,0.2260724902153015
-2.7445595264434814,6.5512919425964355,7.112847328186035,-0.21694442629814148,0.48223447799682617,0.28956758975982666
-2.5381505489349365,6.471498012542725,7.205790042877197,-0.19582593441009521,0.5982813835144043,0.3341083824634552
-2.4540469646453857,6.353109836578369,6.947685718536377,-0.18997909128665924,0.8186641335487366,0.3298148810863495
-2.6634535789489746,6.549347877502441,6.274350166320801,-0.15892967581748962,0.7743676900863647,0.3407755494117737
-2.6424708366394043,7.275317668914795,5.1533942222595215,-0.17530086636543274,0.3761184513568878,0.24939009547233582
-2.49690318107605,6.917154788970947,6.288427829742432,-0.2362128645181656,-0.5295329093933105,-0.0351334773004055
-2.836209535598755,6.816473960876465,7.267407417297363,-0.3323630392551422,-0.39015090465545654,-0.1059763953089714
-2.715034246444702,6.585452556610107,6.791076183319092,-0.33393383026123047,-0.37571701407432556,-0.2375916689634323
-1.859174132347107,7.341407299041748,6.987668991088867,-0.46787041425704956,-0.9135227799415588,-0.5501976013183594
-2.038701057434082,7.137373447418213,8.312170028686523,-0.41743040084838867,-1.0508452653884888,-0.7343822121620178
-2.166015148162842,6.416440963745117,9.128947257995605,-0.20839230716228485,-0.8741132616996765,-0.8205142021179199
-2.1430115699768066,6.206977367401123,9.459567070007324,-0.08157669007778168,-0.662422239780426,-0.8075987696647644
-2.243089199066162,5.866320610046387,9.281085014343262,0.055344391614198685,-0.37831756472587585,-0.7365114688873291
-2.773529291152954,5.127737998962402,8.301922798156738,0.2822372019290924,-0.1598896086215973,-0.4956560432910919
-3.2153170108795166,4.989161968231201,7.483402729034424,0.43015384674072266,-0.13468705117702484,-0.14505431056022644
-3.140368938446045,5.503503322601318,7.0865302085876465,0.41177552938461304,-0.05382595211267471,0.1641656756401062
-2.4856791496276855,6.066169261932373,6.648659706115723,0.23006929457187653,0.017208946868777275,0.2783276438713074
-2.2102599143981934,6.485815525054932,6.557143688201904,-0.17751744389533997,-0.059725165367126465,0.1598721593618393
-2.1491310596466064,6.465474605560303,7.0306782722473145,-0.23134338855743408,-0.1284911334514618,0.0852593332529068
-2.121856451034546,6.3155975341796875,7.743481159210205,-0.15618951618671417,-0.017558012157678604,0.057159531861543655
-2.0746331214904785,6.328219413757324,7.902397632598877,-0.1059763953089714,0.025534166023135185,0.0705636590719223
-2.084669589996338,6.242344379425049,7.956228733062744,0.005427973810583353,0.1402895599603653,0.07285004109144211
-2.2741947174072266,6.016139984130859,7.452737808227539,0.15503759682178497,0.14826571941375732,0.12744393944740295
-2.065889596939087,6.323718547821045,6.305685520172119,-0.02439970336854458,0.2856405973434448,-0.011170106939971447
-2.538313388824463,6.116428375244141,5.441024303436279,-0.2246762365102768,0.0269304309040308,-0.0021642083302140236
-2.56891131401062,6.521738052368164,5.841095447540283,-0.3141941726207733,-0.17404423654079437,0.054593898355960846
-2.041449546813965,6.893040657043457,7.6869096755981445,-0.392943412065506,-0.45842817425727844,0.08908160775899887
-1.6593732833862305,6.6975297927856445,9.153204917907715,-0.23081979155540466,-0.17671458423137665,-0.011170106939971447
-1.9803111553192139,6.457439422607422,7.582685470581055,0.623414158821106,0.03817034885287285,0.06316346675157547
-2.0425126552581787,6.619268417358398,6.937285423278809,0.6348809599876404,0.16493360698223114,-0.016772614791989326
-2.65061092376709,6.119579315185547,6.189633846282959,0.5008222460746765,0.0691150352358818,0.01820378378033638
-3.0275638103485107,6.757595539093018,6.440354347229004,-0.479337215423584,0.9875596761703491,0.10751228034496307
-2.405818223953247,7.266622066497803,6.12835168838501,-0.4767192304134369,0.814457893371582,0.05173156037926674
-2.739684820175171,7.03828239440918,6.330451011657715,-0.4576253294944763,0.5689773559570312,-0.09585348516702652
-3.3938286304473877,6.279099941253662,6.833032131195068,-0.4766319692134857,0.6289992332458496,-0.06497860699892044
-3.552889823913574,6.081846714019775,7.003039836883545,-0.5603728890419006,0.8495913743972778,-0.011972958222031593
-3.831115245819092,6.1750288009643555,6.846717357635498,-0.7437196969985962,1.3626657724380493,0.13041099905967712
-3.7517330646514893,6.219274044036865,6.33656120300293,-0.7799003720283508,1.4032796621322632,0.24003513157367706
-2.792433977127075,6.667736530303955,7.636775493621826,-0.5542816519737244,1.0542311668395996,0.217136412858963
-3.0795083045959473,7.107005596160889,6.129012584686279,-0.11618656665086746,0.03431317210197449,-0.017348572611808777
-3.832819938659668,6.602039813995361,7.660612106323242,-0.06141813471913338,-0.04420918971300125,-0.015132004395127296
-3.7044427394866943,6.423662185668945,7.160491943359375,-0.1480213701725006,0.4055446982383728,-0.0863937959074974
-3.852433204650879,6.072279453277588,6.107838153839111,-0.14552555978298187,0.32337459921836853,-0.05745624005794525
-4.036336421966553,6.279138565063477,4.644999980926514,-0.14645057916641235,-0.44284239411354065,0.03354522958397865
-3.68415904045105,6.507391929626465,5.220125675201416,-0.22593286633491516,-1.0848966836929321,0.01820378378033638
-2.9175643920898438,6.232700347900391,9.204949378967285,0.012531463988125324,-0.7631102800369263,-0.18353882431983948
-3.3790228366851807,5.937189102172852,8.423663139343262,0.31778955459594727,-0.40744709968566895,-0.21464058756828308
-3.442229747772217,6.147332668304443,6.952647686004639,0.33199653029441833,-0.2062106430530548,-0.1486671417951584
-3.336205005645752,6.185400485992432,6.9609785079956055,0.13521066308021545,-0.5048015713691711,-0.08075638115406036
-3.3338873386383057,6.097945213317871,7.430931568145752,0.2143089771270752,-0.5026722550392151,-0.0751538798213005
-3.3723671436309814,5.97697114944458,7.428029537200928,0.26429522037506104,-0.36798521876335144,-0.023771384730935097
-3.3267815113067627,5.933022975921631,6.984508514404297,0.27316147089004517,-0.27523842453956604,0.061627574265003204
-3.2404656410217285,6.197601318359375,6.57877779006958,0.19565141201019287,-0.2564237713813782,0.15659093856811523
-2.837904691696167,6.512850761413574,6.821070671081543,0.05333726108074188,-0.16411331295967102,0.16369442641735077
-2.7428834438323975,6.521153926849365,7.141636371612549,0.016755159944295883,-0.03902556374669075,0.1128878965973854
-2.752575159072876,6.4642486572265625,6.906256675720215,0.056531213223934174,0.019984019920229912,0.08798204362392426
-2.5565571784973145,6.630875587463379,6.707566261291504,0.01432915311306715,0.050422560423612595,0.06204645335674286
-2.351881742477417,6.635041236877441,7.185822486877441,-0.04518657550215721,0.19341738522052765,0.00890117883682251
-2.7666053771972656,6.442882537841797,6.932765007019043,0.0590444877743721,0.30492648482322693,-0.05478588491678238
-2.895796298980713,6.4472784996032715,6.5510430335998535,0.17619098722934723,0.150360107421875,-0.015446163713932037
-3.1415467262268066,6.613158226013184,5.175267696380615,0.15660838782787323,-0.12171926349401474,0.006492624990642071
-2.3078091144561768,6.4646124839782715,7.955625534057617,-0.06817255914211273,0.15395548939704895,-0.033370696008205414
-2.6298675537109375,6.515896320343018,6.884125709533691,-0.0642281174659729,0.35527920722961426,-0.08414231985807419
-3.643831253051758,6.4863996505737305,5.125525951385498,-0.1918640434741974,0.050998520106077194,-0.03867649659514427
-3.303816318511963,6.387892723083496,4.959799289703369,-0.2640683054924011,-0.29890507459640503,0.017924530431628227
-2.734264373779297,6.380987644195557,5.262608528137207,-0.3125011920928955,-0.7038040161132812,0.03052580915391445
-3.357178211212158,6.680157661437988,7.422964572906494,-0.3352428376674652,-1.0020109415054321,-0.03052580915391445
-2.418909788131714,6.100894927978516,8.167598724365234,-0.2520080804824829,-0.7662169933319092,-0.007470009382814169
-2.7144501209259033,6.0734381675720215,7.678627014160156,-0.22076669335365295,-0.38837066292762756,-0.009093165397644043
-2.635958433151245,6.238264560699463,7.000453948974609,-0.28380799293518066,-0.33910003304481506,0.021205751225352287
-2.4848268032073975,6.372158050537109,6.826491355895996,-0.3430793583393097,-0.4308345317840576,-0.019896753132343292
-2.347198724746704,6.500707626342773,7.014598846435547,-0.38437387347221375,-0.696438729763031,-0.07670722156763077
-3.045903205871582,6.7715301513671875,8.186235427856445,-0.23755677044391632,-0.8107578158378601,-0.08299040794372559
-1.475536823272705,6.536486625671387,7.766618728637695,-0.07255333662033081,-0.5532868504524231,-0.11873474717140198
-1.1257152557373047,6.859407901763916,5.651628017425537,-0.1656317412853241,-0.5202826261520386,-0.4300491213798523
-1.0478079319000244,7.032986164093018,5.229501247406006,-0.42987459897994995,-0.9847496747970581,-0.668722927570343
-0.7088273167610168,6.5597004890441895,6.031280994415283,-0.6423160433769226,-1.194433569908142,-0.9478010535240173
-1.0188764333724976,5.580769062042236,6.689495086669922,-0.8757887482643127,-1.0532886981964111,-1.2373511791229248
-0.45039719343185425,4.48137092590332,5.973628997802734,-1.61313796043396,-0.6323502659797668,-1.601199984550476
-1.6314951181411743,5.268469333648682,6.828100204467773,-2.135218381881714,-0.26626741886138916,-1.706478238105774
-2.454066276550293,4.565263748168945,8.104621887207031,-1.963949203491211,-0.26309093832969666,-1.5604115724563599
-2.689722776412964,4.064722061157227,9.487187385559082,-1.3352466821670532,-0.20203931629657745,-1.387414574623108
-3.2154128551483154,3.5028223991394043,10.24791145324707,-0.5114338397979736,-0.23783601820468903,-1.220857858657837
-3.351594924926758,3.40673828125,10.487360000610352,-0.05668829381465912,-0.17530086636543274,-1.1501370668411255
-2.7863240242004395,3.668903350830078,9.446495056152344,0.5249950289726257,0.07995353639125824,-1.0720510482788086
-2.230562686920166,4.114914417266846,7.789247512817383,0.6888989210128784,0.016842426732182503,-1.0939549207687378
-2.14390230178833,4.374704360961914,7.269581317901611,0.5838824510574341,-0.6673440933227539,-1.2262682914733887
-3.397123098373413,3.257636785507202,7.644896507263184,-0.1995958536863327,-0.3657512068748474,-1.318858027458191
-5.570971965789795,3.2642831802368164,9.136954307556152,-1.0815980434417725,0.5577898025512695,-0.7399148941040039
-6.17318058013916,3.033989667892456,9.077567100524902,-1.2501968145370483,0.570321261882782,-0.1662077009677887
-5.268383026123047,3.3495264053344727,8.68049430847168,-1.240911602973938,-0.7867246270179749,0.8134979605674744
-3.786372423171997,5.075669288635254,9.770009994506836,-0.8919156193733215,-1.8526146411895752,1.1258245706558228
-1.816863775253296,4.125774383544922,10.2611083984375,-0.6622302532196045,-2.114030122756958,0.8838696479797363
-1.1504617929458618,1.6779426336288452,14.512932777404785,-0.37316885590553284,2.7987053394317627,-0.2335599660873413
0.5628672242164612,3.096928596496582,15.061223983764648,0.6430141925811768,4.319218635559082,-0.8074591159820557
-4.347994804382324,0.5260539650917053,6.955366134643555,1.0705500841140747,2.6023905277252197,-0.6805038452148438
-3.993652820587158,0.7352592945098877,6.208777904510498,0.7820296883583069,1.9519761800765991,0.06698573380708694
-4.837646961212158,1.9700448513031006,5.915114402770996,0.44809582829475403,1.386873483657837,0.9617113471031189
-5.295159816741943,4.567198276519775,6.484263896942139,-0.1290496438741684,0.8560490608215332,1.5561355352401733
-2.9187233448028564,4.346701622009277,9.207457542419434,-0.38933059573173523,0.3310016989707947,1.4479600191116333
-2.5463292598724365,2.862488269805908,9.003463745117188,-0.5870764255523682,0.7115707397460938,1.0974106788635254
-4.21175479888916,3.6976912021636963,9.033696174621582,-0.7652395963668823,0.6676058769226074,1.2859934568405151
-4.744751930236816,4.481840133666992,9.980537414550781,-0.11992157250642776,0.5389227867126465,1.1508351564407349
-3.330458879470825,4.746006488800049,10.127989768981934,1.1128917932510376,-0.7816805839538574,0.6562263369560242
-4.006064414978027,5.033444881439209,9.79371166229248,1.799800992012024,-0.8452804088592529,-0.012932890094816685
-4.143874645233154,3.0324957370758057,6.859090805053711,1.1697720289230347,0.45294785499572754,0.027488935738801956
-4.475030899047852,4.329041957855225,5.864625453948975,0.7262663841247559,0.10618583112955093,0.2520779073238373
-3.733642578125,4.972009658813477,6.71216344833374,0.5019392371177673,-0.5611931681632996,0.2422516942024231
-3.5920684337615967,5.070545673370361,7.384349822998047,0.4386885166168213,-0.6720739603042603,0.1716705858707428
-3.6468095779418945,4.806102275848389,8.315646171569824,0.4412541389465332,-0.6264859437942505,0.0918741300702095
-3.1564483642578125,4.945855617523193,8.500757217407227,0.6226112842559814,-0.4443608224391937,0.0463733971118927
-3.3772130012512207,4.681018352508545,8.088542938232422,0.7548549175262451,-0.12953834235668182,-0.040997784584760666
-3.626755714416504,4.438648700714111,7.884479522705078,0.6680945754051208,0.24272294342517853,0.10348057001829147
-3.478717565536499,4.551290988922119,7.4589433670043945,0.5759586691856384,0.5453281402587891,0.250507116317749
-3.5325677394866943,5.326159954071045,7.202649116516113,0.5700943470001221,0.12320279330015182,0.2629687488079071
-3.244832754135132,4.981844902038574,7.186061859130859,0.5562713146209717,0.14297737181186676,0.31028464436531067
-3.012326955795288,5.230612277984619,7.162761688232422,0.2951526343822479,0.6631901860237122,0.3995407819747925
-3.0254759788513184,7.001057147979736,6.127652645111084,0.3381749987602234,0.5846503973007202,0.20900318026542664
-3.195981502532959,6.710947036743164,6.186789512634277,0.300685316324234,-0.16776104271411896,-0.06754424422979355
-3.4173874855041504,6.50752592086792,6.624966621398926,0.3205122649669647,-0.551977813243866,-0.31201252341270447
-3.5035693645477295,5.584341049194336,5.805718421936035,0.4547455310821533,-1.1594396829605103,-0.35129988193511963
-3.3059327602386475,6.036739826202393,5.467465877532959,0.36475634574890137,-1.9509813785552979,-0.31609657406806946
-3.020390748977661,6.1668314933776855,6.461806297302246,0.18357372283935547,-2.549664258956909,-0.39763835072517395
-2.3862144947052,5.466919898986816,9.787276268005371,0.3696083724498749,-0.8958600759506226,0.005811946466565132
-2.115143060684204,5.498935222625732,9.021035194396973,0.5979323387145996,-0.4738743305206299,0.07108726352453232
-2.0112922191619873,5.589043140411377,8.377100944519043,0.8776737451553345,-0.3447898030281067,0.1537984162569046
-2.279184103012085,6.160759449005127,7.748939037322998,1.2987518310546875,-0.5487489700317383,0.18325957655906677
-2.260298728942871,6.352056503295898,7.586324691772461,1.4320601224899292,-0.6107430458068848,0.15676547586917877
-1.9990242719650269,6.61564826965332,7.185573577880859,1.5089592933654785,-0.41238638758659363,0.09519025683403015
-1.747661828994751,6.738826274871826,6.1627326011657715,1.173297643661499,0.11920598894357681,0.08977973461151123
-2.010554790496826,6.7629780769348145,5.405053615570068,0.6705729365348816,0.34925782680511475,0.15102334320545197
-1.9054110050201416,6.791363716125488,5.376716136932373,0.30199432373046875,0.3436553180217743,0.2410997748374939
-1.777206301689148,7.021848678588867,5.749521732330322,0.05145230516791344,0.28675758838653564,0.278868705034256
-1.5415880680084229,7.287853717803955,6.307552814483643,-0.08864527195692062,0.246527761220932,0.2557256519794464
-1.3528292179107666,7.360273838043213,6.7679290771484375,-0.016807520762085915,0.16781340539455414,0.1897871047258377
-1.1054412126541138,7.481008529663086,7.103634357452393,0.14411184191703796,0.16662658751010895,0.10951940715312958
-1.2920548915863037,7.237393856048584,6.9223456382751465,0.3399377763271332,0.2528109550476074,0.11527899652719498
-1.614429235458374,7.571049690246582,6.99881649017334,0.7680844664573669,0.46783551573753357,0.11149163544178009
-1.8482565879821777,7.8990936279296875,5.632809162139893,1.1400665044784546,-0.19830431044101715,-0.13056808710098267
-1.0039557218551636,7.9075117111206055,5.434521675109863,0.6835756301879883,0.03073524869978428,-0.09393361955881119
-1.3261290788650513,7.198032855987549,4.489243030548096,-0.37545523047447205,1.0826451778411865,-0.21855013072490692
-2.3112854957580566,6.710305213928223,3.6841304302215576,-0.41371285915374756,0.8886343836784363,-0.13548991084098816
-3.0037269592285156,8.232243537902832,4.249870777130127,-0.30721285939216614,-0.30606094002723694,-0.011641345918178558
-2.0675079822540283,8.128841400146484,7.1287736892700195,-0.2796541154384613,-0.8090648055076599,-0.034348078072071075
-1.867247462272644,6.535729885101318,8.8519287109375,-0.15016812086105347,-0.07703883200883865,-0.012461651116609573
-2.1544365882873535,6.564383506774902,8.919722557067871,-0.016755159944295883,0.3934321105480194,0.04576253145933151
-2.0015621185302734,7.100742340087891,7.867231369018555,0.26652923226356506,1.020424246788025,0.10227629542350769
-1.712457537651062,7.413061141967773,5.950271129608154,0.4098556637763977,1.2488528490066528,0.07260569930076599
-2.774257183074951,8.039949417114258,5.046154499053955,0.4119151532649994,0.8177042007446289,-0.057421330362558365
-3.2041120529174805,7.661904811859131,5.046229839324951,0.4062079191207886,0.3110002279281616,-0.04904375225305557
-2.617551803588867,7.418088912963867,5.5453925132751465,0.3128677308559418,0.26656413078308105,-0.0036128314677625895
-2.463097095489502,7.145954132080078,5.814625263214111,0.10061822831630707,0.6466619372367859,0.10547024756669998
-3.3758530616760254,7.2752509117126465,5.759500980377197,0.07183775305747986,0.6857398748397827,0.19996237754821777
-3.4276540279388428,7.11971378326416,5.873301982879639,0.21530380845069885,0.4728969633579254,0.39154717326164246
-2.1774210929870605,7.93651008605957,5.22321891784668,0.16458454728126526,1.0777058601379395,0.38124972581863403
-2.882657051086426,7.781452178955078,4.106180191040039,0.0075747291557490826,1.0693632364273071,0.30173251032829285
-2.8953464031219482,8.161316871643066,3.087677240371704,-0.05023057386279106,0.4450066089630127,0.21781708300113678
-2.782665491104126,7.967376232147217,3.8806369304656982,-0.2174331247806549,-0.24347342550754547,0.12206833064556122
-2.448186159133911,7.565648555755615,5.501262187957764,-0.429159015417099,-0.07061602175235748,0.11199777573347092
-2.4164485931396484,8.322484016418457,5.950596332550049,-0.43790310621261597,0.1244419738650322,0.014276793226599693
-3.278456926345825,7.778435230255127,5.091116428375244,-0.06448991596698761,-0.9085485935211182,-0.2329840064048767
-2.9713191986083984,7.886490345001221,4.896209239959717,-0.01624901592731476,-1.363259196281433,-0.24993114173412323
-2.371849298477173,8.284493446350098,5.681746959686279,-0.1477770209312439,-1.8283196687698364,-0.4312359392642975
-2.0947155952453613,8.178650856018066,6.865545272827148,-0.35990434885025024,-1.570045828819275,-0.6006724834442139
-2.2256593704223633,7.506559371948242,7.453886985778809,-0.48952993750572205,-1.047441840171814,-0.6982713341712952
-2.6169965267181396,6.708878517150879,7.098185062408447,-0.4698426425457001,-0.8038288354873657,-0.5518730878829956
-2.6783359050750732,6.507631301879883,7.452134609222412,-0.44425609707832336,-0.5023581385612488,-0.23842942714691162
-2.629101514816284,6.398934841156006,7.718120574951172,-0.4337666630744934,-0.10559242218732834,0.03502875939011574
-2.6797149181365967,6.588929176330566,7.884268760681152,-0.24158847332000732,0.14510667324066162,0.20240582525730133
-2.4225776195526123,6.907214164733887,7.194911003112793,0.031520646065473557,0.18383553624153137,0.27466246485710144
-2.070448160171509,7.180269241333008,6.473222255706787,0.20463985204696655,0.08826129883527756,0.27836257219314575
-1.9486981630325317,7.377109527587891,6.089469909667969,0.2657961845397949,-0.01820378378033638,0.23310618102550507
-1.974967360496521,7.372560977935791,5.811186790466309,0.2833541929721832,-0.09339256584644318,0.20631536841392517
-1.938853144645691,7.486390590667725,5.727888107299805,0.29131290316581726,-0.23832470178604126,0.1374272257089615
-1.8522980213165283,7.4409966468811035,5.932946681976318,0.20465730130672455,-0.17592918872833252,0.09857619553804398
-2.105125665664673,7.340306282043457,6.081779479980469,-0.03200933709740639,0.2082526832818985,0.08876744657754898
-1.8714516162872314,7.339032173156738,6.030821323394775,0.11243411153554916,0.13791592419147491,0.0771959125995636
-2.197570562362671,7.36092472076416,5.835770606994629,0.28763025999069214,-0.07382743060588837,0.09147270768880844
-1.859471082687378,7.8327178955078125,5.575587749481201,0.4656887352466583,-0.3793996572494507,-0.006544984877109528
-1.7055813074111938,7.2824907302856445,6.312992572784424,-0.1397136002779007,0.112922802567482,-0.16861626505851746
-2.5280470848083496,6.7196044921875,5.837982654571533,-0.136502206325531,0.18043214082717896,-0.06431538611650467
-2.6317925453186035,7.488104820251465,5.843815326690674,-0.0406138114631176,-0.21158626675605774,0.10789625346660614
-1.4920568466186523,8.01290512084961,6.846832275390625,-0.10939723998308182,-0.22067943215370178,0.12032299488782883
-1.5753368139266968,7.657039642333984,6.526287078857422,0.20383700728416443,0.01377064734697342,0.05440191179513931
-1.6464062929153442,7.627093315124512,6.03262186050415,0.20628046989440918,0.27869418263435364,-0.008115780539810658
-1.983749270439148,7.797713279724121,5.122595310211182,0.10896090418100357,0.10754718631505966,0.025569073855876923
-1.696454644203186,7.832563400268555,5.137516021728516,-0.08054694533348083,-0.10012953728437424,0.03494149073958397
-1.5845592021942139,7.7403388023376465,5.347114086151123,-0.14385004341602325,-0.07677703350782394,0.0067544239573180676
-1.6695151329040527,7.899447917938232,5.741132736206055,-0.24729570746421814,-0.006597344763576984,-0.04368559271097183
-1.8008227348327637,7.779632568359375,6.066523551940918,-0.3423987030982971,0.015463616698980331,-0.07377506792545319
-2.0211944580078125,7.533814907073975,6.479475498199463,-0.3344225287437439,0.00143117003608495,-0.08649851381778717
-2.1752374172210693,7.366556167602539,6.915297031402588,-0.21249383687973022,-0.008761553093791008,-0.060842178761959076
-2.326110601425171,7.281839847564697,7.212522983551025,0.12952087819576263,-0.012339477427303791,-0.00015707963029854
-2.1414217948913574,7.174282550811768,6.602940082550049,0.34925782680511475,0.1485973298549652,0.016283921897411346
-2.2987496852874756,7.5837578773498535,5.844676971435547,0.5645442008972168,0.11150908470153809,0.0011693706037476659
-2.3259382247924805,7.625455379486084,5.219483852386475,0.35758304595947266,-0.05766567960381508,0.04127703607082367
-2.0787129402160645,7.310914993286133,5.031299591064453,0.07435102760791779,-0.01771509274840355,0.11187560111284256
-2.1826212406158447,7.246625900268555,4.977928161621094,0.003525565145537257,0.028989918529987335,0.14390239119529724
-2.5690548419952393,7.549875259399414,5.153547763824463,-0.15388567745685577,-0.07312929630279541,0.26223573088645935
-1.8312673568725586,7.783989906311035,6.506242752075195,-0.3298148810863495,0.042498767375946045,0.3505319356918335
-1.2206692695617676,7.768465995788574,7.252256870269775,-0.3119601607322693,0.48949503898620605,0.3401821255683899
-1.7421742677688599,7.575139045715332,7.226112365722656,-0.055693455040454865,0.6853035092353821,0.28188812732696533
-2.6864092350006104,6.534561634063721,7.34288215637207,0.24832545220851898,1.2795531749725342,0.6968227028846741
-2.37429141998291,6.991231441497803,7.303090572357178,0.16669639945030212,1.7808291912078857,0.8264133930206299
-1.908178687095642,8.90562629699707,5.294460773468018,0.0953298807144165,1.986533761024475,0.6071476936340332
-1.8043756484985352,9.0958890914917,3.913696050643921,0.07089527696371078,1.3838016986846924,0.2560746967792511
-1.2772011756896973,8.513618469238281,3.7529685497283936,-0.056269414722919464,0.6010913848876953,0.008429939858615398
-1.2349483966827393,8.342011451721191,4.588161945343018,-0.4366813898086548,0.7107853293418884,-0.1832246631383896
-2.1478190422058105,8.10158634185791,5.18494987487793,-0.6569419503211975,1.043148398399353,-0.3119775950908661
-3.0142135620117188,7.7208991050720215,5.429627895355225,-0.5954190492630005,1.0323797464370728,-0.26972317695617676
-4.295638084411621,8.176898002624512,4.601253032684326,-0.09766862541437149,-0.2528283894062042,-0.21560052037239075
-2.4978418350219727,7.831787586212158,7.230373859405518,0.07124433666467667,-0.46216318011283875,-0.052324969321489334
-2.1751418113708496,7.74483060836792,6.749110698699951,0.15418238937854767,0.09953612834215164,-0.25673791766166687
-3.3004164695739746,7.801496505737305,4.876615047454834,0.2805965840816498,-0.13814280927181244,-0.29885271191596985
-3.3769543170928955,7.751334190368652,4.089286804199219,0.3081553280353546,-0.8295899033546448,-0.26190412044525146
-3.1221730709075928,8.686326026916504,4.2939910888671875,0.08482300490140915,-1.294336199760437,-0.3884753882884979
-2.1899666786193848,8.573453903198242,5.0871806144714355,-0.18125243484973907,-1.4387621879577637,-0.6936811208724976
-2.3782753944396973,7.613877296447754,4.798353672027588,-0.500473141670227,-1.508400797843933,-1.0306693315505981
-2.9199204444885254,7.065423011779785,4.895749568939209,-0.7619758248329163,-1.3812710046768188,-0.8748462796211243
-3.1920549869537354,6.373058319091797,5.421343803405762,-0.9547299742698669,-1.5478452444076538,-0.6557376384735107
-3.4578592777252197,5.7993597984313965,6.119368553161621,-1.1531389951705933,-1.445900559425354,-0.2500882148742676
-2.962968111038208,5.67484188079834,6.786421775817871,-1.2745790481567383,-1.1384084224700928,0.0875457152724266
-2.3753256797790527,5.757308006286621,7.102437496185303,-1.3294172286987305,-0.5473701357841492,0.3067939877510071
-2.2798736095428467,6.287422180175781,6.95697546005249,-1.2803386449813843,-0.23689353466033936,0.42011821269989014
-1.9946285486221313,6.671988487243652,7.531957149505615,-1.132753610610962,-0.4228583574295044,0.3525041341781616
-1.1642332077026367,6.273421287536621,9.168384552001953,-0.3381401002407074,-0.38700929284095764,0.1518087387084961
-1.1536412239074707,6.353588581085205,9.09146499633789,0.06932447850704193,-0.17008233070373535,0.1181064322590828
-1.0299280881881714,6.467504501342773,8.805825233459473,0.4455302059650421,0.2402271181344986,0.08470083028078079
-1.2801125049591064,6.895473003387451,5.324924468994141,0.3882310390472412,-0.44970154762268066,-0.008185594342648983
-1.6287753582000732,6.7407307624816895,5.415607452392578,-0.1785820871591568,-0.3447548747062683,0.04942772537469864
-1.935807704925537,6.738844394683838,6.103691577911377,-0.43851396441459656,-0.2246413230895996,0.1206895187497139
-1.9540228843688965,6.779315948486328,6.711138725280762,-0.44202208518981934,-0.4683067500591278,0.20975366234779358
-1.2914419174194336,6.5714802742004395,9.045907020568848,-0.16191419959068298,-0.4916766881942749,0.21766000986099243
-1.0675075054168701,6.412266731262207,9.551332473754883,0.32100096344947815,-0.23987805843353271,0.21476276218891144
-0.9793625473976135,6.205923557281494,8.82111930847168,0.8179834485054016,-0.009738937020301819,0.24523621797561646
-1.6386011838912964,7.138254642486572,5.593152046203613,0.3228161036968231,0.614635169506073,0.4753055274486542
-1.5340224504470825,7.064829349517822,5.9584784507751465,0.16353735327720642,0.6638883352279663,0.5501976013183594
-0.9401934146881104,6.979135990142822,5.990799903869629,0.022863812744617462,0.9000313878059387,0.6113190054893494
-1.3920271396636963,6.898585319519043,5.86211633682251,-0.18423695862293243,1.1818846464157104,0.6999119520187378
-2.3051469326019287,7.1078386306762695,6.239577770233154,-0.28735101222991943,0.9728639721870422,0.7822740077972412
-1.3436833620071411,7.2260355949401855,7.030534744262695,-0.27173030376434326,1.1339404582977295,0.695443868637085
-0.763913094997406,7.582436561584473,6.819835186004639,-0.39561378955841064,1.4939320087432861,0.46387359499931335
-1.4130769968032837,9.090812683105469,5.570071697235107,-0.35013049840927124,1.3153325319290161,-0.04769985005259514
-2.407274007797241,6.768704891204834,8.395651817321777,-0.2796541154384613,-0.3113318383693695,-0.06126105785369873
