accX,accY,accZ,gyroX,gyroY,gyroZ
-1.7050501108169556,6.081000328063965,7.432950496673584,-0.20281249284744263,-0.2824249863624573,0.1625249981880188
-1.7100000381469727,6.148050308227539,7.515000343322754,-0.3848625123500824,-0.43642500042915344,0.28833749890327454
-1.2880500555038452,5.868000507354736,7.392000198364258,-0.5058624744415283,-0.41923749446868896,0.4166249930858612
-0.5460000038146973,5.173050403594971,7.7470502853393555,-0.6109125018119812,-0.44852501153945923,0.46915000677108765
-0.5890500545501709,5.085000038146973,7.699050426483154,-0.7966749668121338,-0.7246249914169312,0.38128748536109924
-1.0249500274658203,5.833950042724609,8.107950210571289,-0.9554874897003174,-0.7980499863624573,0.3445749878883362
-1.0660500526428223,5.925000190734863,9.612000465393066,-0.9065374732017517,-0.5927624702453613,0.46915000677108765
0.08505000174045563,4.486050128936768,10.291950225830078,-0.6366249918937683,-0.5634750127792358,0.5669124722480774
1.4280000925064087,3.226950168609619,9.175950050354004,-0.305525004863739,-0.6282374858856201,0.42157500982284546
1.4689500331878662,3.4180500507354736,8.110950469970703,-0.17599999904632568,-0.5438125133514404,0.12718750536441803
0.5730000138282776,4.359000205993652,8.320950508117676,-0.1905750036239624,-0.36547499895095825,-0.045099999755620956
0.16905000805854797,4.771050453186035,8.788050651550293,-0.17723749577999115,-0.3007124960422516,-0.0340999998152256
0.4819500148296356,4.543950080871582,9.12405014038086,-0.08318749815225601,-0.1896124929189682,0.054999999701976776
0.6910500526428223,4.189050197601318,8.484000205993652,0.22110000252723694,0.195250004529953,-0.025575000792741776
-0.1270500123500824,4.723050117492676,8.704950332641602,0.25891250371932983,0.2087250053882599,-0.07328750193119049
0.13305000960826874,5.013000011444092,8.440950393676758,0.32120001316070557,0.09872499853372574,-0.006049999967217445
0.40605002641677856,4.909950256347656,7.752000331878662,0.3591499924659729,0.11824999749660492,0.032999999821186066
0.13305000960826874,4.873950004577637,7.843050479888916,0.3004375100135803,0.32477501034736633,0.07823749631643295
-0.22305001318454742,4.929000377655029,8.314050674438477,0.11233749985694885,0.2527250051498413,0.09542500227689743
-0.012000000104308128,4.749000072479248,8.173049926757812,-0.03671250119805336,0.1574375033378601,0.09652499854564667
0.40995001792907715,4.5199503898620605,8.439000129699707,-0.07095000147819519,0.17820000648498535,0.08195000141859055
0.06795000284910202,4.672950267791748,9.127950668334961,0.01209999993443489,0.13296249508857727,0.059950001537799835
-0.18495000898838043,4.90500020980835,8.593950271606445,0.07452499866485596,0.04124999791383743,0.07576250284910202
-0.3570000231266022,4.930950164794922,8.551050186157227,0.06104999780654907,0.02419999986886978,0.0989999994635582
-0.34995001554489136,4.771050453186035,8.616000175476074,0.07081250101327896,0.010724999941885471,0.10999999940395355
-0.08895000070333481,4.594050407409668,8.721000671386719,0.08304999768733978,-0.12113749980926514,0.08195000141859055
0.35805001854896545,4.483950138092041,8.341050148010254,0.06833750009536743,-0.24089999496936798,0.01223750039935112
0.32895001769065857,4.756950378417969,8.515049934387207,0.05128749832510948,-0.21518750488758087,-0.057337500154972076
0.3820500075817108,5.154000282287598,8.338050842285156,0.015812499448657036,-0.2714250087738037,-0.07562500238418579
0.29295000433921814,5.049000263214111,8.190000534057617,-0.06971249729394913,-0.3104749917984009,-0.0340999998152256
0.36705002188682556,4.836000442504883,8.307000160217285,-0.1307625025510788,-0.31171250343322754,-0.025575000792741776
0.44895002245903015,4.654050350189209,8.422050476074219,-0.1564749926328659,-0.31171250343322754,-0.05609999969601631
0.30300000309944153,4.749000072479248,8.728050231933594,-0.1527625024318695,-0.3324750065803528,-0.08910000324249268
0.7219500541687012,5.170950412750244,8.422050476074219,-0.10876250267028809,-0.43271249532699585,-0.09638749808073044
0.40605002641677856,5.005950450897217,9.142950057983398,-0.01347499992698431,-0.1223749965429306,-0.04633750021457672
0.40605002641677856,4.764000415802002,8.781000137329102,0.08662500232458115,-0.06132499873638153,-0.010862499475479126
0.8389500379562378,4.897950172424316,8.709000587463379,0.06710000336170197,0.04372499883174896,-0.013337500393390656
0.44895002245903015,5.029950141906738,8.320950508117676,0.17104999721050262,0.19277499616146088,-0.006049999967217445
0.3550500273704529,4.933950424194336,7.933950424194336,0.10381250083446503,0.14767499268054962,-0.002337499987334013
0.3150000274181366,4.966950416564941,7.930950164794922,0.05128749832510948,0.12319999933242798,-0.0010999999940395355
0.45600003004074097,5.020050048828125,8.247000694274902,-0.03671250119805336,0.11577499657869339,0.010999999940395355
0.3430500030517578,4.861950397491455,8.5489501953125,-0.02694999985396862,0.1695374995470047,0.01718750037252903
0.24795001745224,4.840050220489502,8.749950408935547,0.04881250113248825,0.20624999701976776,0.01223750039935112
0.29100000858306885,4.668000221252441,8.563050270080566,0.13062499463558197,0.18796250224113464,-0.0035749999806284904
0.286050021648407,4.675050258636475,8.343000411987305,0.14162500202655792,0.15496249496936798,-0.023099999874830246
0.11100000888109207,4.933950424194336,8.098950386047363,0.09033749997615814,0.09143749624490738,-0.047575000673532486
-0.0580500029027462,5.086950302124023,8.09595012664795,-0.02447500079870224,0.0364375002682209,-0.01209999993443489
0.2670000195503235,4.930950164794922,8.226000785827637,-0.11495000123977661,0.0009624999947845936,0.01966249942779541
0.5059500336647034,4.776000022888184,8.569950103759766,-0.11604999750852585,0.02914999984204769,-0.00976249948143959
0.15405000746250153,4.918950080871582,9.061050415039062,-0.02199999988079071,0.05967500060796738,-0.04028749838471413
-0.09405000507831573,4.998000144958496,8.697000503540039,0.05004999786615372,-0.005087499972432852,-0.0170499999076128
-0.13395000994205475,5.142000198364258,8.620950698852539,0.035337500274181366,-0.05637500062584877,0.00989999994635582
-0.031050002202391624,5.086950302124023,8.452950477600098,0.0170499999076128,-0.0906125009059906,0.025712499395012856
0.34095001220703125,4.90500020980835,8.242050170898438,-0.0147124994546175,-0.12113749980926514,0.03423750028014183
0.4339500069618225,4.897950172424316,8.488950729370117,-0.030662499368190765,-0.11866249889135361,0.01223750039935112
0.21405000984668732,4.939050197601318,8.680950164794922,-0.00494999997317791,-0.09790000319480896,-0.002337499987334013
0.26205000281333923,4.969950199127197,8.518050193786621,0.025575000792741776,-0.1223749965429306,0.008662499487400055
0.30000001192092896,4.948050022125244,8.326050758361816,0.04028749838471413,-0.09790000319480896,0.01223750039935112
0.28095000982284546,4.903050422668457,8.218950271606445,-0.002474999986588955,-0.10766249895095825,0.02694999985396862
0.322050005197525,4.845000267028809,8.230050086975098,-0.025712499395012856,-0.10284999758005142,0.035475000739097595
0.5899500250816345,4.837950229644775,8.383950233459473,-0.029424998909235,-0.033137500286102295,0.035475000739097595
0.527999997138977,4.939050197601318,8.487000465393066,0.03657500073313713,0.030387500301003456,0.0012374999932944775
0.2639999985694885,4.945950031280518,8.455950736999512,0.09652499854564667,0.03519999980926514,0.0037124999798834324
0.26205000281333923,4.869000434875488,8.239950180053711,0.07328750193119049,-0.040562499314546585,0.023237500339746475
0.5010000467300415,4.831050395965576,7.966950416564941,-0.01347499992698431,-0.06861250102519989,0.023237500339746475
0.5490000247955322,4.813950061798096,8.038949966430664,-0.05376249924302101,-0.047849997878074646,0.01223750039935112
0.49695003032684326,4.776000022888184,8.511000633239746,-0.07218749821186066,0.013199999928474426,-0.014574999921023846
0.3430500030517578,4.929000377655029,8.785950660705566,-0.03671250119805336,-0.01979999989271164,-0.020762499421834946
0.25200000405311584,5.046000003814697,8.56095027923584,0.013337500393390656,-0.030799999833106995,-0.0035749999806284904
0.47505003213882446,4.9270501136779785,8.332950592041016,0.07562500238418579,0.04743750020861626,0.02447500079870224
0.5590500235557556,4.869000434875488,8.343000411987305,0.09033749997615814,0.08896250277757645,0.01966249942779541
0.4320000112056732,4.9170002937316895,8.494050025939941,0.07933750003576279,0.08043749630451202,0.015949999913573265
0.29100000858306885,5.017950057983398,8.638050079345703,0.045099999755620956,0.021724998950958252,0.023237500339746475
0.33900001645088196,5.0370001792907715,8.569950103759766,0.04633750021457672,0.02667500078678131,0.0317624993622303
0.3940500319004059,4.9960503578186035,8.496000289916992,0.08304999768733978,0.05596249923110008,0.037950001657009125
0.3340500295162201,5.00100040435791,8.28600025177002,0.07328750193119049,0.014437500387430191,0.04895000159740448
0.4129500091075897,4.963050365447998,8.08395004272461,0.004812499973922968,-0.011137500405311584,0.05142499879002571
0.4630500078201294,5.013000011444092,8.25,-0.04166249930858612,0.013199999928474426,0.029424998909235
0.32895001769065857,5.073000431060791,8.592000007629395,-0.0037124999798834324,0.09019999951124191,0.01966249942779541
0.27195000648498535,5.07705020904541,8.472000122070312,0.0658624991774559,0.12072499841451645,0.023237500339746475
0.35295000672340393,4.993950366973877,8.338050842285156,0.13186250627040863,0.20253749191761017,0.010999999940395355
0.3430500030517578,5.00100040435791,8.40000057220459,0.16238750517368317,0.1915374994277954,-0.01952499896287918
0.06599999964237213,5.173050403594971,8.07705020904541,0.11233749985694885,0.05719999969005585,-0.032862499356269836
0.21705001592636108,5.1660003662109375,7.73205041885376,-0.032999999821186066,-0.05389999970793724,-0.014574999921023846
0.41505002975463867,5.014950275421143,7.9170002937316895,-0.13928750157356262,-0.05156249925494194,-0.02186249941587448
0.3960000276565552,4.945950031280518,8.472000122070312,-0.10395000129938126,0.05348749831318855,-0.04152499884366989
0.043950002640485764,5.013000011444092,8.929950714111328,-0.007424999959766865,0.08772499859333038,-0.0340999998152256
0.5040000081062317,4.921950340270996,6.859050273895264,0.020762499421834946,0.07548750191926956,-0.0170499999076128
-0.26100000739097595,5.110950469970703,8.962950706481934,-0.09418749809265137,0.15125000476837158,-0.013337500393390656
-0.37095001339912415,5.185050010681152,9.103950500488281,-0.1588124930858612,-0.1919499933719635,0.00989999994635582
0.05895000323653221,5.251950263977051,9.223950386047363,-0.15399999916553497,-0.34347498416900635,0.03918749839067459
0.5640000104904175,4.981950283050537,8.520000457763672,-0.059950001537799835,-0.3129499852657318,0.037950001657009125
0.8250000476837158,4.696950435638428,8.154000282287598,-0.0012374999932944775,-0.10766249895095825,-0.007287499960511923
0.5879999995231628,4.824000358581543,8.668950080871582,0.02928750030696392,-0.005087499972432852,-0.042762499302625656
0.1660500019788742,5.200050354003906,8.829000473022461,0.11110000312328339,-0.002612499985843897,-0.06710000336170197
0.2670000195503235,5.16795015335083,8.254050254821777,0.10862500220537186,-0.0648999959230423,-0.01209999993443489
0.45795002579689026,5.050950050354004,7.938000202178955,0.01209999993443489,-0.09790000319480896,0.01347499992698431
0.4249500334262848,5.068050384521484,7.984050273895264,-0.042762499302625656,-0.09913749992847443,0.00989999994635582
0.43695002794265747,5.022000312805176,8.341050148010254,-0.10147500038146973,-0.08566249907016754,0.01718750037252903
0.5370000004768372,4.930950164794922,8.416950225830078,-0.05376249924302101,-0.03932499885559082,0.0147124994546175
0.527999997138977,4.924050331115723,8.494050025939941,0.02199999988079071,0.037675000727176666,0.002474999986588955
0.4320000112056732,4.897950172424316,8.5420503616333,0.05004999786615372,0.05843750014901161,0.0
0.35295000672340393,4.89300012588501,8.368950843811035,0.07204999774694443,0.04867500066757202,0.00494999997317791
0.36000001430511475,4.929000377655029,8.098950386047363,0.032999999821186066,0.025437500327825546,0.0147124994546175
0.492000013589859,4.843050003051758,8.259000778198242,-0.054999999701976776,-0.02461249940097332,0.002474999986588955
0.3820500075817108,4.906949996948242,8.482049942016602,-0.10999999940395355,-0.09184999763965607,-0.02186249941587448
0.40095001459121704,4.981950283050537,8.700000762939453,-0.08428750187158585,-0.08937499672174454,-0.02186249941587448
0.4339500069618225,4.951050281524658,8.84595012664795,-0.007424999959766865,-0.05403750017285347,-0.020762499421834946
0.3750000298023224,5.00100040435791,8.458050727844238,0.04881250113248825,-0.0625625029206276,-0.02433750033378601
0.4320000112056732,4.98900032043457,8.242050170898438,0.042762499302625656,-0.021037500351667404,-0.030524998903274536
0.4900500178337097,4.941000461578369,8.226000785827637,-0.0,-0.025849999859929085,-0.030524998903274536
0.492000013589859,4.9270501136779785,8.122950553894043,-0.04647500067949295,-0.045375000685453415,-0.030524998903274536
0.3049500286579132,5.022000312805176,8.269050598144531,-0.09418749809265137,-0.057612501084804535,-0.020762499421834946
0.26205000281333923,5.0370001792907715,8.338050842285156,-0.10752499848604202,-0.05884999781847,-0.0085249999538064
0.20205001533031464,5.092050075531006,8.79104995727539,-0.09418749809265137,-0.07232499867677689,0.007424999959766865
0.2070000171661377,5.15595006942749,8.628000259399414,-0.06476250290870667,-0.17366249859333038,0.030662499368190765
0.8100000619888306,4.736999988555908,8.155950546264648,-0.07218749821186066,-0.17008750140666962,0.03671250119805336
0.8940000534057617,4.587000370025635,8.25,-0.07823749631643295,-0.10408750176429749,0.01347499992698431
0.6520500183105469,4.684950351715088,8.530050277709961,-0.07095000147819519,-0.057612501084804535,-0.023099999874830246
0.6499500274658203,4.837950229644775,8.431950569152832,-0.11495000123977661,-0.16637499630451202,0.01718750037252903
0.934950053691864,4.675050258636475,8.581950187683105,-0.08071249723434448,-0.05403750017285347,0.007424999959766865
0.76500004529953,4.764000415802002,8.67300033569336,-0.0,0.04743750020861626,-0.0170499999076128
0.5230500102043152,4.884000301361084,8.439000129699707,0.04028749838471413,0.0742499977350235,-0.018287500366568565
0.5659500360488892,4.891050338745117,8.410050392150879,0.01952499896287918,0.04743750020861626,-0.007287499960511923
0.7050000429153442,4.80495023727417,8.488950729370117,-0.0147124994546175,0.02419999986886978,-0.015812499448657036
0.4630500078201294,4.884000301361084,8.611050605773926,-0.020762499421834946,0.004674999974668026,-0.006049999967217445
0.35295000672340393,4.861950397491455,8.367000579833984,0.002337499987334013,-0.023375000804662704,0.025712499395012856
0.5879999995231628,4.836000442504883,8.211000442504883,0.02199999988079071,-0.005087499972432852,0.0147124994546175
0.6670500040054321,4.8070502281188965,8.475000381469727,0.03657500073313713,0.09019999951124191,-0.025575000792741776
0.5470499992370605,4.819050312042236,8.605950355529785,0.05609999969601631,0.08415000140666962,-0.037812501192092896
0.5250000357627869,4.860000133514404,8.491050720214844,0.03657500073313713,0.04619999974966049,-0.0340999998152256
0.4320000112056732,4.8949503898620605,8.25,-0.02447500079870224,0.0364375002682209,-0.010999999940395355
0.6400500535964966,4.752000331878662,8.422050476074219,-0.032999999821186066,0.07919999957084656,0.01223750039935112
0.527999997138977,4.831050395965576,8.632950782775879,0.002337499987334013,0.12319999933242798,-0.010999999940395355
0.3720000088214874,4.963050365447998,8.641950607299805,0.05486249923706055,0.1414874941110611,-0.004812499973922968
0.4129500091075897,4.869000434875488,8.403000831604004,0.0635249987244606,0.0999625027179718,0.002474999986588955
0.3910500109195709,4.680000305175781,8.302050590515137,0.02433750033378601,0.1256749927997589,-0.002337499987334013
0.05895000323653221,5.1160502433776855,8.950950622558594,-0.02199999988079071,-0.1223749965429306,-0.01209999993443489
0.45795002579689026,5.122950077056885,8.707050323486328,-0.10999999940395355,-0.25437501072883606,0.028187500312924385
0.999000072479248,4.615050315856934,8.494050025939941,-0.06847500056028366,-0.1443749964237213,0.010999999940395355
0.7189500331878662,4.563000202178955,8.434050559997559,0.07204999774694443,0.11219999939203262,-0.05004999786615372
0.38895002007484436,4.768950462341309,8.617950439453125,0.1905750036239624,0.16843749582767487,-0.06462500244379044
0.29100000858306885,5.002950191497803,8.170949935913086,0.13557499647140503,0.08524999767541885,-0.03657500073313713
0.37905001640319824,4.945950031280518,8.13705062866211,-0.025712499395012856,-0.033137500286102295,-0.004812499973922968
0.5130000114440918,4.8949503898620605,8.314050674438477,-0.10628750175237656,-0.06737499684095383,0.00494999997317791
0.4819500148296356,4.918950080871582,8.53695011138916,-0.08552499860525131,-0.02956249937415123,-0.007287499960511923
0.5250000357627869,4.857000350952148,8.410050392150879,-0.008662499487400055,0.0424874983727932,-0.015812499448657036
0.5879999995231628,4.801950454711914,8.499000549316406,0.025575000792741776,0.07919999957084656,-0.020762499421834946
0.4459500312805176,4.872000217437744,8.755050659179688,0.07081250101327896,0.08772499859333038,-0.032862499356269836
0.33105000853538513,4.930950164794922,8.455950736999512,0.08428750187158585,0.06091250106692314,-0.02928750030696392
0.46605002880096436,4.828050136566162,8.11305046081543,0.047575000673532486,0.03891250118613243,-0.015812499448657036
0.46800002455711365,4.771050453186035,8.12505054473877,-0.03918749839067459,0.022962499409914017,-0.0317624993622303
0.29100000858306885,4.930950164794922,8.414999961853027,-0.09776250272989273,-0.007562499959021807,-0.028049999848008156
0.25200000405311584,4.981950283050537,8.664000511169434,-0.08799999952316284,-0.008799999952316284,-0.002337499987334013
0.34800001978874207,4.957950115203857,8.725950241088867,-0.02694999985396862,-0.002612499985843897,0.01718750037252903
0.5040000081062317,4.873950004577637,8.56605052947998,0.007287499960511923,0.007149999961256981,0.01223750039935112
0.38700002431869507,4.9360504150390625,8.494050025939941,-0.0037124999798834324,0.011962499469518661,0.008662499487400055
0.5010000467300415,4.845000267028809,8.520000457763672,0.0035749999806284904,0.06091250106692314,0.006187499966472387
0.46095001697540283,4.773000240325928,8.535000801086426,0.04386249929666519,0.09748750180006027,-0.014574999921023846
0.45600003004074097,4.812000274658203,8.35004997253418,0.06104999780654907,0.0999625027179718,-0.018287500366568565
0.19305001199245453,4.912050247192383,8.178000450134277,0.04881250113248825,0.09019999951124191,-0.014574999921023846
-0.004950000438839197,5.032050132751465,8.278050422668457,0.02433750033378601,0.05967500060796738,-0.0035749999806284904
0.26205000281333923,5.034000396728516,8.290050506591797,-0.01966249942779541,0.011962499469518661,0.01966249942779541
0.38895002007484436,4.909950256347656,8.365050315856934,-0.028187500312924385,0.030387500301003456,0.01347499992698431
0.2689500153064728,4.860000133514404,8.451000213623047,-0.02694999985396862,0.015675000846385956,0.006187499966472387
0.29295000433921814,4.876049995422363,8.463000297546387,-0.025712499395012856,0.002199999988079071,0.018424998968839645
0.5059500336647034,4.797000408172607,8.365050315856934,-0.023237500339746475,0.014437500387430191,0.02447500079870224
0.40800002217292786,4.816050052642822,8.43600082397461,-0.01223750039935112,0.07796250283718109,0.007424999959766865
0.19995000958442688,4.953000068664551,8.56605052947998,0.023099999874830246,0.12072499841451645,0.01966249942779541
0.34095001220703125,4.864050388336182,8.665950775146484,0.0658624991774559,0.1891999989748001,0.03423750028014183
0.364950031042099,4.821000099182129,8.500950813293457,0.10862500220537186,0.2172500044107437,0.028187500312924385
0.4129500091075897,4.797000408172607,8.460000038146973,0.14162500202655792,0.23430000245571136,0.025712499395012856
0.0799500048160553,5.046000003814697,8.581950187683105,0.14657500386238098,0.2563000023365021,0.0147124994546175
0.16905000805854797,4.831050395965576,8.641950607299805,0.17957499623298645,0.2624875009059906,0.02447500079870224
0.35805001854896545,4.623000144958496,8.367000579833984,0.27486249804496765,0.2857249975204468,0.015949999913573265
-0.24705001711845398,5.170950412750244,8.632950782775879,0.34814998507499695,0.3480125069618225,0.010999999940395355
-0.34800001978874207,5.3580002784729,8.331000328063965,0.2638624906539917,0.23430000245571136,0.07699999958276749
0.07500000298023224,5.143950462341309,8.038949966430664,0.14162500202655792,0.24172499775886536,0.07342500239610672
0.1879500150680542,5.1160502433776855,7.858950138092041,0.1293874979019165,0.3577750027179718,0.018424998968839645
-0.09405000507831573,5.338050365447998,8.190000534057617,0.13557499647140503,0.37853750586509705,0.0147124994546175
-0.39795002341270447,5.5489501953125,8.527050018310547,0.11110000312328339,0.3137750029563904,0.03671250119805336
-0.42195001244544983,5.556000232696533,8.391000747680664,0.06833750009536743,0.20748749375343323,0.0611874982714653
-0.10305000841617584,5.302950382232666,8.26395034790039,0.03904999792575836,0.18177500367164612,0.04166249930858612
-0.3040500283241272,5.38200044631958,8.197050094604492,0.03904999792575836,0.2012999951839447,0.008662499487400055
-0.7230000495910645,5.6260504722595215,8.341050148010254,0.013337500393390656,0.15248750150203705,0.035475000739097595
-0.6370500326156616,5.566050052642822,8.80305004119873,0.025575000792741776,0.037675000727176666,0.06847500056028366
-0.08205000311136246,5.170950412750244,8.245050430297852,0.08181250095367432,0.011962499469518661,0.032999999821186066
-0.30195000767707825,5.200050354003906,7.879050254821777,0.08304999768733978,-0.01484999991953373,0.0
-0.25200000405311584,5.302950382232666,7.488000392913818,-0.010999999940395355,-0.04179999977350235,0.006187499966472387
-0.08895000070333481,5.104050159454346,8.13705062866211,-0.06476250290870667,0.0681999996304512,0.018424998968839645
-0.5130000114440918,5.239950180053711,8.968050003051758,0.03904999792575836,0.08291249722242355,0.03189999982714653
0.039000000804662704,5.134950160980225,7.455000400543213,0.0317624993622303,-0.11990000307559967,0.09171249717473984
0.2550000250339508,4.833000183105469,7.660950183868408,-0.04152499884366989,0.021724998950958252,-0.0035749999806284904
-0.22995001077651978,5.215950012207031,8.281050682067871,-0.05871250107884407,0.0193875003606081,-0.05362499877810478
-0.30000001192092896,5.317050457000732,8.568000793457031,-0.050187498331069946,-0.028324998915195465,-0.028049999848008156
-0.4030500054359436,5.293050289154053,8.27400016784668,-0.018424998968839645,-0.023375000804662704,0.010999999940395355
-0.1969500035047531,5.082000255584717,8.367000579833984,-0.12223749607801437,-0.1956624984741211,0.0
-0.21105000376701355,5.200050354003906,8.617950439453125,-0.09652499854564667,-0.1578499972820282,-0.0170499999076128
-0.2760000228881836,5.311950206756592,8.491050720214844,-0.047712501138448715,-0.10532499849796295,-0.04633750021457672
-0.12000000476837158,5.214000225067139,8.35004997253418,-0.0037124999798834324,-0.03932499885559082,-0.04386249929666519
-0.26100000739097595,5.298000335693359,8.086950302124023,0.01952499896287918,-0.012374999932944775,-0.037812501192092896
-0.34995001554489136,5.3580002784729,7.837950229644775,-0.02447500079870224,-0.052799999713897705,-0.006049999967217445
-0.22995001077651978,5.338050365447998,8.04104995727539,-0.0952875018119812,-0.11013749986886978,0.020899999886751175
-0.15600000321865082,5.2759504318237305,8.439000129699707,-0.11976250261068344,-0.11879999935626984,0.025712499395012856
-0.18495000898838043,5.2260003089904785,8.475000381469727,-0.07947500050067902,-0.10284999758005142,0.01223750039935112
-0.1660500019788742,5.2069501876831055,8.30505084991455,-0.045237500220537186,-0.10532499849796295,-0.0010999999940395355
-0.23295001685619354,5.178000450134277,8.122950553894043,-0.0672374963760376,-0.10037499666213989,-0.013337500393390656
0.013050000183284283,4.998000144958496,8.080050468444824,-0.09171249717473984,-0.07603749632835388,-0.014574999921023846
-0.18000000715255737,5.085000038146973,8.380949974060059,-0.10023749619722366,-0.06503749638795853,-0.035337500274181366
-0.27105000615119934,5.238000392913818,8.329050064086914,-0.10518749803304672,-0.1223749965429306,-0.014574999921023846
-0.08400000631809235,5.06505012512207,8.247000694274902,-0.10999999940395355,-0.10037499666213989,0.01347499992698431
0.07800000160932541,4.98900032043457,8.37405014038086,-0.09418749809265137,-0.033275000751018524,-0.0170499999076128
-0.09600000083446503,5.044050216674805,8.422050476074219,-0.0672374963760376,-0.02227500081062317,-0.04028749838471413
-0.25905001163482666,5.140050411224365,8.532000541687012,-0.07452499866485596,-0.08937499672174454,-0.0340999998152256
-0.12000000476837158,5.137050151824951,8.5420503616333,-0.0952875018119812,-0.14190000295639038,-0.023099999874830246
0.06300000101327896,4.981950283050537,8.314050674438477,-0.09418749809265137,-0.15056249499320984,-0.023099999874830246
-0.003000000026077032,5.046000003814697,8.282999992370605,-0.10271249711513519,-0.1615625023841858,-0.028049999848008156
-0.07500000298023224,5.086950302124023,8.178000450134277,-0.1344749927520752,-0.19085000455379486,-0.02186249941587448
-0.012000000104308128,5.074950218200684,8.539050102233887,-0.11852499842643738,-0.13461250066757202,-0.0170499999076128
0.00795000046491623,4.993950366973877,8.467950820922852,-0.06476250290870667,-0.10656250268220901,-0.015812499448657036
-0.05295000225305557,5.046000003814697,8.343000411987305,-0.0635249987244606,-0.11879999935626984,-0.01952499896287918
-0.1099500060081482,5.092050075531006,8.40000057220459,-0.0989999994635582,-0.1578499972820282,-0.025575000792741776
-0.0580500029027462,5.014950275421143,8.33595085144043,-0.14423750340938568,-0.1993750035762787,-0.02433750033378601
-0.06000000238418579,5.08905029296875,8.587050437927246,-0.17723749577999115,-0.24695000052452087,-0.0035749999806284904
-0.19395001232624054,5.194950103759766,9.028050422668457,-0.18328750133514404,-0.3129499852657318,0.03671250119805336
0.5710500478744507,4.69005012512207,8.30505084991455,-0.10876250267028809,-0.27871251106262207,0.06476250290870667
0.7720500230789185,4.420950412750244,8.31195068359375,-0.015949999913573265,-0.02708750031888485,0.002474999986588955
0.6379500031471252,4.498050212860107,8.356950759887695,0.023099999874830246,0.04619999974966049,-0.0317624993622303
0.42000001668930054,4.681950092315674,8.38800048828125,0.042762499302625656,0.08524999767541885,-0.05252499878406525
0.06795000284910202,4.960050106048584,8.26395034790039,0.0340999998152256,0.08524999767541885,-0.05252499878406525
0.006000000052154064,5.025000095367432,8.302050590515137,0.01209999993443489,0.0681999996304512,-0.037812501192092896
0.0990000069141388,4.986000061035156,8.535000801086426,-0.0,0.03519999980926514,0.0037124999798834324
0.6190500259399414,4.644000053405762,8.422050476074219,0.030524998903274536,0.05238749831914902,0.015949999913573265
0.037050001323223114,5.002950191497803,8.451000213623047,0.15633749961853027,0.16101250052452087,-0.05004999786615372
-0.10605000704526901,5.15595006942749,8.43600082397461,0.1588124930858612,0.16472500562667847,-0.02928750030696392
-0.016950000077486038,5.142000198364258,8.107950210571289,0.07933750003576279,0.12443749606609344,-0.013337500393390656
0.025050001218914986,4.942950248718262,8.36205005645752,-0.008662499487400055,0.11343749612569809,0.01223750039935112
-0.06300000101327896,4.942950248718262,8.641950607299805,-0.03671250119805336,0.04496249929070473,0.00989999994635582
-0.09600000083446503,5.032050132751465,8.749950408935547,0.0035749999806284904,0.03891250118613243,0.015949999913573265
-0.05505000427365303,4.9960503578186035,8.59695053100586,0.06833750009536743,0.04743750020861626,0.02447500079870224
-0.14205001294612885,5.0970001220703125,8.146950721740723,0.05486249923706055,0.020624998956918716,0.03423750028014183
0.10905000567436218,4.986000061035156,8.131950378417969,-0.023237500339746475,0.03396249935030937,0.047712501138448715
0.0970500037074089,4.966950416564941,8.484000205993652,-0.07095000147819519,0.002199999988079071,0.032999999821186066
0.031950000673532486,5.022000312805176,8.53695011138916,-0.0672374963760376,-0.002612499985843897,0.03671250119805336
0.0970500037074089,4.885950088500977,8.506050109863281,-0.04166249930858612,0.027912499383091927,0.035475000739097595
0.046950001269578934,4.8670501708984375,8.42400074005127,0.02928750030696392,0.05596249923110008,0.0147124994546175
-0.1660500019788742,5.038950443267822,8.532000541687012,0.08786249905824661,0.03396249935030937,0.01223750039935112
-0.10305000841617584,5.046000003814697,8.290050506591797,0.013337500393390656,-0.09308750182390213,0.008662499487400055
0.10605000704526901,4.953000068664551,8.416950225830078,-0.0929500013589859,-0.17008750140666962,0.01718750037252903
0.31200000643730164,4.699050426483154,8.53695011138916,-0.10876250267028809,-0.14190000295639038,0.007424999959766865
0.19500000774860382,4.8480000495910645,8.800050735473633,-0.0317624993622303,-0.09184999763965607,-0.0035749999806284904
0.18105000257492065,4.945950031280518,8.506050109863281,0.05609999969601631,-0.028324998915195465,-0.013337500393390656
0.17295001447200775,5.008050441741943,8.038949966430664,0.03657500073313713,-0.02956249937415123,-0.010862499475479126
0.12300000339746475,5.020050048828125,8.050950050354004,0.014574999921023846,-0.016087500378489494,-0.002337499987334013
0.18105000257492065,4.957950115203857,8.233050346374512,-0.01347499992698431,0.010724999941885471,-0.00976249948143959
0.1399500072002411,5.014950275421143,8.317049980163574,-0.028187500312924385,0.007149999961256981,-0.01209999993443489
0.1879500150680542,4.951050281524658,8.464950561523438,-0.02199999988079071,0.02419999986886978,-0.00976249948143959
-0.015000000596046448,4.993950366973877,8.796000480651855,0.006049999967217445,0.005912499967962503,-0.004812499973922968
0.12105000764131546,4.948050022125244,8.434050559997559,0.047575000673532486,0.013199999928474426,0.002474999986588955
0.23295001685619354,4.7659502029418945,8.302050590515137,0.0317624993622303,0.049912501126527786,-0.007287499960511923
0.0970500037074089,4.9360504150390625,8.464950561523438,-0.0012374999932944775,0.007149999961256981,-0.02681249938905239
0.022950001060962677,5.094000339508057,8.56605052947998,-0.01718750037252903,-0.02956249937415123,-0.018287500366568565
0.08700000494718552,4.9770002365112305,8.515049934387207,-0.02694999985396862,-0.05884999781847,-0.0010999999940395355
0.10395000129938126,4.942950248718262,8.416950225830078,-0.020762499421834946,-0.05403750017285347,0.0
0.17595000565052032,4.939050197601318,8.218950271606445,-0.0012374999932944775,-0.007562499959021807,-0.004812499973922968
0.06795000284910202,5.014950275421143,8.539050102233887,0.004812499973922968,0.011962499469518661,-0.013337500393390656
0.10605000704526901,4.948050022125244,8.563050270080566,0.028049999848008156,-0.013612499460577965,-0.007287499960511923
0.07500000298023224,4.954950332641602,8.206950187683105,0.030524998903274536,-0.040562499314546585,-0.013337500393390656
-0.010050000622868538,4.98900032043457,8.221050262451172,-0.02447500079870224,-0.05884999781847,-0.004812499973922968
0.1399500072002411,4.88100004196167,8.410050392150879,-0.057475000619888306,-0.0648999959230423,0.007424999959766865
0.1969500035047531,4.89300012588501,8.626049995422363,-0.028187500312924385,-0.05156249925494194,-0.006049999967217445
0.08505000174045563,5.0560503005981445,8.341050148010254,0.02928750030696392,-0.0906125009059906,-0.007287499960511923
0.025050001218914986,5.002950191497803,8.329050064086914,-0.054999999701976776,-0.16266250610351562,0.0
-0.05295000225305557,5.104050159454346,8.668950080871582,-0.11976250261068344,-0.21642500162124634,0.00989999994635582
0.07800000160932541,5.080050468444824,9.195000648498535,-0.07095000147819519,-0.23594999313354492,0.018424998968839645
0.046950001269578934,5.044050216674805,9.279000282287598,0.04633750021457672,-0.31542500853538513,0.0012374999932944775
0.26205000281333923,5.014950275421143,8.712000846862793,0.09281250089406967,-0.3959999978542328,-0.02186249941587448
0.7240500450134277,4.78095006942749,8.092050552368164,0.05252499878406525,-0.36547499895095825,-0.05486249923706055
0.5209500193595886,4.771050453186035,8.35004997253418,0.0035749999806284904,-0.34595000743865967,-0.09281250089406967
0.5230500102043152,5.092050075531006,8.515049934387207,-0.032999999821186066,-0.41676250100135803,-0.07562500238418579
0.7620000243186951,4.9360504150390625,8.185050010681152,-0.07095000147819519,-0.4314749836921692,-0.030524998903274536
1.4070000648498535,4.5199503898620605,7.4599504470825195,-0.08318749815225601,-0.28366249799728394,-0.04028749838471413
1.3590000867843628,4.4670000076293945,7.471050262451172,-0.0317624993622303,0.0742499977350235,-0.09886249899864197
0.3720000088214874,4.906949996948242,8.484000205993652,0.05857500061392784,0.2404875010251999,-0.08910000324249268
0.17595000565052032,5.238000392913818,8.671050071716309,0.0952875018119812,0.12443749606609344,-0.00976249948143959
0.3360000252723694,5.143950462341309,8.163000106811523,0.020762499421834946,-0.01732499897480011,0.035475000739097595
0.5110500454902649,5.034000396728516,7.954950332641602,-0.03671250119805336,-0.057612501084804535,0.04166249930858612
0.6400500535964966,4.872000217437744,8.105999946594238,-0.0929500013589859,-0.006324999965727329,0.028187500312924385
0.697950005531311,4.809000015258789,8.414999961853027,-0.04166249930858612,0.10243749618530273,0.008662499487400055
0.6330000162124634,4.7659502029418945,8.535000801086426,0.0010999999940395355,0.14024999737739563,0.0012374999932944775
0.5329500436782837,4.833000183105469,8.488950729370117,0.05376249924302101,0.17448750138282776,0.010999999940395355
0.7219500541687012,4.483950138092041,7.2300004959106445,0.018287500366568565,0.30153748393058777,0.00494999997317791
0.030000001192092896,5.178000450134277,9.106950759887695,-0.01223750039935112,0.18548749387264252,-0.018287500366568565
0.11595000326633453,5.190000057220459,8.920050621032715,-0.12952500581741333,-0.03203750029206276,0.052662499248981476
0.7069500088691711,4.681950092315674,9.157050132751465,-0.15523749589920044,-0.19085000455379486,0.0317624993622303
0.7000500559806824,4.819050312042236,8.539050102233887,-0.05142499879002571,-0.17613749206066132,-0.037812501192092896
0.5800500512123108,4.948050022125244,8.476950645446777,0.032862499356269836,0.04496249929070473,-0.04386249929666519
0.4129500091075897,4.978950023651123,8.824049949645996,0.07686249911785126,0.05348749831318855,-0.0317624993622303
0.41505002975463867,5.061000347137451,8.331000328063965,0.047575000673532486,-0.007562499959021807,-0.007287499960511923
0.4459500312805176,5.029950141906738,8.223000526428223,-0.025712499395012856,-0.03203750029206276,0.020899999886751175
0.46095001697540283,4.906949996948242,8.470050811767578,-0.045237500220537186,-0.035612501204013824,0.029424998909235
0.5179499983787537,4.852050304412842,8.59005069732666,0.0085249999538064,0.007149999961256981,0.020899999886751175
0.5110500454902649,4.8259501457214355,8.443950653076172,0.08662500232458115,0.018149999901652336,0.01347499992698431
0.5299500226974487,4.915050029754639,8.058000564575195,0.09404999762773514,0.021724998950958252,0.0147124994546175
0.6480000019073486,4.789950370788574,8.32395076751709,-0.0037124999798834324,0.01691249944269657,-0.018287500366568565
0.40605002641677856,4.906949996948242,8.452950477600098,0.0010999999940395355,0.049912501126527786,-0.01952499896287918
0.46095001697540283,4.941000461578369,8.496000289916992,0.0012374999932944775,0.0424874983727932,-0.006049999967217445
0.5160000324249268,4.912050247192383,8.569950103759766,-0.00494999997317791,0.0364375002682209,-0.014574999921023846
0.4129500091075897,4.966950416564941,8.617950439453125,-0.00494999997317791,-0.007562499959021807,-0.01952499896287918
0.4819500148296356,4.903050422668457,8.30505084991455,-0.007424999959766865,-0.04427500069141388,-0.015812499448657036
0.6040500402450562,4.888050079345703,8.320950508117676,-0.0147124994546175,-0.006324999965727329,-0.02433750033378601
0.5160000324249268,4.921950340270996,8.452950477600098,0.00976249948143959,0.03148749843239784,-0.030524998903274536
0.364950031042099,4.963050365447998,8.476950645446777,0.020762499421834946,0.03148749843239784,-0.02186249941587448
0.2959500253200531,5.00100040435791,8.467950820922852,-0.0,-0.007562499959021807,-0.002337499987334013
0.46995002031326294,4.929000377655029,8.43600082397461,-0.0317624993622303,-0.050324998795986176,0.010999999940395355
0.5800500512123108,4.813950061798096,8.616000175476074,0.0035749999806284904,0.08896250277757645,0.0037124999798834324
0.3960000276565552,4.924050331115723,8.329050064086914,0.08552499860525131,0.12072499841451645,-0.002337499987334013
0.3360000252723694,5.020050048828125,8.134950637817383,0.01952499896287918,0.06572499871253967,0.008662499487400055
0.39900001883506775,4.921950340270996,8.414999961853027,-0.059950001537799835,0.0034374999813735485,0.015949999913573265
0.3910500109195709,4.872000217437744,8.656949996948242,-0.07328750193119049,-0.06132499873638153,0.00989999994635582
0.4300500154495239,4.906949996948242,8.5489501953125,-0.06476250290870667,-0.08332499861717224,0.00494999997317791
0.492000013589859,4.9170002937316895,8.467950820922852,-0.062424998730421066,-0.06613750010728836,-0.004812499973922968
0.5520000457763672,4.800000190734863,8.704950332641602,-0.02199999988079071,-0.008799999952316284,-0.0010999999940395355
0.583050012588501,4.795050144195557,8.728050231933594,0.020762499421834946,0.015675000846385956,-0.0035749999806284904
0.46995002031326294,4.897950172424316,8.56095027923584,0.09404999762773514,0.0719124972820282,-0.013337500393390656
0.43695002794265747,4.945950031280518,8.407950401306152,0.10257499665021896,0.08524999767541885,-0.006049999967217445
0.45795002579689026,4.953000068664551,8.329050064086914,0.05857500061392784,0.07067500054836273,0.006187499966472387
0.4320000112056732,4.929000377655029,8.329050064086914,-0.008662499487400055,0.037675000727176666,-0.004812499973922968
0.583050012588501,4.9170002937316895,8.460000038146973,-0.029424998909235,0.04496249929070473,-0.02433750033378601
0.29100000858306885,4.915050029754639,8.676000595092773,0.010999999940395355,0.04124999791383743,-0.030524998903274536
0.43695002794265747,4.88100004196167,8.319000244140625,0.02928750030696392,-0.006324999965727329,-0.010862499475479126
0.39900001883506775,4.833000183105469,8.151000022888184,-0.00976249948143959,0.008249999955296516,-0.015812499448657036
0.30000001192092896,4.884000301361084,8.344950675964355,-0.030662499368190765,0.021724998950958252,-0.0085249999538064
0.31005001068115234,4.953000068664551,8.500950813293457,-0.01718750037252903,0.020487500354647636,-0.004812499973922968
0.3750000298023224,4.933950424194336,8.626049995422363,-0.010999999940395355,-0.04179999977350235,-0.0010999999940395355
0.5640000104904175,4.8070502281188965,8.515049934387207,-0.008662499487400055,-0.06132499873638153,-0.010862499475479126
0.45600003004074097,4.831050395965576,8.496000289916992,-0.0012374999932944775,-0.025849999859929085,-0.030524998903274536
0.5179499983787537,4.8670501708984375,8.664000511169434,0.059812501072883606,0.04372499883174896,-0.06228749826550484
0.31200000643730164,5.005950450897217,8.500950813293457,0.11481250077486038,0.07067500054836273,-0.0635249987244606
0.17295001447200775,5.0560503005981445,8.214000701904297,0.11481250077486038,0.0644875019788742,-0.025575000792741776
0.29295000433921814,5.034000396728516,7.990950584411621,0.02199999988079071,0.007149999961256981,0.002474999986588955
0.3630000054836273,4.98900032043457,8.64900016784668,-0.0147124994546175,-0.07108750194311142,0.01718750037252903
0.5059500336647034,4.864050388336182,8.683050155639648,-0.01718750037252903,-0.08937499672174454,0.025712499395012856
0.5710500478744507,4.768950462341309,8.307000160217285,-0.002474999986588955,-0.07603749632835388,0.01223750039935112
0.4900500178337097,4.8070502281188965,8.214000701904297,-0.0,-0.06737499684095383,0.006187499966472387
0.4729500114917755,4.872000217437744,8.130000114440918,-0.01966249942779541,-0.0625625029206276,0.010999999940395355
0.5329500436782837,4.855050086975098,8.170949935913086,-0.042762499302625656,-0.07108750194311142,0.007424999959766865
0.49695003032684326,4.872000217437744,8.187000274658203,-0.06599999964237213,-0.08579999953508377,-0.004812499973922968
0.44895002245903015,5.008050441741943,8.484000205993652,-0.09418749809265137,-0.10037499666213989,-0.007287499960511923
0.5879999995231628,4.855050086975098,8.59695053100586,-0.08318749815225601,-0.07713750004768372,0.00013749999925494194
0.595050036907196,4.845000267028809,8.575050354003906,-0.057475000619888306,-0.047849997878074646,-0.006049999967217445
0.5250000357627869,4.840050220489502,8.347949981689453,-0.0037124999798834324,0.02419999986886978,-0.0035749999806284904
0.5130000114440918,4.80495023727417,8.295000076293945,0.010999999940395355,0.05115000158548355,0.00494999997317791
0.5590500235557556,4.756950378417969,8.419950485229492,0.018287500366568565,0.07067500054836273,0.01718750037252903
0.5590500235557556,4.897950172424316,8.733000755310059,0.030524998903274536,0.07067500054836273,0.002474999986588955
0.3630000054836273,5.068050384521484,8.743050575256348,0.0340999998152256,0.030249999836087227,0.010999999940395355
0.5370000004768372,4.864050388336182,8.464950561523438,0.0035749999806284904,0.013199999928474426,0.015949999913573265
0.5640000104904175,4.78095006942749,8.515049934387207,-0.00976249948143959,0.01691249944269657,0.0
0.5539500117301941,4.960050106048584,8.616000175476074,0.028049999848008156,0.0364375002682209,-0.0085249999538064
0.43695002794265747,4.924050331115723,8.484000205993652,0.05857500061392784,0.04619999974966049,0.00494999997317791
0.48000001907348633,4.855050086975098,8.353050231933594,-0.0,-0.0038499999791383743,0.01347499992698431
0.556950032711029,4.828050136566162,8.35004997253418,-0.006187499966472387,0.0034374999813735485,0.0012374999932944775
0.47505003213882446,4.852050304412842,8.379000663757324,-0.006187499966472387,0.007149999961256981,-0.01952499896287918
0.41505002975463867,4.929000377655029,8.307000160217285,0.002337499987334013,0.004674999974668026,-0.02433750033378601
0.46800002455711365,4.909950256347656,8.359950065612793,0.00976249948143959,0.04138749837875366,-0.015812499448657036
0.46605002880096436,4.8670501708984375,8.407950401306152,0.010999999940395355,0.03519999980926514,-0.013337500393390656
0.40095001459121704,4.888050079345703,8.511000633239746,-0.02694999985396862,0.02419999986886978,-0.0035749999806284904
0.4030500054359436,4.840050220489502,8.427000045776367,-0.02694999985396862,0.004674999974668026,0.0
0.3910500109195709,4.921950340270996,8.53695011138916,-0.057475000619888306,-0.0002749999985098839,0.0037124999798834324
0.49695003032684326,4.809000015258789,8.677950859069824,-0.05252499878406525,-0.008799999952316284,-0.0035749999806284904
0.3630000054836273,4.909950256347656,8.623050689697266,-0.0,-0.011137500405311584,-0.010862499475479126
0.4990500211715698,4.969950199127197,8.527050018310547,0.02433750033378601,0.01691249944269657,0.006187499966472387
0.527999997138977,4.918950080871582,8.491050720214844,-0.0,0.021724998950958252,0.006187499966472387
0.5329500436782837,4.864050388336182,8.476950645446777,-0.006187499966472387,0.014437500387430191,0.00494999997317791
0.4900500178337097,4.885950088500977,8.508000373840332,0.014574999921023846,0.0193875003606081,0.002474999986588955
0.42000001668930054,4.906949996948242,8.463000297546387,0.035337500274181366,0.02914999984204769,0.0012374999932944775
0.4420500099658966,4.88100004196167,8.428950309753418,0.030524998903274536,0.03148749843239784,0.0037124999798834324
0.42705002427101135,4.888050079345703,8.407950401306152,0.025575000792741776,0.03272499889135361,0.002474999986588955
0.3820500075817108,4.921950340270996,8.257050514221191,0.01952499896287918,0.04372499883174896,-0.0010999999940395355
0.3079500198364258,4.903050422668457,8.257050514221191,-0.008662499487400055,0.02419999986886978,0.00989999994635582
0.37005001306533813,4.852050304412842,8.331000328063965,-0.028187500312924385,0.005912499967962503,0.015949999913573265
0.43695002794265747,4.828050136566162,8.515049934387207,-0.040424998849630356,-0.021037500351667404,0.01347499992698431
0.48705002665519714,4.752000331878662,8.371950149536133,-0.02199999988079071,-0.04179999977350235,0.00989999994635582
0.4440000355243683,4.801950454711914,8.419950485229492,-0.01223750039935112,-0.0038499999791383743,0.0012374999932944775
0.40800002217292786,4.845000267028809,8.518050193786621,-0.023237500339746475,0.002199999988079071,0.006187499966472387
0.45795002579689026,4.852050304412842,8.414999961853027,-0.040424998849630356,-0.013612499460577965,0.008662499487400055
0.4440000355243683,4.876049995422363,8.35004997253418,-0.054999999701976776,-0.02956249937415123,0.0037124999798834324
0.39900001883506775,4.9270501136779785,8.447999954223633,-0.08071249723434448,-0.057612501084804535,-0.0010999999940395355
0.40095001459121704,4.903050422668457,8.539050102233887,0.03904999792575836,0.005912499967962503,-0.006049999967217445
0.42195001244544983,4.953000068664551,8.391000747680664,0.018287500366568565,-0.011274999938905239,0.00013749999925494194
0.4129500091075897,4.960050106048584,8.377050399780273,-0.05252499878406525,-0.03203750029206276,0.00494999997317791
0.5230500102043152,4.813950061798096,8.499000549316406,-0.08071249723434448,-0.040562499314546585,0.0147124994546175
0.5730000138282776,4.797000408172607,8.869950294494629,-0.040424998849630356,0.021724998950958252,0.0037124999798834324
0.41505002975463867,4.78095006942749,8.56605052947998,0.04881250113248825,0.03396249935030937,-0.006049999967217445
0.4510500133037567,4.857000350952148,8.307000160217285,0.08428750187158585,0.05101250112056732,-0.0010999999940395355
0.41505002975463867,4.912050247192383,8.271000862121582,0.035337500274181366,0.027912499383091927,-0.002337499987334013
0.38895002007484436,4.876049995422363,8.440950393676758,-0.02694999985396862,-0.01979999989271164,-0.002337499987334013
0.4459500312805176,4.8480000495910645,8.539050102233887,-0.042762499302625656,-0.05884999781847,0.0012374999932944775
0.5010000467300415,4.785000324249268,8.700000762939453,-0.0037124999798834324,0.004674999974668026,-0.006049999967217445
0.5350500345230103,4.764000415802002,8.707050323486328,0.0340999998152256,0.03396249935030937,-0.0085249999538064
0.4420500099658966,4.776000022888184,8.37405014038086,0.07933750003576279,0.05596249923110008,-0.010862499475479126
0.41805002093315125,4.872000217437744,8.307000160217285,0.06104999780654907,0.05719999969005585,-0.0085249999538064
0.3960000276565552,4.929000377655029,8.355000495910645,-0.01223750039935112,0.03396249935030937,-0.0035749999806284904
0.42705002427101135,4.795050144195557,8.446050643920898,-0.04152499884366989,0.010724999941885471,-0.002337499987334013
0.3840000033378601,4.860000133514404,8.508000373840332,-0.02447500079870224,-0.007562499959021807,-0.0010999999940395355
0.44895002245903015,4.90500020980835,8.530050277709961,-0.01223750039935112,0.008387500420212746,0.00494999997317791
0.5179499983787537,4.777950286865234,8.496000289916992,0.007287499960511923,0.02419999986886978,0.00013749999925494194
0.43905001878738403,4.873950004577637,8.403000831604004,0.018287500366568565,0.020487500354647636,-0.0085249999538064
0.4339500069618225,4.852050304412842,8.539050102233887,-0.002474999986588955,0.03891250118613243,-0.0035749999806284904
0.4630500078201294,4.816050052642822,8.653950691223145,-0.018424998968839645,0.01691249944269657,-0.004812499973922968
0.2959500253200531,4.869000434875488,8.527050018310547,-0.0012374999932944775,-0.0015124999918043613,-0.00976249948143959
0.3720000088214874,4.857000350952148,8.40000057220459,0.0010999999940395355,-0.028324998915195465,-0.0010999999940395355
0.42000001668930054,4.789950370788574,8.367000579833984,-0.01223750039935112,-0.02461249940097332,-0.007287499960511923
0.3940500319004059,4.759050369262695,8.398050308227539,-0.01966249942779541,-0.023375000804662704,-0.0085249999538064
0.35295000672340393,4.8070502281188965,8.43600082397461,-0.01718750037252903,-0.01732499897480011,-0.0010999999940395355
0.3750000298023224,4.8259501457214355,8.443950653076172,-0.00976249948143959,-0.021037500351667404,0.0012374999932944775
0.33105000853538513,4.900050163269043,8.57805061340332,0.013337500393390656,0.014437500387430191,0.00494999997317791
0.3550500273704529,4.9170002937316895,8.604000091552734,0.03657500073313713,0.02914999984204769,0.01966249942779541
0.4339500069618225,4.873950004577637,8.523000717163086,0.047575000673532486,0.040150001645088196,0.018424998968839645
0.3960000276565552,4.80495023727417,8.419950485229492,0.05609999969601631,0.0742499977350235,0.01223750039935112
0.42195001244544983,4.831050395965576,8.355000495910645,0.037812501192092896,0.05967500060796738,0.01718750037252903
0.3460500240325928,4.9270501136779785,8.59005069732666,0.007287499960511923,0.025437500327825546,0.01966249942779541
0.38700002431869507,4.903050422668457,8.652000427246094,0.0085249999538064,-0.01484999991953373,0.023237500339746475
0.38700002431869507,4.941000461578369,8.668950080871582,0.06104999780654907,0.02667500078678131,0.00989999994635582
0.3960000276565552,4.942950248718262,8.269050598144531,0.08428750187158585,0.025437500327825546,0.007424999959766865
0.47505003213882446,4.903050422668457,8.146950721740723,0.06228749826550484,0.03148749843239784,0.00989999994635582
0.3940500319004059,4.873950004577637,8.32395076751709,-0.006187499966472387,0.027912499383091927,0.00989999994635582
0.40605002641677856,4.855050086975098,8.439000129699707,-0.050187498331069946,-0.002612499985843897,0.01966249942779541
0.33900001645088196,4.852050304412842,8.623050689697266,-0.045237500220537186,-0.040562499314546585,0.02199999988079071
0.364950031042099,4.879050254821777,8.31195068359375,-0.03423750028014183,-0.10284999758005142,0.02447500079870224
0.3940500319004059,4.864050388336182,8.206950187683105,-0.04647500067949295,-0.11261250078678131,0.02694999985396862
0.5350500345230103,4.819050312042236,8.452950477600098,-0.07947500050067902,-0.0845625028014183,0.01966249942779541
0.5490000247955322,4.773000240325928,8.55405044555664,-0.032999999821186066,-0.011274999938905239,0.00013749999925494194
0.5110500454902649,4.800000190734863,8.488950729370117,0.002337499987334013,0.013199999928474426,-0.0035749999806284904
0.43695002794265747,4.872000217437744,8.475000381469727,0.045099999755620956,0.03519999980926514,-0.0010999999940395355
0.4030500054359436,4.884000301361084,8.403000831604004,0.01952499896287918,-0.035612501204013824,0.008662499487400055
0.544950008392334,4.824000358581543,8.36205005645752,-0.05623750016093254,-0.06861250102519989,0.007424999959766865
0.48000001907348633,4.843050003051758,8.491050720214844,-0.08923749625682831,-0.08579999953508377,0.0012374999932944775
0.6190500259399414,4.788000106811523,8.439000129699707,-0.054999999701976776,-0.045375000685453415,0.006187499966472387
0.6570000052452087,4.708950042724609,8.676000595092773,0.04386249929666519,0.07548750191926956,-0.0010999999940395355
0.6690000295639038,4.680000305175781,8.42400074005127,0.09157499670982361,0.10848750174045563,-0.004812499973922968
0.6210000514984131,4.744950294494629,7.768050193786621,0.08304999768733978,0.17077499628067017,-0.013337500393390656
0.42000001668930054,4.80495023727417,8.118000030517578,-0.025712499395012856,0.17820000648498535,-0.013337500393390656
0.25995001196861267,4.864050388336182,8.688000679016113,-0.08799999952316284,0.11577499657869339,-0.01209999993443489
0.46995002031326294,4.8480000495910645,8.544000625610352,-0.054999999701976776,0.11948750168085098,-0.015812499448657036
0.5710500478744507,4.644000053405762,8.247000694274902,0.05128749832510948,0.30153748393058777,-0.035337500274181366
0.034950003027915955,4.90500020980835,8.671050071716309,0.1685750037431717,0.4298250079154968,-0.05609999969601631
-0.7279500365257263,5.427000045776367,9.034950256347656,0.2503874897956848,0.3443000018596649,-0.007287499960511923
-0.520050048828125,5.523000240325928,8.980050086975098,0.2381500005722046,0.16472500562667847,0.07947500050067902
0.13305000960826874,4.9960503578186035,9.118950843811035,0.26633748412132263,0.12196250259876251,0.10023749619722366
0.364950031042099,4.740000247955322,8.671050071716309,0.36643749475479126,0.08167500048875809,0.03189999982714653
0.21705001592636108,5.08905029296875,8.59695053100586,0.32615000009536743,-0.01251249946653843,-0.010862499475479126
0.15195000171661377,5.20395040512085,8.5420503616333,0.19538749754428864,-0.1676124930381775,0.010999999940395355
0.4729500114917755,4.918950080871582,8.422050476074219,0.09033749997615814,-0.24695000052452087,0.008662499487400055
0.2740500271320343,4.903050422668457,8.158950805664062,0.0635249987244606,-0.32394999265670776,-0.035337500274181366
0.2959500253200531,5.041950225830078,7.852050304412842,0.047575000673532486,-0.35694998502731323,-0.05128749832510948
0.49695003032684326,4.963050365447998,7.522050380706787,-0.047712501138448715,-0.3386625051498413,-0.06710000336170197
0.29805001616477966,5.0370001792907715,8.05305004119873,-0.13571250438690186,-0.27390000224113464,-0.04633750021457672
0.21705001592636108,5.200050354003906,8.26395034790039,-0.13695000112056732,-0.2849000096321106,-0.014574999921023846
0.5879999995231628,5.07705020904541,8.458050727844238,-0.13323749601840973,-0.27761250734329224,0.002474999986588955
0.6670500040054321,4.795050144195557,8.796000480651855,-0.029424998909235,-0.1443749964237213,-0.023099999874830246
0.26205000281333923,5.140050411224365,8.494050025939941,0.09157499670982361,-0.15908749401569366,-0.02681249938905239
0.7270500063896179,5.00100040435791,8.329050064086914,-0.045237500220537186,-0.2176624983549118,0.029424998909235
0.7860000133514404,4.776000022888184,8.488950729370117,-0.01718750037252903,-0.18713749945163727,-0.015812499448657036
0.612000048160553,5.2759504318237305,8.074950218200684,0.032999999821186066,-0.18232500553131104,-0.07686249911785126
0.7410000562667847,4.929000377655029,8.956050872802734,0.035337500274181366,-0.07232499867677689,-0.015812499448657036
0.7410000562667847,5.302950382232666,8.04900074005127,0.12086249887943268,-0.08208750188350677,0.008662499487400055
0.8460000157356262,5.278950214385986,8.070000648498535,0.047575000673532486,-0.057612501084804535,0.032999999821186066
0.8059500455856323,5.08905029296875,8.443950653076172,0.007287499960511923,-0.010037500411272049,0.04399999976158142
0.6760500073432922,5.128050327301025,8.38800048828125,0.047575000673532486,0.02667500078678131,0.040424998849630356
0.8770500421524048,5.185050010681152,7.998000144958496,0.05252499878406525,0.037675000727176666,0.05376249924302101
0.7669500112533569,5.137050151824951,8.23799991607666,-0.0012374999932944775,0.08043749630451202,0.02447500079870224
0.778950035572052,5.041950225830078,8.27595043182373,0.013337500393390656,0.10243749618530273,0.00494999997317791
0.7500000596046448,5.06505012512207,8.08395004272461,0.04633750021457672,0.15001249313354492,0.00989999994635582
0.544950008392334,5.221050262451172,7.713000297546387,-0.03423750028014183,0.11577499657869339,0.029424998909235
0.8290500640869141,5.098950386047363,8.223000526428223,-0.14547500014305115,0.13296249508857727,0.047712501138448715
0.5059500336647034,4.681950092315674,8.709000587463379,-0.25423750281333923,-0.04179999977350235,0.040424998849630356
0.4900500178337097,4.680000305175781,9.009000778198242,-0.17847499251365662,-0.052799999713897705,0.00989999994635582
0.4459500312805176,4.7470502853393555,8.970000267028809,-0.03671250119805336,0.010724999941885471,0.01966249942779541
0.5850000381469727,4.611000061035156,8.557950019836426,0.05004999786615372,0.0644875019788742,0.028187500312924385
0.583050012588501,4.611000061035156,8.41200065612793,0.05857500061392784,0.09501250088214874,0.02199999988079071
0.49695003032684326,4.644000053405762,8.320950508117676,0.03904999792575836,0.11701250076293945,0.00989999994635582
0.4320000112056732,4.8070502281188965,8.26395034790039,-0.006187499966472387,0.07301250100135803,-0.0035749999806284904
0.40995001792907715,4.876049995422363,8.463000297546387,-0.018424998968839645,0.07672499865293503,-0.002337499987334013
0.3820500075817108,4.648950099945068,8.569950103759766,-0.01347499992698431,0.05472499877214432,0.0147124994546175
0.5230500102043152,4.644000053405762,8.611050605773926,-0.008662499487400055,0.009487500414252281,0.007424999959766865
0.5160000324249268,4.732950210571289,8.881950378417969,0.037812501192092896,0.05843750014901161,-0.028049999848008156
0.38700002431869507,4.648950099945068,8.431950569152832,0.08910000324249268,0.0034374999813735485,-0.03657500073313713
0.27195000648498535,4.783050060272217,7.954950332641602,0.010999999940395355,-0.09679999947547913,-0.02928750030696392
0.38895002007484436,4.703999996185303,8.431950569152832,-0.08923749625682831,-0.07232499867677689,-0.013337500393390656
0.6709500551223755,4.242000102996826,7.73205041885376,-0.07328750193119049,0.17572499811649323,-0.023099999874830246
0.3820500075817108,4.588950157165527,8.404950141906738,-0.06476250290870667,0.3100624978542328,-0.05857500061392784
0.25200000405311584,4.816050052642822,8.557950019836426,-0.01718750037252903,0.3797749876976013,-0.059812501072883606
0.44895002245903015,4.551000118255615,8.982000350952148,0.06833750009536743,0.49582499265670776,-0.06710000336170197
0.6450000405311584,4.170000076293945,8.59005069732666,0.2003374993801117,0.5300624966621399,-0.12457499653100967
-0.22095000743865967,4.824000358581543,8.371950149536133,0.29686251282691956,0.7291625142097473,-0.18562500178813934
-0.30195000767707825,4.879050254821777,8.697000503540039,0.31267499923706055,0.7474499940872192,-0.13433749973773956
-0.6160500049591064,4.744950294494629,9.15000057220459,0.3823874890804291,0.6887375116348267,-0.14533749222755432
-0.7549500465393066,5.3620500564575195,8.60205078125,0.4482499957084656,0.6949250102043152,-0.11233749985694885
-0.6079500317573547,5.19195032119751,8.338050842285156,0.4311999976634979,0.7449749708175659,-0.1073874980211258
-0.9600000381469727,5.218950271606445,8.221050262451172,0.40191251039505005,0.7059249877929688,-0.11838749796152115
-1.432050108909607,5.620950222015381,8.119950294494629,0.37014999985694885,0.6448749899864197,-0.10862500220537186
-1.9950001239776611,6.154950141906738,8.230050086975098,0.2125750035047531,0.4138749837875366,-0.04633750021457672
-1.5970500707626343,6.133050441741943,5.566050052642822,-0.08428750187158585,0.18177500367164612,0.035475000739097595
-1.675950050354004,5.404950141906738,9.772050857543945,-0.39957499504089355,0.049912501126527786,0.037950001657009125
-1.6549500226974487,5.440950393676758,9.729000091552734,-0.24433749914169312,-0.3961375057697296,0.037950001657009125
-1.3440001010894775,5.710050106048584,8.926950454711914,0.02681249938905239,-0.408237487077713,0.057475000619888306
