accX,accY,accZ,gyroX,gyroY,gyroZ
0.8427015542984009,4.817363739013672,8.686249732971191,-0.03281218931078911,-1.278279185295105,-1.0528349876403809
0.7922796607017517,4.897712707519531,8.260283470153809,0.02785545401275158,-1.2431457042694092,-1.0219601392745972
0.9641354084014893,4.730999946594238,7.886806488037109,0.015411256812512875,-1.118267297744751,-1.005117654800415
1.1038610935211182,4.4742937088012695,8.059821128845215,-0.08356636762619019,-1.1618657112121582,-1.103292465209961
1.0395337343215942,4.524054527282715,7.890991687774658,-0.22661355137825012,-1.2709661722183228,-1.161534070968628
0.9797552227973938,4.545506954193115,8.008508682250977,-0.3094119727611542,-1.2818396091461182,-1.193281650543213
0.4784764051437378,4.315098762512207,9.397021293640137,-0.12320279330015182,-0.8525060415267944,-1.0778979063034058
0.5480902194976807,4.282249927520752,9.217944145202637,-0.11023499816656113,-0.9614495038986206,-1.033915638923645
0.708789050579071,4.767248153686523,8.7966890335083,0.19072957336902618,-0.6435378193855286,-0.8992809057235718
0.839225172996521,5.083550930023193,8.415265083312988,0.13151055574417114,-0.69022536277771,-0.8486314415931702
1.0394953489303589,5.170968055725098,8.235699653625488,-0.005916666239500046,-0.7682066559791565,-0.8425402641296387
1.062843680381775,5.248751163482666,8.312629699707031,-0.10712830722332001,-0.805975615978241,-0.8581085801124573
1.1205726861953735,5.2579450607299805,8.599024772644043,-0.06904522329568863,-0.7277324795722961,-0.8539721369743347
1.1104116439819336,5.312695503234863,8.643671989440918,0.06686356663703918,-0.6188762784004211,-0.865665853023529
0.9701018333435059,5.440210342407227,8.521442413330078,0.16226325929164886,-0.5600587129592896,-0.8607439994812012
1.203871726989746,4.757067680358887,7.72894287109375,0.3239680230617523,-0.3298148810863495,-0.8497833609580994
0.9500192403793335,5.136731147766113,7.58280086517334,0.22425734996795654,-0.4276754856109619,-0.8247902393341064
1.066789150238037,5.3870110511779785,7.864780426025391,0.14405947923660278,-0.49675559997558594,-0.7669500112533569
1.3734098672866821,5.623405456542969,8.02335262298584,0.1978330761194229,-0.5235638618469238,-0.7292160391807556
1.5965685844421387,5.865650177001953,7.834737777709961,0.2794272005558014,-0.4447273313999176,-0.7042054533958435
1.0496371984481812,5.817651271820068,8.020164489746094,0.1085943877696991,-0.4285655915737152,-0.6816906929016113
0.9933639168739319,5.592242240905762,8.441887855529785,0.0362853966653347,-0.5790478587150574,-0.6984981894493103
1.08158540725708,5.427061557769775,8.568675994873047,0.08042477071285248,-0.718185544013977,-0.779987633228302
0.8172463774681091,5.553858280181885,8.276046752929688,0.18041469156742096,-0.7601781487464905,-0.8799775242805481
0.3455982506275177,5.673099040985107,7.788156032562256,0.22598522901535034,-0.7352374196052551,-0.9256004691123962
-0.22257457673549652,6.086386203765869,6.227921962738037,0.18823376297950745,-0.6481978297233582,-0.8872032165527344
-0.09875603765249252,6.049228668212891,6.4288434982299805,0.1008102148771286,-0.5578595995903015,-0.8504815101623535
0.1932695358991623,5.802223205566406,7.321133613586426,0.021903881803154945,-0.5456771850585938,-0.8317890167236328
0.2584875822067261,5.588507175445557,8.22887134552002,0.07566002011299133,-0.6845879554748535,-0.9010960459709167
-0.26177242398262024,5.99117374420166,7.701667785644531,0.17521360516548157,-0.8525933623313904,-0.9005549550056458
-0.3843938708305359,6.269504547119141,6.998567581176758,0.2301740199327469,-0.7964984774589539,-0.8506211042404175
-0.39747580885887146,6.40878963470459,6.686507225036621,0.2439621239900589,-0.7420790791511536,-0.7958526611328125
-0.1793735921382904,6.4537811279296875,6.201327323913574,0.2223723977804184,-0.580234706401825,-0.6881833076477051
0.1646827757358551,6.290132999420166,6.234989643096924,0.13381439447402954,-0.47593382000923157,-0.6575877070426941
0.31211769580841064,6.248234272003174,6.739639759063721,0.061592668294906616,-0.48574256896972656,-0.6824411749839783
0.33245885372161865,6.261354446411133,6.924318790435791,0.08587019890546799,-0.5641427636146545,-0.6883752942085266
0.3752959072589874,6.259496688842773,6.836001396179199,0.10437069088220596,-0.5549100041389465,-0.6820746660232544
0.38870343565940857,6.2137675285339355,6.772660255432129,0.13470451533794403,-0.5223421454429626,-0.6792821288108826
-0.4066120684146881,6.972748756408691,7.547404766082764,0.03134611248970032,-0.7146948575973511,-0.8141611814498901
-0.575872540473938,7.173995494842529,7.526086807250977,0.05407030135393143,-0.7274706959724426,-0.7982786893844604
-0.7273967862129211,7.365081310272217,7.235651016235352,0.13456489145755768,-0.6304478049278259,-0.7266154885292053
-0.787050724029541,7.361921310424805,7.039661407470703,0.12571606040000916,-0.4879242479801178,-0.6615844964981079
-0.8573923110961914,7.341120719909668,7.422896862030029,0.0512777715921402,-0.4651651382446289,-0.5959950089454651
-0.7662786245346069,7.0440287590026855,7.828369140625,0.036075957119464874,-0.5696929097175598,-0.5771629214286804
-0.6209027171134949,6.947695732116699,7.673205375671387,0.07855726778507233,-0.6695082783699036,-0.6138846278190613
-0.551624059677124,6.866158485412598,7.132920265197754,0.10782644152641296,-0.7002435326576233,-0.6464524865150452
-0.37915536761283875,7.049659729003906,6.641218662261963,0.04769985005259514,-0.5973215103149414,-0.6582159996032715
-0.2968714237213135,6.779910087585449,6.789170742034912,0.040107667446136475,-0.425214558839798,-0.6590712070465088
-0.22591687738895416,6.414056777954102,7.03757381439209,0.07243116199970245,-0.31752774119377136,-0.697119414806366
-0.3551846146583557,6.234213829040527,7.332300186157227,0.12334241718053818,-0.32792991399765015,-0.7786088585853577
-0.5316277146339417,6.177730083465576,7.2141032218933105,0.1825788915157318,-0.3441789150238037,-0.8511621952056885
-0.9060521125793457,6.210635662078857,6.991126537322998,0.19313813745975494,-0.37578684091567993,-0.9030507802963257
-1.3508564233779907,6.450870037078857,6.726912021636963,0.1319468915462494,-0.43420299887657166,-0.901951253414154
-1.5234880447387695,6.523911952972412,6.617841720581055,0.08477064222097397,-0.4628438651561737,-0.8793841600418091
-1.6268409490585327,6.531066417694092,6.727065086364746,0.002687806962057948,-0.48453831672668457,-0.8301134705543518
-2.1040148735046387,7.098290920257568,5.8302741050720215,0.20486675202846527,-0.5318890810012817,-0.7302457690238953
-1.9225248098373413,6.956697940826416,5.23967170715332,0.11594222486019135,-0.22298327088356018,-0.588874101638794
-1.4917312860488892,6.702979564666748,6.288437843322754,0.0348542258143425,-0.25040239095687866,-0.5683141350746155
-1.2588711977005005,6.780282974243164,6.300332069396973,0.015289084054529667,-0.3934146761894226,-0.609399139881134
-0.9911995530128479,6.8892388343811035,6.160942077636719,-0.05340707674622536,-0.3789982497692108,-0.6782873272895813
-1.3389908075332642,7.032459735870361,6.395180702209473,-0.1178097277879715,-0.34290483593940735,-0.7204021215438843
-1.5798858404159546,7.133198261260986,6.8726806640625,-0.052691489458084106,-0.2713986933231354,-0.685600221157074
-1.5937913656234741,7.296971321105957,6.99455451965332,0.07082545757293701,-0.193522110581398,-0.6079156398773193
-1.4683926105499268,7.321650981903076,6.826702117919922,0.11674506962299347,-0.16845917701721191,-0.5592209696769714
-1.410654067993164,7.347651958465576,6.8894782066345215,0.008325220085680485,-0.30750957131385803,-0.557510495185852
-1.5177514553070068,7.408052921295166,7.1992974281311035,-0.006928957067430019,-0.4394564628601074,-0.5068959593772888
-1.3037290573120117,7.315665245056152,7.118785381317139,0.0912981703877449,-0.41784927248954773,-0.4515690505504608
-1.1803892850875854,7.277405738830566,7.086205005645752,0.15254177153110504,-0.38440877199172974,-0.44163811206817627
-1.107998251914978,7.259822845458984,6.955682754516602,0.2672273516654968,-0.3654893934726715,-0.4346219003200531
-1.2380033731460571,7.359546184539795,6.684917449951172,0.2646966278553009,-0.45779985189437866,-0.41772711277008057
-1.2166662216186523,7.459834575653076,6.599339485168457,0.18938568234443665,-0.5915619134902954,-0.34896111488342285
-0.9136656522750854,7.363903999328613,6.464698791503906,0.18627898395061493,-0.6791425347328186,-0.28410470485687256
-0.7120164036750793,7.267225742340088,6.164628982543945,0.23595106601715088,-0.6644817590713501,-0.2502453029155731
-0.6595067977905273,7.183926582336426,5.851400375366211,0.2535439729690552,-0.5947558283805847,-0.2422167956829071
-0.7401052117347717,7.278172016143799,5.786526679992676,0.22052234411239624,-0.5111894607543945,-0.2223723977804184
-0.722627580165863,7.12211799621582,5.967308044433594,0.1897696554660797,-0.5113640427589417,-0.18889698386192322
-0.5506471991539001,7.018094539642334,5.9505295753479,0.1947089284658432,-0.5503197908401489,-0.20209167897701263
-0.5277203321456909,7.153462886810303,5.689025402069092,0.13994050025939941,-0.552972674369812,-0.2445729821920395
-0.6407074928283691,7.3008880615234375,5.774153709411621,0.03153809905052185,-0.5723807215690613,-0.2992017865180969
-0.8352124691009521,7.331457614898682,6.1024274826049805,-0.052237704396247864,-0.5970771312713623,-0.3295705318450928
-1.0834720134735107,7.295266628265381,6.3862457275390625,-0.07888887822628021,-0.6222447752952576,-0.33173471689224243
-1.0769309997558594,7.529122352600098,6.732389450073242,-0.05836381018161774,-0.5932199358940125,-0.30913272500038147
-0.9718447923660278,7.854035377502441,7.180708885192871,0.06103416532278061,-0.5435130000114441,-0.27515116333961487
-0.8086081147193909,8.305313110351562,6.923121452331543,0.1978854238986969,-0.4619711935520172,-0.23825488984584808
-0.8728110194206238,8.338688850402832,6.739687442779541,0.21268582344055176,-0.4032757878303528,-0.21416935324668884
-1.0147202014923096,8.438191413879395,6.8164262771606445,0.16083209216594696,-0.4403465688228607,-0.16125096380710602
-0.9370426535606384,8.442835807800293,6.657882213592529,0.09150761365890503,-0.5808979272842407,-0.07820820063352585
-0.5217348337173462,7.636258125305176,6.126532077789307,0.12276645749807358,-0.47315874695777893,-0.04527384042739868
-0.5525242686271667,7.4215850830078125,6.038492679595947,0.15995942056179047,-0.37636280059814453,-0.030490901321172714
-0.181911438703537,7.032163143157959,5.342335224151611,0.1822996437549591,-0.36140531301498413,-0.037978366017341614
-0.16226941347122192,7.15551233291626,5.6172566413879395,0.11449360102415085,-0.3145257830619812,-0.005602506920695305
0.006684611551463604,7.132508754730225,5.716348171234131,0.16027358174324036,-0.2958507537841797,0.028187068179249763
0.14118129014968872,7.219849109649658,5.432903289794922,0.17231635749340057,-0.20924752950668335,0.09403833746910095
0.1686188280582428,7.054802894592285,5.219417095184326,0.04920083284378052,-0.16543975472450256,0.13753195106983185
0.29784825444221497,7.027814865112305,5.624200344085693,-0.15248940885066986,-0.16709782183170319,0.14852751791477203
0.42978793382644653,6.892724514007568,6.464488506317139,-0.2405063658952713,-0.2771757245063782,0.13327334821224213
0.7175614237785339,6.812126636505127,6.584131240844727,-0.19109609723091125,-0.34030428528785706,0.09457939118146896
0.9167781472206116,6.831270694732666,6.476354122161865,-0.07148868590593338,-0.2998301088809967,0.034522611647844315
0.8400295972824097,7.076091766357422,6.041203022003174,-0.02914699912071228,-0.251676470041275,-0.006021386012434959
0.9074503183364868,7.302966117858887,5.995014190673828,-0.09484118968248367,-0.19202111661434174,-0.01242674421519041
1.1709656715393066,7.197669506072998,6.439004421234131,-0.10046114772558212,-0.1082802265882492,-0.010506882332265377
1.5065370798110962,7.071648597717285,6.787083148956299,-0.036791540682315826,-0.07305948436260223,-0.03914773464202881
1.6563470363616943,7.054610729217529,6.79129695892334,-0.0012915435945615172,-0.06534512341022491,-0.06244787946343422
1.9030168056488037,6.760986328125,6.704923152923584,0.031381018459796906,-0.05066690966486931,-0.1313709318637848
1.6384001970291138,6.780494213104248,6.676978588104248,0.02174680307507515,-0.1033933013677597,-0.21909117698669434
1.3605482578277588,6.968879222869873,6.653199195861816,-0.04850269854068756,-0.19589576125144958,-0.2117258906364441
1.5390981435775757,6.953087329864502,6.629477500915527,-0.1333955079317093,-0.19601792097091675,-0.19807741045951843
1.4226059913635254,6.7333664894104,6.962750434875488,-0.1878148764371872,-0.1702045053243637,-0.2071007639169693
1.3495732545852661,6.92974853515625,7.02102518081665,-0.1828930526971817,-0.1391201913356781,-0.17929767072200775
1.4095526933670044,6.909034252166748,6.9917778968811035,-0.13529792428016663,-0.005619960371404886,-0.13548991084098816
1.3770394325256348,6.63653564453125,6.926377296447754,-0.12171926349401474,0.05141739919781685,-0.14709635078907013
1.2174131870269775,6.6822075843811035,6.940110683441162,-0.1776919662952423,0.00839503388851881,-0.16631242632865906
0.8260283470153809,6.873753070831299,7.123784065246582,-0.3622605502605438,-0.18915878236293793,-0.1967509686946869
0.6651666760444641,6.967529296875,7.422982692718506,-0.43504077196121216,-0.34901347756385803,-0.1835039108991623
0.8285661339759827,6.872469902038574,7.455026626586914,-0.31061625480651855,-0.27525588870048523,-0.1411098688840866
0.8842744827270508,6.6620097160339355,7.219600200653076,-0.051661744713783264,-0.018046705052256584,-0.11171852797269821
0.43556272983551025,6.882822036743164,6.577427864074707,0.15535175800323486,0.2647140920162201,0.006405358202755451
0.5288313031196594,7.016102313995361,6.58146858215332,-0.0403171069920063,0.0665494054555893,0.059602994471788406
0.6066907644271851,6.982785224914551,6.628969669342041,-0.09904743731021881,-0.0004886921960860491,0.0792030394077301
0.7723503708839417,6.824451446533203,6.586755275726318,-0.06253514438867569,0.05864306166768074,0.11278317868709564
0.8083782196044922,6.8889899253845215,6.565178871154785,0.09990264475345612,0.26940903067588806,0.16084954142570496
0.7644781470298767,6.9331583976745605,6.304622650146484,0.17210692167282104,0.4312010407447815,0.23118631541728973
0.7565965056419373,6.91628360748291,6.313270568847656,0.16612043976783752,0.4833689332008362,0.3200410306453705
1.0853970050811768,6.648382186889648,6.362006664276123,0.13957397639751434,0.49469611048698425,0.3747745454311371
1.3146083354949951,6.556186199188232,6.598333358764648,0.10719811916351318,0.48925068974494934,0.348559707403183
1.2601736783981323,6.679104328155518,6.8425517082214355,0.10124655067920685,0.4666312336921692,0.32037264108657837
0.8240172266960144,7.106411933898926,7.249547004699707,0.12803734838962555,0.3758043050765991,0.3105464279651642
0.7216411232948303,7.931358337402344,7.137134075164795,0.20036379992961884,0.296601265668869,0.4087386429309845
0.9238649606704712,8.044306755065918,6.342594623565674,0.1834864616394043,0.4003087282180786,0.5586624145507812
0.5769930481910706,7.611703395843506,5.374810695648193,0.11396999657154083,0.5283809900283813,0.5960299372673035
0.8864675164222717,7.205780982971191,6.411614894866943,-0.15425220131874084,0.5212251543998718,0.5611582398414612
1.233052134513855,6.946000576019287,7.648545265197754,-0.20975366234779358,0.07724827527999878,0.4446749985218048
1.0172580480575562,6.61660623550415,7.121610164642334,-0.07483971863985062,-0.22853341698646545,0.28417450189590454
1.0034195184707642,6.690462589263916,5.796975135803223,0.10651744157075882,0.09698794782161713,0.13809044659137726
0.2147790491580963,6.93070650100708,6.108796119689941,0.1443212777376175,0.47766169905662537,0.08779006451368332
-0.142531618475914,7.372944355010986,7.077202796936035,0.1457175314426422,0.5026024580001831,0.12894491851329803
0.08513780683279037,7.186732769012451,7.460878372192383,0.17058847844600677,0.3571118116378784,0.14926055073738098
0.15608279407024384,6.939670562744141,7.118354320526123,0.22326251864433289,0.2994635999202728,0.07860963046550751
-0.16446250677108765,6.894975185394287,6.874423503875732,0.2117084413766861,0.32337459921836853,-0.008569566532969475
-0.9220070838928223,7.091874599456787,6.340660095214844,0.11702432483434677,0.8859116435050964,0.22654373943805695
-1.0496467351913452,6.908038139343262,6.366057395935059,0.14041173458099365,0.7969871759414673,0.21905627846717834
-0.5424399375915527,7.13724946975708,5.476975440979004,0.03794345632195473,0.5613327622413635,0.17294467985630035
-0.7898184061050415,7.176820755004883,5.98801326751709,-0.015358896926045418,0.6674662828445435,0.1722465455532074
-0.9501245617866516,7.090629577636719,6.513980865478516,-0.04965461790561676,0.5822767615318298,0.1583886295557022
-0.8719682693481445,7.1419806480407715,6.656589508056641,-0.10101965814828873,0.3972543776035309,0.13241812586784363
-0.7389751672744751,7.2079644203186035,6.524678707122803,-0.13229595124721527,0.24417155981063843,0.0898495465517044
-0.7274829745292664,7.36737060546875,6.323766708374023,-0.16002923250198364,0.22102849185466766,0.04438372328877449
-1.0392177104949951,7.573808193206787,6.575052261352539,-0.13868385553359985,0.271939754486084,0.05160938575863838
-1.3005590438842773,7.896632671356201,6.32045316696167,-0.11541862040758133,0.17680184543132782,0.15796974301338196
-1.1944384574890137,7.623425483703613,6.365645885467529,0.025220006704330444,0.3566056787967682,0.23952898383140564
-1.223724365234375,7.642962455749512,6.183083534240723,0.048520151525735855,0.3522772490978241,0.2932153046131134
-0.4353807866573334,7.125862121582031,6.159945964813232,0.0057246801443398,0.4023856520652771,0.32882001996040344
-0.32329386472702026,7.1123881340026855,6.496149063110352,0.03223622962832451,0.3514220416545868,0.2722015380859375
-0.3215508759021759,7.174589157104492,6.530721664428711,0.050736721605062485,0.2970375716686249,0.2408030778169632
-0.42535388469696045,7.320175647735596,6.187488555908203,0.05974261835217476,0.20987583696842194,0.20406389236450195
-0.5209686756134033,7.288544178009033,5.885867118835449,0.03330088034272194,0.20453514158725739,0.19970057904720306
-0.5151747465133667,7.265626430511475,5.852137565612793,-0.019320795312523842,0.17009979486465454,0.1869596689939499
-0.542296290397644,7.282596588134766,5.843700885772705,-0.05504768341779709,0.15100587904453278,0.17414894700050354
-0.6170719861984253,7.340909481048584,6.021982192993164,-0.11531390249729156,0.11109020560979843,0.14407692849636078
-0.7724939584732056,7.378939628601074,6.158337116241455,-0.1414240300655365,0.06771877408027649,0.14885912835597992
-0.731438159942627,7.380653381347656,6.280575275421143,-0.1388758420944214,0.03865904361009598,0.14994123578071594
-0.6551110148429871,7.378556251525879,6.356069564819336,-0.10821041464805603,0.006597344763576984,0.1302015632390976
-0.7548630237579346,7.447624206542969,6.153539180755615,-0.09286896884441376,-0.014887658879160881,0.090425506234169
-0.9354242086410522,7.566835880279541,6.010164737701416,-0.10011208802461624,0.021624628454446793,0.0648040771484375
-1.0036206245422363,7.624814033508301,6.139317512512207,-0.08412487059831619,0.06620033830404282,0.07688175141811371
-0.8605909943580627,7.3289103507995605,6.265405654907227,-0.03619812801480293,-0.005096361506730318,0.08838347345590591
-0.9172282814979553,7.547998428344727,6.231398582458496,-0.05599016323685646,-0.005375613924115896,0.10330604016780853
-0.9100360870361328,7.760431289672852,6.322138786315918,-0.0728849470615387,-0.016353735700249672,0.17345082759857178
-0.590707004070282,7.509327411651611,6.314333438873291,-0.07312929630279541,-0.060929443687200546,0.1575683206319809
-0.6643909811973572,7.582015514373779,6.27378511428833,-0.07791149616241455,-0.007941247895359993,0.11416198313236237
-0.9832028746604919,7.61223030090332,6.605746269226074,-0.06852162629365921,-0.014381512999534607,0.11440633237361908
-0.9475579857826233,7.671041488647461,6.512755393981934,-0.01736602559685707,0.005235987715423107,0.16626006364822388
-0.7884584665298462,7.390019416809082,6.1730756759643555,0.03794345632195473,0.13573426008224487,0.19205603003501892
-0.7852311134338379,7.2838897705078125,6.274570941925049,0.005393067374825478,0.27665212750434875,0.1832072138786316
-0.5230085253715515,7.086568832397461,6.49061393737793,0.08628907799720764,0.35444146394729614,0.23343779146671295
-0.4326992928981781,7.0298171043396,6.711062431335449,-0.01895427517592907,0.2764427065849304,0.20847958326339722
-0.413670152425766,7.06330680847168,6.887495517730713,-0.0754505842924118,0.14676474034786224,0.19308577477931976
-0.5484349727630615,7.282529354095459,6.4886698722839355,-0.056356679648160934,0.24867451190948486,0.18776251375675201
-1.013082504272461,7.379676818847656,6.39586067199707,0.05948081985116005,0.5998522043228149,0.2702293395996094
-0.8265071511268616,7.048453330993652,6.396195888519287,-0.30918508768081665,0.1955990493297577,0.33424800634384155
-0.2156505286693573,6.753200054168701,7.455936431884766,-0.37168532609939575,0.023544492200016975,0.27461010217666626
-0.19339405000209808,6.342077732086182,7.86641788482666,-0.2692694067955017,-0.17011724412441254,0.21366320550441742
-0.04308605194091797,6.350246429443359,7.352056980133057,-0.09398598223924637,-0.07939502596855164,0.14098769426345825
-0.35863226652145386,6.5470499992370605,7.065193176269531,0.040683623403310776,0.1275835633277893,0.17935003340244293
-0.6256815195083618,6.675378799438477,7.010021686553955,0.06736970692873001,0.18411478400230408,0.22804471850395203
-0.6350284814834595,6.797512054443359,6.942935943603516,0.06085963174700737,0.1736602634191513,0.31206485629081726
-0.3637654483318329,6.711751937866211,6.808199882507324,0.06063273921608925,0.2042209804058075,0.3645992875099182
-0.22165518999099731,6.643019199371338,6.728271961212158,0.07700392603874207,0.25930356979370117,0.4004134237766266
-0.33084994554519653,6.702098846435547,6.697271347045898,0.04717624932527542,0.28668779134750366,0.4334350526332855
0.39189252257347107,6.490403175354004,6.957502365112305,-0.01984439417719841,0.3073873817920685,0.5211902260780334
0.28213271498680115,6.7548956871032715,6.9232072830200195,-0.0711570754647255,0.2790432274341583,0.5538453459739685
0.424549400806427,6.669374465942383,6.9775848388671875,-0.19348719716072083,0.19256217777729034,0.5948954820632935
1.1454052925109863,6.180574417114258,7.3322906494140625,-0.15084880590438843,0.3256959021091461,0.5774596333503723
1.1164928674697876,6.112799167633057,7.411710739135742,-0.06803293526172638,0.4564734101295471,0.5714731812477112
1.1972827911376953,6.039450168609619,7.350064754486084,-0.012130037881433964,0.48692941665649414,0.5504943132400513
1.348289966583252,6.059159755706787,7.167713165283203,0.00296705961227417,0.49782025814056396,0.5107007622718811
1.2839337587356567,6.159514427185059,7.09124231338501,-0.07541567832231522,0.5190085768699646,0.3827332556247711
1.038422703742981,6.309430122375488,7.468616008758545,-0.09737192094326019,0.49101346731185913,0.34005993604660034
0.839895486831665,6.379302501678467,7.588192462921143,-0.032794736325740814,0.49905943870544434,0.33997267484664917
0.6961764097213745,6.408425807952881,7.37630558013916,0.06522295624017715,0.5613502264022827,0.366362065076828
0.5543534755706787,6.507833003997803,7.016725063323975,0.07185520231723785,0.64849454164505,0.38781216740608215
0.34925657510757446,6.571423053741455,7.300064563751221,-0.014364060014486313,0.6569593548774719,0.4103618264198303
0.3282354772090912,6.567505836486816,7.612957954406738,-0.07445574551820755,0.563427209854126,0.44233623147010803
0.3717045783996582,6.494396686553955,7.680570125579834,-0.04358087107539177,0.4833689332008362,0.45584508776664734
0.3527616858482361,6.593602657318115,7.477972984313965,0.006579891312867403,0.461465060710907,0.4786739945411682
1.0728609561920166,6.815871238708496,6.107263565063477,-0.12231267243623734,0.6332578063011169,0.5309640765190125
0.8836519718170166,6.259238243103027,7.704972267150879,-0.09583602845668793,0.6915692687034607,0.47083747386932373
0.7516069412231445,6.514823913574219,8.00553035736084,-0.0354301854968071,0.5760459303855896,0.4631405770778656
0.8474611639976501,6.638431549072266,7.635865688323975,0.01186823844909668,0.5532344579696655,0.46731191873550415
0.7860164046287537,6.7275824546813965,7.544818878173828,0.06592108309268951,0.563880980014801,0.4649033546447754
0.6964637041091919,6.960997581481934,7.2288994789123535,0.07681193947792053,0.5988748073577881,0.49527207016944885
0.6747052073478699,6.92005729675293,7.252084732055664,0.02007128670811653,0.6256482005119324,0.5538104176521301
0.774284839630127,6.61339807510376,7.549923419952393,-0.04312708601355553,0.5834635496139526,0.5683490037918091
0.8262102603912354,6.527992248535156,7.116812705993652,0.32210052013397217,0.4653920531272888,0.41119956970214844
0.25485798716545105,6.373623371124268,6.0234856605529785,0.16339772939682007,0.40509092807769775,0.4438546895980835
0.12216175347566605,6.37708044052124,6.087544918060303,0.08637634664773941,0.3982841372489929,0.40882593393325806
0.05671384930610657,6.427742004394531,6.0935211181640625,0.033457960933446884,0.3992615044116974,0.39156460762023926
-0.1182352602481842,6.454586029052734,6.139700412750244,0.007819075137376785,0.4573635160923004,0.3788411617279053
-0.9403945207595825,6.998041152954102,6.05350923538208,-0.008604473434388638,0.7997796535491943,0.44813072681427
-1.123474359512329,7.015777111053467,6.355695724487305,-0.09328784793615341,0.8225387930870056,0.47883108258247375
-1.428083896636963,7.166927814483643,7.121208190917969,-0.15917402505874634,1.1243934631347656,0.7863231897354126
-1.3800945281982422,7.073927879333496,7.01495361328125,-0.16308356821537018,1.1790920495986938,0.7692887783050537
-1.506996750831604,6.996786117553711,7.218632698059082,-0.19191640615463257,1.1621798276901245,0.7399323582649231
-1.6286029815673828,7.050722599029541,7.423470973968506,-0.18046703934669495,1.0792243480682373,0.7501774430274963
-1.5657504796981812,7.02097749710083,7.469181537628174,-0.12430234998464584,1.0410016775131226,0.7837226390838623
-1.380448818206787,6.901899337768555,7.458800315856934,-0.009930923581123352,1.0636385679244995,0.8086110353469849
-1.3345184326171875,6.953853607177734,7.281246185302734,0.09780824929475784,1.10048246383667,0.8367632031440735
-1.2833207845687866,6.830360412597656,7.174464702606201,0.11995647847652435,1.035399079322815,0.8629955053329468
-1.1889508962631226,6.804493427276611,7.022815704345703,0.07981390506029129,0.9001535773277283,0.8809723854064941
-1.1076630353927612,6.726969242095947,6.9593505859375,0.032934363931417465,0.7641749382019043,0.8901179432868958
-1.0053061246871948,6.70296049118042,6.916934967041016,0.008325220085680485,0.6829648017883301,0.8962440490722656
-0.846264123916626,6.566854476928711,6.910738945007324,0.024504423141479492,0.6485120058059692,0.89762282371521
-0.7869645357131958,6.585356712341309,6.892906665802002,0.0518537312746048,0.6236236095428467,0.8647059202194214
-0.7844841480255127,6.622955799102783,6.7415547370910645,0.05913175642490387,0.5776166915893555,0.8181231021881104
-0.8277809023857117,6.664605140686035,6.674411773681641,0.03516838327050209,0.5279795527458191,0.7585899233818054
-1.0018776655197144,6.817086696624756,6.683557510375977,0.014870204962790012,0.4692841172218323,0.7076612114906311
-1.216034173965454,7.041988849639893,6.785742282867432,0.01302015595138073,0.43910738825798035,0.6965783834457397
-1.3775278329849243,6.9943156242370605,6.8241071701049805,0.06948155909776688,0.44224897027015686,0.7126004695892334
-1.384653091430664,6.917930603027344,6.71022891998291,0.14685200154781342,0.4940677881240845,0.7307170033454895
-1.3541316986083984,6.887467384338379,6.452163219451904,0.18505725264549255,0.5296899676322937,0.7282386422157288
-1.4247127771377563,6.960336685180664,6.384090900421143,0.14391985535621643,0.5168617963790894,0.7000515460968018
-1.5886101722717285,7.0333027839660645,6.446512699127197,0.08218755573034286,0.42205551266670227,0.6796486377716064
-1.6973069906234741,7.159726142883301,6.4289774894714355,0.06270968168973923,0.348594605922699,0.6849544644355774
-1.6490015983581543,7.212092399597168,6.071302890777588,0.0662352442741394,0.41235148906707764,0.7238054871559143
-0.22689370810985565,6.4606099128723145,6.812107086181641,-0.027488935738801956,0.6857224106788635,1.0120640993118286
-0.14805743098258972,6.363625526428223,6.700297832489014,0.09440486133098602,1.0157816410064697,1.11624276638031
0.15544115006923676,6.1589884757995605,7.008306980133057,0.10515608638525009,1.09685218334198,1.2179605960845947
0.8927307724952698,6.0222601890563965,7.211392879486084,0.06000442057847977,1.0246827602386475,1.2358676195144653
1.478055715560913,6.052886486053467,7.490872859954834,0.05002113804221153,0.8936783671379089,1.1563678979873657
1.751329779624939,6.050281524658203,7.503198146820068,0.07906341552734375,0.7089701890945435,1.0212968587875366
1.8342170715332031,6.421114921569824,7.108231544494629,0.09344492852687836,0.5026024580001831,0.8476715087890625
1.7302703857421875,6.8510942459106445,6.780245304107666,0.044575709849596024,0.338785856962204,0.7242767214775085
1.5338979959487915,6.994143009185791,6.561951160430908,-0.022916173562407494,0.2782927453517914,0.6729291677474976
1.4082982540130615,7.067405700683594,6.775954723358154,-0.019163714721798897,0.3635346293449402,0.6854431629180908
1.4529356956481934,7.005348205566406,7.203817844390869,0.06099925562739372,0.505168080329895,0.7335793375968933
1.5050239562988281,6.899868965148926,7.366441249847412,0.11726867407560349,0.5781926512718201,0.7554482817649841
1.650227427482605,6.672774314880371,7.634841442108154,0.21305234730243683,0.6835756301879883,0.7805635929107666
1.724782943725586,6.6783671379089355,7.659261703491211,0.24172809720039368,0.6645515561103821,0.7760955691337585
1.8862383365631104,6.796027660369873,7.435873508453369,0.1506219208240509,0.5463753342628479,0.7763398885726929
1.8333455324172974,6.9810709953308105,6.146930694580078,-0.009267698042094707,0.3621034622192383,0.7593927383422852
2.1264150142669678,6.666453838348389,6.224598407745361,-0.21992893517017365,0.33564427495002747,0.7360751628875732
2.412187099456787,6.3361592292785645,6.725858211517334,-0.23368212580680847,0.372121661901474,0.7187615036964417
2.5384092330932617,6.371459007263184,7.677994251251221,-0.10101965814828873,0.3422241508960724,0.6435378193855286
2.272423028945923,6.554203510284424,6.825121879577637,-0.05324999615550041,0.2623229920864105,0.6113713979721069
1.8832215070724487,6.56575345993042,7.085630416870117,-0.17125169932842255,0.25647613406181335,0.5209458470344543
1.6357089281082153,6.605363368988037,7.414287090301514,-0.11033971607685089,0.14234904944896698,0.5270021557807922
1.6529759168624878,6.5118937492370605,7.0170698165893555,0.011903145350515842,0.12601277232170105,0.5572836399078369
1.7272346019744873,6.468510627746582,6.558905601501465,0.04084070399403572,0.21181315183639526,0.5792573094367981
1.693390130996704,6.545709133148193,6.4750800132751465,-0.009773843921720982,0.27434831857681274,0.6170088052749634
1.943900227546692,6.5233378410339355,6.466738700866699,-0.07730063050985336,0.2569648325443268,0.6727545857429504
2.4028878211975098,6.461423873901367,6.535164833068848,-0.15215779840946198,0.2608918249607086,0.6821095943450928
2.639051914215088,6.394108295440674,6.890751838684082,-0.15919147431850433,0.2912431061267853,0.6204470992088318
2.6564242839813232,6.5493388175964355,7.044564723968506,-0.12753120064735413,0.2727600634098053,0.5382246375083923
2.652660608291626,6.673492908477783,6.9153642654418945,-0.1341983675956726,0.25359633564949036,0.47661450505256653
2.672982692718506,6.528834819793701,6.875448226928711,-0.13350023329257965,0.2375916689634323,0.39899972081184387
2.6249260902404785,6.682063579559326,6.831318378448486,-0.12431979924440384,0.2310292273759842,0.3219434320926666
2.551203966140747,6.81998872756958,6.867854118347168,-0.10157816112041473,0.27487191557884216,0.2687807083129883
2.2970259189605713,6.730148792266846,7.297153472900391,0.012252211570739746,0.37233108282089233,0.22732913494110107
2.2822296619415283,6.654635906219482,7.312735080718994,0.0867079570889473,0.3073001205921173,0.20575685799121857
2.275707721710205,6.540259838104248,6.982181549072266,0.11063642054796219,0.21938788890838623,0.1857903003692627
2.188693046569824,6.60451078414917,6.634974479675293,0.023527037352323532,0.16941910982131958,0.1736951619386673
2.2952253818511963,6.518826961517334,6.742617607116699,0.02617993950843811,0.14076080918312073,0.1825788915157318
2.4361767768859863,6.5026421546936035,6.635481834411621,0.06389650702476501,0.09470156580209732,0.14840534329414368
2.292064905166626,6.6387481689453125,6.14879846572876,0.03783873841166496,0.05145230516791344,0.11154399067163467
2.020055055618286,7.113508224487305,5.160788059234619,-0.006544984877109528,0.13522811233997345,0.10005972534418106
2.211169719696045,6.837887763977051,5.966772079467773,-0.1722290962934494,0.2848202884197235,0.13805554807186127
2.468374013900757,6.629218578338623,6.920689105987549,-0.19161969423294067,-0.07386233657598495,0.030805060639977455
2.6677920818328857,6.538210391998291,6.444606781005859,-0.08510225266218185,0.030229102820158005,-0.05996951460838318
2.5352871417999268,6.622572898864746,6.340947151184082,-0.023806290701031685,0.15997688472270966,-0.0915774255990982
2.1368536949157715,6.672027111053467,6.4962544441223145,0.04398229718208313,0.32625439763069153,-0.10047860443592072
2.0051534175872803,6.805317401885986,6.722650527954102,0.023369958624243736,0.2782403826713562,-0.08941321820020676
2.203939199447632,6.8062849044799805,6.741008758544922,-0.009651671163737774,0.15339699387550354,-0.09567894786596298
2.2555007934570312,6.9791460037231445,6.79376745223999,0.1174955666065216,0.1446179747581482,-0.0956265926361084
2.391568183898926,7.003959655761719,6.710957050323486,0.14880676567554474,0.08475318551063538,-0.12100367993116379
2.4522945880889893,7.12836217880249,6.425893783569336,0.1506044566631317,0.047542769461870193,-0.15402530133724213
2.393541097640991,7.48224401473999,6.79807710647583,0.12725195288658142,0.07504915446043015,-0.28560566902160645
2.1820082664489746,7.177289962768555,7.329666614532471,0.052691489458084106,-0.007923794910311699,-0.3787015378475189
1.8079956769943237,7.174742698669434,7.593076705932617,0.006771877408027649,-0.1857728511095047,-0.4383743405342102
1.083213448524475,6.899093151092529,7.433814525604248,0.15039502084255219,-0.26111871004104614,-0.5046270489692688
0.9513312578201294,6.927315711975098,7.161517143249512,0.2627243995666504,-0.09829694032669067,-0.4412890374660492
0.9572018384933472,6.837696075439453,6.993607044219971,0.3156951665878296,0.054541539400815964,-0.37229618430137634
0.49522626399993896,6.39128303527832,7.636536121368408,0.10702358931303024,-0.46038293838500977,-0.4196469783782959
0.16341862082481384,6.482923984527588,7.203712463378906,0.17112953960895538,-0.5026024580001831,-0.45055675506591797
-0.2594261169433594,6.438975811004639,6.630837440490723,0.250542014837265,-0.35208526253700256,-0.3940429985523224
-0.8012435436248779,6.890685081481934,6.128466606140137,0.09925687313079834,-0.14386749267578125,-0.45322710275650024
-0.7939364910125732,6.716722011566162,6.212311744689941,0.08414231985807419,-0.058311451226472855,-0.3903428912162781
-0.678057074546814,6.612057209014893,6.204832553863525,0.06059783324599266,-0.004939281847327948,-0.36744415760040283
-0.5927756428718567,7.136569499969482,6.498868942260742,-0.08861036598682404,-0.041521381586790085,-0.28122490644454956
-0.38661569356918335,7.070489406585693,6.764567852020264,-0.10142108052968979,0.045605454593896866,-0.28389525413513184
-0.38748717308044434,7.079501152038574,6.985208034515381,-0.06161012127995491,0.056758105754852295,-0.3036523759365082
-0.43969038128852844,6.992247104644775,7.07033634185791,-0.06038839370012283,-0.011170106939971447,-0.3350508511066437
-0.602170467376709,7.018401145935059,6.986788272857666,-0.0636696144938469,-0.1422443389892578,-0.3592236638069153
-0.6414257884025574,6.923810958862305,6.655688762664795,-0.044366270303726196,-0.20903807878494263,-0.3663446009159088
-0.9453936219215393,7.023658752441406,6.181608200073242,-0.15674802660942078,-0.18441148102283478,-0.2359161525964737
-0.7554664015769958,6.947149753570557,6.478565692901611,-0.15423475205898285,-0.2001892626285553,-0.2336123138666153
-0.9295631647109985,6.99837589263916,6.518233299255371,-0.1638864129781723,-0.2500882148742676,-0.2499835044145584
-1.1165215969085693,7.164294242858887,6.497719764709473,-0.22067943215370178,-0.32471850514411926,-0.22717206180095673
-0.9737793207168579,7.2262654304504395,6.535691738128662,-0.27349308133125305,-0.3833790123462677,-0.1918465942144394
-0.7124569416046143,7.185123920440674,6.687541484832764,-0.2526015043258667,-0.3680550456047058,-0.1944296807050705
-0.6814376711845398,7.146691799163818,6.770112991333008,-0.20628046989440918,-0.3511602580547333,-0.20629791915416718
-0.7443381547927856,7.175623416900635,6.727658748626709,-0.09464920312166214,-0.32960543036460876,-0.2349911332130432
-0.85969078540802,7.367130756378174,6.459776401519775,-0.062029000371694565,-0.30944687128067017,-0.22739894688129425
-0.9222560524940491,7.277750492095947,6.598860263824463,-0.09428268671035767,-0.2989574372768402,-0.19678586721420288
-0.9511972069740295,7.162139415740967,6.904915809631348,-0.09817477315664291,-0.3598170876502991,-0.1869247555732727
-1.1259355545043945,7.100130081176758,6.487424850463867,0.066252700984478,-0.22738149762153625,-0.0757298395037651
-0.9951451420783997,7.118833065032959,6.7024431228637695,0.008796459063887596,-0.27958428859710693,-0.08386307209730148
-0.8637800812721252,7.170404434204102,6.617056369781494,0.012095131911337376,-0.29222047328948975,-0.08431685715913773
-0.653272271156311,7.268173694610596,6.6726975440979,0.05841616913676262,-0.19561649858951569,-0.07531096041202545
-0.24539610743522644,7.561444282531738,6.697127819061279,0.1402546614408493,-0.10552260279655457,-0.08848819136619568
-0.651107907295227,6.950272083282471,7.59609317779541,-0.060440752655267715,-0.19392353296279907,-0.005846852902323008
-0.45535799860954285,6.7344584465026855,7.273613452911377,-0.039095375686883926,-0.30401891469955444,0.036302849650382996
-0.1997530311346054,6.551053047180176,6.78245735168457,0.03525565192103386,-0.21523399651050568,0.045553091913461685
0.004357446916401386,6.687551498413086,6.619143962860107,0.041573744267225266,-0.01975712738931179,0.02710496261715889
0.0051714759320020676,6.635166168212891,6.5587334632873535,-0.0008028514566831291,-0.07168067246675491,0.034033920615911484
0.10115981101989746,6.6043381690979,6.589216709136963,-0.06400122493505478,-0.05735151842236519,0.05094616115093231
0.2742893397808075,6.516308307647705,7.183887958526611,-0.058485984802246094,-0.004084070213139057,0.0676838681101799
0.5063928365707397,6.33854341506958,7.56384801864624,0.02869321219623089,-0.01961750164628029,0.061540309339761734
0.683477520942688,6.2704620361328125,7.362371444702148,0.11793189495801926,-0.04878195375204086,0.028675759211182594
0.6570838689804077,6.438889503479004,6.984528064727783,0.13845697045326233,-0.069725900888443,-0.008918632753193378
0.4848545789718628,6.72847318649292,6.7727556228637695,0.07004006206989288,-0.11220721900463104,-0.0005410520825535059
0.5560006499290466,6.696581840515137,6.624640941619873,-0.006352998316287994,-0.14570008218288422,0.02050761878490448
0.4492192566394806,6.674105644226074,6.496350288391113,-0.024958208203315735,0.1255938857793808,0.10356783866882324
0.9520208239555359,6.43726110458374,7.45210599899292,-1.7453292457503267e-05,-0.09567894786596298,0.030089477077126503
0.6602442264556885,6.600900173187256,6.723119735717773,-0.06204645335674286,-0.18039722740650177,-0.017994344234466553
0.6513856649398804,6.536323547363281,6.779296875,-0.06951646506786346,-0.07386233657598495,0.0012740903766825795
0.7222157716751099,6.373843669891357,7.016323089599609,-0.043022364377975464,-0.034697145223617554,-0.008656833320856094
1.1685811281204224,6.6171040534973145,6.6808953285217285,-0.0590444877743721,-0.12461651116609573,-0.014852751977741718
1.4624167680740356,6.425549030303955,6.586391448974609,-0.011397000402212143,-0.09798278659582138,-0.029356438666582108
1.4571493864059448,6.295266151428223,6.493956089019775,-0.017348572611808777,-0.05504768341779709,-0.04928809776902199
1.4101942777633667,6.2982635498046875,6.558091640472412,-0.04445353522896767,-0.051487211138010025,-0.053529247641563416
1.2615623474121094,6.365645885467529,6.951784610748291,-0.09262461960315704,-0.09307841211557388,-0.03881612420082092
1.3712455034255981,6.4087605476379395,6.980400562286377,-0.11159635335206985,-0.17652259767055511,-0.005166174378246069
1.7479875087738037,6.16586446762085,6.767479419708252,-0.18610446155071259,-0.17833773791790009,-0.02975786291062832
1.6947308778762817,6.078945159912109,7.109237194061279,-0.2572266161441803,-0.2272593230009079,-0.11047933995723724
1.4516714811325073,6.0964035987854,7.462343692779541,-0.29475119709968567,-0.3112794756889343,-0.18767525255680084
1.3808605670928955,6.7333478927612305,7.324858665466309,-0.2027548998594284,-0.31091296672821045,-0.22027800977230072
1.6859776973724365,6.6900506019592285,7.202869415283203,-0.18791960179805756,-0.2134537696838379,-0.22490312159061432
1.7330477237701416,6.781892776489258,7.784229278564453,-0.16119861602783203,-0.19449949264526367,-0.35552355647087097
1.3687554597854614,6.988339424133301,7.95734977722168,-0.0858527421951294,-0.24502676725387573,-0.37974873185157776
1.177803635597229,7.004457473754883,7.658639430999756,0.010663961991667747,-0.2324080467224121,-0.33534756302833557
1.2329851388931274,6.975037574768066,7.289175987243652,0.04717624932527542,-0.1457175314426422,-0.2816612422466278
1.359916090965271,6.73182487487793,7.240439414978027,0.008848818950355053,-0.1258731484413147,-0.2623753547668457
1.3494486808776855,6.3911967277526855,7.419286251068115,-0.0434936061501503,-0.200468510389328,-0.3001093566417694
1.2566590309143066,6.3955159187316895,7.360273838043213,-0.04211479425430298,-0.2857103943824768,-0.3430444598197937
1.1270751953125,6.469161510467529,7.054869651794434,-0.011658798903226852,-0.24322907626628876,-0.347425252199173
0.9765852689743042,6.445047378540039,6.946249485015869,0.0360061414539814,-0.14152875542640686,-0.32677799463272095
0.957326352596283,6.46659517288208,6.87370491027832,0.07675957679748535,-0.06909758597612381,-0.312239408493042
1.0101041793823242,6.5830397605896,6.773043632507324,0.07150614261627197,-0.06867870688438416,-0.31382766366004944
1.0303494930267334,6.6413044929504395,6.610506057739258,0.0070685832761228085,-0.1085943877696991,-0.3102497160434723
1.1111490726470947,6.557690143585205,6.82623291015625,-0.039043016731739044,-0.10278243571519852,-0.30972611904144287
1.0931541919708252,6.561462879180908,7.23689603805542,0.033056534826755524,-0.0829380452632904,-0.322048157453537
1.013934850692749,6.6990814208984375,7.2494988441467285,0.15166911482810974,-0.07513642311096191,-0.3119426965713501
1.0696526765823364,6.881941318511963,6.830264568328857,0.19999727606773376,-0.0700051560997963,-0.28185322880744934
1.1884721517562866,6.961323261260986,6.7000298500061035,0.15720181167125702,-0.06761405616998672,-0.26803022623062134
1.2605376243591309,6.910633087158203,7.026732921600342,0.10391690582036972,-0.10344566404819489,-0.28110271692276
1.1896405220031738,6.974012851715088,7.556387901306152,0.14411184191703796,-0.19217820465564728,-0.31520646810531616
1.1121258735656738,7.3372802734375,7.5295729637146,0.2811201810836792,-0.2485872507095337,-0.3228859007358551
1.1612164974212646,7.288515090942383,6.899898052215576,0.11653563380241394,-0.15432201325893402,-0.2854835093021393
1.039868950843811,6.944248199462891,7.638327121734619,0.002775073517113924,-0.43327799439430237,-0.37809067964553833
1.0270358324050903,6.92037296295166,7.54435920715332,0.0982271283864975,-0.6347936987876892,-0.48687705397605896
0.8833167552947998,7.092822551727295,6.587521553039551,0.2600366175174713,-0.4305378198623657,-0.5172806978225708
0.5854780673980713,7.07724142074585,6.4513773918151855,0.2958507537841797,-0.1575508713722229,-0.5016425251960754
0.374960720539093,6.979011535644531,7.015556812286377,0.20804324746131897,-0.17207200825214386,-0.4701218903064728
0.4215039908885956,6.726988315582275,7.500239372253418,0.09306095540523529,-0.4366639256477356,-0.4746073782444
0.5727217793464661,6.615189075469971,7.56649112701416,0.06558947265148163,-0.6255608797073364,-0.516303300857544
0.42026859521865845,6.408799171447754,7.46270751953125,0.16730725765228271,-0.5723457932472229,-0.5561317205429077
0.021710621193051338,6.391522407531738,7.250485420227051,0.30087730288505554,-0.439037561416626,-0.5530075430870056
-0.2996487021446228,6.489224910736084,7.021322250366211,0.31148889660835266,-0.43333035707473755,-0.5019392371177673
-0.2650189697742462,6.454346179962158,6.703458309173584,0.21724113821983337,-0.5537580847740173,-0.45638614892959595
-0.008868123404681683,6.371382236480713,6.580233573913574,0.09965830296278,-0.6523517370223999,-0.4714657962322235
0.0998765155673027,6.1685261726379395,6.6007280349731445,0.07881906628608704,-0.6836803555488586,-0.5187816619873047
0.16315048933029175,6.0740132331848145,6.531554698944092,0.14069099724292755,-0.6129945516586304,-0.5863957405090332
0.036698322743177414,6.192631244659424,6.471316337585449,0.21249383687973022,-0.517210841178894,-0.6607990860939026
-0.25413015484809875,6.43052864074707,6.457037448883057,0.2059663087129593,-0.5138598084449768,-0.6999817490577698
-0.40809646248817444,6.550449848175049,6.354307174682617,0.14625859260559082,-0.5730090737342834,-0.7086560130119324
-0.31484711170196533,6.55246114730835,6.292125225067139,0.07321656495332718,-0.6016498804092407,-0.7063347697257996
-0.3439701795578003,6.45432710647583,6.727764129638672,-0.023945916444063187,-0.6061528325080872,-0.7803018093109131
-0.5165920853614807,6.622725486755371,6.894630432128906,-0.05204571783542633,-0.6405183672904968,-0.7959923148155212
-0.6638834476470947,6.723234176635742,6.826903343200684,-0.10798352211713791,-0.6717597842216492,-0.7742455005645752
-0.6725121140480042,6.713963985443115,6.8319597244262695,-0.18708184361457825,-0.6686356067657471,-0.7420092821121216
-0.6179434657096863,6.65048885345459,7.3315911293029785,-0.2310292273759842,-0.6602580547332764,-0.720681369304657
-0.5060672163963318,6.543525218963623,7.826224327087402,-0.20148080587387085,-0.7205417156219482,-0.7294603586196899
-0.3326120972633362,6.3261895179748535,7.044546127319336,-0.007417649496346712,-0.7412588000297546,-0.8908684253692627
-0.46164995431900024,6.359344005584717,7.20729398727417,-0.028763025999069214,-0.7746469378471375,-0.945270299911499
-0.603913426399231,6.487405776977539,7.279043674468994,-0.03963642567396164,-0.8378627300262451,-0.9814335703849792
-0.7294175028800964,6.564029693603516,7.215089797973633,-0.023439772427082062,-0.8291710019111633,-1.0032151937484741
-0.8119217157363892,6.662517547607422,7.143924236297607,-0.0007853981805965304,-0.7822391390800476,-1.001626968383789
-0.8552184700965881,6.749341011047363,7.188868045806885,-0.014870204962790012,-0.7826754450798035,-0.9887639284133911
-0.8934682011604309,6.773282527923584,7.376056671142578,-0.043964844197034836,-0.8559792637825012,-0.9811368584632874
-0.9590884447097778,6.842389106750488,7.516299247741699,-0.045692719519138336,-0.9318313002586365,-0.9742951393127441
-1.0579115152359009,6.347134113311768,7.1082987785339355,0.07291985303163528,-1.0409841537475586,-0.9199455976486206
-0.8991664052009583,6.200101375579834,7.066505432128906,0.0696909949183464,-1.039675235748291,-0.8933293223381042
-0.6606560349464417,6.053432464599609,7.102121353149414,0.08862782269716263,-1.0133556127548218,-0.9061400294303894
-0.56903475522995,6.099860668182373,7.35488224029541,0.09136798232793808,-1.0578440427780151,-0.9524435997009277
-0.4324694573879242,6.37901496887207,7.342355728149414,0.11594222486019135,-1.1519696712493896,-1.006479024887085
-0.4833797514438629,6.524027347564697,6.851065635681152,0.12175416946411133,-1.1019484996795654,-1.044509768486023
-0.7403063178062439,6.829919815063477,6.693086624145508,0.07501424849033356,-1.0104409456253052,-1.0480352640151978
-1.0175070762634277,6.8675665855407715,6.781557083129883,-0.015690509229898453,-0.975272536277771,-1.0006844997406006
-1.008763313293457,6.898279190063477,7.179042339324951,-0.08108799904584885,-1.0066709518432617,-0.967628002166748
-1.0183401107788086,6.843815803527832,7.316067218780518,-0.04487241432070732,-1.0171430110931396,-0.9182700514793396
-1.0118374824523926,6.848814964294434,7.13791036605835,0.021013764664530754,-0.9474520087242126,-0.8572009801864624
-1.0215579271316528,6.798163414001465,6.930055141448975,0.045867253094911575,-0.8622450232505798,-0.75916588306427
-0.8735484480857849,6.690816879272461,7.056497573852539,0.017592918127775192,-0.8223642110824585,-0.6741857528686523
-0.05384080857038498,6.5445404052734375,5.55257511138916,-0.009738937020301819,-0.7818202376365662,-0.6300289630889893
0.043421242386102676,6.7137532234191895,5.605371952056885,-0.1900663524866104,-0.8055916428565979,-0.6102020144462585
0.1627003699541092,6.585251808166504,5.958698749542236,-0.36674603819847107,-0.8043349981307983,-0.5903576016426086
0.3267798125743866,6.482023239135742,6.589618682861328,-0.4070456922054291,-0.7910006642341614,-0.5938308238983154
0.395799845457077,6.369946002960205,6.934891700744629,-0.36276668310165405,-0.7585899233818054,-0.609329342842102
0.34647926688194275,6.321142673492432,7.041816234588623,-0.3016103506088257,-0.7283259034156799,-0.6366437673568726
0.2918531894683838,6.360435962677002,6.948950290679932,-0.2693566679954529,-0.7151486873626709,-0.650379478931427
0.283607542514801,6.674325466156006,6.929403781890869,-0.31667253375053406,-0.7232120633125305,-0.6518979072570801
0.3145502209663391,6.704779624938965,7.120863437652588,-0.3332357108592987,-0.7122164964675903,-0.6080378293991089
0.640506386756897,6.5084075927734375,7.159898281097412,-0.24961699545383453,-0.6367484927177429,-0.5877570509910583
0.9127846360206604,6.468596458435059,7.0221266746521,-0.16468927264213562,-0.5102644562721252,-0.5921029448509216
0.6103394627571106,6.157608985900879,8.425741195678711,-0.03291691094636917,-0.28094565868377686,-0.6498907804489136
0.5605783462524414,6.49567985534668,8.249844551086426,-0.003455751808360219,-0.3848101794719696,-0.6237457394599915
0.6360628008842468,6.483785629272461,8.018746376037598,-0.03808308392763138,-0.4977329969406128,-0.6002711057662964
0.7587704062461853,6.451818466186523,7.9479451179504395,-0.047630034387111664,-0.5616469383239746,-0.6022433042526245
1.0821503400802612,6.339568138122559,7.7360968589782715,-0.04885176569223404,-0.5837602615356445,-0.6423859000205994
1.090309977531433,6.461366176605225,7.797944068908691,0.011658798903226852,-0.5593430995941162,-0.7007846236228943
0.946504533290863,6.637646675109863,7.707596302032471,0.07407177239656448,-0.5800776481628418,-0.735673725605011
0.9392166137695312,6.711426258087158,7.589322090148926,0.08169886469841003,-0.5781403183937073,-0.7502297759056091
0.6359765529632568,6.640136241912842,7.6803789138793945,0.07609635591506958,-0.5599190592765808,-0.7738615274429321
0.3242132365703583,6.608676910400391,7.87214469909668,0.07705628871917725,-0.5911080837249756,-0.7548549175262451
0.15752890706062317,6.6135993003845215,7.925870418548584,0.1278977245092392,-0.6191206574440002,-0.688933789730072
0.30711862444877625,6.491954803466797,7.677275657653809,0.2218138873577118,-0.5630257725715637,-0.6062924861907959
0.5361000895500183,6.363156318664551,7.295228481292725,0.25790730118751526,-0.5342976450920105,-0.5794667601585388
0.7580617070198059,6.258520126342773,7.0629048347473145,0.27399924397468567,-0.43076470494270325,-0.5718396902084351
0.8564442992210388,6.070374011993408,7.114666938781738,0.2272593230009079,-0.44947463274002075,-0.5698500275611877
1.1422736644744873,5.917872905731201,6.98314905166626,0.13199925422668457,-0.550773561000824,-0.6174625754356384
1.2947843074798584,5.886221885681152,6.994047164916992,0.07929030805826187,-0.5712811946868896,-0.699772298336029
1.1215877532958984,5.936796188354492,7.036807537078857,0.10431832820177078,-0.5344372391700745,-0.7829896211624146
0.7242268919944763,6.303530693054199,6.952215671539307,0.09646435081958771,-0.5256582498550415,-0.8144055604934692
0.487315833568573,6.458617687225342,7.022452354431152,0.05996951460838318,-0.5161113142967224,-0.7911053895950317
0.4915679097175598,6.5132341384887695,7.039767265319824,0.04888667166233063,-0.5006651282310486,-0.773163378238678
0.41095036268234253,6.598295211791992,7.132527828216553,0.0325503908097744,-0.441236674785614,-0.7315547466278076
0.4575127959251404,6.65773868560791,7.389205455780029,0.010768681764602661,-0.42158427834510803,-0.6990218162536621
0.38013219833374023,6.65479850769043,7.669404029846191,0.03047344833612442,-0.43167227506637573,-0.6690545082092285
0.27465322613716125,6.66635799407959,7.632571220397949,0.06778858602046967,-0.4531398415565491,-0.6276553273200989
0.5855355262756348,6.761120319366455,7.436563014984131,0.2197893112897873,-0.33484143018722534,-0.5430766344070435
0.6521230936050415,6.863745212554932,7.1333513259887695,0.24638812243938446,-0.28562313318252563,-0.5159891247749329
0.5340315103530884,6.605679035186768,6.9348530769348145,0.20725785195827484,-0.2483079880475998,-0.5054299235343933
0.29105833172798157,6.540997505187988,7.069982051849365,0.10739010572433472,-0.3355919122695923,-0.5196892619132996
0.1332804262638092,6.701188564300537,7.205101013183594,0.11494738608598709,-0.3955090641975403,-0.5070181488990784
0.19327911734580994,6.650651931762695,6.972413539886475,0.18648843467235565,-0.40194931626319885,-0.5013807415962219
0.22466230392456055,6.637407302856445,6.975228786468506,0.17259560525417328,-0.4213399291038513,-0.5211029648780823
0.12905704975128174,6.751715660095215,7.149182319641113,0.14583970606327057,-0.52297043800354,-0.5258327722549438
-0.03116292878985405,6.718111038208008,6.926406383514404,0.13323843479156494,-0.5802870392799377,-0.5013982057571411
-0.1592431515455246,6.556521415710449,6.743853569030762,0.18371336162090302,-0.48897144198417664,-0.48520153760910034
-0.28505364060401917,6.554021835327148,6.86665678024292,0.24448572099208832,-0.4029965102672577,-0.4937187433242798
-0.6678003072738647,6.515369415283203,6.804905414581299,0.0777718722820282,-0.4619886577129364,-0.4176747500896454
-0.5541045069694519,6.463798999786377,6.907281398773193,0.07470009475946426,-0.4750088155269623,-0.44884631037712097
-0.8561856746673584,6.783175945281982,7.023112773895264,0.08164650201797485,-0.47233846783638,-0.4807683825492859
-1.1583435535430908,7.058872699737549,7.07319974899292,0.09210102260112762,-0.4372922480106354,-0.4707152843475342
-1.02897047996521,7.130430698394775,7.060644626617432,0.1250004768371582,-0.36904987692832947,-0.4225791096687317
-0.8252047300338745,6.94488000869751,6.884891033172607,0.14587461948394775,-0.4341157376766205,-0.43535491824150085
-0.5218689441680908,6.9253339767456055,6.9052510261535645,0.04009021446108818,-0.5468465685844421,-0.48120471835136414
-1.1311548948287964,6.9564104080200195,6.6742682456970215,-0.004921828396618366,-0.5729043483734131,-0.6679898500442505
-1.329145908355713,6.828205585479736,6.294691562652588,0.0846659243106842,-0.3041585385799408,-0.6178290843963623
-1.4530601501464844,6.829747676849365,6.327271938323975,0.03783873841166496,-0.19081684947013855,-0.5639333128929138
-1.258018970489502,6.6408162117004395,6.709414958953857,-0.06426302343606949,-0.29801496863365173,-0.5506513714790344
-1.067124366760254,6.5977783203125,6.575636863708496,-0.008377579972147942,-0.4257207214832306,-0.6460859775543213
-1.2638990879058838,6.75662899017334,6.446234703063965,-0.009599311277270317,-0.3412991464138031,-0.6280393004417419
-1.196459174156189,6.717535972595215,6.686775207519531,-0.03769911080598831,-0.2863212525844574,-0.577738881111145
-1.066655158996582,6.58098030090332,7.123353481292725,-0.0017976891249418259,-0.3190810978412628,-0.580007791519165
-1.1519269943237305,6.744016170501709,7.076513290405273,0.017732545733451843,-0.3989124596118927,-0.6000267267227173
-1.2191466093063354,6.783491611480713,6.932487964630127,-0.009808750823140144,-0.4873831868171692,-0.6041631698608398
-1.147406816482544,6.83198881149292,6.81589937210083,-0.007941247895359993,-0.4544488191604614,-0.6010739207267761
-1.2926198244094849,6.876999378204346,7.033255100250244,0.05867796763777733,-0.34899604320526123,-0.568715512752533
-1.2984713315963745,6.951306343078613,6.9039387702941895,0.08251916617155075,-0.4006403386592865,-0.5584006309509277
-1.2843072414398193,6.9947943687438965,6.6779069900512695,0.07751007378101349,-0.42214277386665344,-0.547213077545166
-1.2111883163452148,7.0658063888549805,6.549616813659668,0.057246800512075424,-0.42441171407699585,-0.5318192839622498
-1.2833688259124756,7.1768975257873535,6.615629196166992,0.04344124346971512,-0.43481388688087463,-0.5182231664657593
-1.3930902481079102,7.241598129272461,6.479236125946045,0.07560766488313675,-0.48980918526649475,-0.46244242787361145
-1.3738216161727905,7.15458345413208,6.320864677429199,0.08103563636541367,-0.47537532448768616,-0.4179888963699341
-1.4071681499481201,7.008068084716797,6.361317157745361,0.06293657422065735,-0.4858472943305969,-0.39016833901405334
-1.2378981113433838,7.12299919128418,6.133150100708008,0.017819812521338463,-0.46530476212501526,-0.18154914677143097
-1.1858481168746948,7.064321994781494,6.325279712677002,0.0293738916516304,-0.4882034957408905,-0.2249729335308075
-1.3196361064910889,7.249556541442871,6.099315166473389,0.028902651742100716,-0.46734681725502014,-0.2361954003572464
-1.5123597383499146,7.519603729248047,6.052992343902588,0.015498523600399494,-0.40310123562812805,-0.22598522901535034
-1.6201180219650269,7.6877241134643555,6.2507243156433105,0.005462880712002516,-0.3508460819721222,-0.17776177823543549
-1.5542774200439453,7.7634196281433105,6.4630327224731445,0.016912240535020828,-0.3476695716381073,-0.10363765060901642
-1.2606620788574219,7.846363544464111,6.603888034820557,0.040020398795604706,-0.3615275025367737,-0.06082472577691078
-1.1544075012207031,8.198741912841797,6.645777225494385,0.0705636590719223,-0.36456435918807983,-0.03574434295296669
-1.2099720239639282,8.460524559020996,6.484494209289551,0.06820746511220932,-0.33691835403442383,0.03481931984424591
-1.2582391500473022,8.467467308044434,6.445621967315674,0.048520151525735855,-0.3059038519859314,0.08361872285604477
-1.2381852865219116,8.288286209106445,6.511194229125977,0.013456488028168678,-0.27953192591667175,0.1832072138786316
-0.9846298098564148,8.058691024780273,6.477847576141357,-0.016371188685297966,-0.25270622968673706,0.24015730619430542
-0.8413416147232056,7.721243381500244,6.354527473449707,-0.021938787773251534,-0.2047620266675949,0.2589021325111389
-0.7828752398490906,7.337164878845215,6.248579025268555,-0.028047440573573112,-0.11821115016937256,0.26021113991737366
-0.5484445691108704,7.193924903869629,6.687177658081055,0.03879866749048233,-0.013404129073023796,0.2687632441520691
-0.4754788875579834,7.083341121673584,6.433899879455566,0.09681341052055359,0.05553637817502022,0.2926393449306488
-0.4324694573879242,7.032594203948975,6.276524543762207,0.06873106211423874,0.12770573794841766,0.32016319036483765
-0.19536684453487396,6.91768217086792,6.633882999420166,0.02122320421040058,0.16317082941532135,0.3427826762199402
0.09969455748796463,6.670293807983398,6.847340106964111,0.058974675834178925,0.17594663798809052,0.3277553915977478
0.3473603427410126,6.481324195861816,6.5974812507629395,0.08552113175392151,0.22415263950824738,0.2695835530757904
0.2285313457250595,6.457841873168945,6.502211570739746,0.005323254037648439,0.28700193762779236,0.2096489518880844
-0.007287950254976749,6.532148361206055,6.89006233215332,-0.11021754145622253,0.27354544401168823,0.20011945068836212
-0.04360320419073105,6.322665691375732,7.376363277435303,-0.1935744732618332,0.18849556148052216,0.20877628028392792
0.09117120504379272,6.065020561218262,7.701648712158203,-0.18010053038597107,0.169960156083107,0.19879299402236938
0.09429324418306351,5.970430374145508,7.7961626052856445,-0.049323003739118576,0.21586231887340546,0.18596483767032623
-0.09732908755540848,6.091165065765381,7.617430686950684,0.09320057928562164,0.29883527755737305,0.20540779829025269
-0.34587594866752625,6.394692420959473,7.427732944488525,0.015341443940997124,0.2191784530878067,0.36763614416122437
0.5469123125076294,6.2220611572265625,6.903862953186035,0.06674139201641083,0.2833716571331024,0.5275606513023376
0.926584780216217,5.987180233001709,6.616318702697754,0.035150930285453796,0.3770958483219147,0.5030736923217773
-0.007335834205150604,6.6364970207214355,7.56595516204834,-0.10688396543264389,0.32360148429870605,0.30024898052215576
-0.12256397306919098,7.142995834350586,5.652738571166992,-0.11978194862604141,0.10892599821090698,0.3858923017978668
-0.18680518865585327,6.709721565246582,7.516471862792969,-0.08176867663860321,0.4499633312225342,0.43104395270347595
0.18371188640594482,6.971129894256592,7.2959370613098145,0.007138396613299847,0.46413540840148926,0.45608943700790405
0.4314734637737274,6.873475551605225,6.968180179595947,0.012252211570739746,0.43271946907043457,0.45547857880592346
0.5268393158912659,6.874912261962891,6.558139801025391,-0.04194026067852974,0.39884263277053833,0.4187219440937042
0.4628279209136963,6.985734939575195,6.5872344970703125,-0.12510520219802856,0.3871838450431824,0.39306560158729553
0.3941526412963867,7.092410564422607,6.795903205871582,-0.1520705372095108,0.3785095512866974,0.39814451336860657
0.35420775413513184,7.040983200073242,7.035256385803223,-0.09512044489383698,0.4401196837425232,0.42409756779670715
0.3530968725681305,6.772200584411621,7.0252580642700195,-0.011100294068455696,0.4492652118206024,0.4217413663864136
0.5673108696937561,6.75809383392334,6.596015930175781,0.015830136835575104,0.45663049817085266,0.5127777457237244
0.7166707515716553,6.838271141052246,6.559882640838623,0.05845107510685921,0.48862236738204956,0.49352675676345825
0.7388219237327576,6.936845302581787,6.402287006378174,0.051487211138010025,0.4865279793739319,0.4654967486858368
0.748322069644928,6.9620513916015625,6.430279731750488,0.013386675156652927,0.48665013909339905,0.4395611584186554
0.7740933299064636,7.051421642303467,6.624267578125,0.014276793226599693,0.4732285737991333,0.4185997545719147
0.8397518992424011,7.190199851989746,6.599099636077881,0.022270401939749718,0.4651477038860321,0.4145506024360657
0.8945503830909729,7.17434024810791,6.734650135040283,0.03562216833233833,0.49782025814056396,0.4026125371456146
0.9210972785949707,7.312897682189941,7.088024616241455,0.07417649030685425,0.5052553415298462,0.369276762008667
0.12456552684307098,6.7189249992370605,6.783788681030273,0.18900170922279358,0.2688156068325043,0.11974704265594482
0.3408002257347107,6.506942272186279,6.955031394958496,0.25614452362060547,0.2577327787876129,0.09107127785682678
0.24236024916172028,6.432377338409424,6.887304306030273,0.3502352237701416,0.2975611686706543,0.02546435408294201
-0.25998157262802124,6.500027656555176,6.687570095062256,0.3785444498062134,0.31986647844314575,-0.023003440350294113
-0.8113662004470825,6.723272800445557,6.3719282150268555,0.312309205532074,0.2807711064815521,0.005742133129388094
-1.0467833280563354,6.8064470291137695,6.009082317352295,0.15023794770240784,0.23382176458835602,0.09541714936494827
-1.0392847061157227,6.62975549697876,5.90156364440918,-0.05152212083339691,0.1912182718515396,0.14702653884887695
-0.9829538464546204,6.486141681671143,6.088158130645752,-0.2018822282552719,0.1607448309659958,0.13802063465118408
-0.974966824054718,6.452718257904053,6.2143707275390625,-0.24904103577136993,0.1950230896472931,0.09257226437330246
-1.1496381759643555,6.698688983917236,6.230785846710205,-0.2518160939216614,0.2794446647167206,0.0610690712928772
-1.319530725479126,6.861178874969482,6.327319622039795,-0.2257932424545288,0.37774160504341125,0.05916666239500046
-1.5281997919082642,6.855288982391357,6.430500030517578,-0.18771016597747803,0.4686034619808197,0.08051203936338425
-1.5435322523117065,6.812375545501709,6.6958160400390625,-0.19460421800613403,0.4449367821216583,0.0757647454738617
-1.6434662342071533,6.817451000213623,6.786479473114014,-0.16051793098449707,0.39793506264686584,0.07040657848119736
-1.3847678899765015,6.889410972595215,6.347746849060059,-0.10934487730264664,0.5473527312278748,0.14997614920139313
-1.6431214809417725,7.001163005828857,6.600584506988525,-0.17364279925823212,0.5021835565567017,0.16814501583576202
-1.739828109741211,6.870736122131348,6.980898380279541,-0.2163161039352417,0.4208337962627411,0.20830504596233368
-1.5757007598876953,6.682772636413574,7.205752372741699,-0.1716531366109848,0.36536723375320435,0.21108011901378632
-1.587202548980713,6.869998931884766,7.2232489585876465,-0.07960446923971176,0.35522687435150146,0.1722639948129654
-1.8076318502426147,7.312284469604492,7.00413179397583,-0.029164452105760574,0.3370405435562134,0.15545648336410522
-2.2030391693115234,7.657049655914307,6.436830520629883,-0.10634291172027588,0.3776892423629761,0.20172515511512756
-2.71258282661438,6.84329891204834,6.951813697814941,-0.22544418275356293,0.40596356987953186,0.28127726912498474
-2.6387741565704346,7.254699230194092,7.461979389190674,-0.2681174874305725,0.28183576464653015,0.37718310952186584
-2.4538843631744385,7.1322021484375,7.466289043426514,-0.2459518015384674,0.2462484985589981,0.4364544749259949
-1.9910372495651245,6.639159679412842,7.274158954620361,-0.17955946922302246,0.2977880835533142,0.4571017324924469
-2.0743460655212402,6.621767997741699,7.227309703826904,-0.1373574137687683,0.3586651682853699,0.47661450505256653
-2.1129977703094482,6.469497203826904,7.178678512573242,-0.10379473119974136,0.36102133989334106,0.5373519659042358
-1.9200636148452759,6.398437023162842,7.021360397338867,-0.09601055830717087,0.3137403726577759,0.573201060295105
-1.6579272747039795,6.482129096984863,6.811130523681641,-0.11627383530139923,0.24843016266822815,0.5711938738822937
-1.3737354278564453,6.490642547607422,6.726778030395508,-0.13761921226978302,0.17462019622325897,0.5400572419166565
-1.1715307235717773,6.55488395690918,6.427608013153076,-0.11922343820333481,0.12498302757740021,0.48488736152648926
-1.2582488059997559,6.814510822296143,6.102590560913086,-0.1094321459531784,0.17978636920452118,0.43933427333831787
-1.4655100107192993,6.920458793640137,6.29467248916626,-0.12674580514431,0.21821852028369904,0.43917718529701233
-1.494594693183899,6.83727502822876,6.323824405670166,-0.135402649641037,0.27000242471694946,0.45961499214172363
-1.6371837854385376,6.532177448272705,6.702328205108643,-0.1471836119890213,0.26284658908843994,0.4591088593006134
-1.7481502294540405,6.5671610832214355,6.9104228019714355,-0.14737559854984283,0.19689059257507324,0.4533318281173706
-1.7679839134216309,6.683605670928955,7.097658634185791,-0.12952087819576263,0.17702874541282654,0.45959755778312683
-1.7234996557235718,6.682629108428955,7.293591022491455,-0.03972369432449341,0.1866455078125,0.4653920531272888
-1.7527759075164795,6.8488054275512695,7.078457355499268,0.04358087107539177,0.2480287402868271,0.47225117683410645
-1.8105911016464233,7.018200397491455,7.079730987548828,0.059061940759420395,0.26509806513786316,0.5042605400085449
-1.519513726234436,6.976435661315918,7.202266216278076,0.06143558770418167,0.22884756326675415,0.5123413801193237
-1.0974445343017578,7.1729230880737305,7.110213756561279,0.08799950033426285,0.2188642919063568,0.47277477383613586
-1.067430853843689,7.503638744354248,6.763504981994629,0.07932521402835846,0.2819928526878357,0.43106141686439514
-1.4208054542541504,7.27161169052124,6.769299030303955,-0.002286381321027875,0.39383354783058167,0.42954298853874207
-1.6539720296859741,7.136415958404541,7.419841766357422,-0.02471386268734932,0.3822794556617737,0.4643099308013916
-1.4634318351745605,7.03013277053833,7.463311195373535,0.045151665806770325,0.3491182029247284,0.5323952436447144
-1.2745389938354492,6.742675304412842,7.2024383544921875,0.09323548525571823,0.3753330409526825,0.5773898363113403
-1.299141764640808,6.6221418380737305,7.1060099601745605,0.062168627977371216,0.35320228338241577,0.6111270189285278
-1.1367383003234863,6.449720859527588,7.071379661560059,0.018709929659962654,0.32159435749053955,0.6705031394958496
-0.7164505124092102,6.130506992340088,7.029395580291748,0.03364994749426842,0.3430619239807129,0.6951995491981506
-0.43223002552986145,6.092984676361084,6.960087776184082,0.0518362782895565,0.3758566677570343,0.6799802780151367
0.06725791096687317,6.055817604064941,6.927881240844727,0.1016828790307045,0.44575709104537964,0.5984035730361938
0.3269425928592682,6.266573905944824,6.906965255737305,0.12292353808879852,0.4401196837425232,0.4545535445213318
0.09173622727394104,6.697376728057861,6.653390407562256,0.07508406043052673,0.39039525389671326,0.3340734839439392
-0.4358883798122406,7.250265121459961,7.203539848327637,-0.08375835418701172,0.3154333531856537,0.34576717019081116
-0.24304020404815674,6.826261520385742,7.528997898101807,-0.002286381321027875,0.3971496820449829,0.39385101199150085
-0.3071281909942627,6.539005279541016,7.731222152709961,0.10250318795442581,0.4115835428237915,0.3926118016242981
-0.5296165943145752,6.537454128265381,7.608696460723877,0.1497666984796524,0.31463050842285156,0.4193677008152008
-0.6967318654060364,6.679793834686279,6.485873222351074,0.08890707045793533,0.41900119185447693,0.5491678714752197
0.3094649314880371,6.157187461853027,7.0162272453308105,0.13973106443881989,0.23081979155540466,0.49293333292007446
0.3189842700958252,6.2242350578308105,6.737532615661621,0.13636256754398346,0.3122219443321228,0.4648858904838562
0.2501845061779022,6.392978191375732,6.704808712005615,0.1330638974905014,0.4192979037761688,0.4977329969406128
0.3548015356063843,6.2532429695129395,6.789065361022949,0.11852531135082245,0.42846086621284485,0.5383991599082947
0.8353943824768066,6.50341796875,6.755929470062256,-0.07504915446043015,0.2601413130760193,0.4755149483680725
0.829054594039917,6.590490341186523,6.8519368171691895,-0.07077310234308243,0.3266907334327698,0.5053077340126038
0.9352900981903076,6.71674108505249,7.014158725738525,-0.04057890549302101,0.39854592084884644,0.5428671836853027
0.8199470043182373,6.656551361083984,6.956094264984131,-0.23577652871608734,0.37053340673446655,0.5476145148277283
0.0603051520884037,6.625962734222412,4.700976371765137,-0.33890804648399353,0.5047317743301392,0.5325523018836975
-0.059366628527641296,6.21456241607666,7.743183612823486,-0.21820105612277985,0.4484274387359619,0.6181607246398926
0.8868889212608337,6.422235488891602,8.129530906677246,-0.06370452046394348,0.15098842978477478,0.5513843894004822
0.7954591512680054,6.72293758392334,6.070287704467773,0.010995574295520782,0.15575318038463593,0.48370054364204407
1.0343717336654663,6.880916595458984,6.440584659576416,-0.07016223669052124,0.5113116502761841,0.5655913949012756
1.0361722707748413,6.94061803817749,6.158968925476074,-0.11711159348487854,0.5329886674880981,0.49757590889930725
0.6873753070831299,7.152591228485107,6.309803485870361,-0.1762782484292984,0.6171135306358337,0.4980646073818207
0.6023619771003723,7.061334133148193,6.590548038482666,-0.1978505253791809,0.6669950485229492,0.5493249297142029
0.8376354575157166,6.864128589630127,6.812566757202148,-0.21464058756828308,0.699999213218689,0.5496739745140076
1.0151032209396362,6.895626544952393,7.0219831466674805,-0.19922932982444763,0.6388777494430542,0.453890323638916
0.8699475526809692,6.976617813110352,7.074665069580078,-0.15793484449386597,0.6275506019592285,0.4022983908653259
0.7626298666000366,7.001574516296387,6.8429155349731445,-0.057159531861543655,0.6927211880683899,0.3770434856414795
0.613854169845581,7.071361064910889,6.670121669769287,0.00890117883682251,0.8046317100524902,0.3744952976703644
0.675136148929596,6.978858470916748,6.59853458404541,0.011554080061614513,0.7754323482513428,0.37983599305152893
0.710407555103302,6.950434684753418,6.636564254760742,-0.0007853981805965304,0.7455523014068604,0.3562566041946411
0.591013491153717,7.043051719665527,6.788155555725098,0.009197885170578957,0.7569318413734436,0.3692942261695862
0.5341560244560242,7.014148712158203,6.933579444885254,0.05974261835217476,0.741887092590332,0.4092448055744171
0.722321093082428,7.095705032348633,6.913132667541504,0.09452702850103378,0.7164227366447449,0.4554611146450043
0.9516186118125916,7.053337574005127,6.96299934387207,0.12220795452594757,0.7190232872962952,0.48436376452445984
0.875061571598053,7.085486888885498,7.29998779296875,0.1385267823934555,0.6727197170257568,0.4697030186653137
1.0342568159103394,7.84283971786499,7.7624616622924805,0.17430603504180908,0.526391327381134,0.45581018924713135
1.0194127559661865,8.358723640441895,7.106048107147217,0.2030516117811203,0.5359207987785339,0.47076764702796936
0.7039144039154053,7.32572078704834,7.204171657562256,0.08143706619739532,0.6187715530395508,0.43388885259628296
0.07411490380764008,7.131723403930664,7.931750774383545,-0.03640756756067276,0.36742672324180603,0.29255208373069763
-0.3293847143650055,6.742378234863281,8.061190605163574,-0.013631021603941917,0.11370819807052612,0.1884082853794098
-0.5619286894798279,6.679736137390137,7.297172546386719,0.1292939931154251,0.17936748266220093,0.11363838613033295
-0.8995494246482849,6.539867401123047,6.88759183883667,0.18516197800636292,0.44427356123924255,0.10606365650892258
-1.1704102754592896,6.606291770935059,7.307323932647705,0.12973032891750336,0.4750088155269623,0.14767231047153473
-0.8276947140693665,6.323910236358643,7.415292739868164,0.005061454605311155,0.39618974924087524,0.1330464482307434
-0.7080132961273193,6.04792594909668,7.630215167999268,-0.05201081186532974,0.2998301088809967,0.03902556374669075
-2.5663063526153564,6.093904495239258,7.31027364730835,-0.07394959777593613,0.16667895019054413,0.31956979632377625
-0.7308923602104187,6.281897068023682,6.090590476989746,0.22614231705665588,0.434988409280777,0.13613568246364594
-0.7395880818367004,6.503484725952148,6.052034378051758,0.09405579417943954,0.4113740921020508,0.07562511414289474
-0.2715407609939575,6.5185112953186035,6.7777838706970215,-0.10279989242553711,0.19947367906570435,-0.1831723004579544
-1.1982213258743286,6.353598594665527,7.994316101074219,-0.23265238106250763,-0.22333233058452606,-0.4170813262462616
-1.468833088874817,6.36427640914917,8.035333633422852,-0.051574479788541794,-0.2778738737106323,-0.44978880882263184
-1.661777138710022,6.456903457641602,7.696056365966797,0.15048228204250336,-0.23153537511825562,-0.4744328558444977
-3.082257032394409,6.8961052894592285,6.537166595458984,0.08311257511377335,-0.24486969411373138,-0.29974284768104553
-2.8508718013763428,6.774843692779541,6.375749588012695,0.008639379404485226,-0.3505842983722687,-0.16348499059677124
-2.3834660053253174,6.4566731452941895,6.187277793884277,0.025045474991202354,-0.26202628016471863,-0.12178907543420792
-2.2735912799835205,6.422264099121094,6.207006454467773,0.05965535342693329,-0.1751437932252884,-0.11737339198589325
-2.341184616088867,6.579458236694336,6.228496551513672,0.05078908056020737,-0.1972920149564743,-0.10381218045949936
-2.2197601795196533,6.7976555824279785,6.0924391746521,0.029914943501353264,-0.266110360622406,-0.06705555319786072
-1.9831364154815674,6.8800835609436035,5.794245719909668,0.007714355364441872,-0.2399304062128067,-0.05094616115093231
-1.9919567108154297,6.891671180725098,5.829363822937012,-0.05129522830247879,-0.19207347929477692,-0.0570199079811573
-2.0642518997192383,6.970421314239502,5.94392204284668,-0.09754645079374313,-0.24548055231571198,-0.056094881147146225
-2.2159199714660645,7.017931938171387,6.519928455352783,-0.14493213593959808,-0.13238322734832764,0.01012290921062231
-2.38700008392334,6.929231643676758,6.804944038391113,-0.13217377662658691,-0.19540706276893616,0.038432151079177856
-2.5176944732666016,6.926779747009277,6.993300437927246,-0.0815243273973465,-0.25764551758766174,0.07251843065023422
-2.5886588096618652,7.026186943054199,7.012520790100098,0.020490165799856186,-0.24534092843532562,0.15700982511043549
-2.5209124088287354,6.865823268890381,6.813266277313232,0.1443038284778595,-0.21451841294765472,0.21872466802597046
-2.435650110244751,6.918352127075195,6.2942795753479,0.20573940873146057,-0.17900097370147705,0.24609142541885376
-2.403615713119507,7.06242561340332,5.866540908813477,0.16200146079063416,-0.14578735828399658,0.2698453664779663
-2.385477304458618,7.100024223327637,5.872239112854004,0.06326818466186523,-0.11688470095396042,0.2888519763946533
-2.2946794033050537,7.14785099029541,6.302151679992676,0.043650683015584946,-0.08878489583730698,0.2886599898338318
-2.350522041320801,7.149277687072754,6.444884300231934,0.14220942556858063,-0.03396410867571831,0.27930504083633423
-2.645219564437866,7.406041622161865,6.100856781005859,0.24361304938793182,0.10372491925954819,0.32707470655441284
-2.6966850757598877,7.529265880584717,6.210176467895508,0.1987755447626114,0.1540951132774353,0.40250784158706665
-2.419273614883423,7.954361915588379,6.596667289733887,0.14737559854984283,0.10421361029148102,0.45952773094177246
-2.3295774459838867,8.62964153289795,6.452315807342529,0.09035569429397583,0.10538297891616821,0.5593082308769226
-2.279050350189209,8.469852447509766,6.663714408874512,-0.026651177555322647,0.16468927264213562,0.7072947025299072
-1.9144803285598755,8.434867858886719,7.106747150421143,-0.16615533828735352,0.0696909949183464,0.8221548199653625
-1.571391224861145,8.323193550109863,7.242010116577148,-0.2272418737411499,-0.0008901178953237832,0.8862258195877075
-0.8046624660491943,7.783290863037109,7.18173360824585,-0.2620786428451538,-0.04806636646389961,0.9769480228424072
-0.1045212671160698,7.303234577178955,6.867796421051025,-0.24528856575489044,0.0685565322637558,1.0380171537399292
1.6872225999832153,5.969874858856201,6.86687707901001,-0.16606807708740234,0.27527332305908203,0.37807321548461914
1.7565492391586304,5.9297003746032715,7.329255104064941,-0.2373473197221756,0.19392353296279907,0.37946948409080505
1.9868043661117554,6.13726806640625,7.373096942901611,-0.153257355093956,0.28012534976005554,0.3274063169956207
1.9057174921035767,6.330384254455566,7.338410377502441,-0.1172163113951683,0.35646605491638184,0.2757096588611603
1.2574059963226318,6.895396709442139,7.314314842224121,-0.0619242824614048,0.5345245599746704,0.2263692021369934
0.4343656599521637,7.224043846130371,7.354183197021484,0.025272367522120476,0.7469136714935303,0.28241172432899475
0.34193986654281616,7.125929832458496,7.140745162963867,0.05489060655236244,0.5913175344467163,0.6429967284202576
1.3108924627304077,6.441437244415283,6.471354961395264,-0.07134906202554703,0.4708723723888397,0.6436948776245117
1.9623547792434692,6.070019721984863,6.607144355773926,-0.20977112650871277,0.2537010610103607,0.5525363087654114
1.867247462272644,6.278669357299805,7.024089813232422,-0.2143264263868332,-0.103131502866745,0.22933626174926758
1.5971049070358276,6.216678619384766,7.229752063751221,-0.10841985046863556,0.09745918214321136,0.23116885125637054
1.4177982807159424,6.434579849243164,7.11151647567749,0.08674286305904388,0.28677505254745483,0.2344849854707718
1.3796826601028442,6.570781230926514,6.668368816375732,0.15875515341758728,0.3767991364002228,0.23486895859241486
1.334585428237915,6.617362976074219,6.325394630432129,0.06108652427792549,0.34543555974960327,0.21699678897857666
1.5538561344146729,6.738509178161621,6.256164073944092,-0.15713198482990265,0.20443041622638702,0.21591468155384064
1.77349054813385,6.701628684997559,6.30355978012085,-0.1667487621307373,0.29253464937210083,0.21350613236427307
1.9206956624984741,6.805996894836426,6.5457763671875,-0.1584060788154602,0.3956835865974426,0.17905332148075104
1.8644126653671265,6.760832786560059,7.074904441833496,-0.1310393214225769,0.4044102430343628,0.14238396286964417
1.8235868215560913,6.797790050506592,7.168326377868652,-0.10461503267288208,0.36070719361305237,0.13056808710098267
1.8583601713180542,6.805853366851807,7.090227127075195,-0.08333947509527206,0.29914942383766174,0.11287043988704681
1.8890442848205566,6.754818916320801,6.985897541046143,-0.07637561112642288,0.2977880835533142,0.08452629297971725
1.7436683177947998,6.838079452514648,7.354547023773193,-0.06705555319786072,0.3334975242614746,0.058136917650699615
1.5693705081939697,6.816799640655518,7.7087836265563965,0.01864011585712433,0.2914350628852844,0.05307546257972717
1.4109413623809814,6.881730556488037,7.709865570068359,0.12374384701251984,0.25356143712997437,0.047542769461870193
1.3566503524780273,6.920775413513184,7.65816068649292,0.18596483767032623,0.2355845421552658,0.052900929003953934
1.3004728555679321,7.0508856773376465,7.2362446784973145,0.2949257493019104,0.23746949434280396,0.0844041258096695
1.262606143951416,7.066821098327637,6.965690612792969,0.3367612659931183,0.2611710727214813,0.12311552464962006
1.216790795326233,7.120326995849609,6.986319065093994,0.35119515657424927,0.2543642818927765,0.1506044566631317
1.3701155185699463,7.595891952514648,7.297095775604248,0.4178841710090637,0.24488714337348938,0.16324064135551453
1.5268206596374512,8.233027458190918,7.277252674102783,0.4580442011356354,0.23266984522342682,0.17664477229118347
1.4795879125595093,8.492990493774414,6.815487861633301,0.45664793252944946,0.2707529366016388,0.2186548411846161
0.9363723397254944,6.803899765014648,6.82794713973999,0.26885050535202026,0.32307788729667664,0.24544565379619598
0.380160927772522,6.3666229248046875,7.814406394958496,-0.020001472905278206,-0.23464205861091614,0.07993607968091965
0.20743364095687866,6.433353900909424,7.736192226409912,-0.14077825844287872,-0.7115532755851746,-0.04680972918868065
0.0713280588388443,6.669929504394531,7.176830291748047,-0.02151990868151188,-0.7571412920951843,-0.1241278126835823
0.15658079087734222,6.785033702850342,5.9539008140563965,0.06206390634179115,-0.32105332612991333,-0.13069024682044983
-0.36698323488235474,6.738585948944092,6.159811496734619,0.0025830871891230345,0.20416861772537231,-0.15442673861980438
-0.7872135043144226,7.267014980316162,7.249824523925781,0.004921828396618366,0.40114647150039673,-0.08564330637454987
-0.8054764866828918,7.200063705444336,7.578356742858887,0.015882495790719986,0.29881781339645386,0.03534291684627533
-0.6680014133453369,6.635003566741943,7.354547023773193,-0.015097098425030708,0.16552703082561493,0.04171336814761162
-1.0091367959976196,6.330700397491455,7.210818290710449,-0.07305948436260223,0.09110618382692337,-0.008115780539810658
-1.5031373500823975,6.3095927238464355,7.441150188446045,-0.0884358361363411,0.04127703607082367,-0.01567305624485016
-1.648915410041809,6.539043426513672,6.784056663513184,0.009686577133834362,0.002024581888690591,0.13002702593803406
-0.9466769695281982,6.290717124938965,6.149258136749268,0.04543092101812363,0.20341812074184418,0.18413223326206207
-0.31155267357826233,6.22442626953125,6.129261493682861,0.02701769582927227,0.3994709551334381,0.10187486559152603
-0.30980968475341797,6.515120506286621,6.444405555725098,0.009005898609757423,0.45382049679756165,-0.021467549726366997
-0.5533862113952637,6.856495380401611,6.604539394378662,-0.011466813273727894,0.38344883918762207,-0.09803514182567596
-0.776784360408783,7.128046035766602,6.490057945251465,-0.046041786670684814,0.2450791299343109,-0.0872664600610733
-0.8852704763412476,6.585538864135742,6.558628559112549,-0.17936748266220093,0.25675538182258606,0.03090978041291237
-0.8555153012275696,6.382214069366455,6.857616424560547,-0.22109830379486084,0.12943361699581146,0.028117254376411438
-0.6345879435539246,6.208327770233154,6.890828609466553,-0.19226546585559845,0.0777718722820282,-0.017680184915661812
-0.6409086585044861,6.361815452575684,6.702730655670166,-0.11379546672105789,0.13613568246364594,-0.09602801501750946
-0.9460640549659729,6.715869426727295,6.5947136878967285,-0.09150761365890503,0.20919516682624817,-0.13404127955436707
-1.3231699466705322,6.926970958709717,6.669738292694092,-0.12777554988861084,0.192422553896904,-0.10625564306974411
-1.3045622110366821,6.999266624450684,6.905911922454834,-0.18324211239814758,0.12150982022285461,-0.03640756756067276
-1.0908269882202148,6.904494762420654,7.002436637878418,-0.1872040182352066,0.014678219333291054,0.002234021434560418
-0.8936023116111755,6.960576057434082,6.871512413024902,-0.15737633407115936,-0.03277728334069252,-0.0009773843921720982
-1.055814266204834,6.994678974151611,6.7558817863464355,-0.136554554104805,-0.037454765290021896,0.013473941944539547
-1.1615326404571533,7.1347784996032715,6.7169904708862305,-0.15001104772090912,-0.05400048568844795,0.08319984376430511
-1.0129292011260986,6.909876823425293,6.748641490936279,-0.16231562197208405,-0.03956661373376846,0.15159930288791656
-0.8770534992218018,6.68545389175415,6.885819911956787,-0.15851080417633057,-0.03347541391849518,0.15102334320545197
-0.8872720003128052,6.6476545333862305,7.179013729095459,-0.16226325929164886,-0.09700539708137512,0.12274900823831558
-0.8524507284164429,6.657872676849365,7.085563659667969,-0.14055135846138,-0.18744836747646332,0.10084512084722519
-0.9027577042579651,6.5855488777160645,6.810220718383789,-0.11997393518686295,-0.1491732895374298,0.07787659019231796
-1.0548468828201294,6.641046524047852,6.9150004386901855,-0.10187486559152603,-0.05900958180427551,0.0604931116104126
-1.221866488456726,6.745883941650391,7.191003799438477,-0.06670648604631424,-0.05208062380552292,0.06752678751945496
-1.4879006147384644,7.288304328918457,6.774556636810303,0.04110250249505043,-0.11229448020458221,0.09258971363306046
-1.5034629106521606,7.32425594329834,6.855988502502441,0.06607816368341446,-0.14121459424495697,0.17725564539432526
-1.2147221565246582,7.297019004821777,6.588661193847656,0.12325514853000641,-0.12826424837112427,0.2402096688747406
-1.1017446517944336,7.3138933181762695,6.405561923980713,0.12023573368787766,-0.10766936093568802,0.2666688561439514
-1.10824716091156,7.374533653259277,6.579342842102051,0.06274458765983582,-0.16980308294296265,0.2805442214012146
-1.0443699359893799,7.465207099914551,6.7176513671875,0.042411502450704575,-0.24689427018165588,0.30113911628723145
-0.9064159989356995,7.424524784088135,6.835283279418945,0.11218976229429245,-0.18900170922279358,0.32794737815856934
-0.5210165977478027,7.806917190551758,7.0576372146606445,0.23424063622951508,-0.12911945581436157,0.3252770006656647
-0.3707086145877838,8.687714576721191,6.261814594268799,0.25474825501441956,-0.04876450076699257,0.33634239435195923
-1.0096540451049805,8.135622024536133,5.8658037185668945,0.06370452046394348,0.16018632054328918,0.40943679213523865
-1.4578676223754883,8.005799293518066,6.646811485290527,-0.21043434739112854,0.1388234943151474,0.5210855007171631
-1.152396321296692,7.229665756225586,7.608916282653809,-0.3493450880050659,0.06379178166389465,0.6783745884895325
-0.22066877782344818,6.491025447845459,8.069388389587402,-0.31211721897125244,0.0651182308793068,0.7120943069458008
0.4502439796924591,6.257198333740234,7.9343461990356445,-0.0881216749548912,0.23064525425434113,0.737488865852356
0.9396475553512573,5.68231201171875,7.776424884796143,0.01679006777703762,0.3225542902946472,0.7330557107925415
1.590880036354065,5.260846138000488,7.4588093757629395,0.07695156335830688,0.43388885259628296,0.670677661895752
1.8438129425048828,5.12232780456543,7.655268669128418,0.08197811245918274,0.466543972492218,0.5941973328590393
1.7349246740341187,5.437979221343994,8.079071044921875,0.10533062368631363,0.32824406027793884,0.4236612319946289
1.713846206665039,6.064215660095215,7.068200588226318,0.14899875223636627,0.08326965570449829,0.4040960669517517
2.041449546813965,5.858889102935791,6.655651092529297,0.18102554976940155,0.2554813027381897,0.405562162399292
2.1817212104797363,5.634638786315918,7.455773830413818,-0.07407177239656448,0.06909758597612381,0.3284186124801636
2.3227970600128174,5.437672138214111,7.540193557739258,-0.018500490114092827,0.02537708729505539,0.28208011388778687
2.369589328765869,5.403636932373047,7.2358903884887695,0.07351326942443848,0.12351694703102112,0.2537010610103607
2.333590030670166,5.456586837768555,7.069838523864746,0.1008276715874672,0.2105914205312729,0.21970205008983612
2.228407859802246,5.491724014282227,6.893606185913086,0.02918190509080887,0.20233601331710815,0.19549432396888733
2.276780605316162,5.69340181350708,7.030439376831055,-0.062430426478385925,0.14268065989017487,0.16893041133880615
2.3467390537261963,5.772544860839844,6.9340291023254395,-0.1304808109998703,0.07586946338415146,0.14824827015399933
2.373812675476074,5.7368998527526855,6.864731788635254,-0.167062908411026,0.05688028037548065,0.1244245246052742
2.372203826904297,5.684457302093506,6.8893537521362305,-0.2117433398962021,0.056007616221904755,0.08695230633020401
2.2243762016296387,5.750288009643555,7.231906890869141,-0.2644697427749634,0.03396410867571831,0.007627088576555252
2.189056873321533,5.764385223388672,7.385921001434326,-0.21706660091876984,0.03693116828799248,-0.05555383116006851
2.1890761852264404,5.9457221031188965,7.224695205688477,-0.077178455889225,0.1555786430835724,-0.13002702593803406
1.9510829448699951,6.385402679443359,7.155272960662842,0.014294246211647987,0.23954643309116364,-0.17100736498832703
1.6310163736343384,6.664116859436035,7.025162696838379,0.015620696358382702,0.21900391578674316,-0.1541125774383545
1.4567471742630005,6.753372669219971,7.030736446380615,-0.04848524555563927,0.14997614920139313,-0.09901253134012222
1.5650992393493652,6.6633219718933105,7.0412516593933105,-0.08864527195692062,0.10768681764602661,-0.03131120651960373
1.6312079429626465,6.525645732879639,7.151231288909912,-0.051399946212768555,0.11730358004570007,0.035150930285453796
1.620079755783081,6.437127590179443,7.008623123168945,-0.110025554895401,0.05708971992135048,0.04386012256145477
1.7301459312438965,6.337557315826416,7.008584976196289,-0.1560847908258438,0.013508847914636135,0.04242895543575287
2.022784471511841,6.118257999420166,7.0606255531311035,-0.10819295793771744,0.07993607968091965,0.0060388389974832535
2.0032284259796143,6.007894992828369,7.158021450042725,0.023544492200016975,0.18552850186824799,-0.07180284708738327
1.7700908184051514,6.065642833709717,7.152572154998779,0.1578475832939148,0.2889043390750885,-0.1281595230102539
1.62778902053833,6.271707057952881,6.8078742027282715,0.2143089771270752,0.35294046998023987,-0.15545648336410522
0.5619766116142273,7.262877941131592,6.2953996658325195,-0.1022413894534111,0.4156676232814789,-0.05176646634936333
0.7849916815757751,6.5564446449279785,7.55104398727417,-0.06178465485572815,0.42966514825820923,-0.006440265104174614
1.3057305812835693,6.9058356285095215,8.408934593200684,0.08164650201797485,0.24633577466011047,-0.05380849912762642
0.049349285662174225,6.697932720184326,7.183093547821045,0.0642455667257309,0.36590826511383057,-0.18823376297950745
-0.3163219392299652,6.601762294769287,8.251031875610352,-0.031555552035570145,0.31548571586608887,-0.1341983675956726
-0.402292937040329,6.484321594238281,8.648067474365234,-0.026022858917713165,0.23630012571811676,-0.10417870432138443
-0.5020832419395447,6.087200164794922,8.940150260925293,0.08218755573034286,0.083514004945755,-0.07279768586158752
-1.3513832092285156,5.574611186981201,7.526412487030029,0.30627039074897766,0.053564153611660004,-0.019198622554540634
-1.8882782459259033,5.62041711807251,6.77643346786499,0.24792401492595673,0.1324530392885208,0.08630653470754623
-1.9776393175125122,5.47797155380249,6.808238506317139,0.13533282279968262,0.1174955666065216,0.17153096199035645
-1.5216971635818481,5.4459662437438965,6.828943252563477,0.13002702593803406,0.03738495334982872,0.20554742217063904
-0.9260676503181458,5.577474594116211,6.243762016296387,0.17533577978610992,0.05763076990842819,0.17432348430156708
-0.567512035369873,5.7922539710998535,5.705325126647949,0.17500416934490204,0.2203129082918167,0.11157889664173126
-0.6088167428970337,6.107359409332275,5.776854515075684,0.10094984620809555,0.38863247632980347,0.036390114575624466
-1.1325819492340088,6.696869850158691,6.61009407043457,-0.21303488314151764,0.222965806722641,0.03822271153330803
-1.0981724262237549,6.646083354949951,6.830600261688232,-0.2856405973434448,0.19203858077526093,0.07180284708738327
-1.0496563911437988,6.444788455963135,7.235631942749023,-0.27232372760772705,0.22184880077838898,0.12250465899705887
-1.010381817817688,6.4256062507629395,7.538613319396973,-0.24015730619430542,0.22603759169578552,0.18024015426635742
-0.7869932055473328,6.354776382446289,7.725092887878418,-0.20060814917087555,0.112922802567482,0.21183061599731445
-0.6301347017288208,6.2605695724487305,7.798652172088623,-0.18111281096935272,0.02007128670811653,0.16655677556991577
-0.49028465151786804,6.781988143920898,6.863917350769043,-0.1302015632390976,-0.0777718722820282,-0.0032463124953210354
-0.44133755564689636,6.689351558685303,7.003011226654053,-0.19043287634849548,-0.23200660943984985,-0.027314402163028717
-0.4185639023780823,6.684994220733643,6.891451358795166,-0.1719149351119995,-0.27005478739738464,-0.06323327869176865
-0.5414918065071106,6.722487449645996,6.905088424682617,-0.11154399067163467,-0.18451620638370514,-0.0907396674156189
-0.9082356691360474,6.901583671569824,7.008967876434326,-0.06586872786283493,-0.1250353902578354,-0.086428701877594
-1.092637062072754,6.952752113342285,7.236034393310547,-0.038467057049274445,-0.13185963034629822,-0.032358404248952866
-0.8928360939025879,6.886998176574707,7.305293560028076,0.019163714721798897,-0.16917476058006287,-0.0017104226863011718
-0.8015882968902588,6.859742164611816,7.071839809417725,0.08204792439937592,-0.19172441959381104,-0.006562437862157822
-0.8271775245666504,6.908459663391113,6.943079471588135,0.08730136603116989,-0.19533725082874298,-0.01595230959355831
-1.037225604057312,7.055874824523926,6.936088562011719,0.08772024512290955,-0.21088813245296478,-0.009005898609757423
-1.0927616357803345,7.109898090362549,6.954935550689697,0.09625490754842758,-0.21160371601581573,0.005899212788790464
-1.0346782207489014,7.194288730621338,6.975123405456543,0.15226252377033234,-0.19135789573192596,0.05342452973127365
-0.8677352666854858,7.111526012420654,6.841728210449219,0.2157576084136963,-0.15252432227134705,0.08330456167459488
-0.47880202531814575,7.362907886505127,6.6485161781311035,0.20718804001808167,-0.13055062294006348,0.10449286550283432
0.04876509681344032,7.717670917510986,6.5082926750183105,0.1466076523065567,-0.08532914519309998,0.08829620480537415
-0.006981492042541504,7.389540672302246,6.623395919799805,0.05895722284913063,0.061941735446453094,0.06585127115249634
-0.26644593477249146,7.283103942871094,7.1642656326293945,-0.03202679008245468,0.1330988109111786,0.0826762467622757
-0.17692193388938904,6.950376987457275,7.778100490570068,-0.05103342607617378,0.1624552458524704,0.13849186897277832
0.2824966311454773,6.761532306671143,8.175623893737793,-0.04656538367271423,0.18556340038776398,0.1610066294670105
0.6725982427597046,6.627840042114258,8.211919784545898,-0.030351275578141212,0.16753415763378143,0.17259560525417328
0.8894076347351074,6.184730529785156,7.98726749420166,-0.07731808722019196,0.22129029035568237,0.156137153506279
0.8341111540794373,5.573270320892334,8.39217472076416,-0.12664109468460083,0.2624626159667969,0.08422958850860596
0.7391570806503296,5.39663553237915,8.924290657043457,-0.1174955666065216,0.18669787049293518,-0.015498523600399494
0.8164132237434387,5.345380783081055,9.038763046264648,-0.006946410518139601,0.07421139627695084,-0.10677924007177353
0.9687514901161194,5.323498249053955,8.55582332611084,0.1693492978811264,0.04815363511443138,-0.20982348918914795
0.7165079116821289,6.046499252319336,7.338391304016113,0.4081626832485199,0.2623753547668457,-0.25220006704330444
-0.5632407069206238,6.616912364959717,4.706789970397949,0.19507545232772827,0.7001737356185913,-0.004904375411570072
0.4921520948410034,5.337662220001221,6.963919162750244,-0.08648106455802917,0.33080971240997314,-0.03680899366736412
1.1785696744918823,5.341578960418701,8.765823364257812,0.08157669007778168,-0.021537363529205322,-0.07525859773159027
