accX,accY,accZ,gyroX,gyroY,gyroZ
-1.0710872411727905,0.5536393523216248,10.103095054626465,-0.022372281178832054,-0.039476003497838974,0.046577103435993195
-1.059123158454895,0.6493522524833679,10.088738441467285,-0.060244809836149216,-0.10789089649915695,0.056961506605148315
-1.023230791091919,0.709172785282135,10.16291618347168,-0.13110309839248657,-0.1683647781610489,0.09422318637371063
-0.364905446767807,-0.38733816146850586,9.725028991699219,0.03504735976457596,0.008780929259955883,0.072232685983181
-0.36251261830329895,-0.3729812204837799,9.729815483093262,0.02038702741265297,0.02038702741265297,0.04413371533155441
-0.364905446767807,-0.31794631481170654,9.772886276245117,0.008170082233846188,0.027717193588614464,0.02214321307837963
-0.4773681163787842,-0.2916252613067627,9.825528144836426,-0.0009926267666742206,0.019776180386543274,-0.0016798300202935934
-0.4342973232269287,-0.21266211569309235,9.655338287353516,0.0032833039294928312,0.01916533336043358,-0.023059483617544174
-0.4582255482673645,-0.1983051747083664,9.6795654296875,0.011835165321826935,0.04787515476346016,-0.02733541466295719
-0.5228317379951477,-0.12861421704292297,9.823135375976562,0.03993413969874382,0.06192464008927345,-0.041384901851415634
-0.5730810165405273,0.010169495828449726,10.040882110595703,0.028938889503479004,0.057648710906505585,-0.04504998400807381
-0.6711867451667786,0.010169495828449726,10.105487823486328,-0.0034360159188508987,0.02038702741265297,-0.052990999072790146
-0.6281159520149231,0.06759724020957947,10.019346237182617,-0.00038177953683771193,-0.02298312820494175,-0.060932014137506485
-0.6137589812278748,0.12263216078281403,9.863813400268555,0.03077143058180809,-0.05169294774532318,-0.05665608495473862
-0.47258245944976807,0.2063809484243393,10.06002426147461,0.010613471269607544,-0.028480753302574158,-0.02367033064365387
-0.6544370055198669,0.17288143932819366,10.088738441467285,-0.049860406666994095,0.002061609411612153,-0.009620844386518002
-0.6400800347328186,0.18005990982055664,10.112667083740234,-0.06818582862615585,-0.023593975231051445,-0.0065666078589856625
-0.589830756187439,0.129810631275177,9.875777244567871,-0.07001836597919464,-0.0749051421880722,0.006261184345930815
-0.5228317379951477,0.08673982322216034,9.645767211914062,-0.02176143415272236,-0.08284615725278854,0.01847812905907631
-0.4534398913383484,0.0891326442360878,9.554840087890625,0.03382566571235657,-0.027259059250354767,0.02092151902616024
-0.50129634141922,0.046061836183071136,9.6795654296875,0.07658497244119644,0.017332790419459343,0.01847812905907631
-0.5324030518531799,0.4097708761692047,8.40329360961914,0.07841751724481583,0.09002361446619034,0.016645587980747223
-0.6496513485908508,0.2829512655735016,9.186345100402832,0.048486001789569855,0.1474432498216629,0.06612421572208405
-0.6520441770553589,-0.18155542016029358,10.282855987548828,-0.010155336000025272,0.12362021207809448,0.04352286830544472
-0.8318049907684326,-0.22223339974880219,10.531709671020508,-0.09994988143444061,0.0008399150101467967,-0.04321744292974472
-0.5060819983482361,0.07477571070194244,10.103095054626465,-0.15614783763885498,-0.06757497787475586,-0.060932014137506485
-0.5635097622871399,-0.020937198773026466,9.784850120544434,-0.09872818738222122,-0.009544488042593002,-0.03405473381280899
-0.5730810165405273,-0.04247260093688965,9.63619613647461,0.03687990456819534,0.03199312463402748,-0.021837789565324783
-0.5946164131164551,0.014955141581594944,9.67238712310791,0.1737096905708313,0.06558972597122192,-0.020616095513105392
-0.5946164131164551,0.18484555184841156,9.81117057800293,0.2274642437696457,0.06620056927204132,-0.031000498682260513
-0.5826523303985596,0.26141586899757385,9.837491989135742,0.16821207106113434,0.07719582319259644,-0.027946261689066887
-0.5946164131164551,0.26620152592658997,9.861420631408691,0.12911784648895264,0.07963921129703522,-0.02733541466295719
-0.6616154313087463,0.17766708135604858,9.842277526855469,0.053983625024557114,0.08330429345369339,-0.026724567636847496
-0.7645068168640137,0.15613168478012085,9.825528144836426,0.002672456670552492,0.06131379306316376,-0.04504998400807381
-0.7932206988334656,0.14656038582324982,9.787242889404297,-0.008933641016483307,0.026495499536395073,-0.04749337583780289
-0.7573283910751343,0.15134602785110474,9.61226749420166,0.0014507622690871358,-0.0034360159188508987,-0.034665580838918686
-0.6472585201263428,0.15613168478012085,9.37298583984375,0.020997874438762665,0.05948125198483467,-0.021226942539215088
-0.589830756187439,0.10348957777023315,9.26291561126709,0.08269345015287399,0.17981816828250885,-0.017561858519911766
-0.5778666734695435,0.13220344483852386,9.406484603881836,0.18103985488414764,0.3160370886325836,-0.021837789565324783
-0.8003991842269897,0.19680966436862946,10.093523979187012,0.2512872815132141,0.3807868957519531,-0.009009997360408306
-0.994516909122467,0.15613168478012085,10.553245544433594,0.23479440808296204,0.23296187818050385,-0.01695101149380207
-0.9753743410110474,0.16331014037132263,10.30917739868164,0.12911784648895264,0.06497887521982193,-0.07070557028055191
-0.8557332158088684,0.22552353143692017,9.698708534240723,0.058870404958724976,0.03199312463402748,-0.1256818175315857
-0.8485547304153442,0.32123643159866333,9.40169906616211,0.10529479384422302,0.10346225649118423,-0.15316994488239288
-0.9203394055366516,0.4001995921134949,9.406484603881836,0.15477342903614044,0.1462215632200241,-0.14583978056907654
-0.9179465770721436,0.44356951117515564,9.437591552734375,0.23296187818050385,0.22013407945632935,-0.10185877978801727
-0.9993025660514832,0.48903313279151917,9.691530227661133,0.24151372909545898,0.24945475161075592,-0.0853659063577652
-1.2577273845672607,0.46031925082206726,10.18445110321045,0.18898087739944458,0.23296187818050385,-0.0853659063577652
-1.298405408859253,0.5416752099990845,10.282855987548828,0.13889139890670776,0.1590493619441986,-0.0988045409321785
-1.2816556692123413,0.6780661344528198,10.232606887817383,0.022219568490982056,0.0295497365295887,-0.11957334727048874
-1.1333006620407104,0.7139584422111511,9.320343017578125,-0.018707197159528732,-0.01748550310730934,-0.12079504877328873
-1.1165509223937988,0.7594220638275146,9.341878890991211,0.02832804247736931,0.032603971660137177,-0.10979979485273361
-1.2577273845672607,0.8096713423728943,9.693922996520996,0.1083490327000618,0.0942995473742485,-0.0584886260330677
-1.3175479173660278,0.7857431173324585,9.909276962280273,0.11201411485671997,0.01794363744556904,-0.010842538438737392
-1.1715857982635498,0.7259225845336914,9.844670295715332,0.05276193097233772,-0.02053973823785782,0.015423892997205257
-1.1644073724746704,0.654137909412384,9.744172096252441,0.018554486334323883,-0.02176143415272236,0.009315420873463154
-1.0567302703857422,0.5679962635040283,9.428020477294922,-0.009544488042593002,0.00022906772210262716,-0.02244863659143448
-1.0040881633758545,0.5440680384635925,9.274879455566406,0.0032833039294928312,0.03321481868624687,-0.03161134570837021
-0.9753743410110474,0.5608177781105042,9.485447883605957,0.058870404958724976,0.12789614498615265,-0.028557108715176582
-1.2290135622024536,0.5392823815345764,10.074381828308105,0.0692548081278801,0.12484190613031387,0.0032069480512291193
-1.2529417276382446,0.4698905348777771,10.150951385498047,0.007559234742075205,0.013667707331478596,0.013591351918876171
-1.212263822555542,0.4651049077510834,9.92124080657959,-0.06635328382253647,-0.013209572061896324,-0.026724567636847496
-1.1356934309005737,0.5249254703521729,9.578767776489258,-0.05719057470560074,0.011835165321826935,-0.07864658534526825
-1.236191987991333,0.7067800164222717,9.78963565826416,0.014278554357588291,0.06192464008927345,-0.08047912269830704
-1.3725829124450684,0.8024929165840149,10.02413272857666,0.06681142002344131,0.009391776286065578,-0.03771981969475746
-1.3462618589401245,0.8862416744232178,10.02173900604248,0.0552053228020668,-0.05169294774532318,0.00259610079228878
-1.44945228099823,0.8503493666648865,9.909276962280273,-0.004046862944960594,-0.09139802306890488,0.016645587980747223
-1.1835498809814453,0.9822536706924438,9.674779891967773,-0.09689565002918243,-0.1402658075094223,0.03374931216239929
-1.3366905450820923,0.8575277924537659,9.710672378540039,-0.13110309839248657,-0.12010784447193146,0.05268557742238045
-1.236191987991333,0.8431708812713623,9.68913745880127,-0.14576342701911926,-0.15126104652881622,0.09910997003316879
-1.1955139636993408,0.7235297560691833,9.746564865112305,-0.14515258371829987,-0.16408884525299072,0.12720894813537598
-1.1309077739715576,0.7115656137466431,9.758528709411621,-0.15187190473079681,-0.17264071106910706,0.13576079905033112
-1.0375877618789673,0.6900302171707153,9.815957069396973,-0.1653105467557907,-0.17264071106910706,0.15408621728420258
-1.0088738203048706,0.5608177781105042,9.911669731140137,-0.17264071106910706,-0.19096612930297852,0.1766875684261322
-0.7740781307220459,0.2470589429140091,10.03848934173584,-0.2679328918457031,-0.2569376230239868,0.18035265803337097
-0.7932206988334656,0.08673982322216034,9.902098655700684,-0.2862583100795746,-0.2990860939025879,0.16691401600837708
-0.714257538318634,-0.07118647545576096,9.631410598754883,-0.2612135708332062,-0.3106921911239624,0.14492350816726685
-0.5252245664596558,-0.1576271951198578,9.425627708435059,-0.14332003891468048,-0.1927986592054367,0.11377029865980148
-0.5443671345710754,-0.14805589616298676,9.624231338500977,-0.0620773509144783,-0.126216322183609,0.0978882759809494
-0.5276173949241638,-0.11665010452270508,9.631410598754883,-0.035200074315071106,-0.09628479927778244,0.0844496339559555
-0.4486542344093323,-0.09032905846834183,9.573982238769531,-0.022372281178832054,-0.04253023862838745,0.06856760382652283
-0.4462614357471466,-0.10707881301641464,9.686744689941406,0.014278554357588291,0.012446013279259205,0.06062658876180649
-0.4701896607875824,-0.1094716340303421,9.758528709411621,0.05703786388039589,0.016721943393349648,0.05268557742238045
-0.4630111753940582,-0.1094716340303421,9.815957069396973,0.06253548711538315,0.017332790419459343,0.03497100621461868
-0.49172505736351013,-0.08315058797597885,9.904491424560547,0.04604261368513107,0.025884652510285378,0.022754060104489326
-0.5970092415809631,-0.0687936544418335,9.966704368591309,0.005726693198084831,-0.004046862944960594,-0.007177455350756645
-0.5754738450050354,-0.01615155301988125,9.794421195983887,-0.024815669283270836,-0.043141089379787445,-0.03527642786502838
-0.5682953596115112,0.014955141581594944,9.638588905334473,-0.02542651630938053,-0.04741701856255531,-0.04321744292974472
-0.4941178858280182,0.11066804826259613,9.471091270446777,-0.005268557462841272,0.006337540224194527,-0.05421269312500954
-0.5874379873275757,0.18963119387626648,9.823135375976562,0.016721943393349648,0.082082599401474,-0.03833066672086716
-0.7046862840652466,0.16809579730033875,10.107880592346191,0.013667707331478596,0.0552053228020668,-0.020616095513105392
-0.7190431952476501,0.14895321428775787,10.105487823486328,0.005726693198084831,0.024662958458065987,-0.021226942539215088
-0.6400800347328186,0.21355941891670227,9.911669731140137,-0.00038177953683771193,-0.021150587126612663,-0.03894151374697685
-0.6185446381568909,0.3355933725833893,9.835099220275879,0.008170082233846188,-0.0009926267666742206,-0.03833066672086716
-0.6352944374084473,0.38344982266426086,9.892526626586914,0.02038702741265297,0.0032833039294928312,-0.01817270554602146
-0.7692924737930298,0.23030917346477509,9.966704368591309,0.016721943393349648,-0.02542651630938053,0.025197450071573257
-0.6855437159538269,0.19202402234077454,9.842277526855469,0.01794363744556904,-0.05291464552283287,0.022754060104489326
-0.6783652305603027,0.16809579730033875,9.765707015991211,0.019776180386543274,-0.051082100719213486,0.017867282032966614
-0.5443671345710754,0.1944168359041214,9.51176929473877,0.023441264405846596,-0.049860406666994095,0.004428642801940441
-0.5467599630355835,0.20398813486099243,9.648159980773926,0.015500249341130257,0.031382277607917786,0.014202198944985867
-0.5587241053581238,0.18484555184841156,9.736993789672852,0.014889402315020561,0.019776180386543274,0.021532366052269936
-0.6305087804794312,0.13698910176753998,9.844670295715332,-0.00038177953683771193,0.02160872146487236,0.031916771084070206
-0.592223584651947,0.10827522724866867,9.89970588684082,-0.013209572061896324,0.006337540224194527,0.027029991149902344
-0.589830756187439,0.07477571070194244,9.902098655700684,-0.029091600328683853,-0.010155336000025272,0.01847812905907631
-0.5539384484291077,0.07956135272979736,9.842277526855469,-0.031534988433122635,-0.018096350133419037,0.01175880990922451
-0.592223584651947,0.07956135272979736,9.93559741973877,-0.03458922728896141,0.0032833039294928312,0.0038177953101694584
-0.5539384484291077,0.07956135272979736,9.851848602294922,-0.011377030052244663,-0.015042114071547985,-0.0065666078589856625
-0.534795880317688,0.0771685317158699,9.78245735168457,0.026495499536395073,-0.004046862944960594,-0.005955760832875967
-0.5204389095306396,0.09870393574237823,9.801599502563477,0.04909684881567955,0.0051158457063138485,-0.01572931744158268
-0.5994020700454712,0.10827522724866867,9.863813400268555,0.041766680777072906,-0.004046862944960594,-0.021226942539215088
-0.6137589812278748,0.18963119387626648,9.854242324829102,-0.010766183026134968,-0.02298312820494175,-0.028557108715176582
-0.5802595019340515,0.20877377688884735,9.691530227661133,-0.06146650388836861,-0.02664821222424507,-0.03527642786502838
-0.6664010882377625,0.18005990982055664,8.975478172302246,-0.051082100719213486,0.011835165321826935,-0.03161134570837021
-0.40319061279296875,0.5703890919685364,8.987442016601562,0.0686439573764801,0.12789614498615265,0.006261184345930815
-0.6735795736312866,0.06041877344250679,9.954740524291992,0.11018157750368118,0.2134147584438324,0.07101099193096161
-0.9155537486076355,-0.01375873014330864,10.71117115020752,0.016721943393349648,0.11506835371255875,0.008704573847353458
-0.6305087804794312,0.1537388563156128,10.70399284362793,-0.1286597102880478,-0.01626380905508995,-0.012675080448389053
-0.6640082597732544,0.0077766734175384045,10.357033729553223,-0.1683647781610489,-0.09811734408140182,-0.019394399598240852
-0.5515456199645996,-0.1576271951198578,9.6433744430542,-0.0877329409122467,-0.14698512852191925,-0.027946261689066887
-0.43908295035362244,-0.22223339974880219,9.112167358398438,0.07230904698371887,-0.06635328382253647,-0.0462716780602932
-0.7812566161155701,0.019740786403417587,9.969097137451172,0.11201411485671997,0.12362021207809448,-0.0975828468799591
-0.7573283910751343,0.1585244983434677,9.866206169128418,0.07780666649341583,0.08086090534925461,-0.14339639246463776
-0.7668996453285217,0.23030917346477509,9.847063064575195,0.058870404958724976,0.07963921129703522,-0.15805672109127045
-0.8461619019508362,0.36191442608833313,9.868598937988281,0.03382566571235657,0.07902836054563522,-0.1623326539993286
-0.8246265053749084,0.47706902027130127,9.686744689941406,0.038101598620414734,0.07291989028453827,-0.14400723576545715
-0.8246265053749084,0.5536393523216248,9.662816047668457,0.08696937561035156,0.12423106282949448,-0.111632339656353
-0.9179465770721436,0.6254240274429321,9.918848037719727,0.1590493619441986,0.14377817511558533,-0.07803573459386826
-1.0040881633758545,0.6397809386253357,10.105487823486328,0.16760121285915375,0.1346154659986496,-0.06704048812389374
-1.0998010635375977,0.6637091636657715,10.220643043518066,0.11506835371255875,0.07230904698371887,-0.07009471952915192
-1.0878369808197021,0.6900302171707153,10.17009449005127,0.07353074103593826,0.041766680777072906,-0.07620319724082947
-1.0351948738098145,0.740279495716095,9.964311599731445,0.02710634656250477,-0.008322793990373611,-0.06826218217611313
-0.9490532875061035,0.7498508095741272,9.748957633972168,0.041766680777072906,-0.03214583545923233,-0.02367033064365387
-0.9442676305770874,0.6445665955543518,9.681958198547363,0.07353074103593826,-0.031534988433122635,0.023975754156708717
-0.9346963167190552,0.5727819204330444,9.6795654296875,0.07230904698371887,-0.022372281178832054,0.038636088371276855
-0.9155537486076355,0.5153541564941406,9.705886840820312,0.05703786388039589,-0.010766183026134968,0.04230117425322533
-0.8222336769104004,0.4531407952308655,9.66520881652832,0.014278554357588291,0.010002624243497849,0.028251685202121735
-0.8437690734863281,0.37148571014404297,9.70349407196045,-0.0028251686599105597,0.023441264405846596,0.020310672000050545
-0.8676972985267639,0.357128769159317,9.734601020812988,-0.0028251686599105597,0.019776180386543274,0.01725643500685692
-0.8509475588798523,0.32602208852767944,9.741779327392578,-0.0009926267666742206,0.002672456670552492,0.013591351918876171
-0.7956135272979736,0.3690928816795349,9.669994354248047,-0.005879404954612255,0.012446013279259205,0.00015271181473508477
-0.9203394055366516,0.4698905348777771,9.107381820678711,0.0038941511884331703,0.04787515476346016,-0.012675080448389053
-0.9442676305770874,0.27337998151779175,10.000204086303711,-0.007101099472492933,0.10468395054340363,0.023364907130599022
-0.9418748021125793,0.43639102578163147,9.93559741973877,0.019776180386543274,0.08391514420509338,-0.03588727489113808
-0.9801599979400635,0.618245542049408,9.947562217712402,-0.0358109213411808,0.08635853230953217,-0.02367033064365387
-1.04715895652771,0.5392823815345764,9.92124080657959,-0.04375193640589714,0.06314633786678314,0.014813045971095562
-1.0136594772338867,0.388235479593277,9.756135940551758,0.019776180386543274,0.0429883748292923,0.05207473039627075
-0.9753743410110474,0.3188436031341553,9.727422714233398,0.10101886838674545,0.0552053228020668,0.05024218559265137
-0.9729815125465393,0.373878538608551,10.000204086303711,0.11018157750368118,0.09613208472728729,0.01725643500685692
-1.0304092168807983,0.4220340847969055,10.203594207763672,0.05703786388039589,0.05948125198483467,-0.0016798300202935934
-1.0758728981018066,0.39541393518447876,10.18445110321045,0.026495499536395073,0.01794363744556904,-0.005955760832875967
-1.0064810514450073,0.40737804770469666,9.825528144836426,-0.013209572061896324,-0.05657972767949104,-0.02244863659143448
-0.9681958556175232,0.4220340847969055,9.542876243591309,-0.0028251686599105597,-0.030313294380903244,-0.026724567636847496
-0.9131609201431274,0.4145565330982208,9.368199348449707,0.060092099010944366,0.019776180386543274,-0.025502873584628105
-0.9131609201431274,0.4531407952308655,9.416056632995605,0.1327829211950302,0.09368869662284851,-0.020005248486995697
-0.9634101986885071,0.4579264223575592,9.60508918762207,0.1724879890680313,0.14194563031196594,-0.025502873584628105
-1.0567302703857422,0.5105685591697693,9.90688419342041,0.15171918272972107,0.16271443665027618,-0.03833066672086716
-1.090229868888855,0.5344967842102051,9.861420631408691,0.10407309979200363,0.1358371526002884,-0.05421269312500954
-1.1620144844055176,0.6493522524833679,9.832706451416016,0.07841751724481583,0.10407309979200363,-0.06337540596723557
-1.1356934309005737,0.7307082414627075,9.818349838256836,0.08269345015287399,0.08452598750591278,-0.04688252881169319
-1.2098709344863892,0.7283154129981995,9.81117057800293,0.08513683825731277,0.07780666649341583,-0.04016320779919624
-1.176371455192566,0.7474579811096191,9.784850120544434,0.08513683825731277,0.07291989028453827,-0.04504998400807381
-1.1883355379104614,0.7522436380386353,9.847063064575195,0.0814717561006546,0.06131379306316376,-0.04077405482530594
-1.2529417276382446,0.7139584422111511,9.827920913696289,0.07108735293149948,0.05337277799844742,-0.0328330397605896
-1.2816556692123413,0.7378866672515869,9.787242889404297,0.04909684881567955,0.032603971660137177,-0.032222192734479904
-1.2649059295654297,0.773779034614563,9.744172096252441,0.030160583555698395,0.03687990456819534,-0.034665580838918686
-1.2385848760604858,0.7809575200080872,9.701101303100586,0.04665346071124077,0.025273805484175682,-0.018783552572131157
-1.1835498809814453,0.7977072596549988,9.667601585388184,0.07597412914037704,0.02405211143195629,-0.008399149402976036
-1.1715857982635498,0.8192426562309265,9.708279609680176,0.07902836054563522,0.0423775278031826,-0.009620844386518002
-1.2433704137802124,0.8359923958778381,9.861420631408691,0.04787515476346016,0.058870404958724976,-0.004734066314995289
-1.3247264623641968,0.7809575200080872,9.966704368591309,0.01916533336043358,0.04604261368513107,0.00015271181473508477
-1.3992030620574951,0.742672324180603,9.993025779724121,-0.043141089379787445,-0.015652960166335106,-0.0010689827613532543
-1.298405408859253,0.7331010103225708,9.739386558532715,-0.06635328382253647,-0.06329904496669769,-0.012064233422279358
-1.1333006620407104,0.773779034614563,9.516554832458496,-0.02176143415272236,-0.033978380262851715,-0.009009997360408306
-1.1021939516067505,0.776171863079071,9.521340370178223,0.05703786388039589,0.018554486334323883,0.004428642801940441
-1.176371455192566,0.7522436380386353,9.777671813964844,0.08941277116537094,0.053983625024557114,0.00992626789957285
-1.2936197519302368,0.7043871879577637,9.923633575439453,0.07841751724481583,0.04421006888151169,0.008093725889921188
-1.2960125207901,0.7331010103225708,9.882955551147461,0.022219568490982056,-0.010766183026134968,-0.012064233422279358
-1.2409776449203491,0.7618148922920227,9.792028427124023,-0.026037365198135376,-0.015042114071547985,-0.018783552572131157
-1.2266206741333008,0.7713862061500549,9.720243453979492,-0.015652960166335106,-0.021150587126612663,-0.01511846948415041
-1.212263822555542,0.7689933776855469,9.68913745880127,0.02405211143195629,-0.02176143415272236,0.001374406274408102
-1.1644073724746704,0.773779034614563,9.669994354248047,0.038101598620414734,-0.018096350133419037,0.0007635590736754239
-1.2098709344863892,0.7594220638275146,9.698708534240723,0.011835165321826935,0.00022906772210262716,-0.005955760832875967
-1.205085277557373,0.776171863079071,9.684351921081543,-0.0022143214009702206,0.0032833039294928312,-0.009620844386518002
-1.2864413261413574,0.7642077207565308,9.77527904510498,-0.014431266114115715,0.01916533336043358,-0.004734066314995289
-1.2864413261413574,0.7378866672515869,9.758528709411621,-0.007711946498602629,0.002672456670552492,-0.0035123717971146107
-1.2625130414962769,0.740279495716095,9.727422714233398,0.006337540224194527,-0.015042114071547985,-0.005344913341104984
-1.2457633018493652,0.7977072596549988,9.638588905334473,0.010002624243497849,-0.016874656081199646,-0.013285927474498749
-1.3486546277999878,0.8431708812713623,9.578767776489258,0.007559234742075205,-0.033978380262851715,-0.0035123717971146107
-1.0184451341629028,0.9556335210800171,9.722636222839355,-0.023593975231051445,0.02832804247736931,0.01969982497394085
-1.3510475158691406,0.8694919347763062,10.02413272857666,-0.053525492548942566,0.02038702741265297,-0.007788302376866341
-1.2625130414962769,0.9412766098976135,9.856635093688965,-0.07124006003141403,-0.039476003497838974,0.013591351918876171
-1.322333574295044,0.8599206209182739,9.847063064575195,-0.05535803362727165,-0.05413633957505226,0.01725643500685692
-1.2529417276382446,0.8288139700889587,9.708279609680176,-0.044362783432006836,-0.07673768699169159,0.04230117425322533
-1.2337992191314697,0.7833502888679504,9.686744689941406,-0.02176143415272236,-0.0626882016658783,0.05512896552681923
-1.1596217155456543,0.8240283131599426,9.744172096252441,-0.013209572061896324,-0.05413633957505226,0.058183200657367706
-1.1404790878295898,0.7666005492210388,9.8207426071167,-0.02420482225716114,-0.05535803362727165,0.06306997686624527
-1.0734800100326538,0.7163512706756592,9.849455833435059,-0.06146650388836861,-0.05657972767949104,0.06001574173569679
-1.1165509223937988,0.620638370513916,9.844670295715332,-0.08467870205640793,-0.09445225447416306,0.054518118500709534
-1.1356934309005737,0.6254240274429321,9.885348320007324,-0.12010784447193146,-0.11338852345943451,0.04963133856654167
-1.1668001413345337,0.5344967842102051,9.806385040283203,-0.154926136136055,-0.14698512852191925,0.04230117425322533
-1.0806585550308228,0.5177469849586487,9.595518112182617,-0.154926136136055,-0.15187190473079681,0.025197450071573257
-1.0567302703857422,0.5416752099990845,9.631410598754883,-0.12255123257637024,-0.10544750839471817,0.025197450071573257
-0.9681958556175232,0.6014958024024963,9.648159980773926,-0.0761268362402916,-0.08590039610862732,0.027029991149902344
-0.9083753228187561,0.6134598851203918,9.751350402832031,-0.03703261539340019,-0.05230379477143288,0.0459662564098835
-0.9538389444351196,0.49621158838272095,9.856635093688965,-0.019928891211748123,-0.041919391602277756,0.051463883370161057
-0.961017370223999,0.3978067636489868,9.818349838256836,-0.019318044185638428,-0.04497363045811653,0.0331384651362896
-0.9586246013641357,0.4097708761692047,9.756135940551758,-0.005879404954612255,-0.05474718660116196,0.001374406274408102
-0.9227322340011597,0.5057829022407532,9.744172096252441,0.0130568603053689,-0.05291464552283287,-0.007788302376866341
-0.8557332158088684,0.5368895530700684,9.593125343322754,-0.010766183026134968,-0.033978380262851715,0.00259610079228878
-0.905982494354248,0.4387838542461395,9.59791088104248,0.0038941511884331703,0.0014507622690871358,-0.005344913341104984
-0.9299107193946838,0.4866403043270111,9.698708534240723,0.03993413969874382,0.014889402315020561,-0.020005248486995697
-0.9131609201431274,0.5632106065750122,9.710672378540039,0.044820915907621384,0.02038702741265297,-0.025502873584628105
-0.9586246013641357,0.6421737670898438,9.904491424560547,0.006337540224194527,0.049707695841789246,-0.016340164467692375
-1.028016448020935,0.6014958024024963,10.0073823928833,-0.026037365198135376,0.008780929259955883,-0.005344913341104984
-0.9586246013641357,0.5703890919685364,9.751350402832031,-0.02664821222424507,-0.04253023862838745,-0.009009997360408306
-0.9083753228187561,0.6014958024024963,9.583553314208984,-0.00038177953683771193,-0.011987877078354359,-0.01817270554602146
-0.9466604590415955,0.5967101454734802,9.638588905334473,0.014889402315020561,0.017332790419459343,-0.01695101149380207
-0.9538389444351196,0.5775675773620605,9.720243453979492,0.03871244564652443,0.026495499536395073,-0.009620844386518002
-1.3079767227172852,0.9774680733680725,9.341878890991211,-0.048638712614774704,-0.005268557462841272,-0.027946261689066887
-0.8171489238739014,1.0301101207733154,9.24855899810791,-0.06329904496669769,0.039323292672634125,0.01969982497394085
-1.2385848760604858,0.4698905348777771,9.60508918762207,0.006948387715965509,0.10957072675228119,0.04107947647571564
-0.9418748021125793,0.6302096843719482,9.640981674194336,0.07291989028453827,0.2140256017446518,0.025808297097682953
-0.9131609201431274,0.2997010350227356,9.107381820678711,0.12545275688171387,0.2799971103668213,-0.05787777900695801
-1.083051323890686,0.33798620104789734,9.432806015014648,0.20364120602607727,0.41621604561805725,-0.07437065243721008
-1.353440284729004,0.2590230405330658,9.502198219299316,0.26961269974708557,0.4614187479019165,-0.0981936976313591
-1.540379524230957,0.357128769159317,9.576375007629395,0.3074852526187897,0.49440449476242065,-0.14828316867351532
-2.1699910163879395,1.293320655822754,10.617851257324219,0.22196662425994873,0.1877591758966446,-0.11407572776079178
-2.102992057800293,1.456032633781433,10.318748474121094,0.11995512992143631,0.016111096367239952,-0.12934690713882446
-2.1245274543762207,1.5520446300506592,10.057631492614746,0.06742226332426071,-0.11033428460359573,-0.12934690713882446
-2.0216360092163086,1.5687943696975708,9.569196701049805,0.032603971660137177,-0.18852274119853973,-0.10185877978801727
-1.9112670421600342,1.5687943696975708,9.198308944702148,0.0295497365295887,-0.16469968855381012,-0.06276455521583557
-2.282453775405884,1.5230315923690796,9.073583602905273,0.038101598620414734,-0.21051323413848877,-0.009009997360408306
-1.303191065788269,1.597508192062378,8.774480819702148,-0.07673768699169159,0.02405211143195629,0.06123743951320648
-2.306381940841675,1.0396814346313477,9.79681396484375,-0.08345700800418854,0.1847049444913864,0.06001574173569679
-2.047957181930542,1.2693923711776733,9.985847473144531,-0.11338852345943451,-0.057801421731710434,0.0459662564098835
-2.002493381500244,1.2598211765289307,10.136594772338867,-0.17202985286712646,-0.09323056042194366,0.06612421572208405
-1.9232312440872192,1.2143574953079224,10.198808670043945,-0.19768545031547546,-0.2062373012304306,0.06001574173569679
-1.8346967697143555,1.2095718383789062,10.117452621459961,-0.20806984603405,-0.3235199749469757,0.06917845457792282
-1.7772690057754517,1.1976077556610107,10.117452621459961,-0.21540001034736633,-0.3668901324272156,0.072232685983181
-1.6002001762390137,1.2550355195999146,10.02173900604248,-0.24227729439735413,-0.43469417095184326,0.08994726091623306
-1.5571293830871582,1.1736794710159302,9.990633010864258,-0.27770644426345825,-0.4695124626159668,0.13392825424671173
-1.5212370157241821,1.1258230209350586,10.019346237182617,-0.27648472785949707,-0.5134934782981873,0.16080553829669952
-1.4015958309173584,0.953240692615509,9.8207426071167,-0.2593810260295868,-0.5922927856445312,0.22066856920719147
-1.3055838346481323,0.7666005492210388,9.705886840820312,-0.23739051818847656,-0.6271110773086548,0.24021568894386292
-1.0734800100326538,0.6302096843719482,9.617053031921387,-0.26426780223846436,-0.5977904200553894,0.22066856920719147
-0.9131609201431274,0.5775675773620605,9.576375007629395,-0.283204048871994,-0.548922598361969,0.20661908388137817
-0.87248295545578,0.5249254703521729,9.61944580078125,-0.27770644426345825,-0.5202127695083618,0.19806721806526184
-0.7429714202880859,0.47228336334228516,9.660423278808594,-0.26304611563682556,-0.5287646651268005,0.19440214335918427
-0.625723123550415,0.3643072545528412,9.681958198547363,-0.26732203364372253,-0.5428141355514526,0.1779092699289322
-0.4055834412574768,0.33798620104789734,9.523733139038086,-0.283204048871994,-0.5018873810768127,0.15347537398338318
-0.2883351147174835,0.2470589429140091,9.48784065246582,-0.24899661540985107,-0.42064470052719116,0.14125843346118927
-0.1899302899837494,0.11306086927652359,9.538089752197266,-0.15614783763885498,-0.2825932204723358,0.1247655525803566
-0.20189441740512848,0.09870393574237823,9.70349407196045,-0.10483665764331818,-0.25205084681510925,0.10460758954286575
-0.14685949683189392,0.11306086927652359,9.770493507385254,-0.08651123940944672,-0.2337254285812378,0.09666658192873001
-0.11096715182065964,0.029312077909708023,9.710672378540039,-0.07673768699169159,-0.20929154753684998,0.09605573117733002
0.0445663221180439,0.019740786403417587,9.557232856750488,0.02405211143195629,-0.043141089379787445,-0.005955760832875967
-0.012861421331763268,0.18723836541175842,9.734601020812988,0.024662958458065987,-0.019318044185638428,-0.016340164467692375
-0.008075776509940624,0.13459627330303192,9.684351921081543,-0.015042114071547985,-0.00038177953683771193,-0.027946261689066887
-0.022432712838053703,0.12023933976888657,9.617053031921387,-0.02176143415272236,0.014278554357588291,-0.03588727489113808
-0.03200400248169899,0.16091732680797577,9.677172660827637,0.002061609411612153,0.05031854286789894,-0.04871506989002228
-0.12293126434087753,0.18723836541175842,9.77527904510498,0.03626905754208565,0.04787515476346016,-0.042606595903635025
-0.09900303930044174,0.2877369225025177,9.866206169128418,0.02283041551709175,0.06314633786678314,-0.03649812191724777
-0.12771691381931305,0.2566302418708801,9.961918830871582,0.0051158457063138485,0.0686439573764801,-0.032222192734479904
-0.23778675496578217,0.2470589429140091,10.086345672607422,-0.03092414326965809,0.04543176665902138,-0.031000498682260513
-0.2066800594329834,0.23270200192928314,9.863813400268555,-0.027869906276464462,-0.004046862944960594,-0.04749337583780289
-0.16121642291545868,0.24227328598499298,9.722636222839355,-0.007101099472492933,-0.005268557462841272,-0.05115845799446106
-0.16360925137996674,0.24466611444950104,9.645767211914062,0.0429883748292923,0.04665346071124077,-0.04993676394224167
0.09481559693813324,0.8359923958778381,9.246166229248047,0.07902836054563522,0.27266693115234375,-0.02244863659143448
-0.40797626972198486,0.18723836541175842,9.68913745880127,0.10651648789644241,0.19325679540634155,0.027029991149902344
-0.364905446767807,0.0005982056609354913,10.050453186035156,0.07841751724481583,0.11812258511781693,-0.03405473381280899
-1.2074781656265259,0.029312077909708023,10.831111907958984,0.40155571699142456,0.8370898365974426,-0.30221667885780334
-1.298405408859253,0.30209386348724365,10.996216773986816,0.17798562347888947,0.6336776614189148,-0.3859027624130249
-1.3701900243759155,0.6637091636657715,11.144571304321289,-0.051082100719213486,0.46874892711639404,-0.4280512034893036
-1.5427724123001099,0.7594220638275146,11.156535148620605,-0.1402658075094223,0.37467843294143677,-0.423164427280426
-1.7102699279785156,0.9293124675750732,10.88853931427002,-0.20929154753684998,0.07719582319259644,-0.3859027624130249
-1.638485312461853,1.0277173519134521,10.16291618347168,-0.12071868777275085,-0.1555369794368744,-0.3107685446739197
-1.552343726158142,1.0755738019943237,9.609874725341797,0.04543176665902138,-0.17202985286712646,-0.23868857324123383
-1.5284154415130615,1.1186445951461792,9.588339805603027,0.11995512992143631,-0.1292705535888672,-0.21303297579288483
-1.6528422832489014,1.1665010452270508,9.827920913696289,0.20303036272525787,-0.060244809836149216,-0.17149536311626434
-1.724626898765564,1.1736794710159302,9.78963565826416,0.21952323615550995,-0.09445225447416306,-0.1238492801785469
-1.4590235948562622,1.2598211765289307,9.40169906616211,0.24578966200351715,-0.13232478499412537,-0.07070557028055191
-1.3701900243759155,1.475175142288208,9.040083885192871,0.27022355794906616,-0.08101361989974976,0.001374406274408102
-1.1620144844055176,1.482353687286377,9.198308944702148,0.12606360018253326,-0.026037365198135376,0.10766182839870453
-1.2960125207901,0.5416752099990845,9.51894760131836,0.09307785332202911,0.049707695841789246,0.12232216447591782
-1.298405408859253,0.6373881101608276,9.80399227142334,0.03871244564652443,0.006948387715965509,0.06612421572208405
-1.2744771242141724,0.6613163352012634,9.947562217712402,-0.06696412712335587,-0.027259059250354767,0.03924693539738655
-1.1715857982635498,0.7905287742614746,9.851848602294922,-0.14759597182273865,-0.07307260483503342,0.046577103435993195
-1.181157112121582,0.7354938387870789,9.792028427124023,-0.1683647781610489,-0.09139802306890488,0.06245913356542587
-1.1979068517684937,0.6972087025642395,9.818349838256836,-0.1671430766582489,-0.09811734408140182,0.06184828653931618
-1.1787642240524292,0.7187440991401672,9.748957633972168,-0.14454172551631927,-0.11216682940721512,0.05024218559265137
-1.1883355379104614,0.7546364665031433,9.849455833435059,-0.1139993667602539,-0.11827529966831207,0.05024218559265137
-1.1668001413345337,0.7929216027259827,9.878170013427734,-0.11155597865581512,-0.11827529966831207,0.056961506605148315
-1.272084355354309,0.7378866672515869,9.916455268859863,-0.11216682940721512,-0.12255123257637024,0.08811471611261368
-1.1955139636993408,0.6900302171707153,9.863813400268555,-0.0755159929394722,-0.1543152928352356,0.11621369421482086
-1.2074781656265259,0.6158527135848999,9.954740524291992,-0.0358109213411808,-0.18363595008850098,0.1369825005531311
-0.6640082597732544,0.43160539865493774,9.471091270446777,-0.21662171185016632,-0.22456271946430206,0.10460758954286575
-0.6544370055198669,0.41964125633239746,9.59791088104248,-0.1787491738796234,-0.15675868093967438,0.12048961967229843
-0.6065805554389954,0.35473597049713135,9.6795654296875,-0.13415732979774475,-0.13415732979774475,0.12965233623981476
-0.5994020700454712,0.1417747437953949,9.978668212890625,-0.20806984603405,-0.18363595008850098,0.12110047042369843
-0.5300102233886719,0.0891326442360878,9.887741088867188,-0.24899661540985107,-0.20379391312599182,0.1107160672545433
-0.4630111753940582,0.03170489892363548,9.751350402832031,-0.24838577210903168,-0.2190650999546051,0.10338589549064636
-0.3409772217273712,-0.01375873014330864,9.61944580078125,-0.21051323413848877,-0.2074590027332306,0.09483403712511063
-0.31465616822242737,-0.08315058797597885,9.547661781311035,-0.15614783763885498,-0.15981291234493256,0.0850604772567749
-0.2667997181415558,-0.13579268753528595,9.456734657287598,-0.09261971712112427,-0.11155597865581512,0.06368082761764526
-0.24257239699363708,-0.09032905846834183,9.411270141601562,-0.029091600328683853,-0.03825430944561958,0.04840964451432228
-0.3481557071208954,-0.030508488416671753,9.89970588684082,0.0051158457063138485,0.0008399150101467967,0.04718795046210289
-0.4103690981864929,-0.04007977992296219,10.115059852600098,0.002672456670552492,0.06497887521982193,0.056961506605148315
-0.4654040038585663,-0.08554340898990631,10.376175880432129,-0.07734853774309158,0.006948387715965509,0.046577103435993195
-0.4582255482673645,-0.2270190417766571,10.153345108032227,-0.11949699372053146,-0.11277767270803452,0.016645587980747223
-0.35533416271209717,-0.21984058618545532,9.839884757995605,-0.10911259055137634,-0.1530935913324356,-0.0035123717971146107
-0.16839489340782166,-0.1504487246274948,9.38734245300293,-0.035200074315071106,-0.11277767270803452,-0.032222192734479904
-0.1540379524230957,-0.07118647545576096,9.48784065246582,0.041766680777072906,-0.008933641016483307,-0.03405473381280899
-0.3840480446815491,0.012562318705022335,10.115059852600098,-0.0028251686599105597,0.015500249341130257,-0.013285927474498749
-0.41994038224220276,0.019740786403417587,10.033703804016113,-0.0620773509144783,-0.05474718660116196,-0.01572931744158268
-0.36251261830329895,-0.01375873014330864,9.645767211914062,-0.06879667192697525,-0.08651123940944672,-0.014507622458040714
-0.24496522545814514,-0.01615155301988125,9.4088773727417,-0.005879404954612255,-0.026037365198135376,-0.01511846948415041
-0.23778675496578217,0.0029910283628851175,9.435198783874512,0.03687990456819534,0.02160872146487236,-0.013896775431931019
-0.28115665912628174,0.06041877344250679,9.674779891967773,0.10040801763534546,0.09368869662284851,-0.004734066314995289
-0.32662028074264526,0.09870393574237823,9.868598937988281,0.11079242080450058,0.11140327155590057,0.007482878863811493
-0.4630111753940582,0.04127619042992592,10.23021411895752,0.0814717561006546,0.0814717561006546,0.02764083817601204
-0.39840495586395264,-0.025722842663526535,10.076774597167969,0.02405211143195629,-0.009544488042593002,0.016645587980747223
-0.3696911036968231,-0.08075776696205139,9.830313682556152,-0.0022143214009702206,-0.041919391602277756,-0.0010689827613532543
-0.3170489966869354,-0.08075776696205139,9.66520881652832,0.0038941511884331703,-0.04497363045811653,-0.01817270554602146
-0.2234298139810562,0.03409772366285324,9.583553314208984,0.0295497365295887,0.023441264405846596,-0.03527642786502838
-0.3026920557022095,0.024526432156562805,9.660423278808594,0.04787515476346016,0.05703786388039589,-0.03161134570837021
-0.29790642857551575,0.05802594870328903,9.722636222839355,0.08941277116537094,0.07536327838897705,-0.01572931744158268
-0.30987054109573364,0.05802594870328903,9.732208251953125,0.10895988345146179,0.08819106966257095,-0.0035123717971146107
-0.3601198196411133,0.05802594870328903,9.751350402832031,0.15355172753334045,0.1083490327000618,0.008093725889921188
-0.48454657196998596,0.029312077909708023,10.04566764831543,0.18165069818496704,0.11873343586921692,-0.0010689827613532543
-0.4654040038585663,0.13459627330303192,10.141380310058594,0.15233004093170166,0.0692548081278801,-0.028557108715176582
-0.44386860728263855,0.22073788940906525,10.02413272857666,0.09979717433452606,0.027717193588614464,-0.03771981969475746
-0.4534398913383484,0.2757728099822998,9.933204650878906,0.07658497244119644,0.0130568603053689,-0.027946261689066887
-0.4749752879142761,0.23748764395713806,9.794421195983887,0.09613208472728729,-0.021150587126612663,-0.018783552572131157
-0.40797626972198486,0.2829512655735016,9.691530227661133,0.11262496560811996,-0.010766183026134968,-0.016340164467692375
-0.5228317379951477,0.268594354391098,9.760921478271484,0.10101886838674545,0.01916533336043358,-0.02733541466295719
-0.4773681163787842,0.3116651475429535,9.751350402832031,0.09063446521759033,0.01916533336043358,-0.03649812191724777
-0.4486542344093323,0.32602208852767944,9.701101303100586,0.07353074103593826,0.02405211143195629,-0.031000498682260513
-0.39840495586395264,0.31405797600746155,9.492626190185547,0.07291989028453827,0.04421006888151169,-0.026724567636847496
-0.42711883783340454,0.3116651475429535,9.63619613647461,0.11140327155590057,0.11629004776477814,-0.013285927474498749
-0.4486542344093323,0.3332005441188812,9.823135375976562,0.14255647361278534,0.12728530168533325,-0.0010689827613532543
-0.537188708782196,0.34995031356811523,10.095916748046875,0.09674293547868729,0.10162971168756485,-0.0016798300202935934
-0.5802595019340515,0.3188436031341553,10.198808670043945,0.005726693198084831,0.056427016854286194,-0.021226942539215088
-0.6329016089439392,0.3284149169921875,10.129416465759277,-0.04619532451033592,-0.012598725035786629,-0.042606595903635025
-0.5587241053581238,0.4459623098373413,9.823135375976562,-0.0364217683672905,-0.08284615725278854,-0.04810422286391258
-0.4295116662979126,0.5440680384635925,9.61226749420166,-0.004657710436731577,-0.039476003497838974,-0.027946261689066887
-0.4749752879142761,0.4866403043270111,9.617053031921387,0.04421006888151169,0.02160872146487236,-0.013896775431931019
-0.5874379873275757,0.44835513830184937,9.79681396484375,0.09185615926980972,0.053983625024557114,-0.010231691412627697
-0.5946164131164551,0.4507479667663574,9.722636222839355,0.11323580890893936,0.02038702741265297,-0.01511846948415041
-0.5874379873275757,0.5009972453117371,9.799206733703613,0.0949103906750679,0.049707695841789246,0.00259610079228878
-0.6137589812278748,0.4866403043270111,9.966704368591309,0.05703786388039589,0.04359922185540199,0.016034740954637527
-0.6352944374084473,0.4292125701904297,9.988240242004395,0.014889402315020561,-0.0034360159188508987,0.017867282032966614
-0.5132604837417603,0.4531407952308655,9.77527904510498,-0.02298312820494175,-0.028480753302574158,0.0050394898280501366
-0.4893322288990021,0.41216370463371277,9.657731056213379,-0.02664821222424507,0.014278554357588291,0.0050394898280501366
-0.4773681163787842,0.37866419553756714,9.660423278808594,0.031382277607917786,0.040544986724853516,0.017867282032966614
-0.5132604837417603,0.2997010350227356,9.729815483093262,0.09979717433452606,0.06375718116760254,0.01969982497394085
-0.6041877269744873,0.3188436031341553,9.954740524291992,0.13095037639141083,0.07353074103593826,-0.0010689827613532543
-0.5874379873275757,0.4172484576702118,10.043274879455566,0.11262496560811996,0.03321481868624687,-0.024281177669763565
-0.6041877269744873,0.4507479667663574,9.959526062011719,0.04543176665902138,0.0130568603053689,-0.03833066672086716
-0.5252245664596558,0.5009972453117371,9.684351921081543,0.020997874438762665,0.002672456670552492,-0.04504998400807381
-0.6089733839035034,0.5009972453117371,9.652945518493652,0.06192464008927345,0.03199312463402748,-0.0328330397605896
-0.5204389095306396,0.587138831615448,9.59791088104248,0.12789614498615265,0.0558161698281765,-0.020616095513105392
-0.623330295085907,0.6038886308670044,9.806385040283203,0.15843850374221802,0.09124530851840973,-0.010842538438737392
-0.5874379873275757,0.6708876490592957,10.074381828308105,0.12728530168533325,0.12850698828697205,-0.007788302376866341
-0.8246265053749084,0.5847460627555847,10.122238159179688,0.07230904698371887,0.03626905754208565,-0.021226942539215088
-0.7022934556007385,0.6828517913818359,10.004989624023438,0.05031854286789894,-0.0009926267666742206,-0.033443886786699295
-0.7357929348945618,0.6708876490592957,9.794421195983887,0.026495499536395073,-0.027259059250354767,-0.030389651656150818
-0.6352944374084473,0.7378866672515869,9.61944580078125,0.04115583375096321,-0.03336753323674202,-0.0261137206107378
-0.6329016089439392,0.709172785282135,9.650552749633789,0.0552053228020668,-0.004046862944960594,-0.008399149402976036
-0.7357929348945618,0.7474579811096191,10.074381828308105,-0.005268557462841272,0.0423775278031826,-0.0022906772792339325
-0.7022934556007385,0.7522436380386353,9.973882675170898,-0.048638712614774704,-0.030313294380903244,-0.0016798300202935934
-0.6687939167022705,0.7139584422111511,9.768099784851074,-0.05719057470560074,-0.03825430944561958,0.004428642801940441
-0.6544370055198669,0.6565307378768921,9.545269012451172,-0.024815669283270836,-0.01748550310730934,0.0032069480512291193
-0.6496513485908508,0.6876373887062073,9.669994354248047,-0.0022143214009702206,0.024662958458065987,0.0068720318377017975
-0.7549355626106262,0.6062814593315125,9.866206169128418,0.04787515476346016,0.016721943393349648,0.013591351918876171
-0.656829833984375,0.6254240274429321,9.784850120544434,0.06192464008927345,-0.007101099472492933,0.008704573847353458
-0.5802595019340515,0.7283154129981995,9.926026344299316,0.04543176665902138,0.03382566571235657,0.006261184345930815
-0.6783652305603027,0.6254240274429321,9.949954986572266,0.025884652510285378,-0.008322793990373611,0.00259610079228878
-0.625723123550415,0.654137909412384,9.81117057800293,0.02283041551709175,-0.0364217683672905,-0.0029015245381742716
-0.6161518096923828,0.654137909412384,9.691530227661133,0.012446013279259205,-0.016874656081199646,-0.007788302376866341
-0.6424728631973267,0.654137909412384,9.6433744430542,0.0038941511884331703,0.004504998680204153,-0.017561858519911766
-0.6735795736312866,0.6972087025642395,9.708279609680176,0.008170082233846188,0.028938889503479004,-0.011453386396169662
-0.7334001660346985,0.6732804775238037,9.835099220275879,0.010002624243497849,0.016111096367239952,-0.0029015245381742716
-0.623330295085907,0.7043871879577637,9.701101303100586,-0.014431266114115715,0.031382277607917786,-0.020005248486995697
-0.7214360237121582,0.7259225845336914,9.904491424560547,0.009391776286065578,0.05276193097233772,-0.007788302376866341
-0.7668996453285217,0.6900302171707153,9.945169448852539,0.024662958458065987,0.030160583555698395,0.00015271181473508477
-0.7573283910751343,0.7067800164222717,9.916455268859863,0.031382277607917786,0.0051158457063138485,-0.0004581354442052543
-0.745364248752594,0.7043871879577637,9.792028427124023,0.01794363744556904,0.0014507622690871358,-0.013896775431931019
-0.7046862840652466,0.7785646915435791,9.751350402832031,0.026495499536395073,0.014278554357588291,-0.017561858519911766
-0.6496513485908508,0.7881359457969666,9.70349407196045,0.048486001789569855,0.02405211143195629,0.0007635590736754239
-0.6448656916618347,0.7235297560691833,9.77527904510498,0.08696937561035156,0.03993413969874382,0.02092151902616024
-0.7262216806411743,0.6278168559074402,9.880562782287598,0.0814717561006546,0.0295497365295887,0.010537114925682545
-0.6855437159538269,0.7139584422111511,9.832706451416016,0.03321481868624687,0.0130568603053689,-0.01695101149380207
-0.7262216806411743,0.7689933776855469,9.842277526855469,-0.010766183026134968,-0.0009926267666742206,-0.019394399598240852
-0.6903293132781982,0.7809575200080872,9.725028991699219,-0.035200074315071106,-0.005879404954612255,-0.012675080448389053
-0.6975077986717224,0.7474579811096191,9.693922996520996,-0.005268557462841272,0.012446013279259205,-0.0065666078589856625
-0.7310073375701904,0.7905287742614746,9.768099784851074,0.03687990456819534,0.031382277607917786,-0.013896775431931019
-0.7716853022575378,0.8216354846954346,9.892526626586914,0.03626905754208565,0.03749075159430504,-0.012064233422279358
-0.7980063557624817,0.8240283131599426,9.930811882019043,0.02283041551709175,0.0295497365295887,-0.009009997360408306
-0.7884350419044495,0.8240283131599426,9.959526062011719,-0.0009926267666742206,-0.0022143214009702206,-0.0010689827613532543
-0.7956135272979736,0.8072785139083862,9.875777244567871,-0.0028251686599105597,-0.024815669283270836,0.001985253533348441
-0.6975077986717224,0.804885745048523,9.729815483093262,-0.00038177953683771193,-0.029091600328683853,0.00259610079228878
-0.6855437159538269,0.7809575200080872,9.66520881652832,0.014278554357588291,-0.005268557462841272,0.001985253533348441
-0.6879364848136902,0.7642077207565308,9.600303649902344,0.0295497365295887,0.014889402315020561,0.001985253533348441
-0.6975077986717224,0.7235297560691833,9.677172660827637,0.04604261368513107,0.039323292672634125,0.005650337319821119
-0.7668996453285217,0.7163512706756592,9.81356430053711,0.03321481868624687,0.030160583555698395,0.00015271181473508477
-0.7070791125297546,0.8072785139083862,9.892526626586914,-0.008933641016483307,0.02283041551709175,-0.005344913341104984
-0.7668996453285217,0.7809575200080872,9.981060981750488,-0.05719057470560074,0.0008399150101467967,-0.005344913341104984
-0.7716853022575378,0.740279495716095,9.856635093688965,-0.0626882016658783,-0.019318044185638428,-0.0016798300202935934
-0.7908278703689575,0.7067800164222717,9.751350402832031,-0.04130854457616806,-0.024815669283270836,-0.0035123717971146107
-0.7166503667831421,0.7307082414627075,9.569196701049805,0.03321481868624687,-0.005879404954612255,-0.01572931744158268
-0.6544370055198669,0.8144569993019104,9.595518112182617,0.0955212414264679,0.0423775278031826,-0.021226942539215088
-0.776470959186554,0.8383852243423462,9.930811882019043,0.03687990456819534,0.03382566571235657,0.0050394898280501366
-0.8772686123847961,0.7689933776855469,9.990633010864258,-0.0016034740256145597,-0.004657710436731577,-0.0029015245381742716
-0.8147560954093933,0.8216354846954346,9.808777809143066,-0.02298312820494175,-0.0358109213411808,-0.021226942539215088
-0.7692924737930298,0.862313449382782,9.715457916259766,-0.01382041908800602,-0.03764346241950989,-0.020616095513105392
-0.6975077986717224,0.8886345028877258,9.621838569641113,0.016721943393349648,-0.008322793990373611,-0.009620844386518002
-0.7214360237121582,0.8838488459587097,9.722636222839355,0.039323292672634125,0.025884652510285378,0.008093725889921188
-0.8222336769104004,0.8001000881195068,9.854242324829102,0.02710634656250477,0.02107422985136509,0.014202198944985867
-0.7525427341461182,0.8168498277664185,9.768099784851074,0.03680354729294777,0.019241688773036003,0.0008399150101467967
-0.6927221417427063,0.8144569993019104,9.650552749633789,0.02764083817601204,0.022906772792339325,-0.010155336000025272
-0.7716853022575378,0.8479565382003784,9.79681396484375,0.012980503961443901,0.06016845628619194,-0.018096350133419037
-0.8318049907684326,0.8575277924537659,9.873384475708008,0.008704573847353458,0.049173206090927124,-0.01626380905508995
-0.8294121623039246,0.8599206209182739,9.887741088867188,0.015423892997205257,0.010689826682209969,-0.005879404954612255
-0.8341978192329407,0.8383852243423462,9.854242324829102,0.023364907130599022,-0.004581354558467865,-0.004657710436731577
-0.7621139883995056,0.89581298828125,9.753743171691895,0.03008422814309597,0.002748812548816204,-0.01626380905508995
-0.7668996453285217,0.9388837814331055,9.751350402832031,0.03802524134516716,0.03573456406593323,-0.016874656081199646
-0.8270193338394165,0.9484550952911377,9.827920913696289,0.0459662564098835,0.040010496973991394,-0.011377030052244663
-0.8509475588798523,0.953240692615509,9.854242324829102,0.05024218559265137,0.006413896102458239,0.002672456670552492
-0.8198408484458923,0.92691969871521,9.799206733703613,0.02764083817601204,-0.003359660040587187,0.008780929259955883
-0.8123632669448853,0.8790631890296936,9.736993789672852,0.0038177953101694584,-0.004581354558467865,0.002061609411612153
-0.776470959186554,0.9029914736747742,9.645767211914062,0.00015271181473508477,0.00519220158457756,-0.0064902519807219505
-0.7597211599349976,0.9221340417861938,9.60508918762207,0.016645587980747223,0.018019994720816612,-0.0022143214009702206
-0.7668996453285217,0.8934201598167419,9.662816047668457,0.028251685202121735,0.03268032893538475,0.010002624243497849
-0.7932206988334656,0.862313449382782,9.70349407196045,0.025197450071573257,0.03573456406593323,0.011835165321826935
-0.8075776696205139,0.8766704201698303,9.887741088867188,0.0007635590736754239,0.04306473210453987,0.009391776286065578
-0.8341978192329407,0.8599206209182739,10.0073823928833,-0.03161134570837021,0.01435491070151329,0.005726693198084831
-0.8341978192329407,0.8694919347763062,10.016953468322754,-0.04443913698196411,0.00030542362947016954,0.002672456670552492
-0.8988040089607239,0.7905287742614746,9.961918830871582,-0.06154286116361618,-0.03390202298760414,-0.008933641016483307
-0.8533403873443604,0.8144569993019104,9.684351921081543,-0.03405473381280899,-0.051616594195365906,-0.027259059250354767
-0.7645068168640137,0.9029914736747742,9.514162063598633,0.03497100621461868,-0.028404397889971733,-0.02542651630938053
-0.6687939167022705,0.9918249845504761,9.540482521057129,0.08811471611261368,0.027793550863862038,-0.0022143214009702206
-0.7716853022575378,0.9699904918670654,9.830313682556152,0.07834116369485855,0.05467082932591438,0.013667707331478596
-0.8437690734863281,0.9508479237556458,9.947562217712402,0.012369656935334206,0.025350160896778107,0.0008399150101467967
-0.8964111804962158,0.9029914736747742,9.873384475708008,-0.05482354015111923,-0.016187451779842377,-0.01626380905508995
-0.8341978192329407,0.9317052960395813,9.725028991699219,-0.060932014137506485,-0.025350160896778107,-0.015652960166335106
-0.8003991842269897,0.92691969871521,9.705886840820312,-0.019394399598240852,-0.009468132629990578,0.0008399150101467967
-0.776470959186554,0.89581298828125,9.727422714233398,0.01969982497394085,0.00519220158457756,0.0130568603053689
-0.7932206988334656,0.89581298828125,9.799206733703613,0.03008422814309597,0.024128466844558716,0.013667707331478596
-0.8772686123847961,0.8455637097358704,9.985847473144531,0.024586603045463562,0.01252236869186163,0.005726693198084831
-0.8653044700622559,0.8910273313522339,9.897313117980957,0.004428642801940441,-0.04611896723508835,0.0014507622690871358
-0.8027920126914978,0.9029914736747742,9.693922996520996,-0.02367033064365387,-0.051616594195365906,-0.0009926267666742206
-0.7740781307220459,0.8886345028877258,9.573982238769531,-0.021226942539215088,-0.018019994720816612,-0.0016034740256145597
-0.7812566161155701,0.86470627784729,9.578767776489258,0.019088976085186005,0.013133215717971325,-0.0009926267666742206
-0.7908278703689575,0.8503493666648865,9.631410598754883,0.045355409383773804,0.02107422985136509,-0.0016034740256145597
-0.7525427341461182,0.89581298828125,9.713065147399902,0.06795676052570343,0.018019994720816612,-0.004657710436731577
-0.7908278703689575,0.9747761487960815,9.93559741973877,0.0050394898280501366,0.03023693896830082,-0.0064902519807219505
-0.7860422134399414,0.9675976634025574,9.978668212890625,-0.03955236077308655,0.016187451779842377,-0.007711946498602629
-0.8341978192329407,0.8742775917053223,9.870991706848145,-0.08903098851442337,-0.0198525357991457,-0.0034360159188508987
-0.7740781307220459,0.9245268702507019,9.784850120544434,0.08750387281179428,0.08582404255867004,-0.008322793990373611
-0.9346963167190552,0.8814560174942017,10.16291618347168,0.07345438003540039,0.037567105144262314,0.0051158457063138485
-0.9131609201431274,0.8910273313522339,10.091131210327148,0.03924693539738655,-0.014965757727622986,0.0032833039294928312
-0.8294121623039246,0.9245268702507019,9.866206169128418,-0.0462716780602932,-0.046729814261198044,-0.015042114071547985
-0.7573283910751343,0.9460622668266296,9.564411163330078,-0.06704048812389374,-0.04306473210453987,-0.026037365198135376
-0.6592226624488831,0.9412766098976135,9.554840087890625,-0.019394399598240852,-0.007635590620338917,-0.008933641016483307
-0.8099704384803772,0.7378866672515869,9.667601585388184,0.009315420873463154,0.016187451779842377,0.014889402315020561
-0.7836494445800781,0.7498508095741272,9.693922996520996,0.013591351918876171,0.025961007922887802,-0.023593975231051445
-0.8318049907684326,0.9029914736747742,9.78963565826416,0.0007635590736754239,0.0393996499478817,-0.041919391602277756
-0.8461619019508362,0.9966106414794922,9.854242324829102,-0.004734066314995289,0.02473931387066841,-0.029091600328683853
-0.870090126991272,0.9942178130149841,9.863813400268555,-0.005955760832875967,0.002748812548816204,-0.014431266114115715
-0.8509475588798523,0.9990034699440002,9.770493507385254,-0.029778804630041122,-0.013744063675403595,-0.009544488042593002
-0.8171489238739014,0.953240692615509,9.710672378540039,-0.020005248486995697,0.018019994720816612,-0.0022143214009702206
-0.8892326951026917,0.8862416744232178,9.744172096252441,0.0032069480512291193,0.027182703837752342,0.0038941511884331703
-0.87248295545578,0.8910273313522339,9.772886276245117,0.04963133856654167,0.009468132629990578,0.006948387715965509
-0.8485547304153442,0.9221340417861938,9.863813400268555,0.04230117425322533,0.0021379655227065086,0.0051158457063138485
-0.8246265053749084,0.9580263495445251,9.878170013427734,-0.014507622458040714,-0.021685076877474785,0.002672456670552492
-0.8246265053749084,0.9364909529685974,9.770493507385254,-0.060932014137506485,-0.030847785994410515,0.0032833039294928312
-0.8147560954093933,0.8982058167457581,9.640981674194336,-0.0462716780602932,-0.02901524491608143,0.0051158457063138485
-0.8123632669448853,0.8910273313522339,9.62901782989502,-0.02367033064365387,-0.017409147694706917,0.0051158457063138485
-0.7980063557624817,0.9053842425346375,9.624231338500977,0.023975754156708717,0.007635590620338917,0.0051158457063138485
-0.7956135272979736,0.92691969871521,9.713065147399902,0.03558185324072838,0.025961007922887802,0.010002624243497849
-0.8294121623039246,0.8886345028877258,9.847063064575195,0.0331384651362896,0.02107422985136509,0.018554486334323883
-0.8246265053749084,0.8838488459587097,9.878170013427734,0.022754060104489326,0.010689826682209969,0.019776180386543274
-0.8270193338394165,0.8383852243423462,9.827920913696289,-0.009009997360408306,-0.011300674639642239,0.013667707331478596
-0.776470959186554,0.831206738948822,9.66520881652832,-0.03161134570837021,-0.00519220158457756,0.00022906772210262716
-0.8413762450218201,0.8264211416244507,9.708279609680176,-0.01511846948415041,0.019241688773036003,-0.0034360159188508987
-0.87248295545578,0.8288139700889587,9.815957069396973,0.012980503961443901,0.013744063675403595,0.004504998680204153
-0.8294121623039246,0.8694919347763062,9.763314247131348,0.0325276181101799,-0.01252236869186163,0.0051158457063138485
-0.7956135272979736,0.8934201598167419,9.784850120544434,0.030695075169205666,-0.007635590620338917,0.0032833039294928312
-0.8318049907684326,0.9197412133216858,9.801599502563477,0.010537114925682545,-0.009468132629990578,-0.005268557462841272
-0.7716853022575378,0.9412766098976135,9.68913745880127,-0.013896775431931019,-0.010078979656100273,-0.011377030052244663
-0.8027920126914978,0.92691969871521,9.681958198547363,-0.01511846948415041,0.0021379655227065086,-0.005879404954612255
-0.8147560954093933,0.9245268702507019,9.650552749633789,-0.011453386396169662,0.0015271181473508477,-0.0028251686599105597
-0.8318049907684326,0.9580263495445251,9.744172096252441,-0.0035123717971146107,0.02229592576622963,0.006948387715965509
-0.8892326951026917,0.9388837814331055,9.880562782287598,0.0038177953101694584,0.014965757727622986,0.016721943393349648
-0.8916255235671997,0.9197412133216858,9.851848602294922,-0.004123218823224306,-0.003359660040587187,0.009391776286065578
-0.8270193338394165,0.9412766098976135,9.772886276245117,-0.010231691412627697,-0.00030542362947016954,0.002672456670552492
-0.838983416557312,0.9077770709991455,9.765707015991211,0.001985253533348441,-0.0021379655227065086,0.006337540224194527
-0.8123632669448853,0.8790631890296936,9.768099784851074,0.016645587980747223,-0.011300674639642239,0.014889402315020561
-0.7645068168640137,0.8455637097358704,9.746564865112305,0.010537114925682545,-0.007024743594229221,0.016721943393349648
-0.7980063557624817,0.804885745048523,9.686744689941406,-0.0065666078589856625,0.0021379655227065086,0.010002624243497849
-0.8099704384803772,0.8024929165840149,9.705886840820312,-0.0004581354442052543,0.0198525357991457,-0.0009926267666742206
-0.8413762450218201,0.773779034614563,9.777671813964844,0.020310672000050545,0.0021379655227065086,-0.011987877078354359
-0.747757077217102,0.8431708812713623,9.648159980773926,0.01847812905907631,0.003359660040587187,-0.021150587126612663
-0.7405785918235779,0.8431708812713623,9.602696418762207,0.016645587980747223,0.02107422985136509,-0.02420482225716114
-0.7573283910751343,0.86470627784729,9.684351921081543,0.021532366052269936,0.05344913527369499,-0.031534988433122635
-0.8147560954093933,0.8575277924537659,9.720243453979492,0.02214321307837963,0.057114217430353165,-0.03336753323674202
-0.7668996453285217,0.8886345028877258,9.736993789672852,0.001985253533348441,0.07727217674255371,-0.03764346241950989
-0.8075776696205139,0.7163512706756592,9.530911445617676,-0.0010689827613532543,0.12003148347139359,-0.07246175408363342
-0.7668996453285217,0.7067800164222717,9.40169906616211,0.05085303261876106,0.15973655879497528,-0.09506310522556305
-0.8964111804962158,0.7163512706756592,9.533304214477539,0.08017370104789734,0.22021043300628662,-0.09445225447416306
-0.8964111804962158,0.6828517913818359,9.602696418762207,0.09666658192873001,0.23120568692684174,-0.10605835169553757
-0.7334001660346985,0.7235297560691833,9.1624174118042,0.125987246632576,0.2996205687522888,-0.12560546398162842
-0.7214360237121582,0.831206738948822,9.083154678344727,0.18768282234668732,0.504865288734436,-0.13537901639938354
-1.1668001413345337,0.8575277924537659,9.710672378540039,0.256708562374115,0.694227933883667,-0.11766445636749268
-1.3824533224105835,0.8766704201698303,9.993025779724121,0.2573194205760956,0.6838434934616089,-0.12438376992940903
-1.44945228099823,0.953240692615509,10.419246673583984,0.15775130689144135,0.5500679612159729,-0.16042375564575195
-1.5355939865112305,0.9221340417861938,10.33071231842041,0.08017370104789734,0.4566083252429962,-0.17386239767074585
-1.456630825996399,0.9149555563926697,10.04566764831543,-0.04932591691613197,0.32344362139701843,-0.23067119717597961
-1.4039887189865112,1.042074203491211,9.995418548583984,-0.0853659063577652,0.29656633734703064,-0.25205084681510925
-1.705484390258789,1.089930772781372,10.103095054626465,-0.1244601309299469,0.2654131352901459,-0.23006035387516022
-1.7365909814834595,1.0301101207733154,9.717850685119629,-0.12323843687772751,0.1298050433397293,-0.19524206221103668
-1.6313068866729736,0.862313449382782,9.040083885192871,-0.04443913698196411,0.1701209545135498,-0.17080816626548767
-2.370988130569458,1.0205388069152832,10.040882110595703,0.362995982170105,0.5897729992866516,-0.20257222652435303
-2.4451656341552734,1.1832507848739624,9.902098655700684,0.24754585325717926,0.4682144224643707,-0.2434989959001541
-2.4475584030151367,1.475175142288208,9.78963565826416,0.16080553829669952,0.4181249439716339,-0.2575484812259674
-2.550748825073242,1.6669000387191772,9.89013385772705,0.1107160672545433,0.3423798978328705,-0.23616881668567657
-2.5842485427856445,1.7673985958099365,9.765707015991211,0.08628217875957489,0.1841704547405243,-0.1921878159046173
-2.612962245941162,1.7075780630111694,9.497411727905273,0.06001574173569679,0.091932512819767,-0.1524827480316162
-2.7014968395233154,1.7075780630111694,9.442377090454102,0.031916771084070206,0.06810946762561798,-0.11705360561609268
-2.644068956375122,1.695613980293274,9.351449966430664,0.011147962883114815,0.058335911482572556,-0.08162446320056915
-2.713460922241211,1.657328724861145,9.420842170715332,0.008704573847353458,0.059557609260082245,-0.05413633957505226
-2.541177749633789,1.5086746215820312,9.384949684143066,0.029473381116986275,-0.0009162708884105086,-0.008322793990373611
-2.471486806869507,1.415354609489441,9.3490571975708,0.0331384651362896,-0.007024743594229221,0.015500249341130257
-2.3374886512756348,1.2239288091659546,9.384949684143066,0.036192700266838074,0.013744063675403595,0.0295497365295887
-2.2561326026916504,1.0875378847122192,9.361021041870117,0.03924693539738655,0.037567105144262314,0.014278554357588291
-2.457129716873169,1.0348957777023315,9.638588905334473,0.04230117425322533,0.060779303312301636,-0.018707197159528732
-2.524427890777588,1.1425727605819702,9.617053031921387,0.047798797488212585,0.0015271181473508477,-0.05047125369310379
-2.5914268493652344,1.2885349988937378,9.497411727905273,0.05024218559265137,-0.03023693896830082,-0.05413633957505226
-2.572284460067749,1.4249259233474731,9.368199348449707,0.054518118500709534,-0.03512371703982353,-0.035200074315071106
-2.59621262550354,1.4847464561462402,9.396913528442383,0.05268557742238045,-0.032069481909275055,-0.021150587126612663
-2.7182464599609375,1.6262221336364746,9.677172660827637,0.011147962883114815,-0.07605048269033432,0.007559234742075205
-2.409273386001587,1.5807584524154663,8.918049812316895,-0.1629435122013092,-0.11636640131473541,0.03749075159430504
-2.531606435775757,1.23589289188385,9.143274307250977,-0.0841442123055458,0.011300674639642239,0.05337277799844742
-2.490629196166992,1.3124631643295288,9.48066234588623,0.020310672000050545,-0.03023693896830082,0.07475243508815765
-2.1867408752441406,1.3435698747634888,9.552447319030762,-0.04749337583780289,-0.14202198386192322,0.05948125198483467
-2.189133644104004,1.26699960231781,9.552447319030762,-0.042606595903635025,-0.12369657307863235,0.058870404958724976
-2.1843478679656982,1.2430713176727295,9.652945518493652,-0.03894151374697685,-0.1169772520661354,0.058870404958724976
-2.244168519973755,1.164108157157898,9.624231338500977,-0.033443886786699295,-0.12552911043167114,0.057648710906505585
-2.282453775405884,1.0803594589233398,9.63619613647461,-0.03527642786502838,-0.1682884246110916,0.03382566571235657
-2.2633111476898193,1.0947163105010986,9.62901782989502,-0.050547610968351364,-0.1847812980413437,0.016721943393349648
-2.2106690406799316,1.1353943347930908,9.463912963867188,-0.09636115282773972,-0.20066332817077637,-0.010155336000025272
-2.110170364379883,1.168893814086914,9.23180866241455,-0.111021488904953,-0.168899267911911,-0.005879404954612255
-1.937588095664978,1.1880364418029785,9.056833267211914,-0.05726693198084831,-0.08338065445423126,0.016721943393349648
-2.0288145542144775,1.2335001230239868,9.47348403930664,0.015423892997205257,0.02351761981844902,0.058870404958724976
-2.220240354537964,1.1521440744400024,9.758528709411621,0.014202198944985867,-0.032069481909275055,0.058870404958724976
-2.0742781162261963,1.1377872228622437,9.63619613647461,-0.06765133142471313,-0.07360709458589554,0.026495499536395073
-2.0120646953582764,1.1282159090042114,9.571589469909668,-0.09025268256664276,-0.07543963938951492,0.007559234742075205
-1.9594225883483887,1.0683952569961548,9.461520195007324,-0.08903098851442337,-0.08765657991170883,-0.007711946498602629
-1.76051926612854,1.0157532691955566,9.107381820678711,-0.032222192734479904,-0.051616594195365906,-0.022372281178832054
-1.8658034801483154,0.8934201598167419,9.337093353271484,0.04840964451432228,0.0784938707947731,-0.019318044185638428
-2.1699910163879395,0.9340981245040894,9.758528709411621,0.03130592033267021,0.058335911482572556,-0.059023115783929825
-2.1317057609558105,1.1210373640060425,9.533304214477539,-0.04688252881169319,0.05100574716925621,-0.09811734408140182
-2.0910279750823975,1.2478569746017456,9.24855899810791,-0.04321744292974472,0.09620844572782516,-0.09689565002918243
-2.205883264541626,1.3627125024795532,9.533304214477539,0.030695075169205666,0.17561858892440796,-0.05596888065338135
-2.2944178581237793,1.4321043491363525,9.624231338500977,0.00992626789957285,-0.010689826682209969,-0.01382041908800602
-2.2106690406799316,1.4321043491363525,9.432806015014648,-0.028557108715176582,-0.01252236869186163,-0.010155336000025272
-2.174776792526245,1.3316057920455933,9.2557373046875,-0.06276455521583557,0.051616594195365906,0.010613471269607544
-2.213061809539795,1.1808580160140991,9.571589469909668,-0.0261137206107378,0.09804098308086395,0.04359922185540199
-2.2657039165496826,0.9990034699440002,9.669994354248047,0.00015271181473508477,0.025961007922887802,0.047264307737350464
-2.110170364379883,1.0013962984085083,9.475876808166504,-0.025502873584628105,0.01435491070151329,0.015500249341130257
-2.086242198944092,1.0372886657714844,9.274879455566406,-0.041384901851415634,0.05528167635202408,-0.01748550310730934
-2.1699910163879395,1.0707881450653076,9.454340934753418,-0.04321744292974472,0.12675081193447113,-0.01382041908800602
-2.2704896926879883,1.0683952569961548,9.600303649902344,-0.029778804630041122,0.12186402827501297,-0.005879404954612255
-2.3757736682891846,1.0348957777023315,9.81117057800293,-0.008399149402976036,0.05100574716925621,-0.0022143214009702206
-2.2872393131256104,1.1234302520751953,9.715457916259766,-0.0261137206107378,-0.007024743594229221,-0.018707197159528732
-2.2657039165496826,1.1736794710159302,9.655338287353516,-0.026724567636847496,-0.015576604753732681,-0.01748550310730934
-2.2322044372558594,1.168893814086914,9.444769859313965,0.001374406274408102,-0.03817795217037201,-0.007101099472492933
-2.189133644104004,1.176072359085083,9.332307815551758,0.02214321307837963,-0.03145863488316536,-0.0022143214009702206
-2.229811668395996,1.0971091985702515,9.413662910461426,0.05207473039627075,0.02473931387066841,-0.0034360159188508987
-2.301596164703369,1.0923235416412354,9.581160545349121,0.06734590977430344,0.04611896723508835,-0.027259059250354767
-2.440380096435547,1.1784651279449463,9.90688419342041,0.03130592033267021,0.002748812548816204,-0.02664821222424507
-2.3662025928497314,1.3052847385406494,9.530911445617676,-0.04199574887752533,-0.09743013978004456,-0.019928891211748123
-2.292025089263916,1.353141188621521,9.279664993286133,-0.06887302547693253,-0.09865183383226395,-0.012598725035786629
-2.191526412963867,1.3004990816116333,9.020941734313965,-0.06581879407167435,-0.020463382825255394,0.01122431829571724
-2.2968106269836426,1.2239288091659546,9.559625625610352,-0.017561858519911766,0.06261184066534042,0.040544986724853516
-2.3829522132873535,1.1377872228622437,9.854242324829102,-0.014507622458040714,-0.022906772792339325,0.0558161698281765
-2.2657039165496826,1.1114661693572998,9.61226749420166,-0.05787777900695801,-0.08521319180727005,0.04787515476346016
-2.1604197025299072,1.077966570854187,9.420842170715332,-0.060932014137506485,-0.08460234850645065,0.0429883748292923
-2.0694925785064697,1.0396814346313477,9.444769859313965,-0.010231691412627697,-0.02473931387066841,0.04604261368513107
-2.0838494300842285,0.9197412133216858,9.492626190185547,0.058183200657367706,-0.013744063675403595,0.03077143058180809
-2.1412770748138428,0.9628120064735413,9.540482521057129,0.046577103435993195,0.02107422985136509,-0.021150587126612663
-2.236989974975586,1.0660024881362915,9.595518112182617,-0.0016798300202935934,0.011300674639642239,-0.04680617153644562
-2.2585253715515137,1.0995019674301147,9.540482521057129,-0.014507622458040714,-0.01252236869186163,-0.04741701856255531
-2.3039891719818115,1.1665010452270508,9.432806015014648,-0.017561858519911766,-0.019241688773036003,-0.0364217683672905
-2.3374886512756348,1.3316057920455933,9.554840087890625,-0.007177455350756645,-0.006413896102458239,-0.021150587126612663
-2.361416816711426,1.4297115802764893,9.713065147399902,-0.021837789565324783,-0.033291175961494446,0.008170082233846188
-2.464308261871338,1.3507484197616577,9.554840087890625,-0.04077405482530594,-0.1572931706905365,0.03687990456819534
-2.1843478679656982,1.3794622421264648,9.51894760131836,-0.07070557028055191,-0.040010496973991394,0.05337277799844742
-2.2633111476898193,1.2574282884597778,9.655338287353516,-0.06459710001945496,-0.1328592747449875,0.05276193097233772
-2.2106690406799316,1.2095718383789062,9.609874725341797,-0.10796725004911423,-0.18905723094940186,0.07475243508815765
-2.0982062816619873,1.077966570854187,9.540482521057129,-0.11468657106161118,-0.21593450009822845,0.08574768155813217
-2.0670995712280273,1.0037890672683716,9.583553314208984,-0.07620319724082947,-0.1963873952627182,0.10040801763534546
-2.031207323074341,0.9652048349380493,9.698708534240723,-0.0713164210319519,-0.18539214134216309,0.08819106966257095
-2.00727915763855,0.98703932762146,9.741779327392578,-0.08719844371080399,-0.19333316385746002,0.07902836054563522
-1.9450657367706299,0.9508479237556458,9.78963565826416,-0.12140589207410812,-0.19455485045909882,0.07047650218009949
-1.8586249351501465,0.9580263495445251,9.69631576538086,-0.1104106456041336,-0.24464432895183563,0.05948125198483467
-1.815554141998291,0.9675976634025574,9.691530227661133,-0.09697200357913971,-0.2489202618598938,0.05948125198483467
-1.8394824266433716,0.9723833203315735,9.677172660827637,-0.07375980913639069,-0.2605263590812683,0.06558972597122192
-1.8849459886550903,1.0301101207733154,9.744172096252441,-0.0981936976313591,-0.26968905329704285,0.0814717561006546
-1.8753747940063477,0.9580263495445251,9.725028991699219,-0.1238492801785469,-0.2874036431312561,0.0942995473742485
-1.7581263780593872,0.8862416744232178,9.571589469909668,-0.12934690713882446,-0.29473379254341125,0.08696937561035156
-1.5595221519470215,0.8910273313522339,9.377771377563477,-0.09513945877552032,-0.2611372172832489,0.0692548081278801
-1.485344648361206,1.0013962984085083,9.411270141601562,-0.042606595903635025,-0.19211146235466003,0.07536327838897705
-1.4949159622192383,1.0636097192764282,9.63619613647461,-0.021226942539215088,-0.1566823273897171,0.0955212414264679
-1.5738791227340698,1.113858938217163,9.870991706848145,-0.05726693198084831,-0.18844637274742126,0.11690089106559753
-1.5451651811599731,1.1186445951461792,9.940383911132812,-0.13056860864162445,-0.2641914486885071,0.13889139890670776
-1.5188441276550293,1.085145115852356,10.004989624023438,-0.22280654311180115,-0.3381039500236511,0.16271443665027618
-1.5882359743118286,1.046859860420227,10.313962936401367,-0.3046600818634033,-0.4211791753768921,0.19264595210552216
-0.22821545600891113,0.05563312768936157,9.602696418762207,-0.24846212565898895,-0.540905237197876,0.32581067085266113
-0.1540379524230957,-0.07118647545576096,9.69631576538086,-0.21120044589042664,-0.4938700199127197,0.31298285722732544
-0.09900303930044174,-0.12382857501506805,9.717850685119629,-0.20020519196987152,-0.48898324370384216,0.3038201630115509
-0.03439682722091675,-0.17198412120342255,9.748957633972168,-0.20753535628318787,-0.4840964674949646,0.2934357523918152
0.04217349737882614,-0.27726832032203674,9.768099784851074,-0.27533939480781555,-0.46577104926109314,0.2665584683418274
0.08045866340398788,-0.5404788255691528,9.588339805603027,-0.3248180150985718,-0.4468347728252411,0.2274642437696457
0.3535395562648773,-0.6840481758117676,9.09272575378418,-0.2570139765739441,-0.4169032573699951,0.17737478017807007
0.5018945336341858,-0.7031907439231873,8.877371788024902,-0.10063708573579788,-0.25686126947402954,0.1358371526002884
0.5353940725326538,-0.6625127792358398,9.109774589538574,0.013591351918876171,-0.04611896723508835,0.09613208472728729
0.4325026869773865,-0.5787639617919922,9.516554832458496,0.051463883370161057,0.08887827396392822,0.05948125198483467
0.3080759048461914,-0.5524429082870483,9.842277526855469,0.08017370104789734,0.1169772520661354,0.04787515476346016
0.30568310618400574,-0.5811567902565002,9.815957069396973,0.10888352245092392,0.06444438546895981,0.01794363744556904
0.3320041298866272,-0.4136592149734497,9.89970588684082,0.09544488787651062,0.08460234850645065,-0.01382041908800602
0.19770696759223938,-0.3251247704029083,10.15573787689209,0.04474456235766411,0.07299624383449554,-0.04130854457616806
0.18095721304416656,-0.2748754918575287,9.957133293151855,0.001374406274408102,0.015576604753732681,-0.06757497787475586
0.24795624613761902,-0.24137598276138306,9.569196701049805,0.01725643500685692,0.024128466844558716,-0.08345700800418854
0.17138592898845673,-0.1504487246274948,9.51894760131836,0.09422318637371063,0.08826743066310883,-0.0877329409122467
0.08045866340398788,-0.03290131315588951,9.870991706848145,0.15347537398338318,0.12858334183692932,-0.06757497787475586
0.054137613624334335,0.0029910283628851175,10.095916748046875,0.15897299349308014,0.11270131915807724,-0.05474718660116196
-0.03918246924877167,0.014955141581594944,9.573982238769531,0.10094250738620758,0.0393996499478817,-0.04680617153644562
0.15702898800373077,0.17527425289154053,9.744172096252441,0.037414394319057465,0.12247487902641296,-0.04253023862838745
-0.1779661774635315,-0.08554340898990631,10.220643043518066,-0.031000498682260513,0.06810946762561798,-0.051082100719213486
0.07806584239006042,0.1657029688358307,9.981060981750488,-0.042606595903635025,-0.027182703837752342,-0.07429429888725281
0.1091725304722786,0.14656038582324982,9.681958198547363,-0.021226942539215088,-0.018630841746926308,-0.05413633957505226
0.09242277592420578,0.09152546525001526,9.607481956481934,0.07101099193096161,0.059557609260082245,-0.031534988433122635
-0.0894317477941513,0.47228336334228516,7.622934818267822,0.054518118500709534,0.13469181954860687,-0.01382041908800602
0.0972084179520607,0.2183450609445572,9.36341381072998,0.08750387281179428,0.3124483823776245,0.08819106966257095
-0.45583271980285645,-0.3897309899330139,11.161321640014648,0.037414394319057465,0.2214321345090866,0.04909684881567955
-0.3888336718082428,-0.1576271951198578,11.158928871154785,-0.024281177669763565,0.07238540053367615,-0.005268557462841272
-0.2066800594329834,-0.030508488416671753,10.581958770751953,-0.1501157134771347,-0.08032641559839249,-0.027259059250354767
-0.1301097273826599,-0.023330021649599075,10.213165283203125,-0.16538690030574799,-0.11514470726251602,-0.030313294380903244
-0.0487537607550621,-0.04247260093688965,9.80399227142334,-0.09575030952692032,-0.0925433561205864,-0.031534988433122635
-0.043968115001916885,-0.08554340898990631,9.509376525878906,0.04718795046210289,-0.06383354216814041,-0.029091600328683853
0.032602209597826004,-0.004187439568340778,9.4088773727417,0.16935740411281586,-0.007024743594229221,-0.031534988433122635
-0.02961117960512638,0.10588239878416061,9.799206733703613,0.1895153671503067,0.04978405311703682,-0.019928891211748123
-0.08464609831571579,0.12023933976888657,9.595518112182617,0.09544488787651062,0.011911521665751934,-0.015652960166335106
-0.06789634376764297,0.2566302418708801,8.86062240600586,0.047798797488212585,0.07177454978227615,-0.019318044185638428
-0.08703892678022385,0.129810631275177,9.547661781311035,0.01175880990922451,0.11270131915807724,0.002672456670552492
-0.30987054109573364,0.01734796352684498,10.349855422973633,-0.02244863659143448,0.07727217674255371,-0.02298312820494175
-0.247358039021492,0.13220344483852386,10.129416465759277,-0.060932014137506485,0.019241688773036003,-0.026037365198135376
-0.1779661774635315,0.13938191533088684,10.026525497436523,-0.020616095513105392,-0.010689826682209969,-0.014431266114115715
-0.1301097273826599,0.16331014037132263,9.942776679992676,0.025808297097682953,-0.018019994720816612,-0.007711946498602629
-0.14685949683189392,0.1537388563156128,9.90688419342041,0.04046862944960594,-0.020463382825255394,-0.010766183026134968
-0.07746763527393341,0.23030917346477509,9.746564865112305,0.054518118500709534,-0.02901524491608143,-0.010766183026134968
-0.09421738982200623,0.2231307178735733,9.655338287353516,0.04840964451432228,-0.011911521665751934,0.005726693198084831
-0.22821545600891113,0.08673982322216034,10.2445707321167,-0.07620319724082947,-0.026571854948997498,0.015500249341130257
-0.12053844332695007,0.06999006122350693,9.78963565826416,-0.10857810080051422,-0.030847785994410515,0.008780929259955883
-0.07507480680942535,0.07477571070194244,9.557232856750488,-0.024281177669763565,0.027182703837752342,0.006948387715965509
-0.05593222752213478,0.10588239878416061,9.47348403930664,0.08933641016483307,0.09437590092420578,0.014278554357588291
-0.12293126434087753,0.09152546525001526,9.550054550170898,0.15286453068256378,0.1560714691877365,0.03504735976457596
-0.0726819857954979,0.11066804826259613,9.640981674194336,0.1638597846031189,0.18111620843410492,0.03565821051597595
-0.18035900592803955,0.06759724020957947,9.89013385772705,0.14797775447368622,0.2238755226135254,0.0429883748292923
-0.2907279431819916,0.029312077909708023,9.882955551147461,0.08383878320455551,0.16401249170303345,-0.0034360159188508987
-0.22103698551654816,0.11545369029045105,9.396913528442383,0.02641914412379265,0.18783552944660187,-0.032756682485342026
-0.11575279384851456,0.1704886108636856,8.834300994873047,0.06490252166986465,0.3784198760986328,-0.0364217683672905
-1.8849459886550903,0.6876373887062073,9.856635093688965,0.06734590977430344,0.19333316385746002,-0.1934095174074173
-1.9112670421600342,0.776171863079071,9.657731056213379,0.09910997003316879,0.09865183383226395,-0.19890713691711426
-1.7629120349884033,0.9197412133216858,9.404091835021973,0.15775130689144135,0.07116370648145676,-0.19768545031547546
-1.5930216312408447,1.1210373640060425,9.2557373046875,0.20906247198581696,0.1316375881433487,-0.1927986592054367
-1.6767704486846924,1.2693923711776733,9.468698501586914,0.21394924819469452,0.25502872467041016,-0.17202985286712646
-1.8011972904205322,1.2837493419647217,9.825528144836426,0.19256959855556488,0.30817243456840515,-0.13354648649692535
-2.158026933670044,1.144965648651123,10.246963500976562,0.14614520967006683,0.22998400032520294,-0.09506310522556305
-2.2010977268218994,1.0564311742782593,10.119845390319824,0.09666658192873001,0.007635590620338917,-0.09139802306890488
-2.119741678237915,1.0803594589233398,9.78963565826416,0.02764083817601204,-0.08704573661088943,-0.10361496359109879
-1.9450657367706299,1.2550355195999146,9.454340934753418,0.03008422814309597,-0.008246437646448612,-0.028480753302574158
-1.9351953268051147,1.2191431522369385,9.650552749633789,0.03130592033267021,-0.010689826682209969,0.015500249341130257
-1.9112670421600342,1.0875378847122192,9.868598937988281,-0.01817270554602146,-0.06200099736452103,0.02710634656250477
-1.7030915021896362,1.164108157157898,9.497411727905273,-0.10063708573579788,-0.12491826713085175,0.018554486334323883
-1.7988044023513794,1.1306086778640747,9.713065147399902,-0.11896250396966934,-0.060779303312301636,0.008780929259955883
-1.8801604509353638,1.0348957777023315,9.748957633972168,-0.10918894410133362,-0.15912571549415588,0.010002624243497849
-1.6671991348266602,1.0755738019943237,9.60508918762207,-0.09391776472330093,-0.17317520081996918,0.044820915907621384
-1.6767704486846924,0.92691969871521,9.63619613647461,-0.06704048812389374,-0.12308572232723236,0.06497887521982193
-1.688734531402588,0.8766704201698303,9.693922996520996,-0.03527642786502838,-0.12797249853610992,0.06192464008927345
-1.7485551834106445,0.7977072596549988,9.725028991699219,-0.03405473381280899,-0.13530266284942627,0.04787515476346016
-1.6767704486846924,0.8479565382003784,9.736993789672852,-0.037108972668647766,-0.16217994689941406,0.032603971660137177
-1.6002001762390137,0.8838488459587097,9.835099220275879,-0.042606595903635025,-0.1847812980413437,0.04665346071124077
-1.576271891593933,0.8886345028877258,9.89013385772705,-0.05726693198084831,-0.23303823173046112,0.050929389894008636
-1.540379524230957,0.8814560174942017,9.93559741973877,-0.09513945877552032,-0.2782409191131592,0.03993413969874382
-1.4997016191482544,0.8479565382003784,9.923633575439453,-0.14461809396743774,-0.3411581814289093,0.0295497365295887
-1.4231312274932861,0.7905287742614746,9.784850120544434,-0.1904316395521164,-0.3778090178966522,0.02038702741265297
-1.353440284729004,0.7139584422111511,9.650552749633789,-0.21181128919124603,-0.3503209054470062,0.020997874438762665
-1.2146565914154053,0.6924230456352234,9.547661781311035,-0.17454960942268372,-0.34665581583976746,0.02160872146487236
-1.145264744758606,0.6493522524833679,9.573982238769531,-0.13362284004688263,-0.32222193479537964,0.032603971660137177
-1.0256235599517822,0.6852445602416992,9.595518112182617,-0.1372879147529602,-0.28373855352401733,0.04421006888151169
-1.0184451341629028,0.6278168559074402,9.66520881652832,-0.16538690030574799,-0.23975755274295807,0.05459447205066681
-1.0064810514450073,0.5703890919685364,9.81356430053711,-0.17210622131824493,-0.24586601555347443,0.057648710906505585
-0.8988040089607239,0.5416752099990845,9.701101303100586,-0.18737739324569702,-0.26724568009376526,0.05154023692011833
-0.8461619019508362,0.5201398134231567,9.61944580078125,-0.19837264716625214,-0.24159009754657745,0.044820915907621384
-0.8171489238739014,0.4172484576702118,9.533304214477539,-0.1635543555021286,-0.2104368805885315,0.049707695841789246
-0.7860422134399414,0.3332005441188812,9.528518676757812,-0.12812520563602448,-0.15301723778247833,0.03687990456819534
-0.711864709854126,0.33798620104789734,9.602696418762207,-0.08170082420110703,-0.09498675167560577,0.03626905754208565
-0.7525427341461182,0.3332005441188812,9.638588905334473,-0.062153708189725876,-0.07666133344173431,0.038101598620414734
-0.6783652305603027,0.36191442608833313,9.708279609680176,-0.03527642786502838,-0.04489727318286896,0.03993413969874382
-0.711864709854126,0.35473597049713135,9.78245735168457,-0.005955760832875967,-0.028404397889971733,0.0423775278031826
-0.747757077217102,0.3332005441188812,9.827920913696289,0.006261184345930815,-0.029626091942191124,0.03687990456819534
-0.714257538318634,0.3523431420326233,9.875777244567871,0.012980503961443901,-0.03695625811815262,0.015500249341130257
-0.8246265053749084,0.30927231907844543,9.887741088867188,0.001985253533348441,-0.0393996499478817,0.005726693198084831
-0.6927221417427063,0.37866419553756714,9.710672378540039,0.0068720318377017975,-0.04306473210453987,-0.0028251686599105597
-0.7597211599349976,0.31405797600746155,9.674779891967773,0.04230117425322533,-0.03512371703982353,-0.0028251686599105597
-0.7238288521766663,0.34995031356811523,9.624231338500977,0.06978929787874222,-0.021685076877474785,-0.01626380905508995
-0.6999006271362305,0.38344982266426086,9.645767211914062,0.06917845457792282,-0.003970507066696882,-0.026037365198135376
-0.6927221417427063,0.46031925082206726,9.69631576538086,0.05268557742238045,0.025350160896778107,-0.03336753323674202
-0.7262216806411743,0.4866403043270111,9.756135940551758,0.038636088371276855,0.029626091942191124,-0.027869906276464462
-0.7405785918235779,0.4339981973171234,9.705886840820312,0.020310672000050545,0.018019994720816612,-0.01748550310730934
-0.7525427341461182,0.4292125701904297,9.686744689941406,0.03436015918850899,0.02107422985136509,-0.010766183026134968
-0.7549355626106262,0.4145565330982208,9.708279609680176,0.04474456235766411,0.020463382825255394,-0.012598725035786629
-0.7405785918235779,0.481854647397995,9.792028427124023,0.04474456235766411,0.02901524491608143,-0.022372281178832054
-0.7716853022575378,0.46749773621559143,9.825528144836426,0.0331384651362896,0.03145863488316536,-0.02664821222424507
-0.8051848411560059,0.49621158838272095,9.971489906311035,-0.005344913341104984,0.03268032893538475,-0.03703261539340019
-0.8485547304153442,0.4746761918067932,9.993025779724121,-0.017561858519911766,0.02107422985136509,-0.04008685052394867
-0.8341978192329407,0.4794618487358093,9.839884757995605,-0.007788302376866341,-0.027793550863862038,-0.043141089379787445
-0.8940183520317078,0.49621158838272095,9.38016414642334,0.015423892997205257,-0.027793550863862038,-0.0358109213411808
-0.4127618968486786,0.7115656137466431,9.078369140625,0.04169032722711563,0.01252236869186163,-0.019928891211748123
-0.6544370055198669,0.3164508044719696,9.059226989746094,0.11743538826704025,0.20188501477241516,-0.01382041908800602
-0.5419743061065674,0.4746761918067932,9.250951766967773,0.17180079221725464,0.2733541429042816,-0.035200074315071106
-0.6400800347328186,0.6373881101608276,9.830313682556152,0.19867807626724243,0.41079479455947876,-0.0022143214009702206
-1.1380863189697266,0.4651049077510834,10.517353057861328,0.11499200016260147,0.3796415627002716,0.02710634656250477
-1.2170493602752686,0.30209386348724365,10.438389778137207,-0.019394399598240852,0.17684027552604675,-0.03092414326965809
-1.04715895652771,0.43639102578163147,9.911669731140137,-0.09513945877552032,0.06139015033841133,-0.10361496359109879
-0.8844470977783203,0.6708876490592957,9.389735221862793,-0.062153708189725876,0.06872031837701797,-0.10728005319833755
-0.7908278703689575,0.7618148922920227,9.008976936340332,-0.0022906772792339325,0.20005246996879578,-0.04680617153644562
-0.870090126991272,0.6972087025642395,9.056833267211914,0.08261708915233612,0.39979952573776245,0.01916533336043358
-1.0734800100326538,0.5799604058265686,9.203095436096191,0.12965233623981476,0.4682144224643707,0.04604261368513107
-1.3558331727981567,0.46031925082206726,9.61944580078125,0.19318044185638428,0.5610632300376892,0.04787515476346016
-1.6648063659667969,0.3930211067199707,10.12463092803955,0.22189027070999146,0.49142661690711975,0.008780929259955883
-1.85383939743042,0.5225326418876648,10.546066284179688,0.17057909071445465,0.2745758295059204,-0.049860406666994095
-1.7868403196334839,0.709172785282135,10.491031646728516,0.047798797488212585,0.0650552362203598,-0.10117157548666
-1.688734531402588,0.8335995674133301,10.179665565490723,-0.06154286116361618,-0.06139015033841133,-0.12438376992940903
-1.6049858331680298,0.98703932762146,9.923633575439453,-0.09086353331804276,-0.10109522193670273,-0.1023932695388794
-1.5858432054519653,1.0061819553375244,9.741779327392578,-0.03161134570837021,-0.14874130487442017,-0.05841226875782013
-1.547558069229126,1.0277173519134521,9.701101303100586,0.006261184345930815,-0.16523417830467224,-0.03764346241950989
-1.3606188297271729,0.8168498277664185,9.988240242004395,-0.0016798300202935934,-0.33627140522003174,0.06497887521982193
-1.1883355379104614,0.8479565382003784,9.89013385772705,-0.04504998400807381,-0.38697174191474915,0.07597412914037704
-0.8123632669448853,0.5679962635040283,9.859027862548828,-0.15927842259407043,-0.3936910629272461,0.09124530851840973
-0.7501499056816101,0.5009972453117371,9.77527904510498,-0.16660858690738678,-0.4187358021736145,0.08330429345369339
-0.7310073375701904,0.42681974172592163,9.81117057800293,-0.164165198802948,-0.4230117201805115,0.09185615926980972
-0.3577269911766052,0.3762713670730591,9.650552749633789,-0.1623326539993286,-0.47859883308410645,0.07658497244119644
-0.22821545600891113,0.4097708761692047,9.61226749420166,-0.12323843687772751,-0.4309527277946472,0.07475243508815765
-0.15164513885974884,0.3978067636489868,9.516554832458496,-0.111632339656353,-0.3692571818828583,0.07169819623231888
-0.06789634376764297,0.2997010350227356,9.447162628173828,-0.09575030952692032,-0.28496024012565613,0.07841751724481583
-0.0726819857954979,0.2183450609445572,9.514162063598633,-0.06948387622833252,-0.1963873952627182,0.0686439573764801
-0.03439682722091675,0.19920247793197632,9.530911445617676,-0.04749337583780289,-0.13347013294696808,0.049707695841789246
0.01824527233839035,0.23988047242164612,9.38734245300293,-0.02367033064365387,-0.09681928902864456,0.025884652510285378
0.030209386721253395,0.32123643159866333,9.535696983337402,-0.004123218823224306,-0.02351761981844902,0.027717193588614464
-0.1301097273826599,0.19202402234077454,9.705886840820312,0.008093725889921188,-0.024128466844558716,0.030160583555698395
-0.05114658549427986,0.28534409403800964,9.701101303100586,-0.0035123717971146107,-0.02351761981844902,0.002672456670552492
-0.0726819857954979,0.3858426511287689,9.787242889404297,-0.03833066672086716,0.0021379655227065086,-0.010766183026134968
0.04935196787118912,0.709172785282135,9.037691116333008,-0.06520794332027435,0.0784938707947731,-0.0016034740256145597
-0.259621262550354,0.5679962635040283,9.416056632995605,-0.04871506989002228,0.1707318127155304,0.06375718116760254
-0.3577269911766052,0.12263216078281403,10.06002426147461,0.014202198944985867,0.1450762301683426,0.07902836054563522
-0.35054850578308105,-0.025722842663526535,10.256535530090332,0.06245913356542587,0.011911521665751934,0.008780929259955883
-0.0894317477941513,0.1657029688358307,10.03848934173584,0.06429167091846466,-0.025350160896778107,-0.019928891211748123
0.07088737189769745,0.29730820655822754,9.69631576538086,0.05024218559265137,0.03390202298760414,-0.02420482225716114
-0.0008973084622994065,0.23030917346477509,9.794421195983887,0.02214321307837963,0.12430741637945175,-0.012598725035786629
-0.25692933797836304,0.024526432156562805,9.78245735168457,0.045355409383773804,0.09315420687198639,-0.022372281178832054
-0.14685949683189392,0.09152546525001526,9.51894760131836,0.06673506647348404,0.06383354216814041,-0.057801421731710434
-0.4486542344093323,0.29012975096702576,9.830313682556152,0.05757235363125801,0.29290124773979187,-0.11766445636749268
-0.50129634141922,0.4049852192401886,9.89970588684082,0.04963133856654167,0.30084228515625,-0.14698512852191925
-0.6687939167022705,0.5105685591697693,10.110274314880371,0.06551336497068405,0.24586601555347443,-0.14454172551631927
-0.623330295085907,0.6038886308670044,9.878170013427734,0.09727742522954941,0.13957859575748444,-0.12194038182497025
-0.5228317379951477,0.6421737670898438,9.60508918762207,0.14736689627170563,0.14080029726028442,-0.09017632901668549
-0.7932206988334656,0.6326025128364563,9.988240242004395,0.12048961967229843,0.1298050433397293,-0.07857023179531097
-0.8485547304153442,0.6397809386253357,9.904491424560547,0.0716218426823616,0.058335911482572556,-0.07429429888725281
-0.7429714202880859,0.5799604058265686,9.456734657287598,0.058183200657367706,0.010689826682209969,-0.07857023179531097
-0.7381857633590698,0.6780661344528198,9.416056632995605,0.06917845457792282,0.08887827396392822,-0.0883437842130661
-0.7597211599349976,1.3459627628326416,9.571589469909668,-0.0328330397605896,0.14874130487442017,-0.04802786558866501
-0.8964111804962158,0.9628120064735413,9.794421195983887,-0.13056860864162445,0.13957859575748444,-0.02420482225716114
-1.1117652654647827,0.7115656137466431,10.196415901184082,-0.11529742181301117,0.09681928902864456,-0.03336753323674202
