accX,accY,accZ,gyroX,gyroY,gyroZ
0.4588237404823303,3.459423303604126,10.163214683532715,-0.19413872063159943,0.11318100988864899,-0.051264338195323944
0.29371899366378784,3.500101327896118,9.679266929626465,0.012383334338665009,-0.1625811904668808,-0.1418091505765915
0.13549357652664185,3.2868409156799316,9.48066234588623,0.12529803812503815,-0.5194342732429504,-0.2707023322582245
0.5117649435997009,3.1381869316101074,9.063713073730469,0.06138405203819275,-0.7536523938179016,-0.36537492275238037
0.7465606927871704,3.001796007156372,9.20997428894043,-0.14194230735301971,-0.32556185126304626,-0.43035414814949036
0.19531415402889252,3.1405797004699707,9.468698501586914,-0.33048853278160095,-0.0476691760122776,-0.48468104004859924
0.07567301392555237,2.6545376777648926,9.47348403930664,-0.26657456159591675,-0.29786577820777893,-0.4559197425842285
0.22193430364131927,2.4269204139709473,9.20279598236084,-0.02916075475513935,-0.4704335331916809,-0.4463326334953308
-0.7076773047447205,1.5068800449371338,10.426724433898926,-0.197334423661232,-0.0050598569214344025,-0.22063638269901276
-0.6502495408058167,1.612463355064392,10.97049331665039,-0.12383333593606949,0.14620323479175568,0.028628136962652206
-0.03439682722091675,1.5188441276550293,10.606485366821289,0.15832026302814484,0.06844121962785721,0.19693495333194733
0.5045864582061768,1.8185452222824097,9.459127426147461,0.5109124183654785,-0.08495233207941055,0.19054356217384338
0.8255237936973572,2.2256240844726562,8.227720260620117,0.5619103908538818,-0.31490951776504517,-0.016111649572849274
0.8350951075553894,2.2208385467529297,8.014460563659668,0.46404212713241577,-0.331953227519989,-0.09387365728616714
0.7992027401924133,2.261516571044922,8.095816612243652,0.2147776037454605,-0.19666863977909088,-0.151396244764328
1.0818549394607544,2.5298118591308594,8.584549903869629,0.03049229457974434,0.03541899845004082,-0.16737474501132965
1.319043517112732,2.666501760482788,8.797810554504395,-0.0238345880061388,0.1227681040763855,-0.16524426639080048
1.7476578950881958,2.7382864952087402,9.449555397033691,-0.07589785009622574,0.2079867422580719,-0.1844184696674347
1.55623197555542,2.664108991622925,9.6433744430542,-0.0695064514875412,0.15792079269886017,-0.22915825247764587
1.3214362859725952,2.4939193725585938,9.681659698486328,-0.05778888985514641,0.08868064731359482,-0.20678836107254028
1.0603195428848267,2.575275421142578,9.329615592956543,-0.01744319126009941,0.08655018359422684,-0.13861344754695892
0.9355936646461487,2.606382131576538,8.991928100585938,-0.0025299284607172012,0.06631075590848923,-0.0874822586774826
0.8279166221618652,2.4125633239746094,8.977571487426758,0.012383334338665009,0.10465914756059647,-0.04913387447595596
0.7848458290100098,2.5178475379943848,9.32722282409668,0.05925358831882477,0.08868064731359482,-0.028894444927573204
0.5907281041145325,2.666501760482788,9.140283584594727,0.1529940962791443,0.08441971987485886,0.0009320789249613881
0.6649056077003479,2.8674988746643066,8.56301498413086,0.20092958211898804,0.0908111184835434,0.06910699605941772
0.7800601720809937,3.0281169414520264,8.33300495147705,0.183885857462883,0.12170287221670151,0.08508548885583878
0.763310432434082,3.1671998500823975,8.249256134033203,0.10079767554998398,0.18987779319286346,0.10106398165225983
0.9858429431915283,3.3394830226898193,9.080462455749512,0.06138405203819275,0.10465914756059647,0.0925421193242073
0.8470591902732849,3.459423303604126,9.101998329162598,0.11784140020608902,0.06631075590848923,0.0723026916384697
0.8805587291717529,3.5671002864837646,8.620442390441895,0.2605826258659363,-0.25312599539756775,0.06804175674915314
0.5380859971046448,3.5814573764801025,7.880462169647217,0.23395180702209473,-0.11690932512283325,0.12130340933799744
0.5883352756500244,3.476173162460327,7.894819259643555,-0.04620448127388954,0.22183477878570557,0.210782989859581
0.4540380835533142,3.500101327896118,9.154640197753906,-0.31983622908592224,0.7298177480697632,0.25658801198005676
0.3846462368965149,3.5024940967559814,10.441082000732422,-0.3049229383468628,0.7191654443740845,0.2757622003555298
0.6002993583679199,3.452244758605957,9.729815483093262,0.0667102187871933,0.22396524250507355,0.292805939912796
0.8446664214134216,3.514458179473877,8.903095245361328,0.18175537884235382,0.111050546169281,0.2757622003555298
0.7968099117279053,3.497708559036255,9.650552749633789,0.0667102187871933,0.4093157947063446,0.19693495333194733
0.6481558084487915,3.305983543395996,9.89970588684082,0.09121058136224747,0.33901041746139526,0.11917294561862946
0.7127620577812195,3.555136203765869,9.257830619812012,0.1742987483739853,-0.09560466557741165,0.10745538026094437
1.0196415185928345,3.4713873863220215,9.43489933013916,0.10186290740966797,-0.21264714002609253,0.043541401624679565
0.5380859971046448,3.61017107963562,9.573982238769531,0.08694964647293091,0.0588541254401207,0.054193731397390366
0.24825534224510193,3.4307093620300293,9.329615592956543,0.07203638553619385,0.31131434440612793,0.13834713399410248
-0.6143572330474854,3.0281169414520264,9.023035049438477,0.3671059310436249,0.19520394504070282,0.20226112008094788
-0.5829514265060425,3.305983543395996,8.579764366149902,0.45552027225494385,0.18242116272449493,0.1777607649564743
-0.5015954375267029,2.649751901626587,8.761918067932129,0.03155753016471863,0.1334204375743866,0.2427399754524231
-0.4489533603191376,2.5393829345703125,8.996713638305664,-0.04407401755452156,0.18455162644386292,0.25871846079826355
-0.45613181591033936,2.565704107284546,9.815957069396973,-0.10465914756059647,0.06631075590848923,0.21823962032794952
-0.46091747283935547,2.7741787433624268,9.324830055236816,0.08588441461324692,-0.07430000603199005,0.17136935889720917
-0.40348970890045166,2.9252257347106934,8.718847274780273,0.2169080674648285,-0.023168819025158882,0.15112993121147156
-0.5207380056381226,2.9730820655822754,8.448159217834473,0.22010377049446106,-0.0061250897124409676,0.14047759771347046
-0.5829514265060425,3.0664021968841553,8.07667350769043,0.15405932068824768,-0.03914731368422508,0.1255643367767334
-0.3484548032283783,3.2772696018218994,7.681559085845947,0.18814678490161896,-0.17749445140361786,0.08508548885583878
-0.6981059908866882,3.4737801551818848,7.590631484985352,-0.07802832126617432,0.14939893782138824,0.10852061212062836
-0.91136634349823,3.210270643234253,8.920144081115723,-0.36244553327560425,0.4826837182044983,0.10106398165225983
-1.064507007598877,3.2006993293762207,10.050752639770508,-0.29959678649902344,0.5284887552261353,0.12449911236763
-1.3040883541107178,3.0999016761779785,9.593125343322754,-0.05352795869112015,0.3379451632499695,0.1553908735513687
-1.155733346939087,3.095116138458252,9.023035049438477,-0.04407401755452156,0.16005125641822815,0.19160878658294678
-0.877866804599762,3.2078778743743896,8.92492961883545,-0.18135592341423035,0.17283405363559723,0.13941237330436707
-0.6239284873008728,3.279662609100342,9.013463973999023,-0.2527265250682831,0.14939893782138824,0.07336792349815369
-0.8368897438049316,3.3083763122558594,9.013463973999023,-0.20053011178970337,0.10465914756059647,0.010519175790250301
-0.7435696125030518,3.3945181369781494,8.757132530212402,-0.08655018359422684,0.04394086077809334,-0.0011983871227130294
-0.6239284873008728,3.5120654106140137,8.373682975769043,-0.012117025442421436,0.019440501928329468,-0.005459319334477186
-0.9329017400741577,3.6364922523498535,8.330612182617188,-0.02809552103281021,0.023701434955000877,-0.019307348877191544
-0.7124629616737366,3.9095730781555176,8.36411190032959,0.2254299372434616,-0.6515231728553772,-0.03848154470324516
-1.4551352262496948,3.64127779006958,7.374978542327881,0.09760197252035141,-0.2808220684528351,0.031823836266994476
-0.9017950296401978,3.361018419265747,8.821739196777344,-0.4657731354236603,0.39546775817871094,0.0723026916384697
-1.0214362144470215,3.497708559036255,9.772886276245117,0.08694964647293091,-0.31703996658325195,0.06697652488946915
-0.043968115001916885,3.61017107963562,9.123533248901367,0.2818872928619385,-0.3458012640476227,0.050998032093048096
-0.38673996925354004,3.9095730781555176,9.765707015991211,0.13914605975151062,0.07483261823654175,-0.10559122264385223
-0.9927222728729248,3.699004650115967,9.583553314208984,0.2712349593639374,-0.2158428430557251,-0.1822880059480667
-0.9616156220436096,3.8377883434295654,8.505587577819824,0.4299546778202057,-0.6472622156143188,-0.10665645450353622
-0.2883351147174835,3.964907169342041,8.172685623168945,0.16577689349651337,-0.6291532516479492,-0.08535179495811462
0.1618146300315857,3.9529430866241455,8.876773834228516,0.011318100616335869,-0.40012815594673157,-0.11411308497190475
-0.11126625537872314,3.935894250869751,9.049356460571289,0.009187635034322739,-0.37136685848236084,-0.11091738939285278
-0.41066819429397583,3.842574119567871,9.279366493225098,0.10079767554998398,-0.3990629315376282,-0.029959678649902344
-0.08733802288770676,3.8234314918518066,9.336793899536133,0.19879911839962006,-0.377758264541626,0.010519175790250301
0.05174478888511658,3.8712878227233887,9.198010444641113,0.24566936492919922,-0.28401774168014526,0.019041040912270546
-0.12083754688501358,3.9263229370117188,9.085248947143555,0.2477998286485672,-0.3458012640476227,0.024367205798625946
-0.19980068504810333,4.060619831085205,9.176176071166992,0.23075610399246216,-0.5652392506599426,0.014780107885599136
0.2626122832298279,3.9768712520599365,9.20279598236084,0.19773387908935547,-0.7643046975135803,0.004127778112888336
0.6577271223068237,4.1730828285217285,8.737990379333496,0.21903854608535767,-0.8143706321716309,-0.017176883295178413
0.8566305041313171,3.904787540435791,8.680562019348145,0.2776263654232025,-0.758978545665741,-0.053394805639982224
0.47108694911003113,4.1419758796691895,8.263612747192383,0.11571093648672104,-0.547130286693573,0.010519175790250301
0.8757730722427368,3.8617167472839355,8.956035614013672,-0.24633513391017914,-0.18069015443325043,0.07443315535783768
0.8877372145652771,3.593421459197998,9.609874725341797,-0.18029068410396576,-0.12543119490146637,0.06271559745073318
1.036391258239746,3.5264222621917725,9.447162628173828,0.06138405203819275,-0.18814678490161896,0.1362166702747345
1.4745769500732422,3.3346974849700928,9.483055114746094,0.11464570462703705,-0.2467346042394638,0.059519894421100616
1.074676513671875,3.3705897331237793,10.101001739501953,0.02090519852936268,0.06524552404880524,0.008388710208237171
1.2708879709243774,3.111865758895874,10.529914855957031,0.06777545064687729,-0.27336543798446655,-0.10239552706480026
0.6744768619537354,2.855534791946411,9.552447319030762,0.3884105980396271,-0.59293532371521,-0.10985215753316879
1.0316057205200195,2.7861428260803223,7.863712310791016,0.3426055610179901,-0.5268908739089966,0.030758604407310486
1.5343974828720093,3.040081262588501,7.93071174621582,0.09227581322193146,-0.1742987483739853,0.009453942999243736
1.6016956567764282,3.135794162750244,8.35453987121582,0.05073172226548195,0.08335448056459427,-0.07896039634943008
1.6112669706344604,3.3969109058380127,8.311469078063965,0.10292813926935196,0.03967992961406708,-0.1300915777683258
1.690230131149292,3.583850145339966,8.026424407958984,0.1316894292831421,-0.11797455698251724,-0.20359265804290771
1.6878372430801392,3.749253988265991,7.758129119873047,0.0038614696823060513,-0.18175537884235382,-0.2163754552602768
1.7021942138671875,3.749253988265991,7.784450054168701,-0.09507204592227936,-0.13275466859340668,-0.19826649129390717
1.903490424156189,3.638885021209717,8.172685623168945,-0.2953358590602875,0.10465914756059647,-0.13648298382759094
1.5152549743652344,3.600599765777588,9.863813400268555,-0.25592222809791565,0.6041202545166016,-0.04593817517161369
0.6840481758117676,3.4402806758880615,9.154640197753906,0.009187635034322739,0.47749069333076477,0.07762885838747025
0.8446664214134216,3.468994617462158,8.754739761352539,0.10718907415866852,0.539141058921814,0.17456506192684174
1.4626128673553467,4.07258415222168,7.940282821655273,0.02729659713804722,0.8171668648719788,0.23315288126468658
1.4626128673553467,4.3193440437316895,7.894819259643555,-0.07589785009622574,0.8608414530754089,0.17989122867584229
1.43389892578125,4.369593143463135,8.014460563659668,-0.1227681040763855,0.4721645414829254,0.0009320789249613881
0.7393822073936462,4.144368648529053,7.382156848907471,-0.0504654161632061,-0.04127778112888336,-0.03848154470324516
1.5248262882232666,4.266701698303223,7.80837869644165,-0.24420467019081116,-0.002929390873759985,0.058454662561416626
0.9523434042930603,4.084548473358154,8.491230010986328,-0.3145100474357605,0.28681400418281555,0.09893351793289185
0.9930213689804077,3.9023945331573486,8.560622215270996,-0.28574874997138977,0.18135592341423035,0.19160878658294678
1.0890333652496338,3.7731821537017822,8.579764366149902,-0.3059881925582886,0.1653774231672287,0.15112993121147156
0.7007979154586792,3.73250412940979,9.101998329162598,-0.3443365693092346,0.33155378699302673,0.1468690037727356
0.8446664214134216,3.7612180709838867,9.18843936920166,-0.05565842613577843,0.5732285380363464,0.18308693170547485
0.7752745151519775,3.842574119567871,8.601300239562988,0.05179695412516594,0.6062507629394531,0.1884130984544754
0.7968099117279053,3.921537160873413,8.92492961883545,-0.18987779319286346,0.12170287221670151,0.15965180099010468
0.5596213936805725,4.015156269073486,9.085248947143555,-0.2612484097480774,0.2580527067184448,0.14793424308300018
0.5428716540336609,3.490530014038086,9.241081237792969,-0.23674803972244263,0.3539236783981323,0.07975932210683823
1.0579266548156738,4.101297855377197,9.739386558532715,-0.05459319427609444,0.08335448056459427,0.03288906812667847
0.8374879360198975,4.295415878295898,9.253045082092285,-0.04833494871854782,0.17176882922649384,0.07549838721752167
0.7992027401924133,3.9095730781555176,9.535696983337402,-0.06524552404880524,0.3038577139377594,0.10106398165225983
0.389431893825531,3.5096726417541504,10.153643608093262,-0.01957365684211254,0.35285845398902893,0.1671084314584732
-0.06819544732570648,3.5096726417541504,10.010074615478516,0.09973244369029999,0.40398961305618286,0.21504391729831696
-0.35802608728408813,3.538386583328247,9.550054550170898,0.19134248793125153,0.515705943107605,0.2842840552330017
-0.32183465361595154,3.6699917316436768,8.999106407165527,0.27549588680267334,0.4391423165798187,0.28108835220336914
-0.3723830282688141,3.5910286903381348,8.800203323364258,0.22969086468219757,0.2399437427520752,0.21717438101768494
-0.3412763178348541,3.4331023693084717,9.03978443145752,0.10505861043930054,0.1536598652601242,0.16284750401973724
-0.33888351917266846,3.1983065605163574,9.377471923828125,0.0038614696823060513,0.22396524250507355,0.12236864119768143
-0.3604189157485962,3.049652576446533,9.756135940551758,0.03688369318842888,0.24740037322044373,0.12236864119768143
0.0038883367087692022,2.7382864952087402,9.667302131652832,0.1093195378780365,0.23568280041217804,0.1138467788696289
-0.29790642857551575,2.642573595046997,9.885348320007324,0.20306004583835602,0.2719007432460785,0.08828118443489075
-0.5901299118995667,2.8172495365142822,9.727422714233398,0.11890663951635361,0.011983871459960938,0.11704248189926147
-1.088435173034668,2.80767822265625,9.080462455749512,0.13595037162303925,-0.017842652276158333,0.13941237330436707
-1.093220829963684,2.1227328777313232,8.479266166687012,0.24247366189956665,0.1557903289794922,0.15006470680236816
-0.8560323119163513,2.9826533794403076,8.613264083862305,0.3095833361148834,-0.08495233207941055,0.21504391729831696
-1.191625714302063,2.767000198364258,8.43858814239502,0.10186290740966797,-0.03595161437988281,0.25765323638916016
-0.9089735150337219,2.824428081512451,8.455337524414062,0.16684211790561676,0.08335448056459427,0.21717438101768494
-0.6981059908866882,3.0065815448760986,8.519944190979004,0.18921200931072235,0.1227681040763855,0.13941237330436707
-0.7746763229370117,3.1214370727539062,8.249256134033203,0.18814678490161896,0.10998530685901642,0.0925421193242073
-1.026221752166748,3.7037904262542725,8.718847274780273,0.1519288569688797,-0.07749570161104202,0.008388710208237171
-0.7052844762802124,3.6798620223999023,8.35453987121582,-0.1536598652601242,-0.2584521770477295,0.035019535571336746
-0.6574280261993408,3.408874988555908,8.182256698608398,-0.27722689509391785,-0.019973119720816612,0.022236740216612816
-0.5279164910316467,3.562314748764038,8.915358543395996,-0.30066201090812683,-0.013581721112132072,-0.0011983871227130294
-0.5542375445365906,3.7037904262542725,9.168996810913086,-0.2612484097480774,-0.015712186694145203,-0.017176883295178413
-0.7172485589981079,3.811467409133911,8.900702476501465,-0.09613727778196335,0.03861469775438309,-0.044872939586639404
-0.6095715761184692,3.833002805709839,8.388339042663574,0.06138405203819275,0.14726845920085907,-0.061916667968034744
-0.6550351977348328,4.005585193634033,7.9642109870910645,0.11251524090766907,0.29959678649902344,-0.06511236727237701
-1.1027921438217163,4.376771926879883,8.596514701843262,-0.04620448127388954,-0.07216953486204147,0.021171506494283676
-0.6071787476539612,4.144368648529053,8.718847274780273,-0.20053011178970337,-0.20945143699645996,0.10106398165225983
-0.8608179688453674,4.015156269073486,8.900702476501465,-0.3230319023132324,-0.06790860742330551,0.10958584398031235
-1.0716854333877563,3.3227334022521973,9.454340934753418,-0.21544337272644043,0.026897134259343147,0.08934641629457474
-0.7004988193511963,3.7253258228302,9.459127426147461,-0.05565842613577843,-0.08069140464067459,0.06910699605941772
-0.5518447160720825,3.9023945331573486,9.130712509155273,0.02197043038904667,-0.1295589655637741,0.024367205798625946
-0.753140926361084,4.1419758796691895,8.685347557067871,0.03262276202440262,-0.16471165418624878,0.013714875094592571
-0.6215356588363647,4.091726779937744,8.618049621582031,0.05392742156982422,-0.20092958211898804,0.011584409512579441
-0.5231308341026306,4.053441524505615,8.52472972869873,0.06138405203819275,-0.18708154559135437,-0.022503048181533813
-0.539880633354187,4.113262176513672,8.56301498413086,0.04327509179711342,-0.18601632118225098,-0.037416309118270874
-0.5518447160720825,4.1659040451049805,8.620442390441895,0.04647079110145569,-0.1828206181526184,-0.040612008422613144
-0.5231308341026306,4.302594184875488,8.692526817321777,0.04860125854611397,-0.17642922699451447,-0.03954677656292915
-0.3242274820804596,4.182653903961182,9.044570922851562,0.09334104508161545,-0.17536398768424988,-0.013981183059513569
-0.1663011759519577,4.0797624588012695,9.11874771118164,0.17110306024551392,-0.20732097327709198,-0.010785484686493874
-0.25722843408584595,4.015156269073486,9.066105842590332,0.21051667630672455,-0.17110306024551392,-0.0001331541279796511
-0.5183451771736145,4.01037073135376,9.12831974029541,0.27443066239356995,-0.11797455698251724,0.040345702320337296
-0.6239284873008728,4.283451557159424,9.298508644104004,0.2989310026168823,-0.17642922699451447,0.03288906812667847
-0.12801600992679596,4.403092861175537,9.037391662597656,0.3308880031108856,-0.15512455999851227,0.05312849581241608
-0.03678964823484421,4.479662895202637,8.764310836791992,0.2999962568283081,-0.20306004583835602,0.023301972076296806
-0.2667997181415558,4.5206403732299805,8.975178718566895,0.15832026302814484,-0.24247366189956665,-0.007589785382151604
-0.26440688967704773,4.489533424377441,9.291330337524414,0.07203638553619385,-0.16364642977714539,0.0030625448562204838
0.07806584239006042,4.194618225097656,9.581160545349121,0.10612384229898453,-0.14553746581077576,0.03288906812667847
0.0014955141814425588,3.492922782897949,9.298508644104004,0.18601632118225098,0.0023967742454260588,0.010519175790250301
0.17617157101631165,3.384946823120117,8.876773834228516,0.2275604009628296,0.0801587849855423,-0.018242115154862404
0.26979073882102966,3.538386583328247,8.64197826385498,0.2925396263599396,0.017310036346316338,-0.057655736804008484
0.49262237548828125,3.3634114265441895,8.598907470703125,0.2488650679588318,0.11957240849733353,0.14899946749210358
0.3846462368965149,3.835395574569702,8.754739761352539,0.2509955167770386,0.10892007499933243,0.15965180099010468
0.33918261528015137,3.996013879776001,8.565407752990723,0.23182134330272675,0.020505735650658607,0.13834713399410248
0.6290132403373718,3.9601213932037354,8.177471160888672,0.17962491512298584,-0.2584521770477295,0.06378082931041718
1.0794621706008911,4.0558342933654785,8.033602714538574,0.08055824786424637,-0.25419121980667114,-0.047003407031297684
1.0459625720977783,3.94815731048584,7.990531921386719,-0.0003994623839389533,-0.16045072674751282,-0.11198262125253677
0.4085744619369507,3.7301113605499268,8.158329010009766,-0.2282261699438095,-0.04447348043322563,-0.1950708031654358
-0.3819543123245239,3.3011980056762695,8.881559371948242,-0.37309786677360535,0.08441971987485886,-0.15991811454296112
-0.9041878581047058,3.5048868656158447,9.037391662597656,-0.2953358590602875,0.2846835255622864,0.037150003015995026
-0.7459624409675598,3.7923247814178467,9.008678436279297,-0.2505960762500763,0.33901041746139526,0.16497796773910522
0.7393822073936462,4.364807605743408,8.984749794006348,-0.2069215178489685,0.10678961127996445,0.08934641629457474
0.4782654345035553,4.278666019439697,8.757132530212402,-0.09933298081159592,-0.0007989247678779066,0.09467258304357529
0.5404788255691528,4.151547431945801,8.373682975769043,0.005991935729980469,0.013049104250967503,0.16497796773910522
0.9810572862625122,4.137190341949463,8.227720260620117,0.010252867825329304,0.08335448056459427,0.20545682311058044
1.165603756904602,4.182653903961182,8.321041107177734,-0.0025299284607172012,0.1653774231672287,0.1553908735513687
1.0244271755218506,4.352843284606934,7.6289167404174805,-0.02276935614645481,-0.017842652276158333,0.06484606117010117
0.4205385744571686,4.228416919708252,7.961818218231201,-0.05459319427609444,-0.26377832889556885,-0.004394086077809334
0.3487538993358612,4.163511276245117,8.004889488220215,-0.18135592341423035,-0.183885857462883,0.04673709720373154
0.4253242313861847,4.2260236740112305,8.368897438049316,-0.2612484097480774,0.20159535109996796,0.1362166702747345
0.5931209325790405,4.345664978027344,8.35453987121582,-0.3017272651195526,0.279357373714447,0.2001306563615799
0.7441678643226624,4.621138572692871,8.23250675201416,-0.37309786677360535,0.11957240849733353,0.1894783228635788
0.7031907439231873,4.333701133728027,8.491230010986328,-0.4551208019256592,0.07163692265748978,0.13728190958499908
0.545264482498169,4.125226020812988,8.883952140808105,-0.4732297658920288,0.18987779319286346,0.1351514458656311
0.44446679949760437,4.132404804229736,9.219545364379883,-0.4647079110145569,0.4412727653980255,0.20545682311058044
0.6242275834083557,4.005585193634033,9.387042999267578,-0.4551208019256592,0.4901403486728668,0.21504391729831696
0.8327022790908813,3.9672999382019043,9.43489933013916,-0.37309786677360535,0.25485700368881226,0.1468690037727356
0.727118968963623,3.76361083984375,9.200403213500977,-0.24420467019081116,-0.025299284607172012,0.028628136962652206
0.6314060688018799,3.5671002864837646,8.987142562866211,-0.18135592341423035,-0.13914605975151062,-0.028894444927573204
0.7513462901115417,3.528815269470215,8.816953659057617,-0.13768136501312256,0.0034620072692632675,-0.0011983871227130294
0.8446664214134216,3.7348971366882324,8.893523216247559,-0.12489857524633408,0.13555090129375458,0.030758604407310486
0.9332008361816406,4.379164695739746,8.915358543395996,-0.13448566198349,0.3794892728328705,0.06804175674915314
0.7800601720809937,4.400700092315674,9.140283584594727,-0.13874660432338715,0.4647079110145569,0.010519175790250301
0.4588237404823303,4.218845367431641,9.284152030944824,-0.15152940154075623,0.40718531608581543,-0.020372580736875534
-0.18544375896453857,3.7444684505462646,9.748957633972168,-0.1866820901632309,0.24526990950107574,0.010519175790250301
-0.7818548083305359,3.3227334022521973,10.115358352661133,-0.13661614060401917,0.24740037322044373,0.1042596846818924
-1.033400297164917,3.0687949657440186,9.839884757995605,0.02410089783370495,0.3358147144317627,0.23634858429431915
-0.8392825126647949,3.111865758895874,9.18843936920166,0.1306242048740387,0.34220612049102783,0.3139774203300476
-0.4417748749256134,3.2629127502441406,9.00389289855957,0.08588441461324692,0.11957240849733353,0.25871846079826355
-0.5255236625671387,3.1238300800323486,9.238688468933105,0.007057168986648321,-0.023168819025158882,0.12449911236763
-0.25244277715682983,2.6234309673309326,9.29611587524414,-0.04513924941420555,0.21331290900707245,0.14367330074310303
-0.46809592843055725,2.5393829345703125,9.684052467346191,-0.11637670546770096,0.23781327903270721,0.16178226470947266
-0.5829514265060425,2.4197418689727783,9.679266929626465,-0.08335448056459427,0.06418029218912125,0.1671084314584732
-0.6717849373817444,2.3431715965270996,9.11874771118164,-0.0185084231197834,-0.0061250897124409676,0.17563030123710632
-0.353240430355072,2.4532413482666016,8.618049621582031,-0.03661738336086273,0.1749645173549652,0.19693495333194733
-0.4298107624053955,2.6039891242980957,8.56301498413086,-0.07057169079780579,0.283618301153183,0.19800019264221191
-0.7459624409675598,2.7263224124908447,8.637192726135254,-0.14726845920085907,0.30811864137649536,0.17456506192684174
-0.9592227935791016,2.664108991622925,8.761918067932129,-0.18987779319286346,0.10998530685901642,0.1681736707687378
-1.5723835229873657,2.2375881671905518,9.523733139038086,-0.33048853278160095,0.031158065423369408,0.11171631515026093
-1.8502501249313354,2.1394824981689453,9.265008926391602,-0.2633788585662842,0.08548495173454285,0.21504391729831696
-1.866999864578247,2.09641170501709,9.312865257263184,-0.2292914092540741,0.14087706804275513,0.25978371500968933
-1.7880367040634155,2.1179471015930176,9.379864692687988,-0.18881255388259888,0.13981182873249054,0.3043903410434723
-1.3040883541107178,2.1969103813171387,9.286544799804688,-0.18029068410396576,0.06418029218912125,0.28854498267173767
-0.9783653616905212,2.4053850173950195,9.602696418762207,-0.19200825691223145,-0.05406057462096214,0.17563030123710632
-0.844068169593811,2.5298118591308594,10.026823997497559,-0.14087706804275513,-0.14340700209140778,0.09041165560483932
-0.7794619798660278,2.5633113384246826,9.983753204345703,-0.04620448127388954,-0.11371362209320068,0.07443315535783768
-0.844068169593811,2.7311079502105713,9.135498046875,0.16684211790561676,-0.04553871229290962,0.054193731397390366
-0.8560323119163513,2.822035312652588,8.560622215270996,0.2264951765537262,-0.0689738392829895,0.050998032093048096
-0.9592227935791016,2.884547710418701,7.913961887359619,0.1721682846546173,-0.09666989743709564,0.042476166039705276
-1.0716854333877563,3.0305099487304688,8.12961483001709,-0.007856093347072601,-0.05193011090159416,0.025432437658309937
-1.0908280611038208,3.0544381141662598,8.469695091247559,-0.112115778028965,-0.0370168462395668,-0.0011983871227130294
-1.038185954093933,3.0424740314483643,8.699705123901367,-0.1334204375743866,-0.015712186694145203,-0.0011983871227130294
-0.9831510186195374,3.0616166591644287,8.92492961883545,-0.12915951013565063,0.020505735650658607,0.015845341607928276
-0.9783653616905212,3.0424740314483643,9.154640197753906,-0.11850717663764954,0.023701434955000877,0.028628136962652206
-0.9185447692871094,2.8746774196624756,9.28893756866455,-0.08868064731359482,-0.07003907114267349,0.05312849581241608
-0.8512466549873352,2.814856767654419,9.377471923828125,-0.08655018359422684,-0.09134373068809509,0.06484606117010117
-0.8464609980583191,2.8028926849365234,9.535696983337402,-0.09400681406259537,-0.09773512929677963,0.07443315535783768
-0.8994022011756897,2.7550361156463623,9.705587387084961,-0.07376738637685776,-0.17003782093524933,0.08508548885583878
-0.6717849373817444,2.7622146606445312,9.51894760131836,0.02303566411137581,-0.19986434280872345,0.08508548885583878
-0.6574280261993408,2.884547710418701,9.365508079528809,0.08055824786424637,-0.1742987483739853,0.06271559745073318
-0.6071787476539612,2.9730820655822754,9.133105278015137,0.12210233509540558,-0.19134248793125153,0.042476166039705276
-0.6071787476539612,3.0759735107421875,8.970393180847168,0.12423279881477356,-0.2797568142414093,0.021171506494283676
-0.5231308341026306,3.1214370727539062,9.181260108947754,0.1093195378780365,-0.40012815594673157,0.005193010903894901
-0.4465605318546295,3.227020502090454,9.456734657287598,0.3351489305496216,-0.5503259897232056,0.008388710208237171
-0.4489533603191376,3.3897323608398438,8.306683540344238,0.3532578945159912,-0.5013253092765808,0.025432437658309937
-0.3290131092071533,3.368196964263916,10.644770622253418,-0.00359516148455441,-0.30745288729667664,0.023301972076296806
-0.3723830282688141,3.538386583328247,9.835099220275879,0.2669740319252014,-0.31917044520378113,0.03288906812667847
-0.21176479756832123,3.303590774536133,9.483055114746094,0.3031919598579407,-0.26377832889556885,0.06484606117010117
0.01824527233839035,3.3227334022521973,9.554840087890625,0.289343923330307,-0.2158428430557251,0.07656362652778625
0.06370890140533447,3.497708559036255,9.545269012451172,0.19134248793125153,-0.0583215095102787,0.07336792349815369
0.21714866161346436,3.418745279312134,9.768099784851074,0.1508636325597763,-0.07110430300235748,0.021171506494283676
0.21714866161346436,3.195913791656494,9.492626190185547,0.31490951776504517,-0.24353890120983124,-0.024633513763546944
0.42293140292167664,3.071187973022461,9.12592601776123,0.36071452498435974,-0.2999962568283081,-0.029959678649902344
0.49262237548828125,2.9252257347106934,8.922536849975586,0.2488650679588318,-0.2989310026168823,-0.04593817517161369
0.5596213936805725,2.80767822265625,8.910572052001953,0.16577689349651337,-0.26484355330467224,-0.043807707726955414
0.7728816866874695,2.666501760482788,8.879166603088379,0.09547150880098343,-0.17110306024551392,-0.03209014609456062
0.5309075117111206,2.6015963554382324,9.92841911315918,0.02516612969338894,-0.022103585302829742,0.041410934180021286
0.6242275834083557,2.247159481048584,9.751350402832031,0.06138405203819275,0.26550933718681335,0.016910573467612267
0.851844847202301,2.3069801330566406,8.785846710205078,0.16045072674751282,0.42316383123397827,0.055258963257074356
1.0148558616638184,2.8941190242767334,8.474480628967285,0.20838621258735657,0.23461757600307465,0.08615072071552277
1.0579266548156738,3.2916266918182373,8.464909553527832,0.12529803812503815,-0.04979964345693588,0.024367205798625946
0.9068797826766968,3.4163525104522705,8.163114547729492,0.05712312087416649,-0.07962616533041,-0.026763979345560074
0.9379864931106567,2.932404041290283,9.396614074707031,-0.1962691843509674,0.2719007432460785,0.023301972076296806
0.849452018737793,2.9204399585723877,9.684052467346191,-0.15046416223049164,0.17176882922649384,0.05312849581241608
0.8733802437782288,3.1504502296447754,9.384650230407715,-0.04620448127388954,0.10252867639064789,0.13941237330436707
0.7465606927871704,3.1839497089385986,8.977571487426758,0.06777545064687729,0.14087706804275513,0.18521739542484283
0.7872386574745178,3.2916266918182373,8.472087860107422,0.11677616834640503,0.132355198264122,0.210782989859581
1.0268200635910034,3.3897323608398438,8.675776481628418,-0.05259587988257408,0.07696308940649033,0.2011958807706833
0.9882357716560364,3.3801610469818115,9.034998893737793,-0.04620448127388954,0.08335448056459427,0.19267402589321136
0.9834501147270203,3.217449188232422,8.970393180847168,0.0038614696823060513,0.13448566198349,0.19054356217384338
1.0483554601669312,3.3562328815460205,8.565407752990723,0.08162347972393036,0.2410089671611786,0.16284750401973724
0.8973084688186646,3.4139597415924072,8.455337524414062,0.12423279881477356,0.2846835255622864,0.1468690037727356
0.8662018179893494,3.64127779006958,8.088638305664062,0.1316894292831421,0.07376738637685776,0.16178226470947266
1.1009975671768188,3.5742788314819336,7.997710704803467,-0.11531147360801697,0.09400681406259537,0.18095645308494568
0.5572285652160645,3.4737801551818848,8.294719696044922,-0.3560541272163391,0.24207420647144318,0.15326039493083954
0.46839502453804016,3.445066452026367,9.044570922851562,-0.471099317073822,0.3475322723388672,0.16284750401973724
0.4085744619369507,3.171985626220703,9.439684867858887,-0.42529428005218506,0.3485974967479706,0.16391272842884064
0.5500500798225403,3.2700912952423096,9.63619613647461,-0.25592222809791565,0.1643121987581253,0.17669552564620972
0.7199404835700989,3.4378879070281982,9.308079719543457,-0.17816022038459778,0.06311506032943726,0.1990654170513153
0.39900317788124084,3.382553815841675,8.845666885375977,-0.0588541254401207,0.05991935729980469,0.22250054776668549
0.3248256742954254,3.298804998397827,9.442078590393066,-0.03555215150117874,0.03648423030972481,0.22782671451568604
1.1033903360366821,3.442673683166504,8.802596092224121,0.5386084318161011,-0.3862801194190979,0.24806614220142365
1.1727821826934814,3.6942191123962402,7.525726318359375,0.5693670511245728,-0.20199480652809143,0.23847904801368713
1.1991032361984253,3.7277185916900635,7.2574310302734375,-0.18242116272449493,0.2910749316215515,0.22995717823505402
0.5548357367515564,3.5886356830596924,8.903095245361328,-0.5904054045677185,0.7330134510993958,0.17989122867584229
0.7704889178276062,3.555136203765869,10.529914855957031,-0.4860125780105591,0.5039883852005005,0.18734785914421082
0.724726140499115,3.5024940967559814,10.014860153198242,0.04647079110145569,-0.002929390873759985,0.14793424308300018
0.8566305041313171,3.9239299297332764,9.609874725341797,0.07629731297492981,0.0695064514875412,0.18202169239521027
0.6601199507713318,3.8712878227233887,9.34157943725586,0.03688369318842888,0.2505960762500763,0.13941237330436707
0.6337988972663879,3.492922782897949,9.559625625610352,0.11571093648672104,0.30918389558792114,0.12130340933799744
0.42293140292167664,3.3011980056762695,9.42054271697998,0.11890663951635361,0.21544337272644043,0.1255643367767334
0.3032902777194977,3.3107693195343018,9.547661781311035,0.06990591436624527,0.23674803972244263,0.1553908735513687
0.10438688844442368,3.2700912952423096,9.986145973205566,0.04966649040579796,0.46790361404418945,0.23634858429431915
-0.043968115001916885,3.1600213050842285,10.055538177490234,0.12316756695508957,0.5519238710403442,0.26724034547805786
0.025423740968108177,3.1070802211761475,9.614660263061523,0.40225863456726074,0.5902722477912903,0.2651098668575287
0.2027917206287384,3.1767711639404297,8.574978828430176,0.47895538806915283,0.4434032440185547,0.1788259893655777
0.19770696759223938,3.2150564193725586,8.594121932983398,0.4310199022293091,0.3571193814277649,0.14793424308300018
-0.2883351147174835,3.61017107963562,8.804988861083984,0.40438908338546753,0.024766668677330017,0.09893351793289185
0.11395817995071411,3.708575963973999,8.301898002624512,0.06884068250656128,-0.07003907114267349,0.1468690037727356
0.03738785535097122,3.4040892124176025,9.023035049438477,-0.19200825691223145,0.0695064514875412,0.11917294561862946
-0.22133609652519226,2.7957141399383545,9.961918830871582,-0.111050546169281,0.030092833563685417,0.09999874979257584
-0.08733802288770676,2.8941190242767334,9.823135375976562,0.013448567129671574,-0.06790860742330551,0.14047759771347046
-0.594915509223938,2.86989164352417,9.777671813964844,-0.02596505545079708,0.11637670546770096,0.21504391729831696
-0.5733801126480103,2.937189817428589,9.535696983337402,0.04220985993742943,0.3358147144317627,0.3278254568576813
-0.8632107973098755,2.767000198364258,8.666205406188965,0.3862801194190979,0.33048853278160095,0.3139774203300476
-0.91136634349823,3.0664021968841553,7.973782539367676,0.39160630106925964,0.2175738513469696,0.20439158380031586
-0.9759725332260132,3.1504502296447754,7.911569118499756,0.35858407616615295,0.15046416223049164,0.19267402589321136
-1.3232308626174927,3.361018419265747,8.297112464904785,0.3234313726425171,-0.17855969071388245,0.17136935889720917
-0.8922237157821655,3.0281169414520264,8.71645450592041,-0.00359516148455441,0.05565842613577843,0.3438039720058441
-1.0788638591766357,2.9970104694366455,8.572586059570312,-0.06204982474446297,0.15685556828975677,0.2608489394187927
-1.1581261157989502,3.361018419265747,8.663812637329102,-0.112115778028965,-0.026364516466856003,0.14154283702373505
-0.9831510186195374,3.61017107963562,8.474480628967285,-0.23461757600307465,-0.18601632118225098,0.07336792349815369
-1.0477572679519653,3.70139741897583,9.186046600341797,-0.33155378699302673,-0.3213009238243103,0.10958584398031235
-0.6526423692703247,3.4235310554504395,8.56301498413086,-0.2505960762500763,0.1547250896692276,0.2640446424484253
-0.7316055297851562,3.4016964435577393,8.189435958862305,-0.28681400418281555,0.3549889028072357,0.21291345357894897
-0.7746763229370117,3.4307093620300293,8.409873962402344,-0.2825530469417572,0.3773587942123413,0.1884130984544754
-0.7579265832901001,3.559921979904175,9.439684867858887,-0.11318100988864899,0.18987779319286346,0.0925421193242073
-0.7076773047447205,4.034298896789551,9.140283584594727,-0.07696308940649033,-0.21051667630672455,0.025432437658309937
-0.7172485589981079,3.7420754432678223,9.190832138061523,-0.15685556828975677,-0.2563216984272003,0.038215234875679016
-0.6502495408058167,3.5886356830596924,8.659027099609375,-0.12915951013565063,-0.16471165418624878,0.1031944528222084
-0.5901299118995667,3.617349624633789,8.773882865905762,-0.08228924870491028,-0.14553746581077576,0.09041165560483932
-0.4704887568950653,3.528815269470215,8.625227928161621,-0.05259587988257408,-0.270169734954834,0.13089050352573395
-0.3290131092071533,3.5575289726257324,8.55583667755127,0.1828206181526184,-0.3575188219547272,0.1351514458656311
-0.508773922920227,3.6966118812561035,7.918747425079346,-0.01637795753777027,-0.33940985798835754,0.145803764462471
-0.05353940650820732,3.5431721210479736,8.965607643127441,-0.4220985770225525,-0.009320789016783237,0.14260807633399963
-0.16390834748744965,3.3227334022521973,10.393224716186523,-0.41783764958381653,0.1749645173549652,0.13728190958499908
-0.21655045449733734,3.272484064102173,10.034002304077148,-0.08228924870491028,0.07270215451717377,0.12982527911663055
-0.23330020904541016,3.3466615676879883,9.461520195007324,0.005991935729980469,0.0034620072692632675,0.17243459820747375
-0.5111667513847351,3.421138286590576,9.868598937988281,-0.01957365684211254,0.04394086077809334,0.1564560979604721
-0.4704887568950653,3.528815269470215,10.060323715209961,0.08588441461324692,0.04926702752709389,0.09893351793289185
0.5883352756500244,2.7622146606445312,9.832706451416016,0.10399337112903595,-0.3021267056465149,-0.03848154470324516
0.5524429082870483,2.9898319244384766,10.764411926269531,0.18708154559135437,-0.35006219148635864,-0.023568280041217804
1.1177473068237305,2.862713098526001,9.097212791442871,0.5725627541542053,-0.47469446063041687,0.006258244160562754
0.8231309652328491,2.323729991912842,10.443474769592285,-0.2740311920642853,0.1536598652601242,0.12876003980636597
0.5261218547821045,2.673680305480957,10.829317092895508,-0.04833494871854782,0.24846559762954712,0.22782671451568604
0.5428716540336609,2.5920250415802,9.17886734008789,0.4406070113182068,0.07483261823654175,0.337412565946579
0.8087740540504456,2.8028926849365234,8.095816612243652,0.582149863243103,0.06311506032943726,0.35019534826278687
1.40279221534729,3.111865758895874,7.200003147125244,0.4395417869091034,0.22076953947544098,0.2832188308238983
1.46500563621521,3.195913791656494,7.315157890319824,0.29680055379867554,0.3230319023132324,0.20226112008094788
1.1201400756835938,3.016152858734131,7.731808185577393,0.10399337112903595,0.3901416063308716,0.08082455396652222
0.267397940158844,3.2700912952423096,8.464909553527832,-0.009986559860408306,0.3699021637439728,0.13834713399410248
0.43968117237091064,3.001796007156372,8.498408317565918,-0.21970431506633759,0.6275554299354553,0.19373925030231476
-0.07776673883199692,2.80049991607666,9.137890815734863,-0.1664426624774933,0.5934679508209229,0.1894783228635788
0.3128615617752075,3.7037904262542725,8.752346992492676,-0.005725627299398184,0.05352795869112015,0.18628261983394623
0.547657310962677,3.7516467571258545,8.11525821685791,-0.04194355010986328,-0.26484355330467224,0.14260807633399963
0.9044869542121887,3.9406797885894775,7.976175308227539,-0.05672365799546242,-0.06151720881462097,0.22782671451568604
1.036391258239746,3.864109516143799,8.44576644897461,-0.0790935531258583,0.14833369851112366,0.29799893498420715
1.0651051998138428,3.466601848602295,8.862417221069336,-0.05352795869112015,0.3134448230266571,0.3363473415374756
0.9379864931106567,3.361018419265747,9.14985466003418,-0.06418029218912125,0.3560541272163391,0.34060826897621155
0.727118968963623,3.483351469039917,9.123533248901367,-0.111050546169281,0.3560541272163391,0.34060826897621155
0.3774677813053131,3.921537160873413,9.193224906921387,0.24460414052009583,0.30705341696739197,0.4396749436855316
0.42771705985069275,4.000799655914307,8.450551986694336,0.28508299589157104,0.3443365693092346,0.39600038528442383
0.19770696759223938,4.01754903793335,8.963214874267578,0.2158428430557251,0.6371424794197083,0.37043479084968567
0.1666002720594406,3.9263229370117188,9.090034484863281,0.21051667630672455,0.5529890656471252,0.35126060247421265
0.32243284583091736,3.6293137073516846,9.106783866882324,0.18708154559135437,0.4615122079849243,0.3043903410434723
0.15224334597587585,3.5168511867523193,9.257830619812012,0.16045072674751282,0.3773587942123413,0.22676147520542145
0.3128615617752075,3.739682674407959,9.147461891174316,0.15725502371788025,0.3656412363052368,0.20545682311058044
0.40378883481025696,4.161118507385254,8.982357025146484,0.1934729516506195,0.45725128054618835,0.18095645308494568
0.10438688844442368,3.94815731048584,8.876773834228516,0.23395180702209473,0.475360244512558,0.17563030123710632
-0.17587246000766754,3.94815731048584,9.255437850952148,0.24353890120983124,0.45831650495529175,0.18734785914421082
-0.2955136001110077,4.108476638793945,9.585947036743164,0.2552564740180969,0.39440253376960754,0.20439158380031586
-0.3170489966869354,4.146761417388916,9.59073257446289,0.28295251727104187,0.3805544972419739,0.22463101148605347
-0.6478567123413086,4.170690059661865,9.403793334960938,0.3351489305496216,0.5146406888961792,0.2725664973258972
-0.7363911867141724,4.022335052490234,8.165507316589355,0.34899696707725525,0.769231379032135,0.33208638429641724
-1.0429716110229492,3.9792640209198,7.913961887359619,0.18601632118225098,0.8086450099945068,0.356586754322052
-1.4575281143188477,4.058227062225342,8.618049621582031,0.03155753016471863,0.5977289080619812,0.3022598624229431
-1.3495519161224365,3.749253988265991,8.8648099899292,-0.07483261823654175,0.19946488738059998,0.2097177505493164
-0.7339983582496643,3.809074640274048,9.233902931213379,-0.1536598652601242,0.04500609636306763,0.1990654170513153
