accX,accY,accZ,gyroX,gyroY,gyroZ
-0.7097946405410767,4.718157768249512,7.409383773803711,-0.6452133059501648,-0.09292133152484894,0.031730085611343384
-0.5947867631912231,4.588248252868652,7.649723529815674,-1.8529812097549438,-0.6111968755722046,-0.8101818561553955
-0.3796246349811554,4.3002448081970215,8.779662132263184,-2.086139678955078,-0.9550790786743164,-0.8399920463562012
-0.40247488021850586,4.054896831512451,10.327676773071289,-1.8732094764709473,-1.2595691680908203,-0.7952941656112671
-0.6166219115257263,4.23102331161499,10.394876480102539,-1.4989410638809204,-1.5617032051086426,-0.6527182459831238
-0.5128284096717834,4.686936855316162,7.936453342437744,-1.1737513542175293,-1.3624389171600342,-0.33887311816215515
0.13243766129016876,4.063879489898682,11.4357328414917,0.0700051560997963,-0.7811919450759888,0.677501916885376
0.4109216332435608,3.5782973766326904,10.861908912658691,0.7042229175567627,-0.6033254265785217,0.7340505719184875
1.3547351360321045,2.3257946968078613,10.375789642333984,1.0524684190750122,-0.2693392038345337,0.5344547033309937
2.229710340499878,0.8850023150444031,9.830228805541992,1.0026566982269287,-0.45347145199775696,0.18420204520225525
1.6933996677398682,1.8074307441711426,8.62423038482666,1.1089472770690918,-0.35589009523391724,0.11164870858192444
1.9295637607574463,1.1374757289886475,9.464068412780762,1.3477083444595337,-0.07911577820777893,-0.03216641768813133
1.0277924537658691,2.9170284271240234,9.807158470153809,1.7002997398376465,0.19832175970077515,-0.29160961508750916
0.07883626967668533,5.12991189956665,10.521961212158203,2.0493481159210205,0.5633573532104492,-0.13529792428016663
0.08930372446775436,5.478737831115723,10.545299530029297,1.9877030849456787,0.37573447823524475,-0.050300389528274536
0.6105693578720093,5.575090408325195,8.352479934692383,1.4214659929275513,0.057159531861543655,-0.09918706119060516
0.06497863680124283,4.903219699859619,8.09193229675293,0.5178391933441162,1.2112585306167603,-0.09494590759277344
-1.1533253192901611,5.201681137084961,9.401139259338379,0.5548750758171082,1.0398671627044678,0.17954201996326447
-1.330352544784546,5.029212474822998,9.321086883544922,0.8390670418739319,0.7511547803878784,0.464833527803421
-0.7241981029510498,4.735759735107422,8.61769962310791,0.9113236665725708,0.5404237508773804,0.3975161910057068
-0.6857855916023254,4.9663310050964355,8.117091178894043,0.7316071391105652,0.2450791299343109,0.1506393700838089
-0.7553897500038147,4.941210746765137,8.166871070861816,0.6311983466148376,0.06080726906657219,0.03246312215924263
-0.6365416049957275,4.504288196563721,8.173373222351074,0.5503895878791809,-0.17414894700050354,-0.11454595625400543
-0.657390296459198,4.28055477142334,7.970268726348877,0.5920506119728088,-0.14618878066539764,-0.12423253804445267
-1.0368808507919312,4.237171649932861,7.606503486633301,0.7585724592208862,-0.11096803098917007,-0.008429939858615398
-1.1085153818130493,4.562438488006592,7.270338535308838,0.8229576349258423,-0.14648547768592834,0.0821002870798111
-1.039150595664978,4.734658241271973,6.450745582580566,0.6852162480354309,0.07159340381622314,-0.06373942643404007
-1.2976669073104858,5.453282833099365,6.43817138671875,0.4328590929508209,0.34058356285095215,-0.033283427357673645
-1.8489558696746826,5.429149627685547,7.42179536819458,-0.20528562366962433,0.01802925020456314,-0.11658799648284912
-1.6799538135528564,5.130362510681152,7.5766143798828125,-0.19650661945343018,-0.1261523962020874,-0.08114035427570343
-0.9978936910629272,5.410158157348633,7.4228010177612305,-0.11355111747980118,-0.21811379492282867,0.15393804013729095
-0.5276437401771545,5.436906337738037,7.379561424255371,0.0008726646192371845,0.07049384713172913,0.17868681252002716
-0.9395996928215027,6.25978422164917,7.015288352966309,0.09128072112798691,-0.49579566717147827,-0.2070833146572113
-0.9769492149353027,6.059849262237549,7.2019500732421875,0.14325661957263947,0.20144590735435486,-0.13784609735012054
-1.4506564140319824,6.480529308319092,7.152495384216309,0.23380430042743683,0.12835150957107544,-0.047333329916000366
-1.5020359754562378,6.6651506423950195,7.01781702041626,0.22423990070819855,-0.20694369077682495,0.014311700128018856
-1.121415376663208,6.381217956542969,6.893634796142578,0.19626227021217346,-0.14685200154781342,0.08649851381778717
-0.8897907137870789,6.3642096519470215,6.700087547302246,0.14128440618515015,0.252392053604126,0.04646066576242447
-1.4911566972732544,7.044459342956543,7.073065280914307,0.08730136603116989,0.47342056035995483,0.009738937020301819
-1.40721595287323,6.804646968841553,7.279991626739502,0.13151055574417114,0.20631536841392517,-0.005044001620262861
-1.2303515672683716,6.844897747039795,7.037458896636963,0.18573793768882751,0.1068665087223053,-0.018046705052256584
-0.08350017666816711,6.604740619659424,7.679574012756348,-0.2863561809062958,0.2160019427537918,0.10906562209129333
-0.47603434324264526,6.321650505065918,8.970355033874512,-0.1491907387971878,1.4072939157485962,0.06763150542974472
-1.8598637580871582,6.868466854095459,9.2788724899292,0.2238035649061203,1.549538254737854,0.07930775731801987
-1.8246499300003052,7.004878997802734,7.620532989501953,0.21160371601581573,0.718482255935669,0.24075071513652802
-0.8494532108306885,6.932612419128418,6.908009052276611,-0.24965189397335052,-0.3439694941043854,0.2929011583328247
0.443760484457016,5.514545440673828,8.10740852355957,-0.29859092831611633,-0.6748664379119873,-0.18886207044124603
0.0456143319606781,5.196499824523926,7.429513931274414,-0.23635248839855194,-0.7512944340705872,-0.3307049870491028
0.015361198224127293,4.963984489440918,7.032622337341309,-0.3352603018283844,-0.61175537109375,-0.14362314343452454
0.46344083547592163,4.728567600250244,7.53397798538208,-0.36590826511383057,-0.21090558171272278,0.06585127115249634
0.8548257350921631,4.626622676849365,7.902589321136475,-0.24181537330150604,0.04820599406957626,0.007470009382814169
0.7255580425262451,4.911168575286865,7.821138858795166,-0.11630874127149582,0.04082325100898743,-0.16179202497005463
0.28232425451278687,5.031185150146484,7.709109306335449,-0.08084364980459213,-0.32588788866996765,-0.2960776388645172
0.05102522671222687,5.2196760177612305,7.444990158081055,-0.1598372459411621,-0.7583455443382263,-0.36568138003349304
0.2237142026424408,5.245552062988281,7.475818157196045,-0.2117258906364441,-0.652735710144043,-0.33915236592292786
0.21579419076442719,5.240945816040039,7.512296199798584,-0.23109903931617737,-0.5866400599479675,-0.30890581011772156
0.24537694454193115,5.4944915771484375,7.608016490936279,-0.282848060131073,-0.5167222023010254,-0.2290046513080597
0.44685378670692444,5.547892093658447,7.7082953453063965,-0.30489155650138855,-0.2669655680656433,-0.1762607991695404
0.44406694173812866,5.269187927246094,8.00389289855957,-0.1915498822927475,-0.013369222171604633,-0.24469515681266785
0.28565698862075806,5.440766334533691,7.934183120727539,-0.12266173958778381,0.032393310219049454,-0.2707005739212036
0.22694158554077148,5.644272804260254,7.498907566070557,-0.07183775305747986,0.1431868076324463,-0.14241886138916016
0.21053650975227356,5.71982479095459,7.548965930938721,0.01630137488245964,0.32421237230300903,-0.1460666060447693
-0.069058358669281,6.0121660232543945,6.891862869262695,-0.04110250249505043,0.1126260980963707,-0.2474178671836853
0.17358919978141785,5.687838077545166,6.428757190704346,-0.23261748254299164,0.01242674421519041,-0.17992599308490753
0.269855260848999,5.535326957702637,6.782466888427734,-0.36793285608291626,0.16727235913276672,-0.0414864756166935
0.08440040051937103,5.811666011810303,6.903680801391602,-0.38700929284095764,0.5867098569869995,-0.0639314129948616
0.11913547664880753,5.758294582366943,6.709089279174805,-0.49930378794670105,1.1126124858856201,-0.15632914006710052
-0.2984994947910309,5.251375198364258,6.0813775062561035,-0.6246533393859863,1.3025741577148438,-0.21279054880142212
-0.6490201950073242,5.606980800628662,7.610343933105469,-0.8559269309043884,1.1956202983856201,-0.09576621651649475
-0.8486583232879639,5.606597423553467,9.34809398651123,-0.08560840040445328,0.18931587040424347,-0.04323180392384529
-0.7638461589813232,5.723933219909668,8.889039039611816,0.2813994288444519,0.2885901927947998,-0.10557496547698975
-0.9050752520561218,5.49019193649292,8.642110824584961,0.37508872151374817,0.45842817425727844,-0.13126620650291443
-1.088499903678894,5.593199729919434,8.393553733825684,0.3308795094490051,0.6677106022834778,-0.12716469168663025
-1.1548575162887573,5.803918361663818,8.41271686553955,0.23312363028526306,0.5815262794494629,-0.17910568416118622
-1.9130724668502808,6.391273498535156,8.864225387573242,0.13170254230499268,-0.23054054379463196,-0.20202186703681946
-1.734110713005066,6.236856937408447,9.419584274291992,0.2626895010471344,-0.6213721036911011,-0.07450810819864273
-1.6743322610855103,6.344529151916504,9.164669036865234,0.35782739520072937,-1.1989364624023438,-0.06639232486486435
-1.5181058645248413,6.235832691192627,9.010711669921875,0.2891137897968292,-1.7022370100021362,-0.08489281684160233
-0.8253100514411926,5.8991217613220215,8.820191383361816,0.2703689634799957,-1.7939192056655884,-0.09812241047620773
-0.5083464980125427,5.688441276550293,8.799304008483887,0.323147714138031,-1.6422675848007202,-0.14302973449230194
-0.6629257202148438,5.852606773376465,8.439167976379395,0.4193153381347656,-1.2836896181106567,-0.16338026523590088
-0.8392347693443298,5.597873687744141,8.323758125305176,0.44690901041030884,-0.8431336283683777,-0.12604767084121704
-0.9381057024002075,4.940942764282227,7.7397260665893555,0.3482106328010559,-0.8054519891738892,-0.16257742047309875
-1.061340093612671,5.200799942016602,7.633596420288086,0.37662458419799805,-0.4789183437824249,-0.06602580845355988
-0.7761810421943665,5.102656841278076,7.584428787231445,0.5534613728523254,0.043301619589328766,0.05267403647303581
-0.8634161949157715,5.364697456359863,7.170059680938721,0.5350306630134583,0.10470230132341385,-0.04986405745148659
-1.015026569366455,5.536294460296631,6.827343940734863,0.3291690945625305,-0.003752457909286022,-0.15055209398269653
-0.8327704071998596,5.541408538818359,7.2499494552612305,-0.10197959095239639,-0.050108402967453,-0.19306832551956177
-0.8410447239875793,5.514909744262695,7.44273042678833,-0.12709487974643707,0.08991936594247818,-0.23457224667072296
-1.1634575128555298,5.6294097900390625,7.613590240478516,-0.10756464302539825,0.12339477986097336,-0.20383700728416443
-1.2726235389709473,5.547059059143066,7.7373127937316895,-0.037716563791036606,-0.0103672556579113,-0.09922196716070175
-1.319300889968872,5.681057453155518,7.632513523101807,0.05677555873990059,-0.139399453997612,0.042359139770269394
-1.0964964628219604,5.903976917266846,7.374265670776367,0.10306169092655182,-0.07476990669965744,0.15920893847942352
-0.8701199293136597,5.927286624908447,7.157341480255127,0.10266026854515076,0.017243852838873863,0.18357372283935547
-0.6980342864990234,6.033483982086182,6.944947242736816,0.08145451545715332,0.18814648687839508,0.18935076892375946
-0.7569891214370728,6.150771141052246,6.919291019439697,0.07342600077390671,0.20296433568000793,0.18072883784770966
-0.7762576341629028,6.1825947761535645,6.941547393798828,0.09784315526485443,0.05925392732024193,0.14594443142414093
-0.7628597021102905,6.238111972808838,6.94179630279541,0.11374310404062271,-0.03420845419168472,0.12309807538986206
-0.6401903629302979,6.256767272949219,6.832505702972412,0.12568116188049316,-0.1589471399784088,0.05489060655236244
-0.7071514129638672,6.310215473175049,6.667047500610352,0.10758209228515625,-0.09079203009605408,-0.011484266258776188
-0.8200523853302002,6.356739521026611,6.616165637969971,0.06672393530607224,0.003752457909286022,-0.010018189437687397
-0.7918103933334351,6.563129425048828,7.094871997833252,0.01219985168427229,-0.012548916973173618,-0.017959438264369965
-0.9165961742401123,6.762585639953613,7.1236982345581055,0.009267698042094707,-0.03364994749426842,0.0070685832761228085
-0.683266818523407,6.6490044593811035,7.273125171661377,0.012217304669320583,-0.05028293654322624,0.025045474991202354
-0.7922796607017517,7.4084930419921875,7.169398784637451,0.03047344833612442,-0.009285151958465576,-0.0038397242315113544
-0.6660477519035339,7.583576679229736,7.406434059143066,-0.04590215906500816,0.0006632251315750182,-0.02560397982597351
-0.13176728785037994,6.986289978027344,8.039020538330078,-0.18074630200862885,-0.23408356308937073,-0.1831897646188736
0.10863929986953735,6.4134440422058105,8.479907989501953,-0.27063074707984924,-0.36103880405426025,-0.35643112659454346
0.03826892003417015,6.3344926834106445,8.6000394821167,-0.27433085441589355,-0.15454889833927155,-0.4161912202835083
0.1341327577829361,6.079394817352295,8.717921257019043,-0.22397810220718384,0.09653416275978088,-0.3655242919921875
-0.08928456902503967,5.987323760986328,8.778714179992676,-0.11878710985183716,0.07710864394903183,-0.17212437093257904
-0.3222403824329376,6.311221122741699,9.067445755004883,-0.004852015525102615,-0.300685316324234,0.09756390750408173
0.5213708877563477,5.9287614822387695,8.848097801208496,0.11697196960449219,-0.6020338535308838,0.1287878453731537
1.388244390487671,5.520684719085693,8.224973678588867,0.20860175788402557,-0.5477017760276794,-0.04853760451078415
1.6058485507965088,5.242631435394287,7.74789571762085,0.2862863540649414,-0.22963297367095947,-0.21554815769195557
1.0860674381256104,5.315960884094238,7.733942031860352,0.39016833901405334,-0.006126105785369873,-0.25930356979370117
1.131585955619812,5.477099895477295,6.199182033538818,0.1929636001586914,-0.36096900701522827,-0.3027273714542389
0.9662327766418457,5.639695167541504,6.280412673950195,-0.06791076064109802,-0.4006054103374481,-0.3873758316040039
1.0063883066177368,5.3838605880737305,6.574669361114502,-0.21263346076011658,-0.08169886469841003,-0.31843531131744385
0.7906132936477661,5.47263765335083,7.263864040374756,-0.24979151785373688,0.05412266030907631,-0.2921332120895386
0.5362915992736816,6.03230619430542,7.489273548126221,-0.2554813027381897,-0.0038920841179788113,-0.2206445187330246
0.9233765602111816,6.067874431610107,7.708582401275635,-0.25153684616088867,-0.15426965057849884,-0.16556192934513092
1.3992098569869995,5.935062885284424,7.623818397521973,-0.12674580514431,0.13184216618537903,-0.2568950057029724
0.4555208086967468,6.285583972930908,7.387816905975342,0.09920451790094376,0.26597073674201965,-0.5201430320739746
0.49083051085472107,5.915565013885498,6.305513381958008,0.17952457070350647,0.1681799292564392,-0.5966756939888
-0.2429061233997345,6.373432159423828,6.255158424377441,0.0044156829826533794,-0.27900832891464233,-0.5923123955726624
0.03702393174171448,6.192669868469238,6.020066738128662,-0.23340287804603577,-0.34782665967941284,-0.44980624318122864
0.03711012750864029,6.42203426361084,6.498715877532959,-0.3646865487098694,-0.1771334707736969,-0.39816194772720337
0.01317768543958664,6.1882452964782715,7.3390326499938965,-0.5632352232933044,-0.4427027702331543,-0.3868522346019745
0.0825808048248291,6.201030254364014,7.754953384399414,-0.5093917846679688,-0.26431265473365784,-0.31211721897125244
0.1267777681350708,6.273861885070801,8.228066444396973,-0.34196236729621887,-0.038117989897727966,-0.23261748254299164
0.2290293276309967,6.557852745056152,8.266948699951172,-0.1765575110912323,0.0011693706037476659,-0.18022270500659943
0.7106756567955017,6.486246585845947,8.21993637084961,-0.07525859773159027,0.00296705961227417,-0.2105565220117569
0.896073043346405,6.350620269775391,8.004075050354004,-0.025307273492217064,0.11299261450767517,-0.36686819791793823
0.48578354716300964,6.100234508514404,7.9474663734436035,0.04684463515877724,0.11510446667671204,-0.4533492624759674
-0.1639549285173416,6.329129695892334,6.827784061431885,-0.4087910056114197,0.5981941223144531,-0.29082420468330383
-0.5576862096786499,5.889937400817871,5.9664082527160645,-0.7657457590103149,1.117063045501709,-0.3971845805644989
0.40676528215408325,4.914290428161621,9.060626983642578,-0.8625940680503845,0.7359529733657837,-0.24963444471359253
-1.637404203414917,4.82455587387085,7.274781703948975,-0.7464947700500488,1.126016616821289,-0.6592631936073303
-1.6857669353485107,4.123639106750488,7.843873977661133,-1.000946283340454,1.055627465248108,-0.7499854564666748
-2.0886919498443604,3.9697587490081787,9.812597274780273,-0.9832487106323242,0.6668030619621277,-0.8374962210655212
-2.687223196029663,4.187736511230469,11.573580741882324,-0.4285306930541992,-0.16482889652252197,-0.8988794684410095
-3.392421007156372,4.161400318145752,10.513188362121582,0.12924163043498993,-0.9005375504493713,-0.759305477142334
-3.6094889640808105,4.077631950378418,9.261222839355469,0.3654719293117523,-0.8015424609184265,-0.47539278864860535
-3.080092430114746,3.74397611618042,8.00832748413086,0.3867824077606201,0.18542377650737762,-0.35177111625671387
-2.9450020790100098,3.823568820953369,8.348034858703613,0.3879168927669525,0.7363718748092651,-0.3553839325904846
-2.4457249641418457,3.621574878692627,9.198302268981934,0.536234974861145,1.0526604652404785,-0.5226911902427673
-4.1015167236328125,3.7016561031341553,7.399271011352539,1.1923565864562988,0.3217863440513611,-0.48926815390586853
-3.1772875785827637,3.717620611190796,6.781854152679443,1.0364986658096313,0.6375513076782227,-0.5451710224151611
-2.990309953689575,3.784811496734619,7.03110933303833,0.7889935374259949,0.9857096076011658,-0.83400559425354
-3.795125722885132,3.809941053390503,9.666666030883789,0.935042679309845,0.48462557792663574,-1.0590832233428955
-5.50348424911499,4.842206001281738,6.380173683166504,0.9565625786781311,-1.294475793838501,-0.9963386654853821
-5.532281875610352,4.929355144500732,7.225643157958984,0.7955559492111206,-1.3477606773376465,-0.47680649161338806
-4.415817737579346,4.942197322845459,7.236991882324219,0.8831714987754822,-1.6379740238189697,-0.2702467739582062
-4.127143859863281,5.181981563568115,6.980908393859863,0.7690443992614746,-2.41743803024292,-0.15039502084255219
-2.3866360187530518,5.533210754394531,7.342451572418213,0.3715806007385254,-2.8207836151123047,-0.30579912662506104
-1.81898033618927,5.60861873626709,7.079750061035156,0.33662164211273193,-2.050412893295288,-0.46729445457458496
-1.1885391473770142,5.847301483154297,6.917020797729492,0.18687240779399872,-1.242814064025879,-0.7075040936470032
-0.817255973815918,5.782054901123047,6.992247104644775,0.06871361285448074,-0.427413672208786,-0.9069952368736267
-0.9627180695533752,5.357648849487305,7.678770065307617,0.10292206704616547,-0.2823418974876404,-1.0071073770523071
-1.9165585041046143,5.285947322845459,7.953451633453369,0.2347642332315445,-0.6724928021430969,-1.2738111019134521
-2.8691346645355225,5.725675582885742,7.399548530578613,0.21247638761997223,-1.0970441102981567,-1.2781569957733154
-3.114482879638672,5.642922878265381,7.704780101776123,0.17793631553649902,-1.3274799585342407,-1.073517084121704
-1.7842261791229248,5.604788303375244,8.088053703308105,-0.228725403547287,-0.7336665987968445,-0.8860163688659668
-2.8167495727539062,5.041872501373291,8.83610725402832,-0.045029494911432266,-0.8509178161621094,-0.8108974099159241
-2.4306893348693848,5.670886993408203,8.189865112304688,0.03591887652873993,-1.104741096496582,-0.7381346225738525
-2.4669759273529053,5.26707124710083,7.033695220947266,-0.17207200825214386,-0.7945436835289001,-0.7088654637336731
-1.766327142715454,5.229395866394043,6.311604022979736,-0.19341738522052765,-0.07646287232637405,-0.6096609830856323
-1.5304886102676392,4.556596755981445,6.977852821350098,-0.3496069014072418,1.0933091640472412,-0.398668110370636
-1.4419223070144653,4.341635704040527,8.03437614440918,-0.5522221922874451,1.4187606573104858,-0.3729768693447113
-1.4140442609786987,5.258251190185547,8.095925331115723,-1.787758231163025,0.5135805606842041,-1.518314242362976
-1.2704401016235352,4.191873550415039,9.836721420288086,-2.020113945007324,0.13953907787799835,-1.674730658531189
-1.9346777200698853,3.903238296508789,10.141733169555664,-1.4423924684524536,0.07103490084409714,-1.5196057558059692
-2.151123285293579,2.662515163421631,10.868583679199219,-0.519113302230835,-0.3248581290245056,-1.3243558406829834
-1.8742098808288574,3.4802308082580566,10.302498817443848,0.9903870820999146,-2.398221969604492,-0.9746093153953552
-1.0508055686950684,2.7013392448425293,8.058652877807617,1.0793814659118652,-2.5340960025787354,-1.2053418159484863
-0.9420130252838135,3.457514762878418,6.793221473693848,0.808855414390564,-1.8957940340042114,-1.474436640739441
-1.4744164943695068,4.3202409744262695,8.1466064453125,0.5755223035812378,-1.6512559652328491,-1.306762933731079
-1.1087355613708496,4.005997657775879,8.675371170043945,0.32536429166793823,0.1469392627477646,-0.6177243590354919
-1.072717308998108,4.784026622772217,8.000100135803223,-0.004153883550316095,-0.3709173798561096,-0.6850417256355286
-0.6111726760864258,4.684063911437988,8.45987319946289,-0.11763519048690796,-0.28897416591644287,-0.7238752841949463
-0.4049169719219208,4.066580295562744,8.992305755615234,-0.0076445420272648335,-0.2525840401649475,-0.7489556670188904
-0.8745444416999817,4.058765411376953,8.550871849060059,0.33707544207572937,-0.09581857919692993,-0.7145203351974487
-0.6947494745254517,4.433189868927002,7.364985942840576,0.3891386091709137,-0.6331530809402466,-0.5697453022003174
0.07757213711738586,3.7468392848968506,6.115921497344971,-0.0021816615480929613,0.3928212523460388,-0.4245862364768982
-0.3779582381248474,3.892770767211914,6.872920036315918,-0.6479185819625854,1.0832386016845703,-0.5632177591323853
-1.3732854127883911,4.442019939422607,9.34558391571045,-0.7581186890602112,0.8619657754898071,-0.6871012449264526
-1.7543177604675293,3.809720754623413,10.91038703918457,-0.20519836246967316,0.017994344234466553,-0.670991837978363
-1.9114444255828857,3.9756484031677246,10.689114570617676,0.6369230151176453,-0.2661976218223572,-0.4946437478065491
-1.6197923421859741,4.238110542297363,9.744630813598633,1.0978819131851196,-0.42671555280685425,-0.490245521068573
-1.2543318271636963,4.356480121612549,8.580110549926758,1.0838145017623901,-0.48572513461112976,-0.604180634021759
-0.8726290464401245,4.288647651672363,6.409192085266113,0.5622926950454712,-0.2617644667625427,-0.9038013219833374
-2.4278738498687744,4.481725215911865,10.277972221374512,-0.02373647689819336,-0.4089829921722412,-0.9755343198776245
-2.4807186126708984,4.373334884643555,10.143016815185547,0.6260845065116882,-0.858457624912262,-0.7250097393989563
-1.683142900466919,4.263575077056885,8.099727630615234,0.8979195356369019,-0.1451939344406128,-0.49647635221481323
-1.4857075214385986,4.203212261199951,7.956411361694336,0.768328845500946,0.11646582186222076,-0.5113640427589417
-1.9299851655960083,4.763360023498535,8.538498878479004,0.7071375846862793,-0.26483625173568726,-0.4439244866371155
-1.6355462074279785,5.721203804016113,8.733577728271484,0.7043450474739075,-0.06524040549993515,-0.6611307263374329
-1.5701749324798584,5.622323036193848,6.608992576599121,0.5734104514122009,-0.013561207801103592,-0.6622128486633301
-2.6646506786346436,5.320423603057861,7.1105875968933105,0.324247270822525,-0.27572712302207947,-0.7506312131881714
-2.642212152481079,5.287871837615967,7.36178731918335,0.3978478014469147,0.03070034086704254,-0.7674736380577087
-2.8676886558532715,5.357840538024902,6.721022129058838,0.35585516691207886,0.12466886639595032,-0.7533015608787537
-3.1720874309539795,5.581334590911865,7.033236026763916,0.24668483436107635,-0.14962707459926605,-0.6180036067962646
-3.1930415630340576,5.687808990478516,7.65380334854126,0.2894454002380371,-0.2719222903251648,-0.41409680247306824
-2.8738656044006348,5.689906597137451,7.637416839599609,0.4715006947517395,-0.2664419710636139,-0.3726976215839386
-2.5736806392669678,5.540757179260254,6.908095836639404,0.46561893820762634,-0.1765749603509903,-0.4364195764064789
-2.775435209274292,5.618176460266113,6.632311820983887,0.324247270822525,0.2050936371088028,-0.43621012568473816
-2.937091827392578,5.924232006072998,7.495517730712891,0.357652872800827,0.6627713441848755,-0.4072202146053314
-3.0125091075897217,6.144392967224121,8.092803955078125,0.639471173286438,0.6275854706764221,-0.4531049132347107
-3.5423364639282227,6.036979675292969,7.465417861938477,0.8126950860023499,0.23375195264816284,-0.5168792605400085
-3.80873441696167,5.988281726837158,5.9824395179748535,0.6310761570930481,-0.8793666958808899,-0.5367062091827393
-3.6963601112365723,6.012922763824463,6.392154693603516,0.2309943288564682,-0.7881034016609192,-0.3390651047229767
-2.6950860023498535,5.590346336364746,7.897638320922852,0.46181410551071167,-0.6745348572731018,-0.47422340512275696
-2.6449129581451416,5.740462303161621,7.736154079437256,0.5676159858703613,-0.6209008693695068,-0.5817356705665588
-3.1683237552642822,5.610198497772217,7.295965671539307,0.6754423975944519,-0.6255608797073364,-0.7155675292015076
-3.372807502746582,5.590959072113037,6.841641902923584,0.6559296250343323,-0.8192575573921204,-0.7536855340003967
-3.4277689456939697,5.449662685394287,6.077125549316406,0.3920358419418335,-1.3283700942993164,-0.7650476098060608
-3.607151985168457,5.704894065856934,6.677619934082031,0.10615092515945435,-1.8361213207244873,-0.6995628476142883
-3.5241692066192627,5.9330902099609375,7.688002109527588,0.05668829381465912,-2.2722091674804688,-0.5896769165992737
-3.0294888019561768,5.984786033630371,7.668015003204346,0.14397220313549042,-2.362163543701172,-0.3946189284324646
-2.3766379356384277,5.617888927459717,7.646878719329834,0.25190338492393494,-2.1837384700775146,-0.3736051917076111
-2.2166764736175537,5.593803405761719,7.604836940765381,0.30197685956954956,-1.8513928651809692,-0.49813443422317505
-2.2734766006469727,5.719163417816162,7.49639892578125,0.2897944748401642,-1.544162631034851,-0.5127253532409668
-2.3804876804351807,5.791975975036621,7.619910717010498,0.26860615611076355,-1.4911918640136719,-0.490856409072876
-1.8972516059875488,5.9608154296875,8.111076354980469,0.09955357760190964,-1.4517648220062256,-0.33513811230659485
-1.6851253509521484,5.886116027832031,8.292815208435059,0.18065902590751648,-1.5998386144638062,-0.4164530038833618
-1.5662100315093994,6.067979335784912,7.463464260101318,0.1318770796060562,-1.517109990119934,-0.5723283886909485
-1.5087109804153442,5.779756546020508,7.12929105758667,0.009738937020301819,-0.8683536648750305,-0.5845980048179626
-1.4572644233703613,5.707757949829102,7.261048793792725,-0.09033824503421783,-0.2123018503189087,-0.4983264207839966
-1.621870517730713,5.670867443084717,8.405669212341309,0.009372417815029621,-0.20935223996639252,-0.465444415807724
-1.997348427772522,6.494329452514648,8.27253246307373,0.19711747765541077,-0.7271565198898315,-0.3559948205947876
-1.6993277072906494,6.400793075561523,7.551819801330566,0.22684043645858765,-0.9886941313743591,-0.4193677008152008
-1.0198149681091309,5.844226837158203,5.997398376464844,0.06986553221940994,-0.8365188837051392,-0.5143485069274902
-0.8009083271026611,6.1553874015808105,6.346157073974609,-0.17505651712417603,-0.387044221162796,-0.5573011040687561
-0.9303197860717773,5.751245975494385,7.432368278503418,-0.23553217947483063,-0.5897467732429504,-0.6850242614746094
-1.421370506286621,6.0214457511901855,7.843558311462402,-0.021624628454446793,-1.0243163108825684,-0.8613723516464233
-1.602697730064392,6.076962947845459,6.957071304321289,0.12601277232170105,-0.8939576148986816,-0.8725075721740723
-1.4015944004058838,6.343265056610107,6.389645576477051,0.07414158433675766,-0.8664337992668152,-0.8065166473388672
-1.565673828125,6.469659805297852,6.7334723472595215,-0.08693484961986542,-0.8248077034950256,-1.026305913925171
-1.597813606262207,6.552268981933594,6.811082363128662,-0.20758946239948273,-1.0679844617843628,-1.2111537456512451
-0.9718255996704102,5.658380031585693,6.215883731842041,-0.4433136284351349,-1.2460429668426514,-1.206371545791626
-1.7097665071487427,6.6298508644104,6.215194225311279,-0.6293133497238159,-1.270390272140503,-0.8764868974685669
-1.2643682956695557,6.33734655380249,7.791756629943848,-0.466543972492218,-0.5510702729225159,-0.5245587229728699
-0.63172447681427,5.960968494415283,7.671539783477783,-0.2378883808851242,-0.21434389054775238,-0.5091474652290344
-0.5449490547180176,6.3726372718811035,7.394463539123535,-0.0944572165608406,0.10100220143795013,-0.568034827709198
-0.5910038948059082,6.526794910430908,7.233314514160156,-0.10229374468326569,0.1140747219324112,-0.614094078540802
-0.842050313949585,6.546092510223389,7.4347052574157715,-0.11225957423448563,-0.18671531975269318,-0.6377084255218506
-1.176730990409851,7.072136878967285,7.437692642211914,-0.11470303684473038,-0.37950438261032104,-0.5662895441055298
-1.0492541790008545,6.840540409088135,7.9287824630737305,-0.03972369432449341,-0.578489363193512,-0.48776715993881226
-0.839435875415802,6.716865539550781,7.6975884437561035,0.05757841095328331,-0.3776543438434601,-0.4712214469909668
-0.6746764779090881,6.537262439727783,7.449539661407471,0.08955284208059311,0.06129596382379532,-0.4755149483680725
-1.0067235231399536,6.74678373336792,7.796497344970703,0.07089527696371078,0.27495917677879333,-0.4962145686149597
-1.4272602796554565,7.029385566711426,8.540529251098633,0.12993976473808289,0.08765043318271637,-0.49240973591804504
-1.694520115852356,7.248407363891602,8.365139961242676,0.5101771950721741,-0.5754175782203674,-0.19364428520202637
-1.2962207794189453,6.831787586212158,8.406003952026367,0.3951250910758972,-0.6616717576980591,-0.24727824330329895
-0.898237407207489,6.692339897155762,8.424908638000488,0.30630528926849365,-0.4323878586292267,-0.3012961745262146
-0.5750489234924316,6.337930679321289,8.533097267150879,0.2842443287372589,-0.1117534339427948,-0.33026865124702454
-0.47680047154426575,6.059370040893555,8.481852531433105,0.2575756907463074,-0.08628907799720764,-0.3021688461303711
-0.5471612811088562,6.012635231018066,8.525675773620605,0.21437878906726837,-0.34028685092926025,-0.21683970093727112
-0.40274304151535034,6.108843803405762,8.379427909851074,0.1705361157655716,-0.5827828645706177,-0.10843730717897415
0.4160548150539398,4.407294273376465,7.82880973815918,0.43442991375923157,-0.233839213848114,-0.36473891139030457
0.08784804493188858,4.631899356842041,7.374821186065674,0.5003858804702759,-0.5054997205734253,-0.3160442113876343
0.289066344499588,4.726441383361816,6.703372001647949,0.3900461792945862,-0.6476567983627319,-0.3041759729385376
0.6513473391532898,4.656464099884033,6.3671112060546875,0.15795229375362396,-0.5767789483070374,-0.3125361204147339
0.6301347017288208,4.882888317108154,6.530999183654785,-0.03473205119371414,-0.35351642966270447,-0.3171088695526123
0.45884397625923157,5.099707126617432,6.912127494812012,-0.1506393700838089,-0.21294762194156647,-0.3246137797832489
0.14023318886756897,5.5038676261901855,7.131340503692627,-0.23636993765830994,-0.34608134627342224,-0.3223448693752289
0.07597281038761139,5.810928821563721,7.010538578033447,-0.3356093466281891,-0.49268898367881775,-0.24764476716518402
0.33264079689979553,5.831432819366455,7.233410358428955,-0.40564942359924316,-0.49904200434684753,-0.15261158347129822
0.7666808366775513,5.785731792449951,7.507689952850342,-0.3568674623966217,-0.44050365686416626,-0.1359785944223404
1.034697413444519,5.624755382537842,7.993348598480225,-0.21837559342384338,-0.4336968660354614,-0.21678733825683594
0.934370756149292,5.850576877593994,8.088915824890137,-0.02298598550260067,-0.4498586058616638,-0.31559044122695923
0.8149670958518982,6.0238213539123535,7.829710006713867,0.10594148188829422,-0.3850545287132263,-0.3438473045825958
0.9723811149597168,5.932687759399414,7.453810691833496,0.14871950447559357,-0.24610887467861176,-0.3392570912837982
1.0202171802520752,5.844217777252197,7.377358913421631,0.11070623248815536,-0.19895008206367493,-0.3569198250770569
0.8750424385070801,5.892389297485352,7.34998893737793,0.0674046128988266,-0.1834864616394043,-0.39877283573150635
0.2700755298137665,6.172989368438721,7.248359203338623,0.19284142553806305,-0.007382742594927549,-0.2640857696533203
0.27294856309890747,6.356988906860352,7.288649082183838,0.1969953179359436,-0.06237806752324104,-0.17357298731803894
0.5278640389442444,6.471958160400391,7.253990650177002,0.23429299890995026,-0.03782128542661667,-0.08011060953140259
0.7246769666671753,6.654961585998535,7.0617265701293945,0.26019367575645447,0.018395770341157913,-0.04632103815674782
0.1486128866672516,7.226189136505127,7.7036213874816895,0.023090705275535583,-0.04220206290483475,-0.08300785720348358
0.23731328547000885,7.226926803588867,7.698392391204834,-0.013037609867751598,-0.10606365650892258,-0.07464773207902908
0.41812339425086975,7.107580661773682,8.074138641357422,-0.08960520476102829,-0.19659388065338135,-0.11016517877578735
0.4874211847782135,6.803804397583008,8.363693237304688,-0.07508406043052673,-0.14329153299331665,-0.21532127261161804
-1.2134006023406982,6.452277660369873,7.633538722991943,0.1814269721508026,-0.0009075712296180427,-0.31202995777130127
-1.6316006183624268,6.185793399810791,7.475090503692627,0.08313003182411194,-0.15273375809192657,-0.2649584412574768
-1.55551278591156,5.515599250793457,7.839420795440674,-0.04766494035720825,-0.040509093552827835,0.0055850534699857235
-1.483638882637024,5.202744007110596,7.767029762268066,0.14587461948394775,0.1180715262889862,0.11726867407560349
-1.4402368068695068,5.3094587326049805,7.397795677185059,0.3747396469116211,0.16613788902759552,0.19310322403907776
-1.1372075080871582,5.21142053604126,6.383171558380127,0.3781954050064087,0.21741566061973572,0.10156071186065674
-1.550619125366211,5.9611406326293945,5.9351396560668945,0.15414747595787048,0.1379857361316681,0.07223917543888092
-1.5942031145095825,5.705411434173584,6.269044876098633,-0.15241959691047668,0.14124949276447296,0.00019198621157556772
-1.4361763000488281,5.572246074676514,6.726576805114746,-0.24813346564769745,0.2944021224975586,0.004310963209718466
-1.1578454971313477,5.426688194274902,7.105770587921143,-0.20429079234600067,0.2785894572734833,-0.028815384954214096
-1.4397484064102173,5.876979827880859,6.916264533996582,-0.19917696714401245,0.09190903604030609,-0.08789478242397308
-1.7669209241867065,5.695834636688232,6.565523624420166,-0.38554322719573975,0.2574884295463562,-0.016144296154379845
-1.6377967596054077,5.597949981689453,6.9658918380737305,-0.545467734336853,0.6415306925773621,0.062029000371694565
-1.1156883239746094,5.467849254608154,7.801132678985596,-0.49089130759239197,0.9558120965957642,0.039130281656980515
-1.9073264598846436,6.1740241050720215,7.97177267074585,0.13013175129890442,0.15687018632888794,-0.03527310490608215
-1.7351163625717163,6.199220180511475,7.512985706329346,0.17460273206233978,-0.06564183533191681,-0.032532937824726105
-1.8882015943527222,6.25909423828125,7.665496349334717,0.15514232218265533,-0.28787460923194885,-0.032096605747938156
-1.8240464925765991,6.293446063995361,7.7224016189575195,0.16952383518218994,-0.3891735076904297,-0.03476695716381073
-1.3758424520492554,5.860909938812256,7.372781276702881,0.19233527779579163,-0.19952604174613953,-0.031101766973733902
-1.5995852947235107,6.170614242553711,7.37943696975708,0.22097612917423248,-0.05307546257972717,-0.028326693922281265
-1.6412923336029053,6.294614791870117,6.938971042633057,0.22732913494110107,-0.05133013427257538,-0.06721262633800507
-1.6907756328582764,6.58551025390625,6.358855724334717,0.0789237916469574,-0.10882128030061722,-0.10435323417186737
-1.4557703733444214,6.606560230255127,6.421488285064697,-0.11281808465719223,-0.28036969900131226,-0.11461576819419861
-1.9214904308319092,6.883138179779053,7.1846160888671875,-0.14247122406959534,-0.5526934266090393,-0.12189379334449768
-1.5195807218551636,6.535567283630371,7.088024616241455,0.05164429172873497,-0.7012558579444885,0.05797983705997467
-1.416601300239563,6.751275539398193,6.838021755218506,0.1039692610502243,-0.758554995059967,0.12157963216304779
-1.0968029499053955,6.828866481781006,6.511041164398193,0.04386012256145477,-0.7247130870819092,0.12828169763088226
-0.3817506730556488,7.127615451812744,8.009801864624023,-0.04872959107160568,-0.06258750706911087,-0.0013962633674964309
-0.42873451113700867,7.063613414764404,8.238850593566895,-0.04054399952292442,0.08737118542194366,-0.0573166124522686
-0.8693346381187439,6.913104057312012,8.510046005249023,0.143413707613945,0.04911356419324875,0.0838107094168663
-0.6596121191978455,6.582062721252441,8.48484992980957,0.33974578976631165,-0.01104793418198824,0.29448941349983215
-0.24603775143623352,6.091577053070068,7.883339881896973,0.5266705751419067,0.1495223492383957,0.4086513817310333
1.1260218620300293,5.607718467712402,7.398571968078613,-0.06433283537626266,-0.14149384200572968,0.10939723998308182
1.3645703792572021,5.153126239776611,7.422350883483887,-0.027262043207883835,-0.08061675727367401,0.023020893335342407
1.2714264392852783,4.975706577301025,7.305274486541748,-0.012234757654368877,-0.2284286916255951,-0.10372491925954819
0.901780903339386,5.144325256347656,7.0996317863464355,-0.12342968583106995,-0.37346553802490234,-0.1681624799966812
0.7390421628952026,5.196528911590576,7.1547651290893555,-0.24462534487247467,-0.33077478408813477,-0.19886282086372375
0.7803852558135986,5.117950916290283,7.305169105529785,-0.2826386094093323,-0.1454731971025467,-0.20415116846561432
0.5256134867668152,5.4577836990356445,7.362313747406006,-0.3229208290576935,-0.07583455741405487,-0.18020524084568024
0.35327884554862976,5.708073616027832,7.563714504241943,-0.3412991464138031,-0.1838006228208542,-0.13548991084098816
0.5710746049880981,5.7236647605896,7.929490566253662,-0.23572416603565216,-0.2174854725599289,-0.11255628615617752
0.632806658744812,5.792847633361816,7.9212541580200195,-0.1809208244085312,-0.11302752047777176,-0.1408655196428299
0.6051297187805176,5.813973903656006,7.898040294647217,-0.10545279085636139,-0.004206243436783552,-0.13720032572746277
0.44679635763168335,5.857873916625977,7.669509410858154,-0.0269304309040308,0.03933972120285034,-0.10730284452438354
0.41122809052467346,5.825026035308838,7.4529008865356445,0.019809486344456673,0.033859387040138245,-0.054454270750284195
0.34289756417274475,5.9824395179748535,7.218968391418457,0.024486970156431198,0.024294983595609665,-0.02897246554493904
0.33222901821136475,6.097744464874268,7.28361177444458,-0.009023352526128292,0.015114551410079002,-0.01904154196381569
0.510692834854126,5.970458984375,7.253186225891113,0.0003490658418741077,0.06574655324220657,-0.01966986060142517
0.5013746023178101,6.142784118652344,7.259411334991455,-0.011746065691113472,0.09545205533504486,-0.03768165782094002
0.48525679111480713,6.058556079864502,7.229052543640137,-0.03349286690354347,0.014468779787421227,-0.07450810819864273
0.3299497365951538,6.097917079925537,7.261412620544434,-0.06213372200727463,-0.011327186599373817,-0.05590289458632469
0.33673009276390076,6.160539627075195,7.390594005584717,-0.06051056459546089,0.019320795312523842,-0.0036128314677625895
0.3873722553253174,6.199018955230713,7.486400604248047,-0.01516691129654646,0.08215264976024628,0.04672246426343918
0.44008299708366394,6.240725994110107,7.531133651733398,0.04792674258351326,0.1497841626405716,0.09363691508769989
0.3527904152870178,6.449500560760498,7.479974746704102,0.09557422995567322,0.17667968571186066,0.1293288916349411
0.3703064024448395,6.524448871612549,7.499568939208984,0.13831734657287598,0.1633453667163849,0.16919220983982086
0.4967298209667206,6.624325275421143,7.499214172363281,0.17926277220249176,0.13892820477485657,0.19120082259178162
0.6647070050239563,6.704550266265869,7.433229923248291,0.20146335661411285,0.17662732303142548,0.18266615271568298
0.7672937512397766,6.705699443817139,7.432214736938477,0.2125461995601654,0.2618342936038971,0.15072663128376007
0.41526949405670166,6.928542137145996,7.309229373931885,0.239633709192276,0.2612059712409973,0.1281769871711731
0.3720110356807709,6.947580337524414,7.247564315795898,0.19420278072357178,0.2537883222103119,0.15805701911449432
0.18324261903762817,7.236321449279785,7.405630111694336,0.14149384200572968,0.28351128101348877,0.18427185714244843
-0.11496956646442413,7.580952167510986,7.5409979820251465,0.13259266316890717,0.3917042315006256,0.23746949434280396
-0.03260902687907219,7.577303886413574,7.682638645172119,0.13002702593803406,0.4049513041973114,0.3027448058128357
0.15620729327201843,7.482665538787842,7.734918594360352,0.11098548769950867,0.34955453872680664,0.308260053396225
0.25595933198928833,7.213576793670654,7.847043991088867,0.07340855151414871,0.2621484398841858,0.2315528243780136
-0.08380663394927979,7.080066204071045,7.913382530212402,0.08662068843841553,0.26687830686569214,0.15879005193710327
-0.5744647979736328,6.728089809417725,7.906286239624023,0.15484561026096344,0.2833367586135864,0.14107497036457062
-0.8391677141189575,6.258931636810303,7.630502700805664,0.11011282354593277,0.2601587772369385,0.30026644468307495
-0.44073420763015747,5.9848432540893555,7.782142162322998,0.09613273292779922,0.33021628856658936,0.38580504059791565
-0.2552027404308319,5.82140588760376,7.770324230194092,0.1799783557653427,0.3528532087802887,0.34869933128356934
-0.44534066319465637,5.8062744140625,7.454902172088623,0.31239649653434753,0.3418401777744293,0.26227062940597534
-0.989140510559082,5.790405750274658,6.42832612991333,0.4231550693511963,0.2157576084136963,0.19648917019367218
-1.080733060836792,5.872018814086914,6.053844451904297,0.31323423981666565,0.11990411579608917,0.19429005682468414
-0.9449435472488403,5.816406726837158,5.900730609893799,0.13096950948238373,0.0737401619553566,0.15248940885066986
-1.0882891416549683,5.8913164138793945,6.738288879394531,-0.20963150262832642,0.09656906872987747,0.04297000542283058
-1.0377811193466187,5.995080947875977,7.043722152709961,-0.20558233559131622,0.025167647749185562,0.08915141969919205
-0.7826358079910278,6.008277893066406,7.074827671051025,-0.21279054880142212,-0.010855947621166706,0.07873180508613586
-0.7118728160858154,5.939305782318115,7.029740333557129,-0.22415263950824738,0.10461503267288208,0.04783947393298149
-0.9098732471466064,5.991805553436279,7.065384864807129,-0.19247491657733917,0.23366467654705048,0.0737401619553566
-1.05022132396698,6.150158405303955,7.042160987854004,-0.10241591930389404,0.22804471850395203,0.1782853752374649
-0.9933255910873413,6.358348846435547,6.8834638595581055,-0.00753982225432992,0.09855873882770538,0.2531774640083313
-0.7557728886604309,6.509728908538818,6.446043491363525,0.017121680080890656,0.04970697686076164,0.23773129284381866
-0.7047955393791199,6.524611473083496,6.225049018859863,-0.1417032778263092,0.11873474717140198,0.10246828198432922
-0.7118536233901978,6.474850654602051,6.409258842468262,-0.18483036756515503,0.2482730895280838,0.12205087393522263
-0.749921441078186,6.548361778259277,6.697022438049316,-0.1717054843902588,0.4662821590900421,0.17638297379016876
-0.713357150554657,6.574171543121338,6.98948860168457,-0.11856021732091904,0.543338418006897,0.17378243803977966
-0.759546160697937,6.58281946182251,6.976435661315918,-0.06302383542060852,0.43593087792396545,0.08660323917865753
-0.8015691637992859,6.652040481567383,6.758792877197266,-0.07674212753772736,0.4001167416572571,0.05801474303007126
-0.8370416164398193,6.785158157348633,6.9742231369018555,-0.07225663214921951,0.577354907989502,0.059952057898044586
-1.0657166242599487,6.9249796867370605,6.908766269683838,-0.07387978583574295,0.27399924397468567,-0.01785471849143505
-1.1809927225112915,6.959580421447754,6.866580009460449,-0.08012806624174118,0.08134979754686356,-0.04576253145933151
-1.3691960573196411,7.066007137298584,6.639992713928223,-0.09229300916194916,-0.18760544061660767,-0.06981316953897476
-1.3406283855438232,7.141932487487793,6.427340030670166,-0.13329079747200012,-0.22933626174926758,-0.029338983818888664
-1.2876017093658447,7.073218822479248,6.624392032623291,-0.1783028393983841,-0.11918853223323822,0.023980824276804924
-1.4507426023483276,7.261173248291016,6.7664642333984375,-0.2002067118883133,-0.1621236354112625,-0.025272367522120476
-1.446270227432251,7.269035816192627,7.355849742889404,-0.23581142723560333,-0.23825488984584808,-0.05235987901687622
-1.5086344480514526,7.436821460723877,7.694456577301025,-0.15793484449386597,-0.3327295780181885,-0.09351474046707153
-1.6075148582458496,7.81372594833374,7.639772891998291,-0.1143539696931839,-0.33222341537475586,-0.07665485888719559
-1.1794029474258423,7.482301712036133,7.729412078857422,-0.18928095698356628,-0.40655699372291565,-0.1034107580780983
-0.9484007358551025,7.30354118347168,7.850051403045654,-0.39699259400367737,-0.5966233611106873,-0.2309943288564682
-0.9962656497955322,7.02679967880249,8.46058177947998,-0.5474225282669067,-0.6663318276405334,-0.33286920189857483
-0.9692016243934631,6.584112167358398,8.630263328552246,-0.5612106323242188,-0.5349957942962646,-0.24040165543556213
-1.176070213317871,6.199018955230713,9.055397033691406,-0.3042283356189728,0.16920967400074005,0.14165091514587402
-0.8330960273742676,5.908727169036865,9.092326164245605,0.14208725094795227,0.6531545519828796,0.3862762749195099
-0.5317617654800415,6.063517093658447,8.14927864074707,0.2667037546634674,0.6275680661201477,0.442982017993927
-0.21039286255836487,5.426994800567627,7.795223712921143,0.15746361017227173,0.5157448053359985,0.4470835328102112
-0.09256941080093384,5.052694320678711,7.725590705871582,0.21184806525707245,0.6729815006256104,0.38144171237945557
0.00036391866160556674,5.245887756347656,7.321353912353516,0.24528856575489044,0.6871885061264038,0.2868099510669708
-0.0787883922457695,4.716088771820068,7.373327255249023,0.029932396486401558,0.9131737351417542,0.11997393518686295
-0.0856645330786705,4.546933650970459,6.857194900512695,-0.06187192350625992,1.2071744203567505,0.004956734832376242
-1.1065233945846558,4.776920795440674,7.171352386474609,-0.26508060097694397,1.9966217279434204,0.0455181859433651
-1.7832973003387451,4.854598045349121,8.256107330322266,-0.1552644968032837,2.907299757003784,0.08948303014039993
-1.1000494956970215,5.591974258422852,6.470396995544434,-0.19046777486801147,1.4606660604476929,-0.1353851854801178
-1.5941553115844727,5.720619201660156,6.765630722045898,-0.6184749007225037,-0.7701963186264038,-0.17950710654258728
-2.4587111473083496,5.591265678405762,9.066726684570312,-0.19685567915439606,-0.9593900442123413,-0.09037315100431442
-2.2116198539733887,5.479360580444336,7.442366123199463,0.01012290921062231,-0.6141988039016724,0.17409659922122955
-0.28455567359924316,5.933875560760498,6.397718906402588,-0.6753202676773071,0.7308740615844727,-0.43416810035705566
-1.0108702182769775,5.6706862449646,8.209516525268555,-0.9306095242500305,0.48727846145629883,-0.3493974506855011
-1.2669349908828735,5.667248249053955,9.567928314208984,-0.8402538299560547,-0.6087359189987183,-0.04178318381309509
0.442678302526474,5.7412190437316895,7.752674102783203,-0.5643522143363953,-0.5642125606536865,-0.2082526832818985
1.0241341590881348,4.7605156898498535,7.275069236755371,-0.6894050240516663,-0.18758799135684967,-0.42580798268318176
0.3642730116844177,4.60895299911499,7.069311618804932,-0.8006523251533508,0.17098990082740784,-0.5143834352493286
-0.9043378829956055,5.5522685050964355,8.494857788085938,-0.9242390990257263,-0.29658380150794983,-0.3712315261363983
-1.1436048746109009,5.586745262145996,9.560124397277832,-0.7864104509353638,-0.7601781487464905,-0.07358308136463165
-0.45115378499031067,4.924853324890137,9.958480834960938,-0.5281191468238831,-0.1529082953929901,0.1454731971025467
-0.7567784190177917,5.352994441986084,8.558696746826172,0.18818140029907227,0.25303784012794495,-0.010646508075296879
-0.9891309142112732,5.259726047515869,8.908220291137695,0.24092525243759155,0.25396284461021423,0.0073129297234117985
-1.1041196584701538,4.962347030639648,8.54050064086914,0.517437756061554,-0.08983209729194641,-0.08983209729194641
-1.3229209184646606,4.760161399841309,7.9595232009887695,0.49782025814056396,-0.21069614589214325,-0.05475097894668579
-1.4974007606506348,4.579217433929443,7.472044944763184,0.38814377784729004,-0.206245556473732,0.051714107394218445
-1.7286711931228638,4.515655994415283,7.87503719329834,0.23062780499458313,-0.26022860407829285,0.1967509686946869
-1.5350472927093506,4.450811386108398,7.609481334686279,0.2206619828939438,-0.13437290489673615,0.2635970711708069
-1.580718994140625,4.641791820526123,7.52724552154541,0.23268729448318481,-0.14735814929008484,0.3938160836696625
-1.2266261577606201,4.928320407867432,7.531172275543213,0.06579891592264175,-0.5162683725357056,0.17788395285606384
-0.5086145997047424,4.975017070770264,7.729737758636475,-0.14934782683849335,-0.051399946212768555,0.041294489055871964
-0.4439520239830017,4.820677280426025,7.801046371459961,-0.2085144817829132,0.24031437933444977,-0.05429719388484955
-0.9531125426292419,5.03910493850708,7.763696670532227,-0.21898646652698517,0.3560471534729004,-0.06925466656684875
-1.3953406810760498,5.34382963180542,7.969742298126221,-0.17753489315509796,0.23460716009140015,0.0200189258903265
-1.4386087656021118,5.514325141906738,8.01965618133545,-0.0705636590719223,0.035499997437000275,0.09436995536088943
-1.1849095821380615,5.627647876739502,7.8942766189575195,0.06637486815452576,-0.15559610724449158,0.09166469424962997
-1.4168214797973633,5.931845188140869,7.235737323760986,0.1440245658159256,-0.2711019814014435,0.0610690712928772
-1.2971689701080322,5.866062641143799,6.9325737953186035,0.024172810837626457,-0.1791754961013794,0.11440633237361908
-1.067421317100525,5.883472919464111,7.138331413269043,-0.12739157676696777,-0.09199630469083786,0.12222540378570557
-0.8861228227615356,5.796975135803223,7.597070217132568,-0.1808859258890152,-0.039444439113140106,0.09365436434745789
-1.0278594493865967,5.71918249130249,8.209833145141602,-0.09526006877422333,-0.06120869517326355,0.07665485888719559
-1.237265944480896,5.63493537902832,8.431995391845703,0.09524261951446533,-0.16250760853290558,0.06735225766897202
-0.9864877462387085,6.080735683441162,7.621998310089111,0.24696408212184906,0.05002113804221153,0.27169540524482727
-0.9498372673988342,6.321621417999268,7.818265438079834,0.13632766902446747,0.11046189069747925,0.2704038619995117
-0.9907398223876953,6.3541154861450195,8.327483177185059,0.15385077893733978,0.14533357322216034,0.28468066453933716
-0.8665477633476257,6.274934768676758,8.349174499511719,0.3280171751976013,0.16578882932662964,0.3251548409461975
-0.6465110182762146,6.327970504760742,8.196836471557617,0.506459653377533,0.07234390079975128,0.3208438754081726
-0.5233916640281677,6.6291327476501465,7.838472843170166,0.5627988576889038,-0.08105309307575226,0.26569145917892456
-0.8356146812438965,7.323882102966309,7.487003803253174,0.5091649293899536,-0.13173745572566986,0.18556340038776398
-0.9118748307228088,7.670361518859863,7.404844284057617,0.3736051917076111,-0.034173548221588135,0.14463543891906738
-0.3884831666946411,6.88276481628418,7.619757652282715,0.15304791927337646,-0.07147122919559479,0.050108402967453
-0.3463643789291382,6.691018104553223,7.859331130981445,-0.037716563791036606,-0.06668902933597565,-0.0014486232539638877
0.27267083525657654,5.90709924697876,8.425138473510742,0.01151917316019535,0.4115311801433563,0.13915510475635529
0.6774728894233704,5.468653202056885,8.380041122436523,0.02822197414934635,0.3755599558353424,0.15863297879695892
0.8824740052223206,5.126943588256836,8.357612609863281,0.06724753230810165,0.32730159163475037,0.1555262953042984
0.9398677945137024,4.977506637573242,8.175490379333496,0.19148007035255432,0.34431853890419006,0.20120155811309814
0.9529688954353333,5.062022686004639,7.78789758682251,0.3449817895889282,0.32011082768440247,0.23890066146850586
1.0282233953475952,5.222615718841553,7.312562465667725,0.3747396469116211,0.2307150661945343,0.21928316354751587
0.6127431988716125,5.041355609893799,7.002120494842529,0.08997172117233276,-0.08370599150657654,-0.06323327869176865
0.3485766053199768,5.1221842765808105,7.0011725425720215,0.047054074704647064,-0.03445279970765114,-0.03604104742407799
0.9062915444374084,6.1102614402771,6.998874187469482,-0.14446090161800385,0.045204028487205505,0.009180432185530663
0.9629095792770386,6.143789768218994,7.139337062835693,-0.10981611907482147,0.052604224532842636,-0.0246265958994627
0.9838157892227173,6.07612943649292,6.905806541442871,-0.1057145893573761,0.07335618883371353,-0.07655014097690582
0.9898779392242432,6.0483856201171875,6.597692012786865,-0.18697711825370789,0.10444050282239914,-0.10328858345746994
0.7821282148361206,6.175144195556641,7.0789361000061035,-0.26602306962013245,0.1961575597524643,-0.10796606540679932
0.8885361552238464,6.147629737854004,7.210923671722412,-0.21006782352924347,0.3081902265548706,-0.09060004353523254
0.8517228960990906,6.1794633865356445,7.3989644050598145,-0.15861551463603973,0.42582541704177856,-0.11431906372308731
0.7687111496925354,6.01431131362915,7.226390361785889,-0.14639821648597717,0.39769071340560913,-0.16552703082561493
0.2259456068277359,6.427971839904785,7.170356273651123,-0.1691049486398697,0.31122711300849915,-0.1569923609495163
0.1424262672662735,6.57371187210083,7.411768436431885,-0.19053758680820465,0.12636183202266693,0.01342158205807209
0.41865968704223633,6.4452385902404785,7.870142936706543,-0.14960962533950806,-0.08635888993740082,0.011082841083407402
0.5543056130409241,6.498782634735107,8.079578399658203,-0.016231561079621315,-0.10793115943670273,-0.0783303752541542
0.6869922280311584,6.356547832489014,7.800797462463379,0.07908086478710175,0.03317870944738388,-0.1523672491312027
0.5366076827049255,6.30267858505249,7.764108657836914,0.04244640842080116,0.06386159360408783,-0.19305086135864258
0.33031362295150757,6.3814191818237305,8.01054859161377,0.00874409917742014,0.016458455473184586,-0.1713913381099701
0.023405715823173523,6.488228797912598,8.428643226623535,0.07803367078304291,-0.0028448866214603186,-0.11168362200260162
-0.1516774594783783,6.794437885284424,8.419966697692871,0.19835667312145233,0.037053339183330536,-0.03555235639214516
0.12239159643650055,6.699158191680908,8.312505722045898,0.193539559841156,0.05167919769883156,-0.009878563694655895
0.06883808970451355,6.57086706161499,8.29181957244873,0.12925907969474792,0.03200933709740639,-0.09843657165765762
-0.4167347550392151,6.546121120452881,8.419717788696289,0.08826129883527756,0.009442231617867947,-0.1633279174566269
-1.0379438400268555,6.499500751495361,8.41345500946045,0.08124507963657379,0.025220006704330444,-0.1442689150571823
-1.0350326299667358,6.2540283203125,8.325079917907715,0.12857840955257416,-0.1212654784321785,0.15688765048980713
-0.9016467928886414,5.900672912597656,8.08403205871582,0.1373748630285263,-0.19682078063488007,0.06108652427792549
-0.8719203472137451,5.4353837966918945,7.90943717956543,0.11969467997550964,-0.1572716236114502,0.004258603323251009
-1.1262515783309937,5.067164897918701,7.872269153594971,0.14706143736839294,-0.0630936548113823,0.03876376152038574
-1.0805895328521729,5.351941108703613,6.393006801605225,0.15111060440540314,0.222948357462883,0.32018065452575684
-0.6560974717140198,5.268239974975586,6.08746862411499,0.0013613568153232336,0.18849556148052216,0.209142804145813
-1.2545043230056763,5.696274757385254,6.489723205566406,-0.11398745328187943,0.19224801659584045,0.03406882658600807
-1.2354272603988647,5.248836994171143,6.689121723175049,-0.11735593527555466,0.149208202958107,-0.11321950703859329
-1.2584211826324463,5.421133518218994,6.6310577392578125,-0.32129767537117004,-0.006894050631672144,-0.10526080429553986
-1.334441900253296,5.496953010559082,7.184185028076172,-0.5064421892166138,0.026371924206614494,-0.07276277989149094
-1.3376691341400146,5.530892848968506,7.353684902191162,-0.452790766954422,0.3116459846496582,-0.06920230388641357
-1.5191785097122192,5.9724321365356445,7.560726165771484,0.27202701568603516,-0.0737401619553566,0.21781708300113678
-1.2542552947998047,6.104821681976318,6.4448747634887695,0.04787437990307808,-0.10852457582950592,0.11564551293849945
-1.138193964958191,6.39414644241333,7.916360855102539,-0.4188266694545746,-0.15573573112487793,-0.12943361699581146
-1.364120364189148,6.388227939605713,7.961917877197266,-0.28208011388778687,-0.5144532322883606,-0.20891590416431427
-1.5367997884750366,6.310818672180176,7.763888835906982,-0.23258256912231445,-0.7677703499794006,-0.22225022315979004
-1.7179642915725708,6.60473108291626,7.553370952606201,-0.16919220983982086,-1.158828854560852,-0.1471661627292633
-1.234488606452942,6.291894912719727,7.3717570304870605,-0.05766567960381508,-1.0866594314575195,-0.11423180252313614
-0.9620093703269958,5.977440357208252,7.170528888702393,-0.0017278759041801095,-0.6407278180122375,-0.12726940214633942
-1.6522865295410156,7.220452785491943,7.260129451751709,0.2926044464111328,-0.1192408949136734,0.1465727537870407
-1.2688885927200317,6.931070327758789,7.440364837646484,0.07365289330482483,-0.050073496997356415,0.12025318294763565
-1.0497711896896362,6.674948215484619,8.194222450256348,-0.1932603120803833,-0.12278391420841217,0.04256857931613922
-0.9402413368225098,6.233802318572998,9.485079765319824,-0.23176227509975433,-0.15241959691047668,0.07421139627695084
1.6776267290115356,4.911589622497559,7.334742069244385,0.2693392038345337,0.2537010610103607,0.24989624321460724
1.6942137479782104,4.772754669189453,7.0424675941467285,0.2036101073026657,0.028187068179249763,0.09182177484035492
1.2948800325393677,4.804300785064697,6.87721061706543,0.12053243815898895,-0.1555262953042984,-0.013159782625734806
0.9156385064125061,4.954264163970947,6.865842819213867,0.03295181691646576,-0.1972745656967163,-0.02857103943824768
0.8926254510879517,5.046584606170654,6.9847002029418945,-0.09068730473518372,-0.1563989520072937,0.026546457782387733
0.9131580591201782,5.245121002197266,7.208184719085693,-0.1529432088136673,-0.10983356833457947,0.0561646968126297
0.9135698676109314,5.436676979064941,7.467208385467529,-0.18544122576713562,-0.1598721593618393,0.025499260053038597
0.8583117127418518,5.587712287902832,7.569374084472656,-0.1958782970905304,-0.19043287634849548,0.008115780539810658
0.9902130961418152,5.699416637420654,7.502029895782471,-0.19538961350917816,-0.18776251375675201,0.013055062852799892
1.321340799331665,5.597672462463379,7.400247573852539,-0.1762433499097824,-0.07281513512134552,-0.01736602559685707
1.359657645225525,5.683547496795654,7.288332939147949,-0.16004669666290283,0.07159340381622314,-0.08731882274150848
0.8018085956573486,5.83540678024292,7.283630847930908,-0.11309733241796494,0.12824679911136627,-0.1442689150571823
0.6583384275436401,5.861637592315674,7.319524765014648,-0.06051056459546089,0.003001966280862689,-0.10002481937408447
0.7548630237579346,5.923992156982422,7.198387622833252,-0.01837831735610962,-0.06143558770418167,-0.0483979806303978
0.9887765645980835,5.892790794372559,7.103481292724609,-0.0017104226863011718,-0.06986553221940994,-0.024958208203315735
0.9155331254005432,6.027661323547363,7.181187629699707,-0.016842426732182503,-0.017523106187582016,-0.04836307466030121
0.8804532885551453,5.878119468688965,7.313079357147217,-0.035412728786468506,0.017697637900710106,-0.05208062380552292
0.9605920314788818,5.7408552169799805,7.239242076873779,-0.03436553105711937,0.03759439289569855,-0.053529247641563416
0.9995408654212952,5.841440200805664,7.261776447296143,-0.04749041050672531,0.060039326548576355,-0.04729842394590378
1.1163395643234253,6.502699851989746,7.726069927215576,-0.027384215965867043,0.2667735815048218,-0.08904670178890228
0.8390718698501587,6.5843706130981445,8.252439498901367,0.0021642083302140236,0.1537984162569046,-0.1348266899585724
-0.03671747446060181,6.658734321594238,8.254201889038086,0.37685149908065796,0.2018996924161911,0.02174680307507515
0.1497429460287094,6.629055976867676,8.24532413482666,0.40224602818489075,0.6340082883834839,0.08271115273237228
-0.359915554523468,6.664490222930908,7.790349006652832,0.10749483108520508,0.09225810319185257,-0.07164576649665833
-0.36377498507499695,6.5063581466674805,7.66542911529541,0.04902629926800728,-0.06304129213094711,-0.045867253094911575
-0.37204939126968384,6.485097885131836,7.994574546813965,0.15763813257217407,-0.1973269283771515,0.008325220085680485
-0.28507280349731445,6.188340663909912,7.818466663360596,0.4302760064601898,-0.1517563760280609,-0.03391174599528313
-0.583754301071167,6.1611433029174805,7.3745436668396,0.5120795965194702,-0.14938272535800934,-0.09232791513204575
-0.7453628778457642,5.914971351623535,7.110166072845459,0.3188018500804901,-0.36993998289108276,-0.10641272366046906
-0.7247152924537659,5.377865314483643,7.152370929718018,0.14474014937877655,-0.41231659054756165,-0.10086257755756378
-0.8404893279075623,5.0174713134765625,7.02222204208374,0.1547059863805771,-0.12103858590126038,-0.03338814899325371
-1.124182939529419,5.148615837097168,6.659270763397217,0.17442820966243744,0.17044885456562042,0.007976154796779156
-1.5572079420089722,5.18862771987915,6.709137439727783,-0.001658062799833715,-0.02275909297168255,-0.01219985168427229
-1.61094331741333,5.239164352416992,6.644733428955078,-0.07007496803998947,-0.20961403846740723,-0.005916666239500046
-1.645237922668457,5.372751235961914,6.715295314788818,-0.12894491851329803,-0.29216811060905457,0.024486970156431198
-1.487431287765503,5.50563907623291,7.233783721923828,-0.22375120222568512,-0.37048104405403137,0.0625176951289177
-1.1348994970321655,5.49266242980957,7.823178768157959,-0.1520530879497528,-0.25094345211982727,0.06401867419481277
-0.9741719365119934,5.502651214599609,7.40208625793457,-0.04009021446108818,0.24787165224552155,0.0760439932346344
-1.078568696975708,5.914511203765869,6.660219192504883,-0.2542944848537445,0.16772614419460297,0.10328858345746994
-0.8054381608963013,5.886595249176025,7.073390960693359,-0.5446474552154541,-0.09009389579296112,0.07524114102125168
-0.33758243918418884,6.29300594329834,6.864492416381836,-0.42446407675743103,-0.006649704650044441,0.030455995351076126
-0.6667851805686951,6.415004730224609,6.8716654777526855,-0.4882383942604065,0.13271483778953552,-0.00457276264205575
-0.7307869791984558,6.608513832092285,6.952953338623047,-0.6772924661636353,0.007923794910311699,0.04361577704548836
-0.25294262170791626,6.2317047119140625,8.525713920593262,-0.5847551226615906,-0.29274407029151917,-0.14844025671482086
-0.4918360710144043,5.9850921630859375,8.55244255065918,-0.25701719522476196,-0.39650389552116394,-0.2929011583328247
-0.8112608790397644,5.856600761413574,8.122932434082031,-0.00609119888395071,-0.4763701558113098,-0.29820695519447327
-1.051792025566101,5.848862171173096,7.57875919342041,0.13503612577915192,-0.4268551766872406,-0.19432495534420013
-1.060037612915039,5.873877048492432,7.247047424316406,0.14154620468616486,-0.3254864513874054,-0.06846926361322403
-0.9449339509010315,6.050607204437256,6.9627885818481445,-0.018221236765384674,-0.3331659138202667,0.004450589418411255
-0.7685291767120361,6.040168285369873,6.943050861358643,-0.23804545402526855,-0.3159220516681671,-0.008569566532969475
-0.6416172981262207,5.954121112823486,7.917385578155518,-0.42812925577163696,-0.3332531750202179,-0.02710496261715889
-0.25923457741737366,5.879019737243652,8.703938484191895,-0.3453134000301361,-0.4934220314025879,-0.032532937824726105
0.10432016104459763,5.6622772216796875,8.660296440124512,-0.14767231047153473,-0.537439227104187,-0.07553785294294357
0.022802377119660378,5.7129292488098145,8.610161781311035,0.07168067246675491,-0.5296550393104553,-0.08070402592420578
-0.27744966745376587,6.130468368530273,8.17500114440918,0.2197718620300293,-0.45263367891311646,-0.06199409440159798
-0.3632865846157074,6.591591835021973,8.114217758178711,0.19769343733787537,-0.43849653005599976,-0.08470083028078079
-0.13536816835403442,6.147907733917236,7.875563621520996,-0.11164870858192444,-0.6584429144859314,-0.1783028393983841
0.23396138846874237,5.092438697814941,7.743719577789307,-0.5385213494300842,-0.9221272468566895,-0.18500490486621857
2.545524835586548,2.5787947177886963,8.931578636169434,-0.34468507766723633,-0.6033079624176025,-0.5456597208976746
2.6850876808166504,4.104715347290039,8.504807472229004,0.019146261736750603,0.13409364223480225,-1.0357307195663452
-0.30568209290504456,4.310596942901611,8.10767650604248,-0.5146452188491821,1.9583990573883057,0.8775690197944641
0.5451501607894897,3.9451656341552734,9.003213882446289,-0.4234692454338074,2.0003044605255127,0.649925708770752
0.8769769072532654,3.8571643829345703,9.43852710723877,-0.17421875894069672,1.6005542278289795,0.1858251988887787
0.6541820764541626,3.5802414417266846,9.617316246032715,0.18411478400230408,0.9168214797973633,-0.17502161860466003
-0.5745987892150879,4.171561241149902,8.866044998168945,0.4648858904838562,0.5769186019897461,-0.23980823159217834
-0.9917357563972473,4.313326835632324,7.8381853103637695,0.455670565366745,0.7353770136833191,-0.08564330637454987
-0.8502863645553589,4.234107494354248,7.152323246002197,0.15456636250019073,1.0392563343048096,0.024818582460284233
-0.8080717921257019,4.285678863525391,7.321248531341553,-0.22994713485240936,0.9914517402648926,-0.02330014482140541
-1.1452902555465698,4.896362781524658,8.430692672729492,-0.043161991983652115,-1.0654188394546509,-0.0601964071393013
-0.8250802159309387,5.071474552154541,7.835609436035156,-0.10550515353679657,-0.3626445233821869,-0.06937684118747711
-0.6684228181838989,4.960278511047363,7.924999237060547,-0.3191858232021332,-0.040858156979084015,-0.09976302087306976
-0.9758287072181702,5.2446136474609375,8.351627349853516,-0.41521382331848145,-0.0285186804831028,-0.08979719132184982
-0.9958825707435608,5.260865688323975,8.754293441772461,-0.27122417092323303,-0.08038986474275589,-0.039531707763671875
-0.9630724191665649,5.245341777801514,8.767404556274414,-0.15969762206077576,-0.07234390079975128,-0.030578168109059334
-0.8585032820701599,5.35751485824585,8.328747749328613,0.02679080329835415,0.01788962446153164,-0.0362853966653347
-0.9159449338912964,5.098912239074707,8.22096061706543,0.09904743731021881,0.07822565734386444,-0.13117894530296326
-1.1928296089172363,4.9545512199401855,7.854293346405029,0.0921533852815628,-0.027139870449900627,-0.2652027904987335
-1.4696567058563232,5.097848892211914,7.7144341468811035,-0.01621410809457302,-0.05288347601890564,-0.24706880748271942
-1.4081544876098633,5.915421485900879,9.194903373718262,0.5205968022346497,0.5550321340560913,0.1656317412853241
-1.6775405406951904,5.7838358879089355,8.977682113647461,0.6027494668960571,0.47488662600517273,0.14159856736660004
-1.6340714693069458,5.248205184936523,8.66430950164795,0.750596284866333,0.5246110558509827,0.04295255243778229
-2.041468858718872,5.523576736450195,7.276294708251953,0.6392268538475037,0.6881833076477051,0.035726889967918396
-2.726449966430664,5.626604080200195,7.205646991729736,0.0012217304902151227,0.2030516117811203,0.05187118425965309
-2.115957260131836,5.309774398803711,8.101299285888672,-0.2580818235874176,-0.28300514817237854,-0.11440633237361908
-2.2114665508270264,5.146078109741211,8.722832679748535,-0.249477356672287,-0.514872133731842,-0.29393088817596436
