accX,accY,accZ,gyroX,gyroY,gyroZ
-1.085750699043274,2.6763484477996826,9.023767471313477,-0.12836426496505737,-0.2661827504634857,0.2655169665813446
-1.0282591581344604,2.844031810760498,9.651383399963379,-0.18056218326091766,-0.07550056278705597,0.21971063315868378
-1.080959677696228,2.877568483352661,9.167496681213379,0.1464737504720688,0.24727432429790497,0.004527370445430279
-1.0522139072418213,2.8344500064849854,8.856083869934082,0.21252009272575378,0.3953459560871124,0.07909582555294037
-1.2630161046981812,2.949432849884033,9.220196723937988,0.2732401192188263,0.545548141002655,0.1483379602432251
-1.6367107629776,3.256054162979126,9.675337791442871,0.3531349003314972,0.6371608376502991,0.2527337968349457
-1.5456825494766235,2.954223871231079,9.407044410705566,0.2828274965286255,0.5615270733833313,0.27190855145454407
-1.5025639533996582,2.5949020385742188,9.598682403564453,0.1081242561340332,0.21531641483306885,0.14940322935581207
-1.454654335975647,2.8727777004241943,9.728038787841797,0.002663159044459462,-0.1351553201675415,-0.013582111336290836
-1.790021300315857,3.3806190490722656,9.196242332458496,-0.0985368862748146,0.03209106624126434,-0.04554001986980438
-1.866676688194275,3.1219074726104736,9.732829093933105,-0.0708400309085846,-0.04993423447012901,-0.04127896577119827
-1.828348994255066,3.1362802982330322,9.550772666931152,-0.07936213910579681,-0.12663321197032928,-0.04127896577119827
-2.1158063411712646,3.1650259494781494,9.383089065551758,-0.20932430028915405,-0.2661827504634857,-0.09028109163045883
0.06407905369997025,2.3553543090820312,8.798592567443848,-0.34035173058509827,-0.11065425723791122,0.5424855351448059
0.016169480979442596,1.6319197416305542,10.01070499420166,-0.24341274797916412,-0.0882837250828743,0.4593949317932129
-0.19942358136177063,1.492982029914856,10.81558609008789,0.030360013246536255,-0.4174501895904541,0.29534435272216797
-0.09402253478765488,1.7037841081619263,10.092150688171387,0.2913496196269989,-0.4036017656326294,0.040746334940195084
0.10719766467809677,2.000823497772217,9.397461891174316,0.1784316599369049,-0.39721018075942993,-0.10199899226427078
-0.2904517650604248,2.7050940990448,9.090841293334961,-0.03142527863383293,-0.39721018075942993,-0.2756369709968567
-1.0713777542114258,3.3039636611938477,9.613055229187012,-0.1081242561340332,-0.3854922652244568,-0.21065588295459747
-1.1144963502883911,2.7913312911987305,9.953213691711426,0.03568633273243904,-0.48030075430870056,-0.06897582113742828
-0.4629262387752533,2.513455867767334,8.927948951721191,0.19121482968330383,-0.3045322299003601,-0.08815056830644608
-0.07006774842739105,2.7194669246673584,8.578208923339844,0.154995858669281,0.042743705213069916,-0.23196116089820862
-0.6928921937942505,2.8727777004241943,9.076468467712402,-0.05592634156346321,-0.02756369672715664,-0.2905506491661072
-0.0988134890794754,2.7194669246673584,9.9005126953125,0.01651158556342125,0.7500787377357483,0.08122635632753372
-0.9707676768302917,2.628438949584961,10.461054801940918,0.18695376813411713,0.4677838981151581,0.105727419257164
-1.2198973894119263,2.690721273422241,10.159224510192871,0.25726115703582764,0.26218801736831665,0.15366427600383759
-0.9755586385726929,2.8392410278320312,9.335180282592773,0.211454838514328,0.2643185555934906,0.2186453640460968
-0.7455927133560181,2.987760543823242,9.339970588684082,0.08042740821838379,0.434760719537735,0.23036326467990875
-0.7168469429016113,3.026088237762451,9.244152069091797,0.03994738683104515,0.44008705019950867,0.1813611388206482
-0.7216379046440125,2.925478219985962,9.311224937438965,-0.038882121443748474,0.29201540350914,0.12596742808818817
-0.5827001333236694,2.6044840812683105,9.411835670471191,-0.11877689510583878,0.12583427131175995,0.032224226742982864
-0.7216379046440125,2.618856906890869,9.665756225585938,-0.09960214793682098,0.13435637950897217,-0.00612526573240757
-1.2055245637893677,2.7194669246673584,9.459744453430176,-0.026098959147930145,0.07363634556531906,0.07376950979232788
-0.5635363459587097,2.963805913925171,8.726728439331055,-0.07190529257059097,0.07576687633991241,0.010918952524662018
-0.7887113094329834,2.925478219985962,8.985440254211426,-0.09534109383821487,0.22383852303028107,0.06311687082052231
-1.080959677696228,2.772167444229126,9.68971061706543,-0.09214530140161514,0.27710169553756714,0.13981585204601288
-1.1288692951202393,2.738630771636963,9.771157264709473,-0.059122130274772644,0.22383852303028107,0.15899059176445007
-0.6018639802932739,2.590111255645752,9.25373363494873,0.03142527863383293,0.3495396375656128,0.1664474457502365
-0.6449825763702393,2.408054828643799,9.498072624206543,0.11558110266923904,0.6137250065803528,0.17390428483486176
-1.9145861864089966,2.9781787395477295,10.192761421203613,0.1464737504720688,0.5530049800872803,0.24953800439834595
-1.7421118021011353,2.9446420669555664,10.183178901672363,0.19654114544391632,0.5114597082138062,0.3273022472858429
-1.454654335975647,2.4990830421447754,9.397461891174316,0.30306750535964966,0.13968269526958466,0.2143843024969101
-1.320507526397705,3.3135457038879395,9.421417236328125,-0.07190529257059097,0.0011984215816482902,-0.040213704109191895
-1.9864505529403687,2.776958465576172,9.79032039642334,-0.3861580789089203,-0.451538622379303,-0.24367906153202057
-1.4211176633834839,2.877568483352661,10.389190673828125,-0.31372013688087463,-0.594283938407898,-0.3171822428703308
-0.6306097507476807,2.666766405105591,10.068196296691895,-0.05699160322546959,-0.4845618009567261,-0.337422251701355
-0.7935022711753845,2.5661563873291016,9.248942375183105,0.058056868612766266,-0.384427011013031,-0.29268118739128113
-0.8174570798873901,2.8392410278320312,8.851293563842773,0.002663159044459462,-0.3609912097454071,-0.15206637978553772
-0.7360107898712158,2.5613653659820557,9.593891143798828,-0.0005326318205334246,-0.024367906153202057,-0.010386320762336254
-0.9372310042381287,2.618856906890869,9.522027015686035,0.06444845348596573,0.027830012142658234,0.03009369783103466
-0.8605756759643555,2.6140658855438232,9.387880325317383,0.09534109383821487,0.07896266877651215,0.0727042406797409
-1.085750699043274,2.3361904621124268,9.531609535217285,0.23276010155677795,0.15246586501598358,0.11211899667978287
-0.34315231442451477,2.551783561706543,9.42620849609375,-0.10066741704940796,-0.23102904856204987,-0.09986846894025803
-0.09402253478765488,2.6523935794830322,9.335180282592773,-0.025033695623278618,-0.12876373529434204,-0.2330264151096344
-0.5827001333236694,2.7865405082702637,9.680129051208496,-0.021837905049324036,-0.2715090811252594,-0.280963271856308
-0.8030841946601868,2.930269241333008,9.387880325317383,-0.021837905049324036,-0.3034669756889343,-0.20106850564479828
-0.7839203476905823,2.949432849884033,9.320807456970215,-0.054861076176166534,-0.2480732649564743,-0.14567480981349945
-0.47250813245773315,2.887150526046753,9.421417236328125,-0.14966954290866852,-0.26085641980171204,-0.18508955836296082
-0.47250813245773315,2.7913312911987305,9.522027015686035,-0.16671375930309296,-0.2619217038154602,-0.24900537729263306
-0.7264288663864136,2.8200771808624268,9.220196723937988,0.0005326318205334246,-0.327968031167984,-0.28202855587005615
-0.7264288663864136,2.5757381916046143,10.441890716552734,-0.08575372397899628,0.14500901103019714,0.08122635632753372
-0.9899315237998962,2.484710216522217,9.301643371582031,0.11238531768321991,0.02143843099474907,0.1856221854686737
-0.5922820568084717,2.657184600830078,9.004603385925293,0.10918952524662018,0.27710169553756714,0.2005358785390854
-1.0330501794815063,2.7577946186065674,10.470636367797852,-0.00798947736620903,-0.04247738793492317,0.0918789878487587
-0.7791293859481812,2.5613653659820557,10.599992752075195,-0.04314317926764488,-0.3609912097454071,-0.07643266767263412
-0.5874910950660706,2.432009696960449,9.871767044067383,0.037816859781742096,-0.27044379711151123,-0.19680745899677277
-0.4245985746383667,2.4895009994506836,9.474117279052734,0.05592634156346321,-0.2203764170408249,-0.21598219871520996
-0.16588689386844635,2.6380207538604736,9.162705421447754,0.033555805683135986,-0.1628521829843521,-0.20639483630657196
-0.20900550484657288,2.666766405105591,9.30643367767334,0.02396843209862709,-0.15219953656196594,-0.17337165772914886
-0.21858741343021393,2.7482128143310547,9.076468467712402,0.030360013246536255,-0.15539532899856567,-0.07962846010923386
-0.3335703909397125,2.810495138168335,8.415316581726074,0.054861076176166534,-0.05206476151943207,0.03968106955289841
0.13594341278076172,2.3026537895202637,8.860875129699707,0.2444780021905899,0.4304996728897095,0.04713791608810425
-0.9851405620574951,3.6010031700134277,9.809484481811523,0.21252009272575378,0.03209106624126434,0.07163897901773453
-0.6306097507476807,2.7817494869232178,9.373507499694824,-0.0942758321762085,-0.1873532384634018,0.11957584321498871
-0.3862709105014801,2.2020435333251953,9.330389022827148,-0.15393058955669403,-0.008388951420783997,0.001331579522229731
-0.4437623918056488,2.5709474086761475,10.034659385681152,-0.07616634666919708,0.09707214683294296,-0.05512739345431328
-0.4245985746383667,2.5326197147369385,10.044241905212402,0.010120004415512085,0.06085318699479103,-0.048735812306404114
-0.8030841946601868,2.700303077697754,9.761574745178223,0.0985368862748146,0.008655266836285591,-0.014647374860942364
-0.606654942035675,2.7865405082702637,9.229779243469238,0.10705899447202682,-0.03075948730111122,0.01837579719722271
-0.43418049812316895,2.963805913925171,8.956694602966309,-0.004793686326593161,0.016112113371491432,0.008788425475358963
-0.3862709105014801,2.959014892578125,9.119586944580078,-0.10599373281002045,0.027830012142658234,0.008788425475358963
-0.46771717071533203,2.8392410278320312,9.469326972961426,-0.09960214793682098,0.03741738572716713,0.0023968431632965803
-0.6545644998550415,2.7913312911987305,9.766366004943848,-0.0282294861972332,0.026764748618006706,0.02583264373242855
-0.5299996137619019,2.695512294769287,9.804693222045898,-0.01651158556342125,0.09920267760753632,0.09827057272195816
-0.4198076128959656,2.85361385345459,8.808174133300781,0.03249054029583931,0.09174583107233047,0.1621863842010498
-0.3335703909397125,2.8584048748016357,9.325597763061523,-0.050600022077560425,0.1471395343542099,-0.025300011038780212
-0.5012539029121399,2.7625856399536133,9.541191101074219,0.11451584100723267,0.03315633162856102,0.0034621069207787514
-0.7982932329177856,2.9063143730163574,9.196242332458496,0.1699095517396927,-0.08295740932226181,0.05459476262331009
-0.6928921937942505,2.891941547393799,8.875247955322266,0.13475584983825684,-0.024367906153202057,0.10253162682056427
-0.6497735381126404,2.8631956577301025,8.903993606567383,0.06657897680997849,0.11731215566396713,0.1249021589756012
-0.5683273077011108,2.8248679637908936,9.162705421447754,0.01651158556342125,0.16844481229782104,0.11957584321498871
-0.5156267285346985,2.6811394691467285,9.560355186462402,-0.03675159439444542,0.09387636184692383,0.05779055133461952
-0.8509937524795532,2.7194669246673584,10.00112247467041,-0.07616634666919708,-0.10958899557590485,-0.02636527456343174
-0.7599655389785767,2.7482128143310547,9.833439826965332,-0.06338318437337875,-0.16072164475917816,-0.0636495053768158
-0.7168469429016113,2.7242579460144043,9.704083442687988,-0.021837905049324036,-0.102132149040699,-0.07856319099664688
-0.9180671572685242,2.9350600242614746,9.809484481811523,0.002663159044459462,-0.10532794147729874,-0.04234423115849495
-0.9084852337837219,3.0069243907928467,9.886139869689941,-0.1784316599369049,-0.3514038324356079,-0.11371689289808273
-0.5635363459587097,2.8248679637908936,9.723247528076172,-0.1358211189508438,-0.319445937871933,-0.16804534196853638
-0.18025976419448853,2.7098851203918457,9.373507499694824,-0.09534109383821487,-0.21611535549163818,-0.17017586529254913
0.016169480979442596,2.6523935794830322,9.167496681213379,-0.10492847114801407,-0.1628521829843521,-0.11478215456008911
0.035333309322595596,2.6428117752075195,9.335180282592773,-0.16671375930309296,-0.21931114792823792,-0.10732531547546387
-0.381479948759079,2.7577946186065674,9.569936752319336,-0.1880190372467041,-0.2438122183084488,-0.07856319099664688
-0.673728346824646,2.6763484477996826,9.809484481811523,-0.059122130274772644,-0.13728585839271545,-0.008255792781710625
-0.3096156120300293,2.690721273422241,9.47890853881836,0.10173267871141434,0.008655266836285591,0.03328948840498924
0.04491522163152695,2.7482128143310547,8.918366432189941,0.0985368862748146,0.058722659945487976,0.05352949723601341
0.035333309322595596,2.5949020385742188,8.836920738220215,-0.005858949851244688,0.06617950648069382,0.04713791608810425
-0.2904517650604248,2.5038740634918213,9.268106460571289,-0.054861076176166534,0.06085318699479103,0.023702116683125496
-0.5779091715812683,2.5374107360839844,9.742411613464355,0.027164222672581673,0.04487423226237297,0.024767380207777023
-0.3287794291973114,2.6044840812683105,9.402253150939941,0.10279794037342072,0.06831002980470657,0.03755054250359535
-0.15151402354240417,2.590111255645752,9.057304382324219,0.08681898564100266,0.12050794810056686,0.029028434306383133
-0.16588689386844635,2.6380207538604736,8.9806489944458,-0.010120004415512085,0.09174583107233047,0.02157158963382244
-0.24733315408229828,2.6140658855438232,9.560355186462402,-0.0655137151479721,0.005459476262331009,-0.008255792781710625
-0.4485533535480499,2.661975622177124,9.823857307434082,0.017576850950717926,-0.03502054139971733,-0.014647374860942364
-0.41501665115356445,2.700303077697754,9.680129051208496,0.09534109383821487,0.035286858677864075,0.00985368900001049
-0.3718980550765991,2.7098851203918457,9.311224937438965,0.04953476041555405,0.08002793043851852,0.011984216049313545
-0.3287794291973114,2.6523935794830322,9.402253150939941,-0.0942758321762085,0.016112113371491432,-0.025300011038780212
-0.41022568941116333,2.628438949584961,9.84781265258789,-0.15606112778186798,-0.14367742836475372,-0.0732368752360344
-0.5922820568084717,2.6859302520751953,9.981959342956543,-0.0985368862748146,-0.2384859025478363,-0.10199899226427078
-0.4198076128959656,2.657184600830078,9.819067001342773,-0.038882121443748474,-0.2576606571674347,-0.10199899226427078
-0.17067784070968628,2.772167444229126,9.330389022827148,-0.09001477807760239,-0.24061642587184906,-0.14034847915172577
0.10240671038627625,2.5996930599212646,9.25373363494873,-0.22210747003555298,-0.2810964286327362,-0.15845796465873718
-0.007785305380821228,2.590111255645752,9.440581321716309,-0.24341274797916412,-0.26511749625205994,-0.13715268671512604
-0.2329602837562561,2.6476025581359863,9.541191101074219,-0.2018674612045288,-0.20439745485782623,-0.08495477586984634
-0.2904517650604248,2.556574583053589,9.435790061950684,-0.13369058072566986,-0.14367742836475372,-0.08282424509525299
-0.08923157304525375,2.5326197147369385,9.172286987304688,-0.09640636295080185,-0.04780370742082596,-0.048735812306404114
0.17906202375888824,2.3457722663879395,9.110004425048828,-0.09214530140161514,-0.009454214945435524,-0.021038956940174103
-0.04611296206712723,2.3170266151428223,9.47890853881836,-0.08788424730300903,-0.0318247526884079,-0.018908429890871048
-0.0796496644616127,2.3936820030212402,9.675337791442871,-0.08788424730300903,-0.05419528856873512,0.005592633970081806
0.05928809568285942,2.3936820030212402,9.646592140197754,-0.0655137151479721,0.019307903945446014,0.017310533672571182
-0.017367219552397728,2.3505632877349854,9.57951831817627,0.01970737800002098,0.14074796438217163,0.04181159660220146
0.054497137665748596,2.254744291305542,9.502862930297852,0.13901691138744354,0.1759016513824463,0.07909582555294037
-0.13235019147396088,2.288280963897705,9.569936752319336,0.1837579756975174,0.1993374526500702,0.05779055133461952
-0.35273420810699463,2.4895009994506836,9.397461891174316,0.21358536183834076,0.28668907284736633,0.07696529477834702
-0.3718980550765991,2.6092751026153564,9.311224937438965,0.15180006623268127,0.3303648829460144,0.12064110487699509
-0.05090392008423805,2.4607553482055664,9.330389022827148,0.04740423336625099,0.3165164589881897,0.14088112115859985
-0.3335703909397125,2.4224276542663574,10.235879898071289,0.10279794037342072,0.25366589426994324,0.10466215014457703
-0.9755586385726929,2.72904896736145,10.307744026184082,0.3009369671344757,0.14927007257938385,0.17816534638404846
-0.6258187890052795,2.657184600830078,9.474117279052734,0.40746334195137024,0.27710169553756714,0.2047969400882721
-0.4485533535480499,2.6715574264526367,9.124378204345703,0.38296228647232056,0.3772364854812622,0.17496955394744873
-0.35273420810699463,2.7865405082702637,8.899202346801758,0.26578328013420105,0.45926177501678467,0.14088112115859985
-0.20900550484657288,2.7242579460144043,9.071677207946777,0.1454084813594818,0.434760719537735,0.17070849239826202
-0.8989033102989197,2.920687198638916,9.809484481811523,0.14327795803546906,0.31438592076301575,0.22077588737010956
-1.1097054481506348,2.9685966968536377,9.795111656188965,0.2540653645992279,0.2035985141992569,0.2985401451587677
-1.21510648727417,3.2320995330810547,9.402253150939941,0.058056868612766266,0.19188061356544495,0.18775272369384766
-0.8318299055099487,3.069206953048706,9.402253150939941,-0.011185267940163612,0.1844237744808197,0.12170637398958206
-0.8557847142219543,2.9829697608947754,9.488490104675293,0.06870950758457184,0.2515353858470917,0.03861580789089203
-1.0713777542114258,3.0500431060791016,9.320807456970215,0.053795814514160156,0.2941459119319916,0.10785794258117676
-1.3013436794281006,3.150653123855591,9.292060852050781,0.06444845348596573,0.2557964324951172,0.13768532872200012
-1.2917617559432983,3.1171164512634277,9.488490104675293,0.09214530140161514,0.26112276315689087,0.15366427600383759
-1.1719878911972046,3.2416813373565674,9.148332595825195,0.18162745237350464,0.3250385820865631,0.17816534638404846
-1.286970853805542,3.145862102508545,9.047722816467285,0.39681071043014526,0.2270343154668808,0.22929799556732178
-1.1288692951202393,2.992551565170288,8.846502304077148,-0.17097482085227966,0.21957746148109436,0.09827057272195816
-0.7887113094329834,2.9350600242614746,9.157914161682129,-0.05699160322546959,0.3410175144672394,0.07909582555294037
-1.4450724124908447,3.3087546825408936,9.613055229187012,0.0516652874648571,0.3506048917770386,0.07483477145433426
-2.1158063411712646,3.442901611328125,9.574728012084961,0.14434322714805603,0.27177539467811584,0.16005586087703705
-1.732529878616333,3.4141557216644287,8.860875129699707,0.332894891500473,0.30905961990356445,0.25379905104637146
-0.9707676768302917,3.0596249103546143,8.712355613708496,0.4319643974304199,0.180162712931633,0.2623211741447449
-1.3684171438217163,3.8645057678222656,9.186659812927246,-0.09747162461280823,-0.1117195263504982,0.05566002428531647
-1.5456825494766235,3.5770483016967773,8.999813079833984,-0.3712443709373474,-0.24594274163246155,-0.056192658841609955
-1.660665512084961,3.0212972164154053,9.248942375183105,-0.5203812718391418,-0.4046670198440552,-0.15952323377132416
-1.0330501794815063,3.141071319580078,9.603473663330078,-0.39254966378211975,-0.4781702160835266,-0.24900537729263306
-1.1001235246658325,2.9781787395477295,10.465846061706543,-0.1699095517396927,-0.3929491341114044,-0.3747064769268036
-1.191151738166809,3.0165064334869385,9.866975784301758,0.13369058072566986,-0.7103977203369141,-0.4577970504760742
-1.0953326225280762,3.1602351665496826,8.702773094177246,0.13475584983825684,-0.7466166615486145,-0.33848753571510315
-0.9851405620574951,3.394991874694824,9.30643367767334,-0.15393058955669403,-0.27896592020988464,-0.20319904386997223
-0.534790575504303,2.695512294769287,9.934049606323242,-0.211454838514328,-0.2342248409986496,-0.19148114323616028
-0.2329602837562561,2.0870606899261475,9.665756225585938,-0.13795164227485657,-0.30133646726608276,-0.26818013191223145
0.1503162831068039,2.1924617290496826,9.224987983703613,0.033555805683135986,-0.1820269227027893,-0.5472791790962219
-0.5539544224739075,3.1171164512634277,9.31601619720459,0.06338318437337875,-0.14154690504074097,-0.7912245988845825
-1.5025639533996582,3.6201670169830322,9.545982360839844,0.054861076176166534,-0.21398483216762543,-0.7560708522796631
-2.0535240173339844,3.6776583194732666,8.923157691955566,0.06977476924657822,-0.252334326505661,-0.4535360038280487
-1.9912415742874146,3.893251419067383,8.630908966064453,-0.06977476924657822,-0.074435293674469,-0.09773793816566467
-0.9563947916030884,2.887150526046753,9.704083442687988,-0.002663159044459462,0.10133320093154907,0.18455693125724792
-1.2965527772903442,3.1362802982330322,9.292060852050781,0.17097482085227966,0.18761955201625824,0.1621863842010498
-1.0330501794815063,3.217726469039917,8.678818702697754,0.14434322714805603,0.2078595608472824,0.16112112998962402
-0.5970730185508728,2.8200771808624268,8.645281791687012,-0.04527370631694794,0.18761955201625824,0.04500738903880119
-0.7312198281288147,2.925478219985962,8.927948951721191,-0.1645832359790802,0.12583427131175995,-0.03169159218668938
-0.7839203476905823,3.0883708000183105,9.129168510437012,-0.17310534417629242,0.12583427131175995,-0.02636527456343174
-0.9276490807533264,3.0404610633850098,9.47890853881836,-0.1038632020354271,0.22596904635429382,0.0141147430986166
-1.2678070068359375,2.9446420669555664,9.25373363494873,0.004793686326593161,0.2941459119319916,0.06950845569372177
-1.2055245637893677,2.690721273422241,9.330389022827148,-0.14860427379608154,-0.04034686088562012,-0.08815056830644608
-1.1097054481506348,2.848822832107544,9.407044410705566,-0.20612850785255432,-0.1117195263504982,-0.22130851447582245
-1.2246884107589722,2.9829697608947754,9.502862930297852,-0.21038956940174103,-0.2480732649564743,-0.2191779911518097
-1.0905416011810303,2.91589617729187,9.25373363494873,-0.21358536183834076,-0.2661827504634857,-0.1531316488981247
-1.5169367790222168,2.8392410278320312,9.584309577941895,-0.006924213841557503,-0.03928159549832344,0.06524740159511566
-1.286970853805542,2.8631956577301025,9.301643371582031,-0.20080219209194183,-0.2661827504634857,0.06311687082052231
-1.2438522577285767,2.891941547393799,9.172286987304688,-0.30839383602142334,-0.28429222106933594,0.029028434306383133
-1.344462275505066,2.805704355239868,9.545982360839844,-0.3531349003314972,-0.30772802233695984,0.005592633970081806
-1.1815698146820068,2.700303077697754,9.804693222045898,-0.2924148738384247,-0.3364901542663574,0.02583264373242855
-1.3300894498825073,3.002133369445801,9.569936752319336,-0.21252009272575378,-0.2587259113788605,0.13555480539798737
-1.2055245637893677,2.772167444229126,9.574728012084961,-0.18588849902153015,-0.20652799308300018,0.26871275901794434
-0.9324400424957275,2.3553543090820312,9.531609535217285,-0.16245271265506744,-0.10745847225189209,0.3400854170322418
-0.5108358263969421,2.2786989212036133,9.335180282592773,-0.10918952524662018,-0.048868969082832336,0.33902016282081604
0.15989819169044495,1.7516937255859375,9.100422859191895,-0.11238531768321991,-0.037151068449020386,0.27190855145454407
0.5910843014717102,1.2773889303207397,9.550772666931152,-0.10173267871141434,-0.14687322080135345,0.07909582555294037
0.6054571866989136,1.253434181213379,9.665756225585938,-0.08042740821838379,-0.2810964286327362,-0.22024326026439667
-0.25691506266593933,2.1924617290496826,9.10521411895752,-0.04953476041555405,-0.1639174371957779,-0.34381383657455444
-1.1719878911972046,2.9350600242614746,9.517236709594727,-0.013315795920789242,0.055526867508888245,-0.0774979293346405
-0.8318299055099487,2.3409814834594727,9.910094261169434,0.06657897680997849,0.04167843982577324,0.15579481422901154
-0.4629262387752533,2.432009696960449,9.641800880432129,0.1177116334438324,0.11731215566396713,0.08761793375015259
-0.606654942035675,2.3505632877349854,9.742411613464355,0.10705899447202682,0.1428784877061844,-0.0018642114009708166
-0.9372310042381287,2.321817636489868,10.082569122314453,0.1272990107536316,0.0715058222413063,-0.03275685757398605
-1.176778793334961,2.3936820030212402,10.01070499420166,0.12942953407764435,0.031025802716612816,-0.00612526573240757
-0.9851405620574951,2.3793091773986816,9.780738830566406,0.12090742588043213,0.01717737689614296,0.01837579719722271
-0.5108358263969421,2.3409814834594727,9.268106460571289,0.037816859781742096,0.051265813410282135,-0.0050600022077560425
-0.5299996137619019,2.331399440765381,9.344761848449707,-0.06977476924657822,0.022503694519400597,-0.03169159218668938
-0.812666118144989,2.3457722663879395,9.761574745178223,-0.01225053146481514,-0.10958899557590485,-0.015712639316916466
-0.7455927133560181,2.3505632877349854,9.871767044067383,0.04527370631694794,-0.0786963477730751,0.05139897018671036
-0.47250813245773315,2.364936113357544,9.474117279052734,0.0655137151479721,-0.03928159549832344,0.06631266325712204
-0.23775124549865723,2.4176366329193115,9.086050033569336,0.006924213841557503,0.06617950648069382,0.04287686198949814
-0.41501665115356445,2.4128458499908447,9.277688026428223,-0.059122130274772644,0.07683213800191879,0.019441060721874237
-0.6833102703094482,2.4176366329193115,9.651383399963379,-0.050600022077560425,0.0033289489801973104,0.032224226742982864
-0.7599655389785767,2.403263807296753,9.723247528076172,-0.034621067345142365,-0.012650005519390106,0.04394212365150452
-0.7503836750984192,2.249953269958496,9.766366004943848,-0.004793686326593161,0.011851058341562748,0.0684431865811348
-0.5012539029121399,2.0056145191192627,9.747201919555664,0.037816859781742096,0.006524739786982536,0.08016108721494675
-0.5395815372467041,2.111015558242798,9.57951831817627,0.054861076176166534,-0.0009321057004854083,0.0822916179895401
-1.0617958307266235,2.5038740634918213,9.402253150939941,0.03994738683104515,0.0810931921005249,0.16325165331363678
-0.6449825763702393,3.0596249103546143,9.4645357131958,-0.20825904607772827,-0.09147951751947403,0.16857796907424927
-0.28086987137794495,2.0583150386810303,9.512445449829102,-0.24767379462718964,-0.05099949613213539,-0.1339569091796875
-0.2329602837562561,2.03436017036438,9.718456268310547,-0.2444780021905899,-0.12876373529434204,-0.24474431574344635
-0.4437623918056488,2.0774786472320557,9.9484224319458,-0.2348906397819519,-0.19907113909721375,-0.25007063150405884
-0.30003368854522705,2.1253883838653564,9.771157264709473,-0.1592569202184677,-0.16711322963237762,-0.19680745899677277
-0.2664969861507416,2.0870606899261475,9.704083442687988,-0.09214530140161514,-0.1255679577589035,-0.16484954953193665
-0.17067784070968628,1.9816596508026123,9.220196723937988,0.07723161578178406,-0.03928159549832344,-0.048735812306404114
-0.4054347574710846,2.206834554672241,9.507654190063477,0.0015978955198079348,0.11305110156536102,-0.013582111336290836
-0.6210278272628784,2.24516224861145,9.79032039642334,-0.1038632020354271,0.043808966875076294,-0.019973693415522575
-0.6545644998550415,2.101433515548706,9.823857307434082,-0.1358211189508438,-0.03928159549832344,-0.03488738462328911
-0.6114459037780762,2.0104053020477295,9.454954147338867,-0.02396843209862709,-0.03928159549832344,-0.030626330524683
-0.4198076128959656,2.139761209487915,9.493281364440918,0.01438105944544077,0.09920267760753632,-0.027430538088083267
-0.5779091715812683,2.249953269958496,9.656173706054688,0.01438105944544077,0.11837742477655411,0.0141147430986166
-0.6545644998550415,2.134970188140869,9.694501876831055,-0.0005326318205334246,0.04913528636097908,0.07163897901773453
-0.33836135268211365,2.211625576019287,9.383089065551758,-0.07403582334518433,0.09920267760753632,0.09081372618675232
-0.41022568941116333,1.9241681098937988,9.545982360839844,0.08681898564100266,0.2504701018333435,0.0492684431374073
-0.8893213868141174,2.029569149017334,10.187970161437988,0.11664637178182602,0.03209106624126434,0.027963170781731606
-0.6928921937942505,2.139761209487915,9.617846488952637,0.03249054029583931,-0.06591318547725677,0.07909582555294037
-0.23775124549865723,1.9433319568634033,9.507654190063477,-0.004793686326593161,0.30053749680519104,0.05992107838392258
-0.5779091715812683,1.9672867059707642,10.015496253967285,0.06338318437337875,0.20892482995986938,0.056725289672613144
-0.8318299055099487,1.9624958038330078,9.905303955078125,0.12942953407764435,0.07257108390331268,0.05352949723601341
-1.023468255996704,2.3170266151428223,9.704083442687988,0.09108003973960876,-0.0552605502307415,0.056725289672613144
-1.119287371635437,2.0774786472320557,9.057304382324219,0.17523586750030518,-0.005193160381168127,0.07376950979232788
-0.6306097507476807,2.398472785949707,9.742411613464355,-0.04953476041555405,0.048070020973682404,0.056725289672613144
-0.5395815372467041,1.9529138803482056,9.86218547821045,-0.17630113661289215,-0.10852373391389847,-0.07430213689804077
-0.5108358263969421,1.8235580921173096,10.068196296691895,-0.061252661049366,-0.17670060694217682,-0.1435442715883255
-0.4437623918056488,2.0439419746398926,9.694501876831055,0.046338967978954315,-0.27790066599845886,-0.17550218105316162
-0.5395815372467041,2.1924617290496826,9.622637748718262,0.09214530140161514,-0.25979116559028625,-0.19148114323616028
-0.5970730185508728,2.211625576019287,9.502862930297852,0.11984215676784515,-0.19374482333660126,-0.10412952303886414
-0.43418049812316895,2.3074448108673096,9.277688026428223,0.1358211189508438,-0.10106688737869263,-0.02636527456343174
-0.4054347574710846,2.3170266151428223,9.081258773803711,0.11877689510583878,-0.0552605502307415,0.007723161485046148
-0.4245985746383667,2.249953269958496,9.157914161682129,0.0751010850071907,-0.021172115579247475,0.017310533672571182
-0.6401916146278381,2.2403712272644043,9.35434341430664,0.030360013246536255,-0.0648479238152504,0.013049479573965073
-0.5970730185508728,2.2259984016418457,9.483699798583984,0.006924213841557503,-0.06804371625185013,0.001331579522229731
-0.4820900559425354,2.1637160778045654,9.608263969421387,-0.011185267940163612,-0.06804371625185013,-0.01784316636621952
-0.4868810176849365,2.106224536895752,9.823857307434082,-0.013315795920789242,-0.05845634266734123,-0.0540621280670166
-0.4868810176849365,2.2307894229888916,9.84781265258789,0.021837905049324036,-0.07763108611106873,-0.05832318589091301
-0.4437623918056488,2.321817636489868,9.565145492553711,0.04740423336625099,-0.07763108611106873,-0.0774979293346405
-0.45334431529045105,2.3026537895202637,9.3687162399292,0.027164222672581673,-0.08189214020967484,-0.10732531547546387
-0.5539544224739075,2.3361904621124268,9.569936752319336,-0.021837905049324036,-0.06271740049123764,-0.08495477586984634
-0.4198076128959656,2.24516224861145,9.675337791442871,-0.03142527863383293,-0.08295740932226181,-0.05086633935570717
-0.3287794291973114,2.2307894229888916,9.761574745178223,0.002663159044459462,-0.0648479238152504,-0.06471476703882217
-0.35273420810699463,2.293071746826172,9.675337791442871,0.026098959147930145,-0.08508793264627457,-0.07643266767263412
-0.4245985746383667,2.111015558242798,9.110004425048828,0.15606112778186798,-0.27363958954811096,-0.04767054691910744
-0.26170602440834045,2.3745181560516357,9.560355186462402,0.1038632020354271,0.03741738572716713,0.001331579522229731
-0.41022568941116333,2.3745181560516357,9.52681827545166,0.029294749721884727,0.11198583990335464,-0.008255792781710625
-0.3287794291973114,2.2355804443359375,9.25373363494873,0.04420844092965126,0.059787921607494354,-0.00612526573240757
-0.20421454310417175,2.3840999603271484,9.608263969421387,0.027164222672581673,0.12689952552318573,0.0023968431632965803
-0.5204176902770996,2.364936113357544,9.512445449829102,0.009054740890860558,0.05233107507228851,-0.003994738683104515
-0.4485533535480499,2.3505632877349854,9.440581321716309,-0.034621067345142365,0.0715058222413063,-0.0050600022077560425
-0.4485533535480499,2.3409814834594727,9.488490104675293,-0.06764423847198486,0.04167843982577324,0.004527370445430279
-0.4389714300632477,2.288280963897705,9.708874702453613,-0.058056868612766266,0.0043942127376794815,0.0002663159102667123
-0.4772990942001343,2.2259984016418457,9.814275741577148,0.006924213841557503,-0.037151068449020386,-0.0050600022077560425
-0.4293895363807678,2.24516224861145,9.57951831817627,0.042077913880348206,-0.017976323142647743,-0.028495801612734795
-0.4772990942001343,2.326608419418335,9.52681827545166,-0.038882121443748474,0.055526867508888245,-0.003994738683104515
-0.4198076128959656,2.3505632877349854,9.584309577941895,-0.009054740890860558,0.06831002980470657,-0.0018642114009708166
-0.4293895363807678,2.2691171169281006,9.488490104675293,-0.005858949851244688,0.027830012142658234,-0.0007989477599039674
-0.43418049812316895,2.249953269958496,9.430998802185059,-0.030360013246536255,0.03209106624126434,0.0002663159102667123
-0.45334431529045105,2.2307894229888916,9.584309577941895,-0.046338967978954315,0.05233107507228851,-0.00612526573240757
-0.5204176902770996,2.2355804443359375,9.63701057434082,-0.038882121443748474,0.05339634045958519,-0.003994738683104515
-0.5922820568084717,2.403263807296753,9.35434341430664,0.015446322970092297,0.06617950648069382,0.06950845569372177
-0.5443724989891052,2.293071746826172,9.148332595825195,-0.02396843209862709,0.14394375681877136,0.07057371735572815
-0.7839203476905823,2.3505632877349854,9.890931129455566,-0.034621067345142365,0.10985531657934189,0.04394212365150452
-0.6545644998550415,1.8906314373016357,10.135270118713379,-0.04846949502825737,-0.07656582444906235,-0.03808317333459854
-0.5299996137619019,1.9912415742874146,9.828648567199707,0.06018739566206932,-0.05419528856873512,-0.06258423626422882
-0.34315231442451477,2.1924617290496826,9.73762035369873,0.033555805683135986,-0.12982900440692902,-0.09773793816566467
-0.39585283398628235,2.3936820030212402,9.63701057434082,0.05699160322546959,-0.1490037590265274,-0.09347688406705856
-0.5395815372467041,2.398472785949707,9.268106460571289,0.11132004857063293,-0.07017423957586288,-0.0540621280670166
-0.506044864654541,2.4128458499908447,8.903993606567383,0.07403582334518433,0.04593949392437935,-0.010386320762336254
-0.4629262387752533,2.542201519012451,8.94232177734375,0.01225053146481514,0.06831002980470657,0.006657897960394621
-0.3862709105014801,2.508664846420288,9.052513122558594,-0.10918952524662018,0.059787921607494354,0.04394212365150452
-0.3718980550765991,2.3793091773986816,9.258524894714355,-0.1272990107536316,0.05446160212159157,0.05779055133461952
-0.4293895363807678,1.97207772731781,9.780738830566406,0.12516847252845764,0.1567269116640091,0.0684431865811348
-0.5683273077011108,2.293071746826172,9.886139869689941,0.2306295782327652,0.10985531657934189,0.03755054250359535
-0.5204176902770996,2.2259984016418457,9.157914161682129,-0.0015978955198079348,-0.04460791498422623,0.02583264373242855
-0.4437623918056488,2.2212073802948,9.498072624206543,-0.24767379462718964,0.22916483879089355,0.06737792491912842
-0.4485533535480499,2.0774786472320557,9.718456268310547,-0.07403582334518433,0.348474383354187,0.0918789878487587
-0.7312198281288147,2.067896842956543,9.96279525756836,0.03568633273243904,0.246209055185318,0.07483477145433426
-1.0761687755584717,2.3457722663879395,9.881348609924316,0.03142527863383293,-0.025433169677853584,0.04394212365150452
-1.1049144268035889,2.441591501235962,9.617846488952637,-0.011185267940163612,-0.08934898674488068,0.04607265070080757
-1.085750699043274,2.000823497772217,9.498072624206543,0.09747162461280823,0.0011984215816482902,0.13662005960941315
-0.6497735381126404,2.211625576019287,10.216715812683105,-0.11558110266923904,-0.05845634266734123,-0.009321057237684727
-0.5922820568084717,1.8187670707702637,10.32211685180664,-0.154995858669281,-0.32157647609710693,-0.12330426275730133
-0.5299996137619019,1.938541054725647,10.11131477355957,-0.004793686326593161,-0.3482080399990082,-0.2287653684616089
-0.7120559811592102,2.1205973625183105,9.723247528076172,0.050600022077560425,-0.27470487356185913,-0.26285380125045776
-0.47250813245773315,2.178088903427124,9.62742805480957,0.02396843209862709,-0.34394699335098267,-0.20852535963058472
-0.1754688024520874,2.2643260955810547,9.359134674072266,0.027164222672581673,-0.3034669756889343,-0.13715268671512604
-0.012576262466609478,2.1972527503967285,8.9806489944458,0.042077913880348206,-0.13195952773094177,-0.09560741484165192
-0.22337837517261505,2.2355804443359375,9.081258773803711,0.0015978955198079348,-0.0786963477730751,-0.09028109163045883
-0.3479432463645935,2.2739078998565674,9.268106460571289,-0.025033695623278618,-0.09574057161808014,-0.07962846010923386
-0.5252086520195007,2.293071746826172,9.62742805480957,-0.026098959147930145,-0.11598058044910431,-0.044474758207798004
-0.23775124549865723,1.9768686294555664,9.454954147338867,0.02396843209862709,-0.02756369672715664,-0.04554001986980438
-0.1754688024520874,2.0870606899261475,9.402253150939941,0.018642114475369453,-0.021172115579247475,-0.05725792050361633
-0.3287794291973114,2.1205973625183105,9.239360809326172,-0.006924213841557503,0.026764748618006706,-0.03808317333459854
-0.4629262387752533,2.1876707077026367,9.459744453430176,0.00798947736620903,-0.005193160381168127,-0.002929474925622344
-0.15151402354240417,1.8091851472854614,9.996332168579102,0.2071937769651413,0.3218427896499634,-0.028495801612734795
-0.8557847142219543,2.513455867767334,10.202342987060547,0.10599373281002045,-0.16604797542095184,0.001331579522229731
-0.39585283398628235,2.2212073802948,9.828648567199707,-0.10066741704940796,-0.3482080399990082,-0.06151897460222244
-0.43418049812316895,1.866676688194275,9.823857307434082,-0.013315795920789242,-0.1117195263504982,-0.10626004636287689
-0.10839540511369705,2.139761209487915,9.79032039642334,0.1177116334438324,0.0033289489801973104,-0.11265163123607635
-0.213796466588974,2.1685068607330322,9.986749649047852,0.16351796686649323,-0.13835111260414124,-0.1201084777712822
-0.33836135268211365,2.3888909816741943,9.83823013305664,0.23169484734535217,-0.2715090811252594,-0.10519478470087051
-0.3239884674549103,2.479919195175171,9.272897720336914,0.267913818359375,-0.22570273280143738,-0.07004108279943466
-0.19942358136177063,2.51824688911438,9.066885948181152,0.21038956940174103,-0.0882837250828743,-0.025300011038780212
-0.0604858323931694,2.4607553482055664,9.210615158081055,0.15286533534526825,-0.057391077280044556,-0.007190529722720385
0.04970617964863777,2.3888909816741943,9.311224937438965,0.12197268754243851,-0.10000162571668625,-0.05832318589091301
-0.16109593212604523,2.432009696960449,9.229779243469238,0.1272990107536316,-0.19907113909721375,-0.09347688406705856
-0.12755922973155975,2.432009696960449,9.133959770202637,0.07297056168317795,-0.22250694036483765,-0.09028109163045883
-0.2712879478931427,2.475128173828125,10.01070499420166,0.061252661049366,0.22064273059368134,0.05992107838392258
0.025751395151019096,2.4990830421447754,9.483699798583984,0.00798947736620903,0.11624689400196075,0.08442214131355286
0.011378522962331772,2.4224276542663574,9.277688026428223,0.029294749721884727,0.16205322742462158,0.08655267208814621
-0.17067784070968628,2.5661563873291016,9.440581321716309,0.04846949502825737,0.21638168394565582,0.11638005077838898
-0.3287794291973114,2.5996930599212646,9.651383399963379,0.004793686326593161,0.18122798204421997,0.11957584321498871
-0.39585283398628235,2.6811394691467285,9.52681827545166,-0.046338967978954315,0.1322258561849594,0.07163897901773453
-0.506044864654541,2.5326197147369385,9.680129051208496,0.15393058955669403,0.1279647946357727,0.07163897901773453
-0.3479432463645935,2.5038740634918213,9.560355186462402,0.23702116310596466,0.2685796022415161,0.13342426717281342
-0.08923157304525375,2.5230376720428467,9.320807456970215,-0.21038956940174103,0.016112113371491432,0.1387505829334259
-0.12276827543973923,2.4559643268585205,9.14354133605957,-0.1358211189508438,0.2749711871147156,0.15686006844043732
-0.4293895363807678,2.479919195175171,9.47890853881836,0.0037284228019416332,0.48695865273475647,0.15472954511642456
-0.6785193085670471,2.6523935794830322,9.718456268310547,0.062317922711372375,0.3719101548194885,0.1675127148628235
-0.6018639802932739,2.51824688911438,9.35434341430664,0.03675159439444542,0.1982721984386444,0.15686006844043732
-0.5204176902770996,2.398472785949707,9.162705421447754,-0.04420844092965126,0.16844481229782104,0.11638005077838898
-0.9659767150878906,2.2786989212036133,9.617846488952637,0.061252661049366,0.14500901103019714,0.09933583438396454
-0.702474057674408,2.6859302520751953,10.058614730834961,-0.010120004415512085,0.1652490198612213,0.11318425834178925
-0.7072650194168091,2.628438949584961,10.135270118713379,-0.06657897680997849,0.05020054802298546,0.07376950979232788
-0.7551746368408203,2.3361904621124268,9.986749649047852,-0.10173267871141434,-0.01904158666729927,0.032224226742982864
-0.5252086520195007,2.2643260955810547,9.857394218444824,-0.046338967978954315,-0.032890014350414276,-0.019973693415522575
-0.506044864654541,2.4559643268585205,9.63701057434082,0.010120004415512085,0.022503694519400597,-0.030626330524683
-0.2329602837562561,2.3793091773986816,9.560355186462402,0.046338967978954315,0.013981585390865803,-0.0007989477599039674
-0.6641464233398438,2.360145330429077,9.201032638549805,0.04740423336625099,0.2707101106643677,0.00985368900001049
-0.3479432463645935,2.2403712272644043,9.335180282592773,0.042077913880348206,0.2078595608472824,-0.04340949282050133
-0.4293895363807678,2.3026537895202637,9.277688026428223,0.04740423336625099,0.18335850536823273,-0.09986846894025803
-0.8557847142219543,2.5230376720428467,9.493281364440918,0.034621067345142365,0.08428898453712463,-0.16484954953193665
-1.2773889303207397,2.767376661300659,9.775947570800781,0.034621067345142365,0.02463422156870365,-0.09454214572906494
-1.1240782737731934,2.7242579460144043,9.656173706054688,0.11664637178182602,0.16311849653720856,0.0002663159102667123
-1.0713777542114258,2.657184600830078,9.502862930297852,0.20080219209194183,0.2653838098049164,0.03009369783103466
-0.8941123485565186,2.6092751026153564,9.172286987304688,0.005858949851244688,0.12263847887516022,-0.04234423115849495
-0.9995134472846985,2.695512294769287,9.263315200805664,-0.042077913880348206,0.11731215566396713,-0.0774979293346405
-1.1144963502883911,2.7194669246673584,9.569936752319336,0.02396843209862709,0.0810931921005249,-0.03169159218668938
-1.1959426403045654,2.7050940990448,9.569936752319336,0.0942758321762085,0.03209106624126434,0.03861580789089203
-0.9372310042381287,2.8296589851379395,8.597372055053711,0.0985368862748146,0.1759016513824463,0.06205160543322563
-1.1863607168197632,2.5230376720428467,9.63701057434082,0.017576850950717926,0.12583427131175995,0.026897907257080078
-1.2965527772903442,2.85361385345459,9.646592140197754,-0.04314317926764488,-0.0009321057004854083,0.0141147430986166
