accX,accY,accZ,gyroX,gyroY,gyroZ
-0.8100000619888306,5.595000267028809,8.26200008392334,-0.06916250288486481,-0.12196250259876251,0.02681249938905239
-0.7189500331878662,5.464950084686279,8.020050048828125,-0.043449997901916504,-0.13420000672340393,0.05004999786615372
-0.5730000138282776,5.386050224304199,7.833000183105469,-0.0752125009894371,-0.14891250431537628,0.045237500220537186
-0.5290500521659851,5.347950458526611,7.861950397491455,-0.11192499846220016,-0.1256749927997589,0.02447500079870224
-0.6109500527381897,5.278950214385986,8.128050804138184,-0.11550000309944153,-0.06462500244379044,0.02447500079870224
-0.5410500168800354,5.230950355529785,8.428950309753418,-0.08868750184774399,-0.04262499883770943,0.023237500339746475
-0.5610000491142273,5.271000385284424,8.404950141906738,-0.03849999979138374,-0.1317249983549118,-0.00976249948143959
-0.5010000467300415,5.238000392913818,8.25195026397705,-0.031212499365210533,-0.17215000092983246,-0.018287500366568565
-0.45000001788139343,5.27400016784668,8.14905071258545,-0.023924998939037323,-0.17215000092983246,-0.02928750030696392
-0.6160500049591064,5.334000110626221,8.02695083618164,-0.007974999956786633,-0.14643749594688416,-0.03423750028014183
-0.6319500207901001,5.451000213623047,8.0149507522583,0.015262499451637268,-0.10243749618530273,-0.0012374999932944775
-0.33105000853538513,5.347950458526611,7.8349504470825195,0.007837500423192978,0.013612499460577965,0.00976249948143959
-0.3859500288963318,5.278950214385986,8.04900074005127,-0.021449999883770943,0.047849997878074646,0.002474999986588955
-0.4050000309944153,5.215950012207031,8.185050010681152,-0.048262499272823334,0.016087500378489494,-0.00494999997317791
-0.3739500045776367,5.152050018310547,8.038949966430664,-0.05692499876022339,-0.03519999980926514,-0.03918749839067459
-0.5080500245094299,5.06505012512207,7.897950172424316,-0.05816249921917915,-0.02419999986886978,-0.054999999701976776
-0.690000057220459,5.341050148010254,8.43600082397461,-0.05939999967813492,-0.0034374999813735485,-0.07452499866485596
-0.703950047492981,5.608950138092041,8.581950187683105,-0.0494999997317791,-0.05843750014901161,-0.05376249924302101
-0.6439500451087952,5.3959503173828125,8.6089506149292,-0.0471624992787838,-0.07067500054836273,0.035337500274181366
-0.3949500322341919,4.921950340270996,8.929950714111328,-0.006737499963492155,-0.037675000727176666,0.054999999701976776
0.09195000678300858,4.852050304412842,8.723999977111816,0.08607500046491623,-0.07315000146627426,0.0085249999538064
0.09195000678300858,4.972050189971924,8.379000663757324,0.12759999930858612,-0.08167500048875809,-0.05623750016093254
-0.1870500147342682,5.242950439453125,8.28795051574707,0.13241249322891235,-0.1036750003695488,-0.11123749613761902
-0.5700000524520874,5.619000434875488,8.046000480651855,0.10188750177621841,-0.16967499256134033,-0.11728750169277191
-0.9580500721931458,5.604000091552734,7.783050537109375,-0.060499999672174454,-0.11096250265836716,0.02433750033378601
-1.3099501132965088,5.47005033493042,7.219950199127197,-0.19744999706745148,-0.14891250431537628,0.18438750505447388
-0.7780500650405884,5.592000484466553,7.462050437927246,-0.27431249618530273,-0.12072499841451645,0.29809999465942383
0.030000001192092896,5.440950393676758,8.187000274658203,-0.3390749990940094,-0.15125000476837158,0.3041499853134155
0.031950000673532486,5.386050224304199,8.539050102233887,-0.3255999982357025,-0.17572499811649323,0.24681249260902405
-0.0580500029027462,5.290950298309326,8.6850004196167,-0.2340250015258789,-0.20377500355243683,0.13928750157356262
-0.18000000715255737,5.413050174713135,8.392950057983398,-0.1447875052690506,-0.23801249265670776,0.1050499975681305
-0.13905000686645508,5.326050281524658,8.202000617980957,-0.11797499656677246,-0.25519999861717224,0.10628750175237656
0.14505000412464142,5.026950359344482,8.142000198364258,-0.12168750166893005,-0.22824999690055847,0.05128749832510948
0.04905000329017639,5.178000450134277,8.54699993133545,-0.15344999730587006,-0.2685374915599823,0.002474999986588955
0.022950001060962677,5.250000476837158,8.772000312805176,-0.15702499449253082,-0.30153748393058777,0.006049999967217445
-0.004950000438839197,4.963050365447998,8.982000350952148,-0.12168750166893005,-0.3492499887943268,0.018287500366568565
0.4939500093460083,5.20395040512085,7.761000156402588,0.04455000162124634,-0.12815000116825104,0.02199999988079071
0.16095000505447388,5.251950263977051,8.269050598144531,0.038362499326467514,0.04661250114440918,-0.0037124999798834324
0.0990000069141388,5.221050262451172,8.551050186157227,0.021312499418854713,0.016087500378489494,0.007287499960511923
0.14205001294612885,5.109000205993652,8.476950645446777,0.022549999877810478,-0.03396249935030937,0.02681249938905239
0.15195000171661377,5.15595006942749,8.308950424194336,0.03959999978542328,-0.06462500244379044,0.04152499884366989
0.046950001269578934,5.164050102233887,8.266050338745117,0.07136250287294388,-0.032862499356269836,0.059812501072883606
0.10200000554323196,5.0370001792907715,8.29800033569336,0.09583749622106552,-0.002199999988079071,0.07081250101327896
0.24795001745224,5.020050048828125,8.179950714111328,0.07136250287294388,-0.030387500301003456,0.059812501072883606
0.37005001306533813,5.128050327301025,8.161050796508789,-0.010449999943375587,-0.05843750014901161,0.05252499878406525
0.4420500099658966,5.0370001792907715,8.343000411987305,-0.0752125009894371,-0.02419999986886978,0.045237500220537186
0.3910500109195709,4.993950366973877,8.544000625610352,-0.08249999582767487,-0.010862499475479126,0.03423750028014183
0.286050021648407,5.074950218200684,8.623050689697266,-0.05444999784231186,-0.03519999980926514,0.01223750039935112
0.24495001137256622,5.176050186157227,8.25,-0.0031624999828636646,-0.06091250106692314,0.010999999940395355
0.20205001533031464,5.1469502449035645,8.182950019836426,0.031075000762939453,0.0038499999791383743,0.02928750030696392
0.16095000505447388,5.128050327301025,8.30505084991455,0.045787498354911804,0.020899999886751175,0.03904999792575836
0.19005000591278076,5.128050327301025,8.460000038146973,0.07507500052452087,-0.025437500327825546,0.04881250113248825
0.3550500273704529,5.098950386047363,8.484000205993652,0.10436250269412994,-0.04496249929070473,0.05004999786615372
0.46605002880096436,5.098950386047363,8.447999954223633,0.1190750002861023,-0.05472499877214432,0.04152499884366989
0.544950008392334,5.11305046081543,8.142000198364258,0.11783749610185623,-0.07919999957084656,0.028049999848008156
0.5689499974250793,5.2069501876831055,8.10105037689209,0.0798875018954277,-0.04619999974966049,0.02199999988079071
0.4459500312805176,5.125050067901611,8.223000526428223,0.03959999978542328,-0.0364375002682209,0.025575000792741776
0.4320000112056732,5.143950462341309,8.25,0.022549999877810478,-0.08538749814033508,0.0035749999806284904
0.23595000803470612,5.247000217437744,8.247000694274902,0.022549999877810478,-0.10243749618530273,-0.01223750039935112
0.3910500109195709,5.194950103759766,8.347949981689453,0.014024999924004078,-0.0999625027179718,0.0012374999932944775
0.38700002431869507,5.218950271606445,8.371950149536133,0.022549999877810478,-0.13791249692440033,-0.0037124999798834324
0.46095001697540283,5.3359503746032715,8.118000030517578,0.06655000150203705,-0.1391499936580658,0.0012374999932944775
0.4630500078201294,5.27400016784668,7.974000453948975,0.08855000138282776,-0.04619999974966049,0.0035749999806284904
0.37905001640319824,5.26200008392334,8.475000381469727,0.04936249926686287,0.040562499314546585,0.006049999967217445
0.40800002217292786,5.371950149536133,8.869950294494629,0.010312499478459358,0.03189999982714653,0.01223750039935112
0.544950008392334,5.17995023727417,8.67300033569336,0.06283749639987946,0.06984999775886536,0.02433750033378601
0.45600003004074097,4.88100004196167,7.993050575256348,0.1751749962568283,0.10766249895095825,-0.002474999986588955
0.13005000352859497,5.125050067901611,7.615050315856934,0.22536249458789825,0.13695000112056732,0.004812499973922968
0.17805001139640808,5.323950290679932,7.5960001945495605,0.2046000063419342,0.14190000295639038,0.020762499421834946
0.16395001113414764,5.559000492095947,7.843050479888916,0.08483749628067017,0.08566249907016754,0.042762499302625656
0.22395001351833344,5.45805025100708,8.28600025177002,-0.020212499424815178,0.03932499885559082,0.059812501072883606
0.5329500436782837,5.233050346374512,8.56095027923584,0.011549999937415123,0.06737499684095383,0.06833750009536743
0.5250000357627869,5.250000476837158,8.178000450134277,0.06159999966621399,0.03932499885559082,0.042762499302625656
0.5010000467300415,5.343000411987305,7.636950492858887,0.045787498354911804,0.04908749833703041,0.035337500274181366
0.47505003213882446,5.443950176239014,7.777950286865234,-0.021449999883770943,0.11495000123977661,0.037812501192092896
0.29295000433921814,5.391000270843506,8.02695083618164,-0.07644999772310257,0.14918750524520874,0.037812501192092896
0.36705002188682556,5.37000036239624,8.259000778198242,-0.09226249903440475,0.18095000088214874,0.047575000673532486
0.39900001883506775,5.271000385284424,8.221050262451172,-0.08744999766349792,0.16637499630451202,0.04399999976158142
0.3240000009536743,5.20395040512085,8.218950271606445,-0.07768750190734863,0.17613749206066132,0.0317624993622303
0.17595000565052032,5.302950382232666,8.365050315856934,-0.05926249921321869,0.1821874976158142,0.0317624993622303
0.15195000171661377,5.383950233459473,8.230050086975098,-0.0494999997317791,0.14066250622272491,0.05004999786615372
0.2959500253200531,5.251950263977051,7.938000202178955,-0.10449999570846558,0.13942499458789825,0.045237500220537186
0.25005000829696655,5.094000339508057,8.30505084991455,-0.15468749403953552,0.19071249663829803,0.03657500073313713
0.18300001323223114,5.074950218200684,8.365050315856934,-0.15702499449253082,0.13942499458789825,0.018287500366568565
0.05100000277161598,5.251950263977051,8.36205005645752,-0.1387374997138977,0.11495000123977661,0.0085249999538064
-0.09600000083446503,5.350050449371338,8.568000793457031,-0.09597499668598175,0.08689999580383301,0.035337500274181366
-0.09105000644922256,5.257050037384033,8.961000442504883,0.0030249999836087227,-0.027912499383091927,0.06833750009536743
0.29100000858306885,5.022000312805176,8.626049995422363,0.1153625026345253,0.01732499897480011,0.059812501072883606
0.3910500109195709,4.9770002365112305,8.290050506591797,0.15565000474452972,-0.0193875003606081,0.02928750030696392
0.42000001668930054,4.933950424194336,7.965000152587891,0.15331250429153442,-0.009624999947845936,0.023237500339746475
0.35100001096725464,5.10105037689209,7.869000434875488,0.10683749616146088,0.045375000685453415,-0.0037124999798834324
0.28395000100135803,5.200050354003906,7.960050582885742,0.07507500052452087,0.042899999767541885,-0.018287500366568565
0.05400000140070915,5.307000160217285,8.11305046081543,0.012787500396370888,0.040424998849630356,-0.02447500079870224
0.0010500000789761543,5.3460001945495605,8.447999954223633,-0.028737500309944153,0.01484999991953373,-0.01347499992698431
0.0990000069141388,5.245050430297852,8.439000129699707,-0.029975000768899918,-0.04496249929070473,-0.00976249948143959
0.18495000898838043,5.182950019836426,8.25,-0.009212499484419823,-0.05486249923706055,-0.01347499992698431
0.11100000888109207,5.200050354003906,8.09595012664795,-0.006737499963492155,-0.05719999969005585,-0.02447500079870224
0.09405000507831573,5.278950214385986,8.02695083618164,-0.016637500375509262,-0.0719124972820282,-0.023237500339746475
0.11595000326633453,5.350050449371338,8.074950218200684,-0.05073750019073486,-0.09019999951124191,-0.007424999959766865
0.17295001447200775,5.2669501304626465,8.29995059967041,-0.07273750007152557,-0.0999625027179718,-0.0
0.24000000953674316,5.19195032119751,8.496000289916992,-0.06173750013113022,-0.07438749819993973,-0.006187499966472387
0.23295001685619354,5.164050102233887,8.563050270080566,-0.018975000828504562,-0.0364375002682209,-0.0085249999538064
0.15000000596046448,5.125050067901611,8.414999961853027,0.028599999845027924,-0.04496249929070473,-0.0037124999798834324
0.208950012922287,5.137050151824951,8.235000610351562,0.057887498289346695,-0.06338749825954437,-0.0012374999932944775
0.21405000984668732,5.214000225067139,8.329050064086914,0.08483749628067017,-0.05472499877214432,-0.0085249999538064
0.2760000228881836,5.305050373077393,8.53695011138916,0.12388750165700912,-0.049912501126527786,-0.00494999997317791
0.2880000174045563,5.247000217437744,8.326050758361816,0.13612499833106995,-0.05115000158548355,-0.01347499992698431
0.24300001561641693,5.278950214385986,8.202000617980957,0.12155000120401382,-0.04496249929070473,-0.01347499992698431
0.27900001406669617,5.314050197601318,8.070000648498535,0.0798875018954277,-0.03519999980926514,0.0035749999806284904
0.31995001435279846,5.2069501876831055,8.038949966430664,0.04936249926686287,-0.0010999999940395355,0.0170499999076128
0.40605002641677856,5.202000141143799,8.050950050354004,0.03478749841451645,0.012374999932944775,0.0012374999932944775
0.0970500037074089,5.334000110626221,8.223000526428223,0.03712499886751175,0.0038499999791383743,-0.015949999913573265
0.24000000953674316,5.283000469207764,8.320950508117676,0.06159999966621399,0.06366249918937683,0.023237500339746475
0.30300000309944153,5.293050289154053,8.185050010681152,0.06531249731779099,0.062424998730421066,0.03657500073313713
0.4030500054359436,5.317050457000732,8.11305046081543,0.0775500014424324,0.10408750176429749,0.037812501192092896
0.43905001878738403,5.27400016784668,7.978950500488281,0.06888750195503235,0.05637500062584877,-0.0
0.22095000743865967,5.331000328063965,7.873950481414795,0.022549999877810478,-0.004674999974668026,-0.01952499896287918
0.24300001561641693,5.386050224304199,7.890000343322754,-0.004399999976158142,-0.007149999961256981,-0.015949999913573265
0.14505000412464142,5.379000186920166,8.05305004119873,-0.03849999979138374,0.01979999989271164,-0.01223750039935112
0.07800000160932541,5.347950458526611,8.28795051574707,-0.04097500070929527,0.0038499999791383743,-0.002474999986588955
0.1469999998807907,5.404950141906738,8.392950057983398,-0.007974999956786633,0.013612499460577965,0.01952499896287918
0.23295001685619354,5.305050373077393,8.329050064086914,0.038362499326467514,0.02461249940097332,0.023237500339746475
0.27195000648498535,5.329050064086914,8.059950828552246,0.05431250110268593,0.011137500405311584,0.018287500366568565
0.29100000858306885,5.38200044631958,7.858950138092041,0.018837500363588333,0.00989999994635582,0.01347499992698431
0.24300001561641693,5.389050483703613,8.046000480651855,-0.026399999856948853,0.033137500286102295,0.00976249948143959
0.1570500135421753,5.410050392150879,8.254050254821777,-0.04097500070929527,0.03189999982714653,0.007287499960511923
0.19995000958442688,5.37000036239624,8.36205005645752,-0.020212499424815178,0.011137500405311584,0.0085249999538064
0.24795001745224,5.298000335693359,8.326050758361816,0.014024999924004078,-0.004674999974668026,0.0085249999538064
0.25200000405311584,5.283000469207764,8.128050804138184,0.02983750030398369,-0.020624998956918716,0.004812499973922968
0.27195000648498535,5.27400016784668,8.020050048828125,0.028599999845027924,-0.02186249941587448,-0.0
0.1469999998807907,5.419950485229492,8.02500057220459,0.007837500423192978,-0.008387500420212746,-0.00976249948143959
0.19005000591278076,5.4370503425598145,8.182950019836426,-0.020212499424815178,-0.02186249941587448,-0.0012374999932944775
0.25995001196861267,5.302950382232666,8.307000160217285,-0.021449999883770943,-0.03891250118613243,0.004812499973922968
0.28095000982284546,5.383950233459473,8.475000381469727,0.02983750030398369,-0.03162499889731407,-0.0012374999932944775
0.23100000619888306,5.341050148010254,8.365050315856934,0.09088750183582306,-0.0364375002682209,-0.0037124999798834324
0.24300001561641693,5.317050457000732,8.068050384521484,0.10312499850988388,-0.0364375002682209,-0.0037124999798834324
0.208950012922287,5.310000419616699,7.998000144958496,0.09831249713897705,-0.02186249941587448,-0.0085249999538064
0.13005000352859497,5.410050392150879,7.974000453948975,0.08978749811649323,0.013612499460577965,-0.0147124994546175
0.05895000323653221,5.359950065612793,8.074950218200684,0.10559999942779541,0.012374999932944775,-0.0085249999538064
0.12300000339746475,5.476950168609619,8.13705062866211,0.10312499850988388,-0.004674999974668026,0.010999999940395355
0.17805001139640808,5.494050025939941,8.269050598144531,0.09707500040531158,-0.0010999999940395355,0.02447500079870224
0.2689500153064728,5.467950344085693,8.326050758361816,0.10683749616146088,-0.05609999969601631,0.032999999821186066
0.43695002794265747,5.428950309753418,8.239950180053711,0.1508374959230423,-0.10615000128746033,0.02199999988079071
0.208950012922287,5.293050289154053,8.034000396728516,0.19483749568462372,-0.11467500030994415,-0.0085249999538064
-0.15405000746250153,5.559000492095947,8.07705020904541,0.20817500352859497,-0.11715000122785568,0.01952499896287918
0.24300001561641693,5.920050144195557,8.190000534057617,0.19717499613761902,-0.14891250431537628,0.07699999958276749
0.9280500411987305,5.809950351715088,7.954950332641602,0.16788749396800995,-0.17943750321865082,0.06833750009536743
0.8370000123977661,5.44605016708374,7.653000354766846,0.1251250058412552,-0.11467500030994415,0.0035749999806284904
0.5230500102043152,5.508000373840332,7.3399505615234375,0.07383749634027481,-0.07315000146627426,-0.0317624993622303
0.38700002431869507,5.595000267028809,7.2900004386901855,0.03231250122189522,-0.06710000336170197,-0.04399999976158142
0.3340500295162201,5.829000473022461,7.390050411224365,-0.09350000321865082,-0.1073874980211258,-0.04399999976158142
0.49695003032684326,5.38200044631958,7.857000350952148,-0.05321250110864639,-0.10491249710321426,-0.0037124999798834324
0.46095001697540283,5.449050426483154,7.7470502853393555,-0.09350000321865082,-0.11591249704360962,-0.020762499421834946
0.30000001192092896,5.676000118255615,8.07194995880127,-0.11550000309944153,-0.1073874980211258,-0.00494999997317791
0.5920500159263611,5.57295036315918,8.57805061340332,0.06531249731779099,-0.08896250277757645,0.06228749826550484
0.6430500149726868,5.293050289154053,8.194950103759766,0.14959999918937683,-0.06943749636411667,0.06833750009536743
0.6880500316619873,5.475000381469727,7.797000408172607,0.15441249310970306,-0.06462500244379044,0.05252499878406525
0.4129500091075897,5.700000286102295,8.173049926757812,0.10436250269412994,-0.049912501126527786,0.06599999964237213
0.3940500319004059,5.6260504722595215,8.447999954223633,0.133650004863739,-0.03519999980926514,0.10257499665021896
0.7960500121116638,5.665950298309326,8.701950073242188,0.25712499022483826,0.06984999775886536,0.12952500581741333
0.8650500178337097,5.769000053405762,8.022000312805176,0.37193748354911804,0.08332499861717224,0.12209999561309814
0.5689499974250793,5.74500036239624,7.2900004386901855,0.34264999628067017,0.07837499678134918,0.12457499653100967
1.0690500736236572,5.671050071716309,6.258000373840332,0.19236250221729279,0.060087498277425766,0.10628750175237656
0.9400500655174255,5.665950298309326,6.904050350189209,-0.022687500342726707,0.01732499897480011,0.03657500073313713
0.7480500340461731,5.926950454711914,7.957950592041016,-0.1264999955892563,-0.025437500327825546,0.02199999988079071
0.7480500340461731,5.968050479888916,8.587050437927246,-0.09116250276565552,-0.010862499475479126,0.010999999940395355
0.7600500583648682,5.623050212860107,7.669950485229492,-0.017737500369548798,-0.04386249929666519,-0.015949999913573265
0.7740000486373901,5.271000385284424,6.712050437927246,-0.12402500212192535,-0.049912501126527786,-0.0635249987244606
0.6829500198364258,5.695050239562988,7.300950527191162,-0.25107499957084656,0.03684999793767929,-0.10023749619722366
0.6550500392913818,5.841000080108643,8.167950630187988,-0.2572624981403351,0.1443749964237213,-0.07576250284910202
0.7030500173568726,5.623050212860107,8.79104995727539,-0.11797499656677246,0.25189998745918274,-0.057475000619888306
0.5689499974250793,5.568000316619873,8.392950057983398,0.03959999978542328,0.272662490606308,-0.047712501138448715
0.5920500159263611,5.580000400543213,7.785000324249268,0.10436250269412994,0.33371248841285706,-0.047712501138448715
0.6240000128746033,5.5849504470825195,7.375950336456299,0.09707500040531158,0.42528748512268066,-0.054999999701976776
0.38895002007484436,5.7330002784729,7.648950576782227,0.058024998754262924,0.5170000195503235,-0.0672374963760376
-0.22095000743865967,5.911050319671631,8.269050598144531,0.053075000643730164,0.5487625002861023,-0.02928750030696392
-0.1680000126361847,5.752950191497803,8.479050636291504,0.08855000138282776,0.5535749793052673,0.0317624993622303
0.10395000129938126,5.683050155639648,8.29995059967041,0.10188750177621841,0.47905001044273376,0.04152499884366989
0.15000000596046448,5.467950344085693,7.879050254821777,0.09707500040531158,0.33976250886917114,0.020762499421834946
0.25995001196861267,5.499000072479248,7.428000450134277,0.050599999725818634,0.31171250343322754,-0.00494999997317791
-0.1680000126361847,5.748000144958496,8.343000411987305,-0.1264999955892563,0.28600001335144043,0.0012374999932944775
-0.00795000046491623,5.652000427246094,8.056050300598145,-0.0849749967455864,0.2737624943256378,-0.037950001657009125
-0.4650000333786011,5.535000324249268,7.909950256347656,-0.08621250092983246,0.28971248865127563,-0.057475000619888306
-0.62295001745224,5.722050189971924,7.828050136566162,-0.10202500224113464,0.21642500162124634,-0.02199999988079071
-0.51705002784729,5.877000331878662,7.438050270080566,-0.11921250075101852,0.11495000123977661,-0.0037124999798834324
-0.5269500017166138,5.580000400543213,8.356950759887695,-0.15097500383853912,0.030662499368190765,0.0035749999806284904
-0.49800002574920654,5.616000175476074,9.454050064086914,-0.05197500064969063,0.006324999965727329,0.018287500366568565
-0.520050048828125,5.764950275421143,9.15195083618164,0.15441249310970306,-0.04386249929666519,0.05128749832510948
-0.14205001294612885,5.338050365447998,7.737000465393066,0.24860000610351562,-0.07438749819993973,0.05128749832510948
-0.2760000228881836,5.75700044631958,7.021050453186035,0.15936249494552612,-0.06338749825954437,0.028049999848008156
-0.3829500079154968,5.676000118255615,7.120050430297852,0.10188750177621841,-0.04262499883770943,0.025575000792741776
-0.1870500147342682,5.611050128936768,7.716000556945801,0.009074999950826168,-0.0719124972820282,0.01952499896287918
-0.21300001442432404,5.860050201416016,7.981050491333008,-0.011687500402331352,-0.08291249722242355,-0.0037124999798834324
-0.41505002975463867,5.784000396728516,8.04104995727539,0.01759999990463257,-0.037675000727176666,0.0012374999932944775
-0.17295001447200775,5.680950164794922,7.933950424194336,0.031075000762939453,-0.032862499356269836,0.00976249948143959
-0.2639999985694885,5.707050323486328,7.813950538635254,0.02736249938607216,-0.02433750033378601,-0.0012374999932944775
-0.32805001735687256,5.722050189971924,7.668000221252441,0.020075000822544098,-0.014437500387430191,-0.0012374999932944775
-0.24495001137256622,5.724000453948975,7.680000305175781,-0.016637500375509262,0.025849999859929085,0.004812499973922968
-0.30900001525878906,5.707050323486328,7.9360504150390625,-0.03849999979138374,0.04413750022649765,0.0012374999932944775
-0.33105000853538513,5.677950382232666,8.07194995880127,-0.027499999850988388,0.02956249937415123,0.00976249948143959
-0.30705001950263977,5.700000286102295,8.00100040435791,-0.012924999929964542,0.02461249940097332,0.014574999921023846
-0.283050000667572,5.7019500732421875,8.070000648498535,-0.0019249999895691872,0.016087500378489494,0.014574999921023846
-0.37095001339912415,5.689950466156006,7.972050189971924,0.012787500396370888,-0.03519999980926514,0.018287500366568565
-0.14400000870227814,5.700000286102295,7.801950454711914,0.010312499478459358,-0.049912501126527786,0.020762499421834946
-0.14595000445842743,5.7019500732421875,7.8070502281188965,-0.009212499484419823,0.0013749999925494194,0.0035749999806284904
-0.14595000445842743,5.707050323486328,7.926000595092773,-0.020212499424815178,0.020899999886751175,-0.0147124994546175
-0.17805001139640808,5.6860504150390625,7.969950199127197,-0.021449999883770943,0.02708750031888485,-0.028187500312924385
-0.26805001497268677,5.677950382232666,8.116050720214844,-0.009212499484419823,0.028324998915195465,-0.03918749839067459
-0.2569500207901001,5.6569504737854,8.04900074005127,0.014024999924004078,0.005087499972432852,-0.042762499302625656
-0.25200000405311584,5.652000427246094,7.8670501708984375,0.01759999990463257,0.0013749999925494194,-0.04895000159740448
-0.37905001640319824,5.761950492858887,7.788000583648682,0.0005499999970197678,0.00989999994635582,-0.03918749839067459
-0.37905001640319824,5.760000228881836,7.813950538635254,-0.010449999943375587,0.04908749833703041,-0.028187500312924385
-0.30900001525878906,5.671050071716309,7.846950531005859,-0.020212499424815178,0.07590000331401825,-0.010999999940395355
-0.13395000994205475,5.635050296783447,7.890000343322754,-0.03616249933838844,0.09308750182390213,-0.01223750039935112
-0.2659500241279602,5.596950054168701,8.005050659179688,-0.06544999778270721,0.12718750536441803,-0.04895000159740448
-0.4620000123977661,5.259000301361084,7.873950481414795,-0.13626250624656677,0.11508750170469284,-0.08195000141859055
-0.38100001215934753,5.464950084686279,7.696950435638428,-0.2083124965429306,0.06737499684095383,-0.11976250261068344
-0.62295001745224,5.902950286865234,7.8670501708984375,-0.2217874974012375,0.07342500239610672,-0.11247500032186508
-0.7429500222206116,5.914950370788574,8.527050018310547,-0.14368750154972076,0.1321374922990799,-0.05128749832510948
-0.5410500168800354,5.620950222015381,8.689949989318848,-0.006737499963492155,0.10408750176429749,-0.00494999997317791
-0.4069500267505646,5.431950092315674,8.25195026397705,0.10559999942779541,0.08689999580383301,-0.006187499966472387
-0.34800001978874207,5.310000419616699,7.972050189971924,0.14836250245571136,0.06737499684095383,-0.025712499395012856
-0.4069500267505646,5.479950428009033,7.855050563812256,0.141075000166893,0.07466249912977219,-0.035475000739097595
-0.5509500503540039,5.683050155639648,8.04104995727539,0.12636250257492065,0.08813749998807907,-0.045237500220537186
-0.7810500264167786,6.004050254821777,8.105999946594238,0.12264999747276306,0.07342500239610672,-0.04647500067949295
-0.6040500402450562,5.63100004196167,7.681950569152832,0.06655000150203705,0.005087499972432852,-0.03671250119805336
-0.6040500402450562,5.677950382232666,7.870950222015381,0.06407500058412552,0.07590000331401825,-0.04895000159740448
-0.5560500025749207,5.592000484466553,7.609950542449951,0.03231250122189522,0.057612501084804535,-0.05871250107884407
-0.4740000367164612,5.659050464630127,7.486050128936768,-0.025162499397993088,0.055137500166893005,-0.07095000147819519
-0.4410000145435333,5.698050498962402,7.52400016784668,-0.0849749967455864,0.08084999769926071,-0.09281250089406967
-0.5509500503540039,5.748000144958496,7.8949503898620605,-0.11921250075101852,0.1504250019788742,-0.11371249705553055
-0.8860500454902649,5.700000286102295,8.08905029296875,-0.1106875017285347,0.22013749182224274,-0.10752499848604202
-0.6079500317573547,5.4559502601623535,7.729950428009033,-0.06421250104904175,0.04413750022649765,-0.09047500044107437
-0.9030000567436218,5.614050388336182,7.849950313568115,-0.1069749966263771,0.08813749998807907,-0.11604999750852585
-0.36705002188682556,5.367000102996826,7.639050483703613,0.1251250058412552,-0.08415000140666962,0.0695749968290329
-0.44805002212524414,5.503950119018555,7.8349504470825195,0.06778749823570251,-0.11838749796152115,0.015812499448657036
-0.7159500122070312,5.6260504722595215,8.06505012512207,0.04207500070333481,-0.09638749808073044,-0.028187500312924385
-0.9529500603675842,5.817000389099121,7.849950313568115,0.0042624999769032,-0.14272500574588776,-0.0317624993622303
-0.8020500540733337,5.665950298309326,7.7440505027771,-0.04468749836087227,-0.13667500019073486,-0.0012374999932944775
-0.7830000519752502,5.449050426483154,7.831050395965576,-0.06792499870061874,-0.14767499268054962,-0.010999999940395355
-1.1230500936508179,5.566050052642822,7.966950416564941,-0.06173750013113022,-0.20748749375343323,-0.006187499966472387
-1.1040000915527344,5.566050052642822,8.029050827026367,-0.0471624992787838,-0.26372501254081726,0.05376249924302101
-0.9220500588417053,5.7330002784729,8.050950050354004,-0.04221250116825104,-0.35282498598098755,0.10009999573230743
-0.661050021648407,5.812950134277344,7.9360504150390625,-0.05692499876022339,-0.4212999939918518,0.1368124932050705
-0.2639999985694885,5.683050155639648,8.02695083618164,-0.0849749967455864,-0.36629998683929443,0.14533749222755432
-0.24705001711845398,5.503950119018555,8.269050598144531,-0.07150000333786011,-0.3102000057697296,0.12828749418258667
-0.04800000041723251,5.322000026702881,8.185050010681152,-0.006737499963492155,-0.26743748784065247,0.1013374999165535
0.15900000929832458,5.2759504318237305,8.029050827026367,0.06655000150203705,-0.21367499232292175,0.06599999964237213
0.22395001351833344,5.704950332641602,8.282999992370605,0.11659999936819077,-0.11591249704360962,0.05004999786615372
-0.31200000643730164,5.527950286865234,8.295000076293945,0.14588749408721924,-0.05486249923706055,0.05857500061392784
-0.5490000247955322,5.367000102996826,8.194950103759766,0.15565000474452972,-0.08043749630451202,0.04028749838471413
0.22395001351833344,5.91795015335083,7.582050323486328,-0.015399999916553497,-0.4017750024795532,0.05857500061392784
0.5110500454902649,5.695050239562988,7.669950485229492,-0.060499999672174454,-0.3797749876976013,0.057337500154972076
0.7860000133514404,5.082000255584717,7.881000518798828,-0.09102500230073929,-0.27719998359680176,-0.025712499395012856
0.5879999995231628,5.3959503173828125,8.167950630187988,-0.04097500070929527,-0.19043749570846558,-0.12581250071525574
0.3910500109195709,5.773950099945068,8.343000411987305,0.0030249999836087227,-0.14272500574588776,-0.1344749927520752
0.2050500065088272,5.962950229644775,8.57805061340332,0.12388750165700912,-0.04619999974966049,-0.10628750175237656
-0.1579500138759613,5.571000099182129,7.845000267028809,0.255887508392334,0.02708750031888485,-0.10381250083446503
-0.11505000293254852,5.583000183105469,7.14300012588501,0.2644124925136566,0.020899999886751175,-0.09281250089406967
-0.17505000531673431,5.9350504875183105,7.126950263977051,0.11412499845027924,0.060087498277425766,-0.08428750187158585
-0.6180000305175781,5.959050178527832,8.010000228881836,-0.04097500070929527,0.03189999982714653,-0.035475000739097595
-0.453000009059906,5.902950286865234,8.439000129699707,-0.060499999672174454,-0.03162499889731407,0.02928750030696392
-0.11505000293254852,5.772000312805176,8.151000022888184,-0.020212499424815178,-0.05238749831914902,0.042762499302625656
0.17595000565052032,5.428950309753418,7.486050128936768,-0.0031624999828636646,-0.02914999984204769,0.02928750030696392
0.25005000829696655,5.56095027923584,7.348950386047363,-0.04097500070929527,0.02461249940097332,-0.0012374999932944775
0.09405000507831573,5.808000087738037,7.582050323486328,-0.10821250081062317,0.0648999959230423,0.004812499973922968
0.05895000323653221,5.781000137329102,7.893000602722168,-0.1289750039577484,0.07466249912977219,0.015812499448657036
-0.10095000267028809,5.772000312805176,8.179950714111328,-0.1264999955892563,0.0648999959230423,0.018287500366568565
-0.14205001294612885,5.836050510406494,8.326050758361816,-0.12292499840259552,0.042899999767541885,0.02433750033378601
-0.07200000435113907,5.740950107574463,8.269050598144531,-0.10944999754428864,-0.020624998956918716,0.04399999976158142
0.037050001323223114,5.580000400543213,8.194950103759766,-0.09844999760389328,-0.04743750020861626,0.047575000673532486
0.21705001592636108,5.449050426483154,7.929000377655029,-0.08992499858140945,-0.09019999951124191,0.0317624993622303
0.21195000410079956,5.44605016708374,7.831050395965576,-0.10202500224113464,-0.0681999996304512,0.0035749999806284904
0.14205001294612885,5.479950428009033,8.11305046081543,-0.11302500218153,-0.040150001645088196,-0.01223750039935112
0.10200000554323196,5.440950393676758,7.962000370025635,-0.10821250081062317,-0.002199999988079071,-0.037950001657009125
-0.09405000507831573,5.551950454711914,8.082000732421875,-0.1289750039577484,0.016087500378489494,-0.04399999976158142
-0.036000002175569534,5.596950054168701,8.134950637817383,-0.13626250624656677,-0.005912499967962503,-0.0317624993622303
-0.031050002202391624,5.6449503898620605,8.203949928283691,-0.13021250069141388,-0.008387500420212746,-0.023237500339746475
-0.04800000041723251,5.530050277709961,8.07194995880127,-0.11192499846220016,-0.009624999947845936,-0.01718750037252903
-0.10305000841617584,5.299950122833252,7.8670501708984375,-0.1069749966263771,-0.015675000846385956,-0.007424999959766865
0.015000000596046448,5.250000476837158,8.02500057220459,-0.10449999570846558,0.0038499999791383743,-0.0
0.08205000311136246,5.476950168609619,8.367000579833984,-0.08621250092983246,0.02708750031888485,-0.002474999986588955
0.025050001218914986,5.607000350952148,8.587050437927246,-0.04221250116825104,0.03932499885559082,-0.0037124999798834324
-0.1489500105381012,5.416950225830078,8.269050598144531,0.026124998927116394,0.04908749833703041,0.0035749999806284904
-0.15405000746250153,5.305050373077393,8.128050804138184,0.050599999725818634,0.057612501084804535,0.01223750039935112
-0.00795000046491623,5.347950458526611,7.90500020980835,0.05912499874830246,0.020899999886751175,0.02199999988079071
-0.022050000727176666,5.5320000648498535,7.914000511169434,0.011549999937415123,0.008799999952316284,0.020762499421834946
-0.06495000422000885,5.592000484466553,8.128050804138184,-0.03739999979734421,0.023375000804662704,0.02681249938905239
-0.036000002175569534,5.473050117492676,8.154000282287598,-0.05197500064969063,0.023375000804662704,0.0317624993622303
0.07304999977350235,5.38200044631958,8.143950462341309,-0.060499999672174454,0.008799999952316284,0.023237500339746475
0.09405000507831573,5.374050140380859,8.056050300598145,-0.05692499876022339,0.00989999994635582,0.0085249999538064
0.07800000160932541,5.38200044631958,8.155950546264648,-0.05444999784231186,0.011137500405311584,0.002474999986588955
-0.039000000804662704,5.391000270843506,8.118000030517578,-0.055687498301267624,0.0038499999791383743,0.002474999986588955
-0.15600000321865082,5.419950485229492,8.242050170898438,-0.05816249921917915,0.002612499985843897,-0.0012374999932944775
-0.13395000994205475,5.403000354766846,8.197050094604492,-0.06173750013113022,-0.04138749837875366,0.01347499992698431
0.05100000277161598,5.365050315856934,8.070000648498535,-0.0752125009894371,-0.049912501126527786,0.023237500339746475
0.14505000412464142,5.257050037384033,8.094000816345215,-0.08249999582767487,0.0013749999925494194,0.01347499992698431
0.19995000958442688,5.230950355529785,8.227950096130371,-0.07026249915361404,0.04661250114440918,-0.0037124999798834324
0.13500000536441803,5.242950439453125,8.235000610351562,-0.05321250110864639,0.07466249912977219,-0.010999999940395355
0.11595000326633453,5.2669501304626465,8.191950798034668,-0.012924999929964542,0.1381874978542328,-0.01952499896287918
0.06795000284910202,5.322000026702881,8.187000274658203,0.016362499445676804,0.17242500185966492,-0.030524998903274536
0.12300000339746475,5.17995023727417,8.25,0.04936249926686287,0.1993750035762787,-0.03671250119805336
0.1279500126838684,5.15595006942749,8.302050590515137,0.10312499850988388,0.23966249823570251,-0.0635249987244606
-0.05505000427365303,5.302950382232666,8.293050765991211,0.16060000658035278,0.2628999948501587,-0.09652499854564667
-0.5410500168800354,5.500950336456299,8.496000289916992,0.21188749372959137,0.2957625091075897,-0.08304999768733978
-0.5490000247955322,5.596950054168701,8.257050514221191,0.22659999132156372,0.2237125039100647,-0.01952499896287918
-0.42195001244544983,5.638050079345703,8.13705062866211,0.22165000438690186,0.14066250622272491,0.006049999967217445
-0.39795002341270447,5.571000099182129,8.09595012664795,0.21793749928474426,0.09913749992847443,0.006049999967217445
-0.3520500063896179,5.389050483703613,7.675050258636475,0.17036250233650208,0.040424998849630356,-0.002474999986588955
-0.3430500030517578,5.57295036315918,7.483050346374512,0.12155000120401382,0.052662499248981476,0.0012374999932944775
-0.44805002212524414,5.74500036239624,7.780050277709961,0.057887498289346695,0.15895000100135803,0.0035749999806284904
-0.5989500284194946,5.776950359344482,8.170949935913086,0.053075000643730164,0.1443749964237213,0.010999999940395355
-0.8050500154495239,5.911050319671631,8.581950187683105,0.0798875018954277,0.03684999793767929,0.0635249987244606
-0.45795002579689026,5.647050380706787,8.247000694274902,0.1288374960422516,-0.002199999988079071,0.11852499842643738
-0.25200000405311584,5.431950092315674,8.221050262451172,0.141075000166893,-0.0193875003606081,0.11728750169277191
0.1380000114440918,5.250000476837158,7.669950485229492,0.11659999936819077,-0.10243749618530273,0.05857500061392784
0.003000000026077032,5.290950298309326,8.575050354003906,0.07878749817609787,0.2774749994277954,-0.14781250059604645
-0.6439500451087952,5.833950042724609,8.259000778198242,0.23512500524520874,0.18713749945163727,-0.17352500557899475
-1.492050051689148,6.7699503898620605,7.363950252532959,0.2521750032901764,0.2139499932527542,-0.0952875018119812
-0.7639500498771667,6.0259504318237305,6.526050090789795,-0.010449999943375587,0.2909500002861023,-0.05376249924302101
-0.35895001888275146,5.848050117492676,7.1770501136779785,-0.1765500009059906,0.3129499852657318,-0.06599999964237213
-0.7020000219345093,5.817000389099121,7.890000343322754,-0.2303124964237213,0.29823750257492065,-0.08304999768733978
-0.9750000238418579,5.620950222015381,8.944050788879395,-0.19002500176429749,0.2457125037908554,-0.06476250290870667
-0.8719500303268433,5.595000267028809,8.872050285339355,-0.04839999973773956,0.08566249907016754,-0.032999999821186066
-0.5869500041007996,5.608950138092041,7.98900032043457,0.02983750030398369,0.07108750194311142,-0.02199999988079071
-0.5220000147819519,5.611050128936768,7.534050464630127,0.007837500423192978,0.14066250622272491,-0.04399999976158142
-0.5269500017166138,5.47005033493042,7.486050128936768,-0.022687500342726707,0.16142499446868896,-0.057475000619888306
-0.5629500150680542,5.3359503746032715,7.681950569152832,-0.10449999570846558,0.13942499458789825,-0.07823749631643295
-0.8670000433921814,5.628000259399414,8.070000648498535,-0.14121249318122864,0.10642500221729279,-0.10381250083446503
-1.3320000171661377,6.0420002937316895,8.41200065612793,-0.09721250087022781,0.13695000112056732,-0.08676250278949738
-1.308000087738037,5.520000457763672,8.455950736999512,-0.009212499484419823,0.16637499630451202,-0.02928750030696392
-0.9150000214576721,5.551950454711914,8.155950546264648,0.0518375001847744,0.02956249937415123,-0.0
-0.8839500546455383,5.5849504470825195,7.495050430297852,0.04702499881386757,-0.05843750014901161,-0.0012374999932944775
-0.7519500255584717,5.611050128936768,7.519050121307373,-0.025162499397993088,0.038087498396635056,-0.0012374999932944775
-0.9919500350952148,5.559000492095947,8.221050262451172,-0.060499999672174454,0.15537500381469727,-0.007424999959766865
-1.1470500230789185,5.551950454711914,8.479050636291504,-0.04468749836087227,0.15166249871253967,-0.0
-1.1059499979019165,5.566050052642822,8.08905029296875,0.023787500336766243,0.01732499897480011,0.02928750030696392
-1.0420500040054321,5.580000400543213,8.197050094604492,0.011549999937415123,-0.07919999957084656,0.04399999976158142
-0.9360000491142273,5.52495002746582,8.87505054473877,0.09336250275373459,-0.11343749612569809,0.05857500061392784
-0.89805006980896,5.587050437927246,8.431950569152832,0.1471250057220459,-0.14767499268054962,0.06104999780654907
-0.8239500522613525,5.652000427246094,8.142000198364258,0.1886499971151352,-0.20748749375343323,0.057337500154972076
-0.7210500240325928,5.57295036315918,7.819050312042236,0.19965000450611115,-0.21848750114440918,0.05128749832510948
-0.6970500349998474,5.640000343322754,7.9069504737854,0.19112500548362732,-0.20624999701976776,0.05128749832510948
-0.6559500098228455,5.710050106048584,7.692000389099121,0.18741250038146973,-0.21367499232292175,0.042762499302625656
-0.4620000123977661,5.740950107574463,7.351950168609619,0.10807500034570694,-0.16596250236034393,0.014574999921023846
-0.5010000467300415,5.6449503898620605,7.675050258636475,0.04455000162124634,-0.10491249710321426,-0.0147124994546175
-0.6300000548362732,5.755050182342529,7.729950428009033,0.010312499478459358,-0.08896250277757645,-0.05623750016093254
-0.7230000495910645,5.812950134277344,7.584000587463379,-0.0019249999895691872,-0.01691249944269657,-0.028187500312924385
-0.7399500608444214,5.736000061035156,7.789950370788574,-0.03368749842047691,0.012374999932944775,-0.01223750039935112
-0.7090500593185425,5.740950107574463,8.218950271606445,-0.031212499365210533,-0.002199999988079071,-0.006187499966472387
-0.8100000619888306,5.781000137329102,7.789950370788574,0.05678749829530716,-0.05362499877810478,0.020762499421834946
-0.7090500593185425,5.877000331878662,7.360950469970703,0.0005499999970197678,-0.04262499883770943,0.04881250113248825
-0.6799500584602356,5.884050369262695,7.318050384521484,-0.04839999973773956,-0.013199999928474426,0.05609999969601631
-0.7020000219345093,5.797950267791748,7.540950298309326,-0.148499995470047,0.05156249925494194,0.054999999701976776
-0.831000030040741,5.7960004806518555,8.104050636291504,-0.20721249282360077,0.01966249942779541,0.054999999701976776
-0.6420000195503235,5.668950080871582,8.062950134277344,-0.2303124964237213,-0.1451999992132187,0.05857500061392784
-0.6109500527381897,5.680950164794922,7.752000331878662,-0.2915000021457672,-0.2441999912261963,0.06710000336170197
-0.6109500527381897,5.737950325012207,7.572000503540039,-0.39778751134872437,-0.3102000057697296,0.08181250095367432
-0.6540000438690186,5.83905029296875,7.504950523376465,-0.4465999901294708,-0.3394874930381775,0.08304999768733978
-0.7930500507354736,5.896050453186035,7.522050380706787,-0.5040749907493591,-0.35048750042915344,0.11604999750852585
-0.5059500336647034,5.772000312805176,8.211000442504883,-0.49912500381469727,-0.26124998927116394,0.1942874938249588
-0.14400000870227814,5.190000057220459,8.520000457763672,-0.4160749912261963,-0.11343749612569809,0.22110000252723694
-0.04800000041723251,4.741950035095215,8.656949996948242,-0.30250000953674316,0.00989999994635582,0.19786250591278076
0.1380000114440918,4.603050231933594,8.689949989318848,-0.24997499585151672,0.0013749999925494194,0.17338749766349792
0.3430500030517578,4.522050380706787,8.784000396728516,-0.14368750154972076,-0.06462500244379044,0.08552499860525131
0.3150000274181366,4.528950214385986,8.85105037689209,-0.09350000321865082,-0.0976250022649765,0.030524998903274536
0.019950000569224358,4.876049995422363,8.836050033569336,0.0005499999970197678,-0.08538749814033508,-0.037950001657009125
-0.24000000953674316,5.125050067901611,8.54699993133545,0.08483749628067017,0.05142499879002571,-0.03423750028014183
-0.453000009059906,5.295000076293945,8.36205005645752,0.15812499821186066,0.13461250066757202,-0.02199999988079071
-0.49800002574920654,5.427000045776367,8.038949966430664,0.17641249299049377,0.055137500166893005,-0.006187499966472387
-0.4050000309944153,5.427000045776367,7.942950248718262,0.1251250058412552,0.006324999965727329,0.0170499999076128
-0.24000000953674316,5.353050231933594,7.942950248718262,0.05431250110268593,0.038087498396635056,0.020762499421834946
-0.17295001447200775,5.271000385284424,8.046000480651855,0.03231250122189522,0.07590000331401825,0.01347499992698431
-0.18495000898838043,5.209050178527832,8.503050804138184,0.050599999725818634,0.11495000123977661,-0.00494999997317791
-0.20595000684261322,5.152050018310547,8.668950080871582,0.0873124971985817,0.10642500221729279,-0.0085249999538064
-0.1969500035047531,5.118000030517578,8.680950164794922,0.18741250038146973,0.09418749809265137,-0.01347499992698431
-0.1680000126361847,5.188050270080566,8.227950096130371,0.2827000021934509,0.16513749957084656,-0.015949999913573265
-0.25394999980926514,5.3359503746032715,7.7659502029418945,0.3279374837875366,0.272662490606308,-0.0085249999538064
-0.6160500049591064,5.6569504737854,7.90500020980835,0.32670000195503235,0.32147499918937683,0.0085249999538064
-0.6439500451087952,5.731050491333008,8.151000022888184,0.3059374988079071,0.2872374951839447,0.03904999792575836
-0.5250000357627869,5.556000232696533,7.998000144958496,0.2656500041484833,0.22618749737739563,0.02433750033378601
-0.6469500064849854,5.590050220489502,7.717950344085693,0.17765000462532043,0.17737500369548798,-0.0037124999798834324
-0.7260000109672546,5.761950492858887,7.531050205230713,0.08112499862909317,0.15895000100135803,-0.0012374999932944775
-0.6559500098228455,5.707050323486328,7.3690505027771,0.005362499970942736,0.23471249639987946,0.01952499896287918
-0.7399500608444214,5.704950332641602,7.998000144958496,-0.027499999850988388,0.23842500150203705,0.02199999988079071
-0.8290500640869141,5.817000389099121,7.843050479888916,-0.043449997901916504,0.12966249883174896,0.04028749838471413
-0.8359500169754028,5.587050437927246,8.620950698852539,-0.07273750007152557,0.012374999932944775,0.059812501072883606
-0.6060000061988831,5.499000072479248,8.712000846862793,-0.0812624990940094,-0.11948750168085098,0.04633750021457672
-0.6970500349998474,5.496000289916992,8.074950218200684,-0.08621250092983246,-0.13667500019073486,0.010999999940395355
-0.5560500025749207,5.461050033569336,7.62000036239624,-0.12402500212192535,-0.24901250004768372,0.002474999986588955
-0.48900002241134644,5.56095027923584,7.864050388336182,-0.16926249861717224,-0.2564375102519989,0.007287499960511923
-0.6060000061988831,5.583000183105469,8.511000633239746,-0.16926249861717224,-0.23567499220371246,-0.0
-0.7309500575065613,5.530050277709961,8.737950325012207,-0.148499995470047,-0.370012491941452,0.00976249948143959
-0.7260000109672546,5.499000072479248,8.749950408935547,-0.14121249318122864,-0.45553749799728394,0.01952499896287918
-0.16095000505447388,5.326050281524658,7.965000152587891,-0.14602500200271606,-0.5923500061035156,0.015812499448657036
0.2959500253200531,5.130000114440918,7.243950366973877,-0.21326249837875366,-0.516587495803833,-0.03423750028014183
0.17100000381469727,5.269050121307373,7.285050392150879,-0.29878750443458557,-0.37482500076293945,-0.08552499860525131
0.06795000284910202,5.427000045776367,7.9770002365112305,-0.3244999945163727,-0.18672500550746918,-0.0989999994635582
-0.2850000262260437,5.386050224304199,8.809950828552246,-0.20954999327659607,-0.05843750014901161,-0.08304999768733978
-0.29205000400543213,5.263950347900391,8.87700080871582,-0.011687500402331352,0.025849999859929085,-0.020762499421834946
-0.25905001163482666,5.26200008392334,8.604000091552734,0.172837495803833,0.05142499879002571,0.02681249938905239
-0.3330000042915344,5.391000270843506,8.27400016784668,0.2583625018596649,0.03684999793767929,0.04152499884366989
-0.31905001401901245,5.38200044631958,7.761000156402588,0.21188749372959137,-0.015675000846385956,0.045237500220537186
-0.13395000994205475,5.365050315856934,7.500000476837158,0.04936249926686287,-0.0681999996304512,0.030524998903274536
-0.07695000618696213,5.367000102996826,7.627050399780273,-0.12278749793767929,-0.04743750020861626,0.0012374999932944775
-0.1489500105381012,5.290950298309326,8.308950424194336,-0.20102499425411224,0.007562499959021807,-0.0085249999538064
-0.16995000839233398,5.250000476837158,8.878950119018555,-0.1289750039577484,-0.007149999961256981,-0.002474999986588955
-0.09795000404119492,5.185050010681152,8.557950019836426,0.026124998927116394,0.008662499487400055,0.010999999940395355
0.07304999977350235,5.239950180053711,8.09595012664795,0.15812499821186066,0.10766249895095825,0.018287500366568565
0.04905000329017639,5.314050197601318,8.03700065612793,0.21683749556541443,0.1993750035762787,0.015812499448657036
-0.208950012922287,5.487000465393066,8.28600025177002,0.19717499613761902,0.16266250610351562,0.0012374999932944775
-0.2779500186443329,5.559000492095947,8.281050682067871,0.13612499833106995,0.08332499861717224,-0.007424999959766865
-0.41505002975463867,5.464950084686279,8.01300048828125,0.08483749628067017,0.030662499368190765,-0.018287500366568565
-0.4339500069618225,5.52495002746582,7.708950519561768,0.03478749841451645,0.00013749999925494194,-0.002474999986588955
-0.43800002336502075,5.556000232696533,7.735050201416016,0.014024999924004078,0.006324999965727329,0.01347499992698431
-0.3520500063896179,5.539950370788574,7.972050189971924,-0.017737500369548798,0.03189999982714653,0.03904999792575836
-0.15600000321865082,5.224050045013428,8.632950782775879,-0.0006874999962747097,-0.014437500387430191,0.03423750028014183
-0.04605000093579292,5.214000225067139,8.326050758361816,0.026124998927116394,-0.07438749819993973,0.007287499960511923
0.05100000277161598,5.257050037384033,7.615050315856934,0.036024998873472214,-0.008387500420212746,-0.020762499421834946
-0.22500000894069672,5.563050270080566,7.780050277709961,0.026124998927116394,0.13942499458789825,-0.030524998903274536
-0.3859500288963318,5.716950416564941,8.380949974060059,0.020075000822544098,0.06613750010728836,-0.006187499966472387
-0.3360000252723694,5.6569504737854,8.314050674438477,0.010312499478459358,-0.002199999988079071,-0.00494999997317791
-0.41505002975463867,5.518050193786621,8.14905071258545,-0.0006874999962747097,-0.08662500232458115,-0.00976249948143959
-0.05505000427365303,5.439000129699707,7.660950183868408,-0.015399999916553497,-0.12691250443458557,0.0012374999932944775
-0.012000000104308128,5.322000026702881,7.669950485229492,-0.06173750013113022,-0.020624998956918716,-0.015949999913573265
-0.24195000529289246,5.341050148010254,8.25195026397705,-0.09844999760389328,0.03437500074505806,-0.037950001657009125
-0.39795002341270447,5.353050231933594,8.551050186157227,-0.08373750001192093,0.007562499959021807,-0.03423750028014183
-0.24705001711845398,5.4559502601623535,7.9960503578186035,0.026124998927116394,-0.005912499967962503,0.02681249938905239
-0.24900001287460327,5.475000381469727,8.092050552368164,0.0017874999903142452,-0.004674999974668026,0.02681249938905239
-0.17805001139640808,5.404950141906738,8.06505012512207,-0.009212499484419823,0.002612499985843897,0.02433750033378601
-0.14205001294612885,5.3359503746032715,8.130000114440918,-0.03244999796152115,0.013612499460577965,0.0085249999538064
-0.22095000743865967,5.37000036239624,8.199000358581543,-0.031212499365210533,0.0013749999925494194,0.0035749999806284904
-0.28005000948905945,5.439000129699707,8.221050262451172,-0.0031624999828636646,0.006324999965727329,0.004812499973922968
-0.19200000166893005,5.410050392150879,8.131950378417969,-0.017737500369548798,-0.0034374999813735485,-0.0
-0.2970000207424164,5.451000213623047,8.178000450134277,-0.03973750025033951,-0.005912499967962503,-0.0012374999932944775
-0.22995001077651978,5.422050476074219,8.226000785827637,-0.03492499887943268,-0.02914999984204769,0.00976249948143959
-0.11805000901222229,5.299950122833252,8.128050804138184,-0.023924998939037323,-0.04867500066757202,0.0035749999806284904
-0.11295000463724136,5.317050457000732,8.02695083618164,-0.026399999856948853,-0.049912501126527786,-0.0037124999798834324
-0.17295001447200775,5.439000129699707,8.086950302124023,-0.04221250116825104,-0.040150001645088196,-0.010999999940395355
-0.34005001187324524,5.48205041885376,8.068050384521484,-0.07273750007152557,-0.07686249911785126,0.0012374999932944775
-0.325950026512146,5.511000156402588,8.02695083618164,-0.09226249903440475,-0.09267500042915344,0.004812499973922968
-0.17295001447200775,5.449050426483154,8.211000442504883,-0.11797499656677246,-0.09143749624490738,0.006049999967217445
-0.13005000352859497,5.281050205230713,8.320950508117676,-0.11797499656677246,-0.0999625027179718,0.006049999967217445
-0.11295000463724136,5.37000036239624,8.13705062866211,-0.11921250075101852,-0.09267500042915344,-0.04028749838471413
-0.09795000404119492,5.386050224304199,8.40000057220459,-0.12044999748468399,-0.07315000146627426,-0.03423750028014183
-0.13005000352859497,5.353050231933594,8.488950729370117,-0.09350000321865082,-0.04138749837875366,-0.02928750030696392
-0.15105000138282776,5.281050205230713,8.503050804138184,-0.0752125009894371,-0.018149999901652336,-0.020762499421834946
-0.07005000114440918,5.07705020904541,8.359950065612793,-0.03849999979138374,-0.014437500387430191,-0.006187499966472387
0.04200000315904617,5.158950328826904,7.788000583648682,-0.029975000768899918,0.0038499999791383743,-0.028187500312924385
0.10605000704526901,5.235000133514404,7.998000144958496,-0.06421250104904175,0.12966249883174896,-0.04028749838471413
-0.06705000251531601,5.142000198364258,8.520000457763672,-0.08249999582767487,0.1859000027179718,-0.05623750016093254
-0.16305001080036163,5.104050159454346,8.119950294494629,0.020075000822544098,-0.004674999974668026,-0.023237500339746475
-0.14400000870227814,5.158950328826904,7.9960503578186035,0.04936249926686287,0.018424998968839645,-0.01952499896287918
-0.31905001401901245,5.319000244140625,8.107950210571289,0.04207500070333481,0.0611874982714653,0.0012374999932944775
-0.27105000615119934,5.413050174713135,8.443950653076172,-0.0019249999895691872,0.013612499460577965,0.018287500366568565
-0.12495000660419464,5.202000141143799,8.484000205993652,-0.022687500342726707,-0.0193875003606081,0.014574999921023846
-0.05100000277161598,4.9770002365112305,8.326050758361816,-0.0019249999895691872,0.013612499460577965,-0.010999999940395355
-0.18900001049041748,5.092050075531006,8.245050430297852,0.03231250122189522,0.016087500378489494,-0.028187500312924385
-0.2779500186443329,5.290950298309326,8.439000129699707,0.04702499881386757,-0.04386249929666519,-0.007287499960511923
-0.10305000841617584,5.221050262451172,8.022000312805176,0.07631249725818634,-0.3004375100135803,-0.0085249999538064
0.003000000026077032,5.2069501876831055,8.086950302124023,0.09212499856948853,-0.008387500420212746,-0.002474999986588955
-0.04305000230669975,5.058000087738037,8.66100025177002,0.07507500052452087,0.26042500138282776,-0.01347499992698431
-0.2659500241279602,5.122950077056885,8.464950561523438,0.0775500014424324,0.22618749737739563,-0.04895000159740448
-0.4720500111579895,5.152050018310547,8.104050636291504,0.10188750177621841,0.07342500239610672,-0.030524998903274536
-0.42195001244544983,5.566050052642822,7.813950538635254,0.13983750343322754,-0.0364375002682209,0.0035749999806284904
-0.18495000898838043,5.319000244140625,8.151000022888184,-0.07273750007152557,-0.014437500387430191,0.0035749999806284904
-0.1270500123500824,5.20395040512085,8.197050094604492,-0.06173750013113022,-0.0340999998152256,0.010999999940395355
-0.17805001139640808,5.152050018310547,8.167950630187988,0.03231250122189522,-0.005912499967962503,0.002474999986588955
-0.18495000898838043,5.278950214385986,8.203949928283691,0.02983750030398369,-0.0010999999940395355,0.0035749999806284904
-0.18000000715255737,5.319000244140625,8.28795051574707,0.022549999877810478,0.029424998909235,-0.0012374999932944775
-0.24900001287460327,5.278950214385986,8.326050758361816,0.03712499886751175,0.08084999769926071,-0.0
-0.27300000190734863,5.329050064086914,8.002950668334961,0.06655000150203705,0.002612499985843897,0.025575000792741776
-0.22800001502037048,5.355000019073486,7.978950500488281,0.04331250116229057,-0.0193875003606081,0.020762499421834946
-0.22800001502037048,5.3580002784729,8.098950386047363,-0.006737499963492155,-0.030387500301003456,0.01223750039935112
-0.17805001139640808,5.251950263977051,8.35004997253418,-0.026399999856948853,-0.013337500393390656,0.006049999967217445
-0.2160000056028366,5.173050403594971,8.40000057220459,0.0030249999836087227,0.0038499999791383743,-0.00494999997317791
-0.1969500035047531,5.250000476837158,8.259000778198242,0.045787498354911804,0.011137500405311584,-0.0012374999932944775
-0.17505000531673431,5.2759504318237305,8.034000396728516,0.07878749817609787,0.038087498396635056,-0.0037124999798834324
-0.18195000290870667,5.2669501304626465,8.209050178527832,0.09212499856948853,0.06613750010728836,-0.007287499960511923
-0.2760000228881836,5.298000335693359,8.41200065612793,0.09212499856948853,0.04661250114440918,-0.01223750039935112
-0.37095001339912415,5.452950477600098,8.593950271606445,0.08236250281333923,-0.05843750014901161,-0.020762499421834946
-0.34800001978874207,5.343000411987305,7.962000370025635,0.08112499862909317,-0.04619999974966049,-0.010999999940395355
-0.31200000643730164,5.2860002517700195,7.969950199127197,0.10064999759197235,-0.015675000846385956,0.002474999986588955
-0.4030500054359436,5.4150004386901855,8.155950546264648,0.12031249701976776,-0.05719999969005585,0.02681249938905239
-0.45795002579689026,5.5159502029418945,8.29800033569336,0.1313125044107437,-0.06462500244379044,0.04152499884366989
-0.5680500268936157,5.662050247192383,8.343000411987305,0.16060000658035278,-0.02914999984204769,0.08428750187158585
-0.5320500135421753,5.508000373840332,8.223000526428223,0.16060000658035278,-0.04619999974966049,0.13186250627040863
-0.4240500330924988,5.347950458526611,7.990950584411621,0.1313125044107437,-0.12443749606609344,0.14781250059604645
-0.15105000138282776,5.4340500831604,7.450050354003906,-0.007974999956786633,-0.2624875009059906,0.14781250059604645
0.1279500126838684,5.530050277709961,7.515000343322754,-0.164450004696846,-0.29672500491142273,0.10876250267028809
0.26205000281333923,5.440950393676758,7.861950397491455,-0.2523125112056732,-0.3199625015258789,0.057337500154972076
0.2550000250339508,5.298000335693359,8.23799991607666,-0.2535499930381775,-0.29067498445510864,0.02199999988079071
0.25995001196861267,5.209050178527832,8.447999954223633,-0.22302499413490295,-0.2662000060081482,0.00976249948143959
0.19305001199245453,5.271000385284424,8.817000389099121,-0.11302500218153,-0.2209624946117401,-0.010999999940395355
0.09405000507831573,5.295000076293945,8.656949996948242,0.018837500363588333,-0.20019999146461487,-0.007287499960511923
0.027000000700354576,5.188050270080566,8.23799991607666,0.10188750177621841,-0.18314999341964722,0.00976249948143959
0.1380000114440918,5.299950122833252,8.107950210571289,0.12636250257492065,-0.195250004529953,0.023237500339746475
0.3150000274181366,5.242950439453125,7.941000461578369,0.1434125006198883,-0.13296249508857727,0.006049999967217445
0.39900001883506775,5.299950122833252,7.914000511169434,0.14588749408721924,-0.12815000116825104,-0.006187499966472387
0.25005000829696655,5.452950477600098,7.966950416564941,0.13007499277591705,-0.11962500214576721,-0.023237500339746475
0.18495000898838043,5.56095027923584,8.158950805664062,0.08483749628067017,-0.15015000104904175,-0.010999999940395355
0.12300000339746475,5.688000202178955,8.27595043182373,0.048124998807907104,-0.1929125040769577,0.002474999986588955
0.4420500099658966,5.5489501953125,8.239950180053711,0.053075000643730164,-0.2124374955892563,0.010999999940395355
0.595050036907196,5.539950370788574,8.329050064086914,0.09831249713897705,-0.22591249644756317,0.0012374999932944775
0.583050012588501,5.506050109863281,8.191950798034668,0.16788749396800995,-0.21119999885559082,0.01952499896287918
0.5520000457763672,5.407950401306152,7.9860005378723145,0.19717499613761902,-0.14767499268054962,0.020762499421834946
0.34095001220703125,5.449050426483154,7.728000164031982,0.21559999883174896,-0.040150001645088196,-0.0037124999798834324
0.23100000619888306,5.668950080871582,7.761000156402588,0.17036250233650208,-0.04262499883770943,0.01347499992698431
0.27195000648498535,5.650050163269043,7.768050193786621,0.1373624950647354,-0.07809999585151672,0.032999999821186066
0.31005001068115234,5.710050106048584,8.166000366210938,0.0798875018954277,-0.1611499935388565,0.054999999701976776
0.4990500211715698,5.781000137329102,8.245050430297852,0.06407500058412552,-0.22714999318122864,0.06228749826550484
0.5779500007629395,5.853000164031982,8.050950050354004,0.04936249926686287,-0.2917749881744385,0.07576250284910202
0.781950056552887,5.737950325012207,7.800000190734863,0.05431250110268593,-0.24543750286102295,0.07452499866485596
0.7860000133514404,5.665950298309326,7.420950412750244,0.009074999950826168,-0.22591249644756317,0.020762499421834946
0.7429500222206116,5.736000061035156,7.914000511169434,-0.07397499680519104,-0.21119999885559082,0.035475000739097595
0.9970500469207764,5.48205041885376,8.161050796508789,-0.020212499424815178,-0.14272500574588776,0.07576250284910202
1.059000015258789,5.404950141906738,8.082000732421875,0.04702499881386757,-0.07919999957084656,0.07576250284910202
0.7099500298500061,5.6260504722595215,7.870950222015381,0.16307500004768372,0.09542500227689743,0.04028749838471413
0.4030500054359436,6.1050004959106445,7.402050495147705,0.09707500040531158,0.006324999965727329,0.02681249938905239
0.5659500360488892,6.270000457763672,7.348950386047363,-0.10092499852180481,-0.10243749618530273,0.014574999921023846
0.4939500093460083,5.566050052642822,8.58495044708252,-0.1387374997138977,-0.13420000672340393,0.05857500061392784
1.3440001010894775,5.377050399780273,8.905950546264648,0.07383749634027481,-0.015675000846385956,0.04028749838471413
1.1380500793457031,5.2260003089904785,7.711050510406494,0.24365000426769257,0.11137499660253525,-0.04647500067949295
1.1959500312805176,5.479950428009033,6.523050308227539,0.15565000474452972,0.10518749803304672,-0.08428750187158585
1.1260499954223633,5.772000312805176,6.444000244140625,0.02983750030398369,0.06984999775886536,-0.11247500032186508
0.7339500188827515,6.160050392150879,7.375950336456299,-0.23154999315738678,-0.05115000158548355,-0.14533749222755432
0.3270000219345093,6.342000484466553,8.761950492858887,-0.2853125035762787,-0.12196250259876251,-0.09281250089406967
-0.22800001502037048,5.250000476837158,8.02695083618164,-0.10821250081062317,-0.05238749831914902,0.025575000792741776
0.7720500230789185,4.942950248718262,7.27500057220459,-0.03849999979138374,0.19689999520778656,-0.01718750037252903
0.47505003213882446,6.03000020980835,8.209050178527832,-0.116737499833107,0.27252501249313354,-0.06104999780654907
0.6739500164985657,5.949000358581543,8.530050277709961,-0.10573749989271164,0.15895000100135803,0.059812501072883606
0.8059500455856323,5.749950408935547,8.520000457763672,-0.015399999916553497,0.1639000028371811,0.09652499854564667
0.23595000803470612,5.074950218200684,7.52400016784668,0.04331250116229057,0.19318750500679016,0.1050499975681305
0.7600500583648682,5.604000091552734,7.444950580596924,-0.0471624992787838,0.1699499934911728,0.03423750028014183
0.6829500198364258,5.875050067901611,7.831050395965576,-0.1863124966621399,0.08195000141859055,0.01952499896287918
0.778950035572052,5.530050277709961,8.122950553894043,-0.21326249837875366,0.03684999793767929,0.032999999821186066
0.6670500040054321,5.500950336456299,8.23799991607666,-0.15826250612735748,0.04166249930858612,0.015812499448657036
0.492000013589859,5.431950092315674,8.227950096130371,-0.10944999754428864,0.01484999991953373,0.01223750039935112
0.6709500551223755,5.343000411987305,8.185050010681152,-0.09102500230073929,-0.03162499889731407,0.0085249999538064
0.7069500088691711,5.319000244140625,8.08395004272461,-0.07644999772310257,-0.03162499889731407,-0.0147124994546175
0.4630500078201294,5.377050399780273,8.194950103759766,-0.03368749842047691,0.029424998909235,-0.01718750037252903
0.43695002794265747,5.620950222015381,8.119950294494629,-0.014162499457597733,0.006324999965727329,0.006049999967217445
0.527999997138977,5.652000427246094,8.104050636291504,-0.020212499424815178,-0.013337500393390656,0.014574999921023846
0.492000013589859,5.394000053405762,8.26200008392334,-0.025162499397993088,-0.0035749999806284904,0.018287500366568565
0.5920500159263611,5.302950382232666,8.259000778198242,-0.015399999916553497,0.002612499985843897,0.0170499999076128
0.7030500173568726,5.3359503746032715,8.06505012512207,0.020075000822544098,0.050187498331069946,-0.0085249999538064
0.5590500235557556,5.590050220489502,8.02695083618164,0.03355000168085098,0.06984999775886536,-0.018287500366568565
0.5209500193595886,5.611050128936768,8.04104995727539,0.03231250122189522,0.0611874982714653,-0.0085249999538064
0.3840000033378601,5.463000297546387,8.01300048828125,0.021312499418854713,0.052662499248981476,0.004812499973922968
0.46800002455711365,5.487000465393066,7.897950172424316,-0.012924999929964542,-0.025437500327825546,0.0012374999932944775
0.5419500470161438,5.5320000648498535,7.929000377655029,-0.06173750013113022,-0.05362499877810478,0.0012374999932944775
0.7030500173568726,5.37000036239624,8.185050010681152,-0.0812624990940094,-0.018149999901652336,0.00976249948143959
0.4939500093460083,5.4150004386901855,7.945950508117676,-0.006737499963492155,-0.008387500420212746,-0.02694999985396862
0.4459500312805176,5.599050045013428,8.128050804138184,-0.023924998939037323,-0.008387500420212746,-0.01718750037252903
0.6240000128746033,5.305050373077393,8.203949928283691,-0.08744999766349792,-0.05486249923706055,-0.015949999913573265
0.7170000076293945,5.293050289154053,8.022000312805176,-0.11426249891519547,-0.11838749796152115,-0.04152499884366989
0.5689499974250793,5.467950344085693,7.993050575256348,-0.11426249891519547,-0.07562500238418579,-0.04647500067949295
0.5250000357627869,5.449050426483154,8.170949935913086,-0.08868750184774399,0.02461249940097332,-0.020762499421834946
0.4300500154495239,5.214000225067139,8.320950508117676,-0.05692499876022339,0.023375000804662704,-0.01347499992698431
0.6240000128746033,5.239950180053711,8.187000274658203,-0.020212499424815178,-0.0364375002682209,-0.007287499960511923
0.753000020980835,5.269050121307373,8.11305046081543,0.026262499392032623,0.013612499460577965,-0.00976249948143959
0.6589500308036804,5.233050346374512,8.239950180053711,0.07631249725818634,0.11990000307559967,-0.025712499395012856
0.5350500345230103,5.317050457000732,8.206950187683105,0.10559999942779541,0.1541374921798706,-0.02694999985396862
0.4030500054359436,5.386050224304199,8.11305046081543,0.15565000474452972,0.16871249675750732,-0.0037124999798834324
0.28395000100135803,5.389050483703613,7.924050331115723,0.1788875013589859,0.11013749986886978,0.025575000792741776
0.039000000804662704,5.170950412750244,8.094000816345215,0.1886499971151352,0.07837499678134918,0.04399999976158142
-0.036000002175569534,5.257050037384033,8.58495044708252,0.20941250026226044,0.06366249918937683,0.04152499884366989
0.38700002431869507,5.479950428009033,9.447000503540039,0.34622499346733093,0.002612499985843897,0.045237500220537186
0.7000500559806824,5.403000354766846,9.021000862121582,0.5587999820709229,-0.07919999957084656,0.037812501192092896
0.6430500149726868,5.53695011138916,8.367000579833984,0.6602749824523926,-0.03891250118613243,0.04633750021457672
0.4729500114917755,5.665950298309326,8.37405014038086,0.6675624847412109,-0.027912499383091927,0.05376249924302101
0.06105000153183937,5.90595006942749,8.785950660705566,0.6687999963760376,-0.21367499232292175,0.09033749997615814
0.28095000982284546,6.174000263214111,9.025050163269043,0.6785625219345093,-0.5568749904632568,0.14781250059604645
0.4129500091075897,5.748000144958496,8.404950141906738,0.7115625143051147,-0.7903500199317932,0.17833749949932098
0.36000001430511475,5.676000118255615,7.579050540924072,0.6847500205039978,-0.905162513256073,0.19538749754428864
1.5139501094818115,6.424950122833252,7.299000263214111,0.4684624969959259,-1.0664499998092651,0.29809999465942383
2.2540500164031982,6.306000232696533,6.693000316619873,0.4879874885082245,-0.9906874895095825,0.25286251306533813
1.858950138092041,6.370050430297852,5.515050411224365,0.4879874885082245,-0.7414000034332275,0.15757499635219574
1.8109500408172607,6.7920002937316895,5.257050037384033,0.40369999408721924,-0.43353748321533203,0.1551000028848648
1.6819500923156738,6.849000453948975,6.39900016784668,0.28888750076293945,-0.24901250004768372,0.18328750133514404
1.7299500703811646,6.41295051574707,6.565950393676758,0.20336249470710754,-0.2624875009059906,0.24433749914169312
2.0239500999450684,6.277050495147705,6.49500036239624,0.16431249678134918,-0.2576749920845032,0.2516250014305115
2.209050178527832,6.442050457000732,6.648000240325928,0.10064999759197235,-0.19043749570846558,0.16362500190734863
1.5000001192092896,6.933000564575195,7.15500020980835,0.12388750165700912,-0.12319999933242798,0.16128750145435333
2.328000068664551,6.787050247192383,5.323950290679932,0.058024998754262924,-0.19167499244213104,0.21381250023841858
2.4619500637054443,6.418050289154053,7.270050525665283,-0.2059749960899353,-0.1989624947309494,0.09404999762773514
2.7520501613616943,6.001950263977051,7.438050270080566,-0.10326249897480011,-0.27101248502731323,0.0635249987244606
2.716050148010254,6.199950218200684,7.243950366973877,0.05678749829530716,-0.11838749796152115,-0.06599999964237213
2.142000198364258,6.106950283050537,6.064050197601318,0.12031249701976776,-0.004674999974668026,-0.12347500026226044
