accX,accY,accZ,gyroX,gyroY,gyroZ
-0.5363777875900269,7.501359462738037,7.052159309387207,0.19682078063488007,-0.02082177810370922,-0.03118903376162052
-0.6312456130981445,7.570197105407715,6.662220478057861,0.24691173434257507,-0.028134707361459732,-0.005532693583518267
-0.7156268358230591,7.608447074890137,6.361920356750488,0.20858429372310638,-0.04331907257437706,0.011257373727858067
-0.6818015575408936,8.031320571899414,4.5272626876831055,-0.4284957945346832,0.23411846160888672,0.20254546403884888
0.5379196405410767,7.049027442932129,7.546753406524658,-0.19750145077705383,-0.4184426963329315,0.017592918127775192
-0.5673970580101013,7.295495986938477,7.725035190582275,0.025795966386795044,-0.3906570374965668,-0.03473205119371414
-0.573918879032135,7.444357872009277,6.544990539550781,0.06805038452148438,-0.1033933013677597,0.05253440886735916
-0.5906112194061279,7.585989475250244,6.313930988311768,0.021327923983335495,0.11505210399627686,0.13171999156475067
-0.2808302640914917,7.592913627624512,6.402918815612793,-0.05201081186532974,0.12451178580522537,0.19434240460395813
0.06155013293027878,7.6129865646362305,6.4651007652282715,-0.08477064222097397,-0.051225412636995316,0.135402649641037
0.1173158809542656,7.612928867340088,6.4578704833984375,-0.09635962545871735,-0.11582005023956299,0.08044222742319107
-0.012526462785899639,7.606378555297852,6.491408348083496,-0.09876818209886551,-0.030717793852090836,0.10904817283153534
-0.05993165448307991,7.5890350341796875,6.514268398284912,-0.10709340125322342,0.04211479425430298,0.13866640627384186
0.011568781919777393,7.587157726287842,6.576000213623047,-0.13098695874214172,0.04948008432984352,0.14100514352321625
0.04950251057744026,7.506282806396484,6.642913341522217,-0.15002849698066711,-0.0031066860537976027,0.12315043061971664
0.09251195192337036,7.441408634185791,6.5996551513671875,-0.16077972948551178,-0.09529497474431992,0.08443903177976608
0.012488155625760555,7.275930881500244,6.408262729644775,-0.26113617420196533,-0.09998991340398788,0.10430087894201279
0.15514425933361053,7.243206977844238,6.461997985839844,-0.2938610911369324,-0.057560957968235016,0.11718140542507172
0.15952086448669434,7.18802547454834,6.496283054351807,-0.3151366412639618,-0.039653878659009933,0.12245229631662369
0.33037108182907104,7.065432548522949,6.574804306030273,-0.33718016743659973,-0.03754203021526337,0.12594296038150787
0.3431178331375122,6.635864734649658,7.455697059631348,0.09239772707223892,0.2892359495162964,0.09032078832387924
0.28659552335739136,6.637474060058594,7.1209397315979,0.10639527440071106,0.29105111956596375,0.06187192350625992
0.22586898505687714,6.668943405151367,7.023007392883301,0.08590510487556458,0.28560566902160645,0.008133234456181526
0.1833958476781845,6.7100958824157715,7.066256046295166,0.06902777403593063,0.30426323413848877,-0.015568336471915245
-0.16481684148311615,6.811235427856445,7.139260292053223,0.07246606796979904,0.30773645639419556,-0.03949680179357529
-0.2645784318447113,6.818840503692627,7.174502849578857,0.11297516524791718,0.27544787526130676,-0.014154620468616486
-0.37913617491722107,6.945406436920166,7.006496906280518,0.11227703094482422,0.3067066967487335,0.02033308520913124
-0.295683890581131,7.001698970794678,6.945444583892822,0.059498272836208344,0.2114291787147522,0.02356194518506527
-0.18696799874305725,7.020689964294434,7.018113613128662,0.05982988700270653,0.1837831735610962,-0.005096361506730318
-0.3183426260948181,7.045350074768066,6.979126453399658,0.06632251292467117,0.18313740193843842,-0.015114551410079002
-0.5582990646362305,7.150896072387695,6.94761848449707,0.05647885426878929,0.1558404415845871,0.0066147977486252785
-0.4299411475658417,7.224953651428223,6.906466960906982,0.0394618958234787,0.07848745584487915,0.03052580915391445
-1.0349271297454834,7.192507266998291,6.635205268859863,0.10403907299041748,-1.005658745765686,-0.014154620468616486
-0.12651918828487396,7.511654376983643,6.339089393615723,-0.3790680468082428,0.37688639760017395,0.09002408385276794
0.19022411108016968,7.269830226898193,7.613781452178955,-0.3231651484966278,0.7357609868049622,0.13733996450901031
-0.7196012139320374,6.711291790008545,7.5544819831848145,-0.08543386310338974,0.2463008612394333,0.02413790300488472
-0.39969760179519653,7.121697425842285,7.6907501220703125,-0.030630528926849365,-0.08117526024580002,0.05014330893754959
-0.14479173719882965,7.0741376876831055,7.354987144470215,-0.013055062852799892,-0.09920451790094376,0.014940018765628338
-0.2544557452201843,7.191904067993164,7.263576507568359,-0.001117010717280209,-0.03527310490608215,0.023719023913145065
-0.1775156855583191,7.097706317901611,7.136530876159668,0.00783652812242508,-0.02802998758852482,0.07656759768724442
0.11055465042591095,7.078811168670654,7.191684722900391,0.040282197296619415,-0.006213372107595205,0.05333726108074188
-0.029448680579662323,7.028293609619141,7.07471227645874,0.05710717290639877,0.04885176569223404,0.024382250383496284
-0.1572224348783493,6.9631428718566895,6.872633457183838,0.046390850096940994,-0.0055850534699857235,0.028448866680264473
0.09042420238256454,6.918150901794434,6.930514335632324,0.019914206117391586,-0.05084143951535225,-0.011815878562629223
0.024420855566859245,6.923274517059326,6.9234466552734375,0.02370157092809677,-0.01696459949016571,-0.0388859361410141
-0.2595123052597046,6.999956130981445,6.673731803894043,-0.018413223326206207,-0.08105309307575226,-0.0636521577835083
-0.3638133108615875,7.0586724281311035,6.740874767303467,-0.07105235010385513,-0.09002408385276794,-0.04131194204092026
-0.27934587001800537,7.013976573944092,6.8523101806640625,-0.0913156270980835,-0.07693411409854889,-0.009756390936672688
-0.23015938699245453,7.01333475112915,6.90837287902832,-0.08997172117233276,-0.06948155909776688,-0.003403391921892762
-0.3150290548801422,7.008326053619385,6.894352436065674,-0.08531169593334198,-0.1146506816148758,-0.007627088576555252
-0.3027324378490448,7.023840427398682,7.002541542053223,-0.10018189996480942,-0.1598372459411621,-0.018989183008670807
-0.12467086315155029,6.965546607971191,7.269227027893066,-0.0719948336482048,-0.15543901920318604,-0.037402406334877014
-0.07173027843236923,6.9295196533203125,7.349203109741211,-0.0002617993741296232,-0.05808455869555473,-0.06731735169887543
-0.26031675934791565,6.973658084869385,7.284032821655273,0.051714107394218445,0.017069319263100624,-0.08772024512290955
-0.3942866921424866,7.029251575469971,7.220222473144531,0.07895869761705399,-0.016266468912363052,-0.0717330351471901
-0.2835021913051605,7.100100517272949,7.1364827156066895,0.08937831223011017,-0.06632251292467117,-0.057334065437316895
-0.1583046168088913,7.133858680725098,7.093214988708496,0.09641198813915253,-0.06658431142568588,-0.05780530348420143
-0.06669288128614426,7.122596740722656,7.055281162261963,0.10594148188829422,-0.04832816496491432,-0.06546729803085327
-0.5150980949401855,7.6646342277526855,6.083197116851807,0.2235243171453476,-0.09234537184238434,-0.07511897385120392
-0.4582214653491974,7.192737102508545,6.449049949645996,0.03848451003432274,0.35353389382362366,0.06667158007621765
0.04448426514863968,7.2112202644348145,6.46683406829834,-0.01647590845823288,0.0240506362169981,-0.03651228919625282
-0.21216456592082977,7.066715717315674,6.977306842803955,-0.08304276317358017,-0.21205750107765198,-0.16200146079063416
-0.31856289505958557,7.168047904968262,7.190036296844482,-0.1094321459531784,-0.11505210399627686,-0.14334389567375183
-0.6548237204551697,7.085467338562012,7.360733509063721,-0.05274384841322899,-0.015707964077591896,-0.06183701381087303
-0.4996890425682068,7.189241409301758,7.465158939361572,0.05429719388484955,0.0027925267349928617,-0.009093165397644043
-0.34647926688194275,7.17022180557251,6.425893306732178,-0.031730085611343384,0.23605577647686005,0.12735667824745178
0.009011775255203247,6.920755863189697,6.870075225830078,-0.04485496133565903,-0.016231561079621315,0.004485496319830418
-0.3263967037200928,7.022834777832031,7.4145073890686035,-0.05775294452905655,-0.0950506329536438,-0.10819295793771744
-0.4660169780254364,7.06986665725708,7.30140495300293,0.01776745170354843,-0.05314527451992035,-0.03597123548388481
-0.22234471142292023,7.169369697570801,7.155282020568848,0.08709193021059036,-0.01705186627805233,-0.004921828396618366
-0.208295539021492,7.388946533203125,6.368403911590576,0.16926203668117523,-0.03902556374669075,-0.020367993041872978
-0.39232346415519714,7.375357151031494,6.213690757751465,0.1509360671043396,0.015271631069481373,-0.004502949304878712
-0.32792899012565613,7.336302757263184,6.088991165161133,0.001745329238474369,0.18039722740650177,0.07527604699134827
0.18085798621177673,7.281657695770264,6.567199230194092,-0.09855873882770538,0.057072266936302185,0.04225442185997963
-0.4218200147151947,7.069521903991699,7.541581630706787,0.0033335788175463676,-0.021816615015268326,-0.009494591504335403
-0.3941238820552826,7.03282356262207,7.512985706329346,0.06939429044723511,-0.0036826448049396276,0.013369222171604633
-0.1958552747964859,7.14285135269165,7.0962700843811035,0.12194615602493286,-0.02342231757938862,0.028012534603476524
0.014911087229847908,7.209295272827148,6.8341145515441895,0.09295623749494553,-0.09271188825368881,0.0026354470755904913
-0.08586564660072327,7.203798294067383,6.989613056182861,0.007225662935525179,-0.1261349469423294,-0.05230751633644104
-0.32384929060935974,7.145571231842041,6.930619716644287,0.04562290757894516,-0.04239404574036598,-0.028640853241086006
-0.15308524668216705,7.326189994812012,6.586582660675049,0.0518537312746048,-0.04071853309869766,-0.029949849471449852
-0.19617129862308502,7.33056640625,6.635012626647949,0.03281218931078911,-0.04893903061747551,-0.027401668950915337
-0.15786407887935638,7.332366943359375,6.748832702636719,0.009162978269159794,-0.06705555319786072,-0.028797931969165802
-0.15290328860282898,7.288936138153076,6.837696075439453,0.0006632251315750182,-0.08112290501594543,-0.02488839440047741
-0.18372145295143127,7.224876880645752,6.8653154373168945,0.005969026125967503,-0.07333873212337494,-0.019216075539588928
-0.13781024515628815,7.197697639465332,6.926090240478516,0.032358404248952866,-0.07138396799564362,-0.014765485189855099
-0.10821790993213654,7.181943893432617,6.905231952667236,0.049096111208200455,-0.06382668763399124,-0.014608405530452728
-0.08831731230020523,7.194298267364502,6.778310298919678,0.0679631233215332,-0.04675737023353577,-0.020577432587742805
-0.4728548228740692,7.409833908081055,6.119588851928711,0.12452924251556396,0.3012438416481018,0.029600784182548523
-0.2572809159755707,7.335354804992676,6.188838958740234,0.12266173958778381,0.17701129615306854,0.07915068417787552
0.19586484134197235,7.350103378295898,6.343294620513916,-0.001483529806137085,-0.1854761391878128,-0.009826203808188438
0.15885049104690552,7.297460556030273,6.848661422729492,-0.10758209228515625,-0.09416051208972931,-0.1226966455578804
-0.40903496742248535,7.296817779541016,7.109667778015137,-0.04632103815674782,0.06199409440159798,-0.08623671531677246
-0.07427771389484406,7.428125381469727,6.562171459197998,0.08738863468170166,0.09143780171871185,-0.006597344763576984
-0.05211697891354561,7.256556987762451,6.797377586364746,-0.1186823919415474,-0.1733984649181366,-0.10100220143795013
-0.27288150787353516,7.21552038192749,7.08482551574707,-0.08098327368497849,-0.049986228346824646,-0.09066985547542572
-0.42230844497680664,7.235459327697754,7.0694355964660645,0.015376350842416286,0.07262314856052399,-0.01473057921975851
-0.2441127896308899,7.264189720153809,6.756580352783203,0.052063170820474625,0.07209955155849457,0.019914206117391586
-0.00015322890249080956,7.286398410797119,6.508589267730713,0.028780478984117508,0.030665434896945953,-0.019425515085458755
-0.2897462844848633,7.2591233253479,6.6611762046813965,-0.04801400750875473,0.030421089380979538,-0.05412266030907631
-0.35012805461883545,7.226064205169678,6.867404460906982,-0.04314453899860382,0.046129051595926285,-0.03391174599528313
-0.28198906779289246,7.203520774841309,7.0155181884765625,0.0033335788175463676,0.0866905003786087,-0.03330088034272194
-0.4002913534641266,7.177509784698486,6.97673225402832,0.08047713339328766,0.139399453997612,-0.04098033159971237
-0.7597184777259827,7.618244171142578,5.796017169952393,0.05377359315752983,0.1382300704717636,0.021694442257285118
-0.4474092423915863,7.314285755157471,6.26393985748291,-0.09485864639282227,0.28984683752059937,0.09929177910089493
-0.32053571939468384,7.093473434448242,6.65678071975708,-0.2344326227903366,-0.20408134162425995,-0.07705628871917725
-0.25137200951576233,7.412026882171631,7.1962432861328125,-0.251676470041275,-0.015620696358382702,-0.0915774255990982
-0.5037400126457214,7.291656017303467,7.312495231628418,-0.20635028183460236,0.015917403623461723,-0.07675957679748535
-0.5646581053733826,7.245629787445068,7.513761043548584,-0.07473500072956085,0.02307325229048729,-0.03122393973171711
-0.4829775094985962,7.296894550323486,7.238284587860107,0.029949849471449852,0.06461209058761597,-0.011187560856342316
-0.3804194927215576,7.3188252449035645,6.866790294647217,0.05951572582125664,0.07923794537782669,0.01523672416806221
-0.3126348555088043,7.3349432945251465,6.6297454833984375,0.017575465142726898,0.06892304867506027,0.008918632753193378
-0.39657554030418396,7.290257453918457,6.758419513702393,-0.05037020146846771,0.028989918529987335,-0.021153390407562256
-0.5462227463722229,7.222319602966309,7.09750509262085,-0.05621705576777458,-0.0119555052369833,-0.040683623403310776
-0.6225690245628357,7.202993869781494,7.183648586273193,-0.001745329238474369,-0.015428710728883743,-0.020123645663261414
-0.5260252356529236,7.24636697769165,6.625072956085205,0.040194932371377945,0.022776545956730843,-0.013386675156652927
-0.48392561078071594,7.287250518798828,6.657039165496826,0.01581268385052681,-0.015358896926045418,-0.024155355989933014
-0.5424303412437439,7.2987236976623535,6.653074264526367,0.016144296154379845,-0.025499260053038597,-0.033772122114896774
-0.8462257385253906,7.804254531860352,4.630433559417725,0.11849040538072586,-0.26576128602027893,-0.041434116661548615
-0.6344251036643982,7.221285343170166,6.0707855224609375,0.12908455729484558,-0.44739770889282227,-0.009005898609757423
-0.006512228399515152,7.391733646392822,6.443735122680664,-0.1258382350206375,0.48630109429359436,0.17446310818195343
-0.8364957571029663,6.873254776000977,6.692176342010498,-0.15362387895584106,-0.07443828880786896,-0.04070107638835907
-0.44887450337409973,7.319228649139404,7.273143768310547,-0.1921083927154541,-0.014049900695681572,0.033405601978302
-0.6147447824478149,7.039642333984375,7.483134746551514,-0.1269901543855667,0.051975905895233154,0.039531707763671875
-0.6042390465736389,7.117933750152588,7.531794548034668,-0.04057890549302101,0.04611159861087799,0.05480333790183067
-0.3816069960594177,7.049535274505615,7.2381792068481445,0.015760323032736778,-0.013194689527153969,0.06995279341936111
-0.2172115445137024,7.101614952087402,7.115212917327881,0.02356194518506527,-0.00678933085873723,0.05564109608530998
-0.22997742891311646,7.114322185516357,6.823819160461426,-0.0011693706037476659,0.004904375411570072,0.013089969754219055
-0.28198906779289246,7.140935897827148,6.758486270904541,-0.025045474991202354,-0.008325220085680485,0.0025656339712440968
-0.34174832701683044,7.162656307220459,6.87128210067749,-0.06569419056177139,-0.0270700566470623,-0.011013027280569077
-0.2651434540748596,7.144393444061279,7.157944679260254,-0.05708971992135048,-0.014451325871050358,-0.026197392493486404
-0.7548822164535522,7.797454833984375,6.206670761108398,0.12065461277961731,0.08609709143638611,-0.01731366664171219
-1.1614655256271362,7.458656311035156,5.971694469451904,0.1261523962020874,0.19516271352767944,0.05925392732024193
-0.40391138195991516,7.1915602684021,6.342594146728516,-0.04260348528623581,0.31613147258758545,0.13062043488025665
-0.5200875997543335,7.137095928192139,7.750375270843506,-0.103114053606987,-0.03577924892306328,-0.1443038284778595
-0.9551044702529907,7.011735439300537,7.660583019256592,0.09845402091741562,0.16116370260715485,-0.0030194194987416267
-0.22570617496967316,7.188265800476074,6.7503557205200195,0.20395918190479279,0.11737339198589325,0.03850196301937103
-0.20276972651481628,7.261584758758545,6.423547267913818,0.13116149604320526,0.08567821234464645,-0.035011306405067444
-0.4729505777359009,7.223085880279541,6.450974941253662,0.04459316283464432,0.06120869517326355,-0.054681167006492615
-0.5882936120033264,7.192928791046143,6.654961109161377,-0.0045378562062978745,0.03375466912984848,-0.04773475602269173
-0.6801256537437439,7.133858680725098,6.874250888824463,-0.007347836159169674,0.043476153165102005,-0.05316272750496864
-0.794750452041626,7.119991779327393,6.943385601043701,0.02750638872385025,0.05743878707289696,-0.04124213010072708
-0.8428834676742554,7.17703104019165,6.866177558898926,0.05996951460838318,0.07356562465429306,-0.023282691836357117
-0.8464651703834534,7.273306846618652,6.937534332275391,0.005742133129388094,0.03726277872920036,-0.0017278759041801095
-0.8343601226806641,7.333353519439697,6.847694396972656,0.03565707802772522,0.04270820692181587,0.012147491797804832
-0.7683663368225098,7.357649803161621,6.806648254394531,0.03698352724313736,0.05078908056020737,0.021589722484350204
-1.3041695356369019,7.504634380340576,6.0362420082092285,0.10911798477172852,-0.9293180108070374,0.0028448866214603186
-0.5692166686058044,7.445382595062256,6.046364784240723,-0.3300243020057678,0.3267081677913666,0.10183995962142944
-0.06742071360349655,7.449108123779297,7.873102188110352,-0.13407619297504425,0.691429615020752,0.049898963421583176
-0.8001421689987183,6.852952003479004,7.403332233428955,0.015777776017785072,0.27609363198280334,-0.008098327554762363
-0.621879518032074,7.076034069061279,7.548745155334473,0.08546877652406693,-0.0962025448679924,0.02258456125855446
-0.238845556974411,7.216421604156494,6.968323707580566,0.05466371029615402,0.004310963209718466,-0.045989423990249634
-0.4166964292526245,7.143349647521973,6.958334922790527,0.06276203691959381,0.03064798191189766,-0.06459463387727737
-0.49920061230659485,7.27205228805542,6.941805362701416,0.07379251718521118,0.049497537314891815,-0.05939355492591858
-0.6505428552627563,7.237719535827637,6.805920124053955,0.09061749279499054,0.025097833946347237,-0.037140607833862305
-0.608127236366272,7.242804527282715,6.7531232833862305,0.09981537610292435,0.03473205119371414,-0.03862413763999939
-0.7169675827026367,7.2556471824646,6.611903667449951,0.08648106455802917,0.06611306965351105,-0.03007202222943306
-0.7794275283813477,7.20919942855835,6.619679927825928,0.053843408823013306,0.06258750706911087,-0.00945968460291624
-0.7399232387542725,7.175814628601074,6.740280628204346,0.021031217649579048,0.0437903106212616,-0.01851794309914112
-0.7330279350280762,7.242325782775879,6.774584770202637,0.0019547687843441963,-0.0348542258143425,-0.008028514683246613
-0.76607745885849,7.2108659744262695,6.913754940032959,0.006771877408027649,-0.032096605747938156,-0.01507964450865984
-0.7500554919242859,7.18591833114624,6.996642589569092,0.04401720315217972,-0.04518657550215721,-0.0066147977486252785
-0.6716693043708801,7.230287551879883,6.895358085632324,0.07860963046550751,-0.036704275757074356,-0.008569566532969475
-1.2877548933029175,8.012598037719727,5.076473712921143,-0.033196162432432175,0.048694685101509094,0.028763025999069214
-0.4852280616760254,7.1362528800964355,6.827343463897705,-0.08724901080131531,0.06525786221027374,0.046303585171699524
-0.38757336139678955,7.380250930786133,7.131484031677246,0.020385446026921272,-0.1578824818134308,-0.09761626273393631
-0.8521251082420349,7.27689790725708,6.709136962890625,0.038327429443597794,-0.09114108979701996,-0.10042624175548553
-0.9651697278022766,7.362534046173096,6.629094123840332,0.058224182575941086,-0.12571606040000916,-0.08213519304990768
-0.94327712059021,7.377138614654541,6.4615960121154785,0.04742059484124184,-0.0976337194442749,-0.04368559271097183
-0.950747013092041,7.485145568847656,6.462160587310791,-0.033126350492239,-0.03632030263543129,-0.01869247667491436
-0.8562431335449219,7.354671478271484,6.781480312347412,-0.13138838112354279,-0.10583676397800446,0.033423054963350296
-0.7631757259368896,7.231752872467041,7.028102397918701,-0.1126086413860321,-0.08346164226531982,0.03159045800566673
-0.8181082606315613,7.2266387939453125,7.0841264724731445,-0.0578925721347332,-0.05562364310026169,0.04178318381309509
-0.8338716626167297,7.208375930786133,6.940341472625732,-0.011239920742809772,-0.006021386012434959,0.06438519805669785
-0.5543821454048157,7.226303577423096,6.6468400955200195,-0.12854349613189697,-0.12002629041671753,0.026162484660744667
-0.5652230978012085,7.21358585357666,6.757959842681885,-0.1442863643169403,-0.13528047502040863,0.013299409300088882
-0.6524965763092041,7.256633281707764,6.825648307800293,-0.1275661140680313,-0.11526153981685638,0.03808308392763138
-0.6412916779518127,7.23694372177124,6.674277305603027,-0.14559537172317505,-0.0887150838971138,0.08002334833145142
-0.6049764156341553,7.227740287780762,6.623558521270752,-0.16940166056156158,-0.1034107580780983,0.08798204362392426
-0.5029834508895874,7.202610969543457,6.679630756378174,-0.22242476046085358,-0.14709635078907013,0.07962191849946976
-0.5138722658157349,7.170844554901123,6.69480037689209,-0.2724633514881134,-0.20704840123653412,0.06473426520824432
-0.45560699701309204,7.066581726074219,7.008728504180908,-0.29914942383766174,-0.2099456489086151,0.05686282739043236
-0.48761266469955444,6.940905570983887,7.310981750488281,-0.2531774640083313,-0.17069320380687714,0.05078908056020737
-0.4782752990722656,6.952569961547852,7.42083740234375,-0.1742885857820511,-0.1123468428850174,0.05757841095328331
-0.5144851803779602,6.854493618011475,7.385834217071533,-0.09899507462978363,-0.05349434167146683,0.09224065393209457
-0.333732545375824,6.8685526847839355,7.409565448760986,-0.03635520860552788,0.006248278543353081,0.10951940715312958
-0.25089317560195923,6.842264175415039,7.359001159667969,-0.013229595497250557,0.02958333119750023,0.10751228034496307
-0.24394041299819946,6.833386421203613,7.187211036682129,0.007278022821992636,0.025272367522120476,0.09222319722175598
-0.1989389955997467,6.812930583953857,7.079797744750977,-0.004049163777381182,-0.018901916220784187,0.06668902933597565
-0.23444980382919312,6.786536693572998,7.089872360229492,-0.012060225009918213,-0.025987952947616577,0.05178391933441162
-0.22544759511947632,6.795012474060059,7.136741638183594,-0.015341443940997124,-0.0021642083302140236,0.03326597437262535
-0.2714066803455353,6.81783390045166,7.213442325592041,0.012950343079864979,0.04286528751254082,0.026982789859175682
-0.21724027395248413,6.8391804695129395,7.233620643615723,0.05969025939702988,0.09883799403905869,0.030490901321172714
-0.22195206582546234,6.900232791900635,7.095407962799072,0.08110544830560684,0.10976375639438629,0.03890338912606239
-0.30121928453445435,6.9756693840026855,6.91263484954834,0.05567600205540657,0.05696754530072212,0.025481807067990303
-0.325611412525177,7.003509044647217,6.901937484741211,-0.007871435023844242,0.0010471974965184927,0.013212142512202263
-0.3806397616863251,6.9762725830078125,7.153318881988525,-0.047630034387111664,-0.007417649496346712,0.010506882332265377
-0.43648210167884827,6.912979602813721,7.344682693481445,-0.01855284906923771,-0.019163714721798897,0.021502455696463585
-0.36817073822021484,6.938913345336914,7.322493076324463,0.03401646763086319,-0.01638864167034626,0.037367500364780426
-0.2740115821361542,6.992016792297363,6.963286399841309,0.03778637945652008,-0.008185594342648983,0.032620202749967575
-0.21682848036289215,7.009073257446289,6.94441032409668,0.010437068529427052,-0.030613074079155922,0.021013764664530754
-0.23408587276935577,6.972825050354004,7.033819675445557,0.0022165682166814804,-0.027035150676965714,0.012164944782853127
-0.2605370283126831,6.95482063293457,7.107158660888672,0.015009831637144089,0.018325956538319588,0.014119713567197323
-0.425468772649765,7.142276763916016,7.088809490203857,0.2529156506061554,-0.35819393396377563,-0.0038746309000998735
-0.5496799349784851,7.0453691482543945,7.2558674812316895,0.21497219800949097,-0.0309621412307024,0.02754129469394684
-0.26852408051490784,7.080793857574463,6.095819473266602,-0.013055062852799892,0.3540400266647339,0.103114053606987
-0.00934696290642023,7.026771068572998,6.569363594055176,-0.12854349613189697,0.06375687569379807,-0.0016231562476605177
-0.23472753167152405,6.952914714813232,7.363453388214111,-0.14613641798496246,-0.10463248938322067,-0.08607963472604752
-0.6265529990196228,6.97313117980957,7.567305088043213,-0.06934192776679993,-0.025307273492217064,-0.04452335089445114
-0.6717363595962524,7.015786647796631,7.540844440460205,0.03241076320409775,0.01788962446153164,0.021188296377658844
-0.5698965787887573,7.070297718048096,7.414737224578857,0.06859143823385239,0.03879866749048233,0.04455825686454773
-0.3453875184059143,7.094995975494385,7.034050464630127,0.0950506329536438,0.03153809905052185,0.06475171446800232
-0.26906993985176086,7.19000768661499,6.768733501434326,0.046530477702617645,-0.003281218931078911,0.03764675185084343
-0.3671364486217499,7.165358066558838,6.813620090484619,-0.01958259381353855,-0.03897320106625557,0.019861847162246704
-0.40782830119132996,7.092975616455078,7.071475505828857,-0.03375466912984848,-0.029304077848792076,0.039758600294589996
-0.25498247146606445,6.996718883514404,7.215376853942871,0.009372417815029621,0.00753982225432992,0.059725165367126465
-0.07986098527908325,6.915517330169678,7.099277019500732,0.02741912193596363,0.007731808349490166,-0.020367993041872978
-0.19432297348976135,6.932851314544678,7.033226013183594,0.04682718217372894,0.004206243436783552,-0.026319565251469612
-0.24970565736293793,7.021915435791016,6.923264980316162,0.040369465947151184,0.02410299703478813,-0.0190066359937191
-0.30595022439956665,7.09635591506958,6.947963237762451,0.0154810706153512,0.020525071769952774,-0.016859879717230797
0.2918723225593567,7.12380313873291,6.447000503540039,-0.08487536013126373,-0.1471661627292633,-0.03321361541748047
-0.1688869744539261,6.817077159881592,7.023983955383301,-0.22572343051433563,-0.22916172444820404,-0.10864674299955368
-0.45802992582321167,7.0597920417785645,7.796277046203613,-0.1693841964006424,-0.039304815232753754,-0.06466444581747055
-0.14640064537525177,7.141223430633545,6.490278244018555,-0.033196162432432175,-0.03867649659514427,-0.05017821490764618
-0.18362568318843842,7.091241836547852,7.024204254150391,-0.0849800780415535,-0.06726498901844025,-0.07824310660362244
-0.4320671856403351,7.048922061920166,7.295907974243164,-0.024958208203315735,-0.03923500329256058,-0.07641051709651947
-0.557915985584259,7.027920246124268,7.295534610748291,0.014974924735724926,-0.015027284622192383,-0.05918411538004875
-0.6142659187316895,7.0435590744018555,7.086942195892334,0.07077310234308243,0.023492131382226944,-0.01776745170354843
-0.548377513885498,7.086424827575684,6.85416841506958,0.05103342607617378,0.015184364281594753,-0.005427973810583353
-0.5597164630889893,7.073486804962158,7.063671588897705,-0.0009773843921720982,-0.007347836159169674,0.01401499379426241
-0.43889546394348145,7.076838493347168,6.815315246582031,0.0018675023457035422,0.0012740903766825795,0.020123645663261414
-0.7986865043640137,7.383057117462158,6.283074378967285,0.19799014925956726,-0.5087110996246338,-0.013857914134860039
0.3534511923789978,7.236196517944336,6.5004777908325195,-0.2626546025276184,0.37460002303123474,0.11321950703859329
-0.33430716395378113,6.569574356079102,7.186550617218018,-0.2647664546966553,-0.09925687313079834,-0.07002261281013489
-0.41622716188430786,7.06959867477417,8.018343925476074,-0.18477800488471985,-0.038117989897727966,-0.01377064734697342
-0.3782263994216919,7.105319976806641,7.1930437088012695,0.08459610491991043,0.10271262377500534,0.08623671531677246
-0.15811307728290558,7.157293319702148,6.879086971282959,0.03640756756067276,0.0351334773004055,0.0700051560997963
-0.24100033938884735,7.10646915435791,6.793508529663086,0.015515976585447788,0.024434609338641167,0.0397411473095417
-0.2590143084526062,7.07131290435791,6.885570526123047,-0.03029891662299633,-0.003455751808360219,0.03295181691646576
-0.2218179851770401,6.994976043701172,7.180393695831299,-0.03190461918711662,-0.0014486232539638877,0.02816961333155632
-0.2901197671890259,6.968658924102783,7.193378925323486,0.008866272866725922,0.0114493602886796,0.023317597806453705
-0.35764583945274353,6.979518890380859,7.110711574554443,0.03021164983510971,0.01776745170354843,0.031520646065473557
-0.32388758659362793,6.973820686340332,7.06820011138916,0.028640853241086006,0.022602014243602753,0.03652974218130112
-0.20172585546970367,6.962376594543457,7.023275375366211,0.02604031190276146,0.015463616698980331,0.031154127791523933
-0.16045938432216644,7.004658222198486,6.978523254394531,0.02214822731912136,0.0034732052590698004,0.007749261800199747
-0.194332554936409,7.000559329986572,6.9745965003967285,0.015114551410079002,-0.005410520825535059,0.0031939526088535786
-0.13678552210330963,6.9873528480529785,6.953058242797852,0.012723450548946857,0.017784904688596725,0.0036477381363511086
-0.19853676855564117,6.958890438079834,6.982449531555176,0.014590952545404434,0.0256388857960701,-0.00609119888395071
-0.18744683265686035,6.959896087646484,6.976263046264648,0.012060225009918213,0.013299409300088882,-0.013613567687571049
-0.21103450655937195,6.999256610870361,7.026167869567871,0.0028797932900488377,-0.0057072266936302185,-0.026825711131095886
-0.22754491865634918,7.011218070983887,7.1056742668151855,0.003281218931078911,-0.009267698042094707,-0.03495894372463226
-0.3014203906059265,7.003968715667725,7.127078533172607,0.01286307629197836,-0.015306537039577961,-0.03274237737059593
-0.374491423368454,7.038406848907471,7.029107570648193,0.030839968472719193,-0.01080358773469925,-0.027139870449900627
-0.3706894516944885,7.078198432922363,6.950970649719238,0.028187068179249763,-0.028239427134394646,-0.02108357660472393
-0.42218393087387085,7.3171491622924805,6.97286319732666,0.13514083623886108,0.03190461918711662,-0.0328296422958374
-0.7009552121162415,6.962740421295166,6.561845779418945,0.0797615498304367,0.2456725388765335,0.11946778744459152
0.15312355756759644,7.24069881439209,6.233121871948242,-0.04804891347885132,-0.05757841095328331,0.015219271183013916
-0.5067567229270935,7.081243991851807,7.544425964355469,-0.1278802752494812,-0.04380776360630989,-0.11253882944583893
-0.7393869161605835,6.992744445800781,7.659146785736084,0.013508847914636135,0.020891591906547546,0.0024085543118417263
-0.11247001588344574,7.162876605987549,6.85994291305542,0.09194394201040268,0.006806783843785524,0.01005309633910656
-0.22969970107078552,7.18393611907959,6.679315090179443,-0.008499753661453724,-0.03269001841545105,-0.03269001841545105
-0.4129423201084137,7.068631172180176,7.088072299957275,-0.06984807550907135,-0.061278510838747025,-0.0322536826133728
-0.4128369688987732,7.001928806304932,7.509863376617432,0.024294983595609665,-0.026337018236517906,-0.008813912980258465
-0.44958317279815674,7.036156177520752,7.416872501373291,0.06752678751945496,-0.024748768657445908,8.726646046852693e-05
-0.46527954936027527,7.096470832824707,7.03732442855835,0.0846833735704422,-0.039793506264686584,0.019477874040603638
-0.713663637638092,7.599013805389404,7.073831558227539,0.17580701410770416,0.2670179307460785,0.014905111864209175
-0.8918784260749817,7.0474772453308105,6.173190116882324,0.13042844831943512,0.2529680132865906,0.18065902590751648
0.3326120674610138,7.1314263343811035,6.174502372741699,-0.05925392732024193,-0.24876177310943604,0.03862413763999939
-0.03518518805503845,6.967347145080566,7.019330024719238,-0.2238035649061203,-0.33772119879722595,-0.13617058098316193
-0.7185764908790588,7.030783653259277,7.8584208488464355,0.1137780100107193,0.08538150787353516,0.07496189326047897
-0.258554607629776,7.109437942504883,7.103423595428467,0.20483183860778809,0.051923543214797974,0.10239847004413605
-0.09188945591449738,7.160549640655518,6.723224639892578,0.18880972266197205,0.007365289609879255,0.07470009475946426
-0.06887639313936234,7.207859992980957,6.399480819702148,0.07061602175235748,-0.04501204192638397,0.009337511844933033
-0.22797587513923645,7.186760902404785,6.651714324951172,-0.03508111834526062,-0.06543239206075668,-0.0070685832761228085
-0.31591010093688965,7.05975341796875,7.167492389678955,0.09440486133098602,-0.0077667152509093285,0.04190535470843315
-0.284479022026062,7.1053786277771,6.792169094085693,0.09897761791944504,0.006597344763576984,0.05159193277359009
-0.10908940434455872,7.125488758087158,6.611760139465332,0.057508599013090134,-0.029688050970435143,0.032358404248952866
-0.09174580872058868,7.149288177490234,6.645106315612793,0.031014500185847282,-0.04181808978319168,0.014748032204806805
-0.26108288764953613,7.14176082611084,6.80363130569458,-0.004328416660428047,-0.03520328924059868,-0.0012915435945615172
-0.35377681255340576,7.147773742675781,6.849762916564941,-0.00502654816955328,-0.03520328924059868,0.006824237294495106
-0.3198557496070862,7.168929100036621,6.9131999015808105,0.0023387412074953318,-0.03410373255610466,0.022602014243602753
-0.12330137938261032,7.117434501647949,6.9371514320373535,0.04078834503889084,-0.004660028964281082,0.03087487444281578
-0.1575959324836731,7.154956340789795,6.872727870941162,0.035761795938014984,0.0018500490114092827,0.015620696358382702
-0.1319683939218521,7.093195915222168,7.066323280334473,0.041085049510002136,-0.007888888008892536,0.0024434609804302454
0.008006210438907146,7.0365681648254395,7.0001091957092285,-0.17809340357780457,-0.10351547598838806,-0.11437142640352249
-0.4564976394176483,7.071053981781006,7.573922634124756,-0.06976080685853958,0.03787364438176155,-0.028099801391363144
0.05019204318523407,7.224177837371826,6.589407920837402,0.1057145893573761,0.03848451003432274,0.005672320257872343
-0.14365209639072418,7.289204120635986,6.317005157470703,-0.011780972592532635,-0.019320795312523842,-0.022916173562407494
-0.22335027158260345,7.218948841094971,6.733739852905273,-0.10651744157075882,-0.06204645335674286,-0.0285186804831028
-0.3763684928417206,7.2611823081970215,6.654396057128906,0.05810201168060303,0.018238689750432968,0.013980086892843246
-0.19154570996761322,7.2869343757629395,6.622964859008789,0.002146754879504442,0.008866272866725922,0.014276793226599693
-0.1454908400774002,7.2458882331848145,6.854589462280273,-0.020525071769952774,-0.0017627825727686286,-0.00563741335645318
-0.2940271198749542,7.197535037994385,6.893596172332764,0.006230825558304787,0.0005934119690209627,-0.01211258489638567
-0.32047826051712036,7.169254779815674,6.842312335968018,0.024556782096624374,0.024085544049739838,0.011920598335564137
-0.17392438650131226,7.202332973480225,6.785760879516602,0.005218534264713526,0.054017938673496246,0.034836772829294205
-0.07331044971942902,7.163642883300781,6.834047317504883,-0.006649704650044441,0.03015928901731968,0.009861109778285027
-0.15239572525024414,7.149603366851807,6.943826198577881,-0.013055062852799892,0.01310742273926735,-0.015009831637144089
-0.18397045135498047,7.132307529449463,7.02969217300415,0.023631757125258446,0.035639625042676926,-0.007103490177541971
-0.21195387840270996,7.147505760192871,6.911993026733398,0.04384266957640648,0.04092797264456749,0.007225662935525179
-0.1725165843963623,7.175671100616455,6.803104877471924,0.015830136835575104,0.009442231617867947,-0.005567600484937429
-0.15106454491615295,7.18129301071167,6.870295524597168,0.0018151424592360854,0.004380776546895504,-0.018675023689866066
-0.18655619025230408,7.183390140533447,6.932324409484863,-0.00012217304902151227,0.0009250245057046413,-0.02869321219623089
-0.3194056451320648,7.184797763824463,6.939411163330078,0.019634954631328583,-0.0007679448463022709,-0.027227135375142097
-0.35868969559669495,7.202457427978516,6.832400321960449,0.03344050794839859,0.01377064734697342,-0.004607669077813625
-0.3184000849723816,7.195858955383301,6.780694961547852,0.036686819046735764,0.0131772356107831,0.0028448866214603186
-0.19901561737060547,7.205014705657959,6.753975868225098,0.020891591906547546,0.02396337129175663,0.0015358896926045418
-0.20219510793685913,7.211900234222412,6.810028553009033,0.005550147034227848,0.029967302456498146,-0.023177972063422203
-0.31455978751182556,7.222224235534668,6.8407511711120605,0.014119713567197323,0.014468779787421227,-0.031869713217020035
-0.4077995717525482,7.235075950622559,6.8365373611450195,0.01864011585712433,0.006928957067430019,-0.02413790300488472
-0.33311963081359863,7.247257709503174,6.776873588562012,0.026145031675696373,0.038781214505434036,0.0005934119690209627
-0.3136116862297058,7.239414215087891,6.759223937988281,0.01441641990095377,0.03701843321323395,-0.007958701811730862
-0.37362951040267944,7.252592086791992,6.749129772186279,0.00205948855727911,0.02192133478820324,-0.014521139673888683
-0.41816166043281555,7.275692462921143,6.8219804763793945,-0.008168140426278114,0.00012217304902151227,-0.013055062852799892
-0.43499770760536194,7.241138458251953,6.892073154449463,0.0023561944253742695,0.007382742594927549,0.003036872949451208
-0.41066303849220276,7.283266544342041,6.805326461791992,0.0161268413066864,0.012461651116609573,0.01771509274840355
-0.6872986555099487,7.5168256759643555,6.4390997886657715,0.1515294909477234,-0.5483649969100952,-0.0009773843921720982
-0.42945271730422974,7.372953414916992,6.418346881866455,-0.09363691508769989,0.25932103395462036,0.12508775293827057
0.07303272932767868,7.5780792236328125,6.659165382385254,-0.14074334502220154,0.38351863622665405,0.10473720729351044
-0.28046634793281555,7.198867321014404,6.754665374755859,-0.09876818209886551,-0.061941735446453094,0.0033335788175463676
-0.43814846873283386,7.308664321899414,7.1278252601623535,0.03539527580142021,0.030421089380979538,0.07876671105623245
-0.15979859232902527,7.233066082000732,6.823196887969971,0.05506513640284538,-0.002460914198309183,0.10766936093568802
-0.0036966472398489714,7.236330509185791,6.774996757507324,0.04689699783921242,-0.014503685757517815,0.0910014659166336
0.06249823793768883,7.265693187713623,6.748392581939697,0.02275909297168255,0.005358160939067602,0.03577924892306328
-0.15523044764995575,7.222329616546631,6.723588466644287,0.014538592658936977,0.0074525559321045876,0.0339815616607666
-0.20645679533481598,7.184846878051758,6.741909027099609,0.004310963209718466,0.004642575979232788,0.04646066576242447
-0.02590526081621647,7.1122822761535645,6.805594444274902,0.004764748737215996,-0.009372417815029621,0.0538608618080616
0.13916057348251343,7.093502044677734,6.882458209991455,0.022340213879942894,-0.0009773843921720982,0.02436479553580284
0.11812032759189606,7.086836814880371,6.813505172729492,0.02701769582927227,0.008377579972147942,0.009599311277270317
-0.00526724336668849,7.107857704162598,6.703017711639404,0.0023561944253742695,-0.028187068179249763,-0.03230604529380798
-0.00952892191708088,7.140543460845947,6.7835869789123535,-0.008779006078839302,-0.0038397242315113544,-0.0455007329583168
-0.09922529011964798,7.1847405433654785,6.8436431884765625,0.005777040030807257,-0.013823007233440876,-0.05902703478932381
-0.20955009758472443,7.191175937652588,6.801572322845459,0.01918116770684719,-0.048432886600494385,-0.05804964900016785
-0.1752651333808899,7.283095359802246,7.260923862457275,0.05595525726675987,0.11541862040758133,-0.054908059537410736
0.08748412877321243,7.2362060546875,6.493725776672363,-0.09789551794528961,-0.23605577647686005,-0.09379399567842484
-0.30568209290504456,7.185362815856934,6.8612165451049805,-0.11451105028390884,-0.04211479425430298,-0.12908455729484558
-0.7715170979499817,7.206546783447266,7.032794952392578,-0.03862413763999939,0.07298967242240906,-0.024434609338641167
-0.49051445722579956,7.221055507659912,6.894084453582764,0.004817108623683453,0.01860520988702774,0.019024088978767395
-0.24777112901210785,7.298378944396973,6.73236083984375,-0.007155850064009428,-0.01607448235154152,-0.019949113950133324
-0.4508090019226074,7.345247745513916,6.66206693649292,-0.04159119725227356,-0.01661553420126438,-0.03314380347728729
-0.21530576050281525,7.160386562347412,6.894582271575928,0.012164944782853127,0.005218534264713526,0.04558800160884857
-0.23055203258991241,7.186176776885986,6.6925787925720215,0.011938052251935005,0.0,0.05579817667603493
-0.1986038088798523,7.2267632484436035,6.685635566711426,-0.024469515308737755,-0.03813544288277626,0.060789816081523895
-0.26225125789642334,7.089374542236328,6.906562805175781,-0.021031217649579048,-0.006946410518139601,-0.004241149872541428
-0.28275519609451294,7.160491943359375,6.8849287033081055,0.020402899011969566,-0.015830136835575104,0.01251401100307703
-0.19634369015693665,7.199296951293945,6.836546897888184,0.015254177153110504,-0.013945180922746658,0.023509584367275238
-0.17426913976669312,7.21380615234375,6.816799640655518,0.006195918656885624,-0.028099801391363144,0.009948376566171646
-0.19771316647529602,7.198827743530273,6.855212211608887,0.002548180753365159,-0.02776818908751011,0.01111774705350399
-0.5136902928352356,7.291598320007324,6.4618353843688965,0.19376645982265472,0.3737971782684326,0.03972369432449341
-0.40726327896118164,7.207657814025879,5.937399864196777,0.16697564721107483,0.09248499572277069,0.16699309647083282
0.5164867639541626,7.284712791442871,5.887964248657227,-0.0878424197435379,-0.2617993950843811,0.0014486232539638877
0.4942494034767151,7.160424709320068,6.3146491050720215,-0.18210765719413757,-0.19807741045951843,-0.11257373541593552
-0.5689005851745605,7.114686012268066,7.147620677947998,-0.16786576807498932,0.0055850534699857235,-0.1033933013677597
0.054779332131147385,7.125996112823486,6.840444564819336,0.1169545128941536,0.053302355110645294,0.07009242475032806
0.020532673224806786,7.2123026847839355,6.356576442718506,0.029618237167596817,0.03799581900238991,0.01401499379426241
-0.18315641582012177,7.209630489349365,6.606665134429932,-0.09121090918779373,-0.029513517394661903,-0.01731366664171219
-0.2445916384458542,7.147927284240723,6.908353805541992,-0.11084586381912231,-0.05935864895582199,-0.019687313586473465
-0.4165719151496887,7.148961544036865,7.257821083068848,0.042184606194496155,0.14521139860153198,0.010279988870024681
-0.3618308901786804,7.102283954620361,6.855049133300781,0.0961850956082344,0.03462733328342438,0.09382890164852142
0.004912901669740677,7.086367607116699,6.492815971374512,-0.008377579972147942,-0.14419910311698914,-0.023719023913145065
-0.036008793860673904,7.089154243469238,6.66064977645874,-0.05548401549458504,-0.11915362626314163,-0.055745817720890045
-0.3751426637172699,7.146049976348877,6.922824382781982,-0.051539573818445206,-0.02485348843038082,-0.02453932911157608
-0.34612494707107544,7.172300338745117,6.970124244689941,-8.726646046852693e-05,0.003490658476948738,0.024609142914414406
-0.07364564388990402,7.179032802581787,6.788586139678955,0.04265584796667099,-0.0005759586347267032,0.023108160123229027
-0.19440917670726776,7.2308430671691895,6.560303688049316,0.024172810837626457,0.1431519091129303,0.00015707963029854
-0.26306530833244324,7.168344974517822,6.426084995269775,-0.016667895019054413,0.08937831223011017,0.044540803879499435
-0.00979707296937704,7.19938325881958,6.634093284606934,-0.10848966240882874,-0.12925907969474792,-0.019024088978767395
-0.15710750222206116,7.05086612701416,7.149039268493652,-0.13617058098316193,-0.11276572197675705,-0.09370672702789307
-0.47242385149002075,7.106363773345947,7.40156888961792,-0.03951425477862358,0.007627088576555252,-0.027890361845493317
-0.4431379735469818,7.148942470550537,7.148788928985596,0.03701843321323395,0.034697145223617554,0.0302465558052063
-0.11797668039798737,7.2263898849487305,6.822593688964844,0.03179989755153656,0.014521139673888683,0.027872908860445023
0.0329442135989666,7.216535568237305,6.683327674865723,-0.006527531426399946,-0.027838001027703285,-0.010279988870024681
-0.048334140330553055,7.227634906768799,6.689964294433594,-0.02888519875705242,-0.04473278671503067,-0.028047440573573112
-0.27846479415893555,7.165165424346924,6.881921768188477,-0.05274384841322899,-0.03768165782094002,-0.03269001841545105
-0.3445543348789215,7.17267370223999,7.043147563934326,-0.026337018236517906,-0.01869247667491436,-0.007051130291074514
-0.28390443325042725,7.179434776306152,7.000319957733154,0.022828906774520874,0.003176499158143997,0.007592182140797377
-0.29980191588401794,7.1824517250061035,6.814386367797852,0.026720991358160973,0.0019373154500499368,0.008639379404485226
-0.2534118890762329,7.141213893890381,6.805996894836426,-0.010471975430846214,-0.021537363529205322,0.008429939858615398
-0.1558050662279129,7.114015579223633,6.883310317993164,-0.010175269097089767,-0.014992378652095795,0.009564404375851154
-0.1283387839794159,7.085629940032959,6.890081405639648,0.004747295752167702,0.004241149872541428,0.01333431527018547
-0.09300994127988815,7.083704948425293,6.821798801422119,0.008447393774986267,0.009407324716448784,0.022218041121959686
-0.11619539558887482,7.092381477355957,7.0818281173706055,0.06686356663703918,0.1696110963821411,0.02028072625398636
-0.36386117339134216,7.069025039672852,6.657728672027588,0.14194762706756592,0.2192133516073227,0.08218755573034286
0.06054456904530525,7.05855655670166,6.809645652770996,-0.222965806722641,-0.1889493465423584,-0.11796680092811584
-0.3934152126312256,7.113498687744141,7.608035087585449,-0.15084880590438843,-0.0642281174659729,-0.07904595881700516
-0.5275192260742188,7.060337543487549,7.6411614418029785,0.02312561310827732,-0.002251474652439356,0.01713913306593895
-0.18919938802719116,7.163498878479004,7.1293768882751465,0.1172163113951683,0.01904154196381569,0.03949680179357529
0.01418325025588274,7.217464447021484,6.5390625,0.08819148689508438,0.005654866807162762,0.015027284622192383
-0.7943194508552551,7.259056568145752,6.263595104217529,0.13055062294006348,0.3139323592185974,0.09711012244224548
-0.05362053960561752,7.225193977355957,5.862969875335693,-0.01855284906923771,-0.1298874020576477,0.0754505842924118
0.31128451228141785,7.218958377838135,6.018333435058594,-0.1673421710729599,-0.3140370845794678,-0.012775810435414314
0.23549367487430573,7.047696113586426,7.143330097198486,-0.2865830659866333,-0.2188991904258728,-0.14812609553337097
-0.5906208157539368,7.0604143142700195,7.841067790985107,-0.13206906616687775,0.02897246554493904,-0.06461209058761597
-0.4902941882610321,6.997293472290039,7.668245792388916,0.07473500072956085,0.04672246426343918,0.07197737693786621
0.20752939581871033,7.110309600830078,6.946708679199219,0.15393804013729095,0.052324969321489334,0.06260495632886887
0.20405301451683044,7.171026229858398,6.250532627105713,0.06873106211423874,0.04314453899860382,-0.00617846567183733
0.0004596867074724287,7.1974778175354,6.3500165939331055,-0.08395033329725266,-0.029827676713466644,-0.0440695621073246
-0.13908396661281586,7.090562343597412,7.001593589782715,-0.12079423666000366,-0.04468042775988579,-0.05408775433897972
-0.24779029190540314,7.05953311920166,7.342901229858398,-0.028902651742100716,0.0016231562476605177,-0.03424336016178131
-0.25523146986961365,7.0304388999938965,7.098482131958008,0.05314527451992035,0.027977628633379936,-0.005742133129388094
-0.18302235007286072,7.039785861968994,6.745787620544434,0.053965579718351364,0.027436574921011925,-0.00815068744122982
-0.14241668581962585,7.102084159851074,6.659548282623291,-0.002548180753365159,-0.0024958208668977022,-0.0385892279446125
-0.24319341778755188,7.097084045410156,6.81761360168457,-0.045204028487205505,-0.016947146505117416,-0.05651376023888588
-0.35010889172554016,7.1010966300964355,6.995014190673828,-0.033283427357673645,-0.019233528524637222,-0.04584980010986328
-0.38833948969841003,7.113700866699219,7.072328090667725,-0.004694935865700245,0.005410520825535059,-0.01687733456492424
-0.3359256386756897,7.147927284240723,6.948213577270508,0.012950343079864979,0.024644048884510994,0.0031241392716765404
-0.24178563058376312,7.170212268829346,6.8447160720825195,0.0034208453726023436,0.008534659631550312,-0.0004886921960860491
-0.2577884793281555,7.16616153717041,6.80794095993042,-0.01021017599850893,-0.013910274021327496,-0.010227628983557224
-0.23560859262943268,7.161190986633301,6.854263782501221,-0.01129228062927723,0.013316862285137177,-0.009197885170578957
-0.5382931232452393,7.018295764923096,6.667631149291992,0.008290314115583897,-0.06976080685853958,0.029251718893647194
-0.6140456795692444,7.231926441192627,6.7114644050598145,0.15702727437019348,-0.47884854674339294,0.01851794309914112
-0.16531483829021454,7.236464977264404,6.6795735359191895,-0.005794493015855551,0.3098657429218292,0.15650367736816406
0.13397951424121857,7.418452739715576,6.295246601104736,-0.11426670849323273,0.3157649636268616,0.04527384042739868
-0.43045830726623535,6.9008073806762695,7.044527530670166,-0.19285887479782104,-0.14737559854984283,-0.06286676228046417
-0.28973668813705444,7.219849109649658,7.650586128234863,-0.1126260980963707,-0.11999138444662094,-0.005497787147760391
-0.4296538531780243,7.087794303894043,7.510437965393066,0.023579398170113564,0.045465826988220215,0.04773475602269173
-0.33097442984580994,7.113278388977051,7.158222198486328,0.10721557587385178,0.13254030048847198,0.11620402336120605
-0.1604689657688141,7.099075794219971,6.88038969039917,0.10978121310472488,0.08719664812088013,0.1298699527978897
0.2063131332397461,7.144508361816406,6.719202518463135,0.03825761750340462,0.003298672381788492,0.06867870688438416
0.07858727127313614,7.074214458465576,6.818887233734131,-0.02768092229962349,-0.04000294581055641,-0.0003316125657875091
-0.12485282868146896,6.991710186004639,7.090418338775635,-0.01961750164628029,-0.03309144079685211,0.00518362782895565
0.03507984057068825,6.915737628936768,7.003920555114746,0.0907396674156189,0.03070034086704254,0.012130037881433964
0.016510413959622383,6.9901299476623535,6.682532787322998,0.0763406977057457,0.018971728160977364,-0.025272367522120476
-0.04897578805685043,7.061678409576416,6.686995506286621,0.03747221827507019,0.01127482671290636,-0.062168627977371216
-0.15716497600078583,7.130660057067871,7.160128116607666,0.1632755547761917,0.08168140798807144,-0.06838200241327286
-0.9777631759643555,7.204190731048584,6.408023357391357,0.3091152608394623,0.3197617828845978,0.02485348843038082
-0.3864816129207611,7.2520751953125,6.0659589767456055,0.13091714680194855,0.24778439104557037,0.13072516024112701
0.011300631798803806,7.233275890350342,6.033339977264404,0.023841196671128273,0.05359905958175659,0.09124581515789032
0.13395078480243683,7.092592239379883,6.503657341003418,-0.14529865980148315,-0.1644449234008789,-0.07218682020902634
-0.2949560582637787,7.197343349456787,7.171236991882324,-0.17734290659427643,-0.07712610065937042,-0.09377653896808624
-0.6608188152313232,7.073668479919434,7.391580104827881,-0.13411110639572144,-0.043912485241889954,-0.0553094856441021
-0.4976491630077362,7.090533256530762,7.347641944885254,-0.00062831852119416,-0.0070685832761228085,0.0247662216424942
-0.07954495400190353,7.167147636413574,6.840770244598389,0.0771959125995636,0.022427480667829514,0.029391344636678696
-0.22318747639656067,7.274944305419922,6.385460376739502,-0.09468410909175873,-0.045291293412446976,-0.05900958180427551
-0.2138788104057312,7.2231340408325195,6.953700065612793,-0.11974704265594482,-0.06497860699892044,-0.059602994471788406
-0.3106524348258972,7.15288782119751,7.276113986968994,-0.037454765290021896,0.00296705961227417,-0.04872959107160568
-0.45896846055984497,7.146059513092041,7.110328674316406,0.0457974411547184,0.03595378249883652,-0.020629791542887688
-0.700265645980835,7.379791259765625,6.378459453582764,0.13981832563877106,0.22622957825660706,0.007033676840364933
-0.4030877947807312,7.086836814880371,6.295955181121826,0.03132865950465202,0.0285186804831028,0.0682598277926445
-0.16929878294467926,7.148024082183838,6.481151580810547,-0.08854055404663086,-0.13407619297504425,-0.04504694789648056
-0.29597121477127075,7.055386543273926,6.729957103729248,-0.11103784292936325,-0.08833111077547073,-0.06478662043809891
-0.5888203382492065,7.2188720703125,7.046432018280029,-0.06630505621433258,0.06112143024802208,-0.025080380961298943
-0.6443179845809937,7.152390003204346,6.966456413269043,-0.005078908056020737,0.077178455889225,0.06204645335674286
-0.42466431856155396,7.189624786376953,6.917757987976074,0.0020769417751580477,0.06518805027008057,0.07126179337501526
-0.1771230399608612,7.200475215911865,6.786852836608887,-0.01748819835484028,0.041661009192466736,0.03401646763086319
-0.25746285915374756,7.222865581512451,6.792177677154541,-0.05108578875660896,0.011327186599373817,-0.00015707963029854
-0.3743094801902771,7.2021989822387695,6.96419620513916,-0.06255260109901428,0.0041015236638486385,-0.0029321531765162945
-0.29182443022727966,7.014943599700928,7.350735187530518,0.0524296909570694,0.06209881603717804,0.009738937020301819
-0.8396943807601929,7.086319446563721,6.6618852615356445,0.11719886213541031,0.21259856224060059,0.07995353639125824
-0.039322368800640106,7.140859603881836,6.09544563293457,-0.019512781873345375,-0.0004886921960860491,0.08602727949619293
0.1773911863565445,6.9659104347229,6.619431018829346,-0.18470819294452667,-0.17093755304813385,-0.09976302087306976
-0.4995836913585663,6.996182918548584,7.53666877746582,-0.013980086892843246,0.04616395756602287,-0.027139870449900627
-0.47504791617393494,7.034729480743408,7.340076446533203,0.05515240505337715,0.06340780854225159,0.005061454605311155
-0.09286629408597946,7.15556001663208,6.7036590576171875,0.09635962545871735,0.07904595881700516,0.02148500271141529
-0.035960908979177475,7.256442070007324,6.3337931632995605,-0.04682718217372894,0.034348078072071075,-0.042900193482637405
-0.317863792181015,7.172118186950684,6.820611000061035,-0.1241278126835823,-0.007208209950476885,-0.07004006206989288
-0.49549439549446106,7.116524696350098,7.298158645629883,-0.06517059355974197,-0.012618730776011944,-0.060964349657297134
-0.5853631496429443,7.090734481811523,7.334531307220459,-0.015132004395127296,0.01722639985382557,-0.04478514939546585
-0.6878253817558289,7.123420238494873,7.05755090713501,0.050562188029289246,0.07134906202554703,-0.0027576202992349863
-0.6446435451507568,7.145514011383057,6.716828346252441,0.02652900479733944,0.04583234712481499,0.011728612706065178
-0.5336196422576904,7.159122467041016,6.680675983428955,-0.04255112633109093,-0.009407324716448784,-0.008290314115583897
-0.6100329756736755,7.101431846618652,6.946019172668457,-0.07655014097690582,-0.023352505639195442,-0.034086279571056366
-0.6996814608573914,7.11609411239624,7.167665004730225,-0.04214970022439957,-0.0007679448463022709,-0.0213104709982872
-0.6604644656181335,7.148252964019775,7.123295783996582,0.022270401939749718,0.020315632224082947,0.0017802357906475663
-0.6785742044448853,7.236215591430664,6.814952373504639,0.04014257341623306,0.034033920615911484,0.01603957638144493
-0.6659711003303528,7.304747581481934,6.6273417472839355,-0.0031066860537976027,-0.00017453292093705386,0.027314402163028717
-0.9623349905014038,7.468099117279053,6.382127285003662,0.14299482107162476,-0.8268497586250305,-0.011815878562629223
-0.724609911441803,7.323374271392822,6.449107646942139,-0.13618804514408112,0.2065073549747467,0.14472270011901855
-0.045365333557128906,7.330154895782471,7.253942489624023,-0.21094049513339996,0.6479883790016174,0.19275416433811188
-0.7692665457725525,6.611922740936279,7.058537483215332,-0.09203121066093445,0.08229227364063263,0.04836307466030121
-0.49228614568710327,6.96657133102417,7.284569263458252,-0.0256388857960701,-0.005445427261292934,0.05496041849255562
-0.3066301941871643,7.015135288238525,6.898939609527588,0.054454270750284195,0.043650683015584946,0.11849040538072586
-0.00933738611638546,7.0262346267700195,6.562142848968506,0.028815384954214096,-0.004764748737215996,0.0895877480506897
-0.014642937108874321,7.079376220703125,6.484284400939941,-0.03825761750340462,5.2359879191499203e-05,0.04082325100898743
-0.1880405992269516,7.032172203063965,6.674746990203857,-0.08991936594247818,0.008761553093791008,0.04581489413976669
-0.18075264990329742,7.002359867095947,7.007157802581787,-0.10035642981529236,0.00518362782895565,0.04890412464737892
-0.17883728444576263,6.973102569580078,7.2010016441345215,-0.06775368005037308,-0.00954695139080286,0.03070034086704254
-0.185914546251297,6.994813442230225,7.211890697479248,-0.034033920615911484,-0.02307325229048729,0.020472712814807892
-0.18359695374965668,6.991298675537109,7.086359024047852,-0.02342231757938862,-0.03410373255610466,0.02471386268734932
-0.16200125217437744,6.998012065887451,7.053432941436768,-0.04260348528623581,-0.04726351425051689,0.02157226949930191
-0.06452852487564087,6.962271213531494,7.226744174957275,-0.04988151043653488,-0.07559020817279816,0.007853982038795948
-0.0104291420429945,6.961380481719971,7.348331451416016,-0.019879300147294998,-0.07405432313680649,-0.012985249981284142
-0.06571604311466217,6.985831260681152,7.277530193328857,0.025795966386795044,-0.061941735446453094,-0.03579670190811157
-0.23281216621398926,7.01350736618042,7.192258358001709,0.044889867305755615,-0.06382668763399124,-0.043737951666116714
-0.2758503258228302,7.021867752075195,7.075632095336914,0.04438372328877449,-0.0682772770524025,-0.03897320106625557
-0.08921752870082855,6.878321170806885,6.756810188293457,0.048921577632427216,-0.1581268310546875,-0.003490658476948738
0.008619125932455063,6.794648170471191,6.915900230407715,0.00015707963029854,-0.016982054337859154,-0.12308061867952347
-0.377412348985672,6.91030740737915,6.973380088806152,0.033457960933446884,0.010070549324154854,-0.07942993193864822
-0.21753716468811035,6.966543674468994,6.951937675476074,0.033824481070041656,-0.014451325871050358,-0.0892910435795784
-0.27334120869636536,7.003365516662598,6.921684741973877,0.02298598550260067,0.002199114765971899,-0.10644762963056564
-0.37465423345565796,7.000463485717773,6.932544708251953,0.018395770341157913,0.005672320257872343,-0.10278243571519852
-0.4980035126209259,7.0046772956848145,7.096863746643066,0.013700834475457668,0.007400196045637131,-0.09056513756513596
-0.4814930856227875,7.012290954589844,7.2052154541015625,0.02857103943824768,-0.014119713567197323,-0.07738789916038513
-0.8655900955200195,7.1544013023376465,7.232576370239258,0.17709855735301971,0.1088736355304718,-0.020350538194179535
-0.7812567353248596,7.220605373382568,7.097926616668701,0.1886700987815857,0.06834709644317627,-0.008412486873567104
-0.6409660577774048,7.2965593338012695,6.794954776763916,0.16050048172473907,0.003996803890913725,-0.021327923983335495
-1.609075903892517,8.548429489135742,3.815945625305176,0.061592668294906616,-0.09882054477930069,0.010908307507634163
0.21216456592082977,7.262571334838867,7.197678565979004,-0.07553785294294357,-0.0815068781375885,0.082955501973629
-0.6395678520202637,6.801409721374512,7.279598712921143,-0.09553932398557663,-0.2894802987575531,-0.029740409925580025
