accX,accY,accZ,gyroX,gyroY,gyroZ
0.8324543237686157,3.7725913524627686,8.875831604003906,-0.963823139667511,-0.31752774119377136,-0.5594478249549866
0.27075546979904175,3.018954038619995,8.421614646911621,-0.9909630417823792,-0.6784094572067261,-0.5209633111953735
0.06967126578092575,2.9939873218536377,8.912731170654297,-0.9731781482696533,-0.8779878616333008,-0.4709770977497101
0.06267061829566956,3.139765501022339,9.360925674438477,-0.9110967516899109,-0.8104785680770874,-0.2771059274673462
0.7545182704925537,3.4298949241638184,9.547520637512207,-0.5391845703125,-0.861878514289856,-0.1010894700884819
1.922792911529541,3.3192636966705322,8.347039222717285,-0.015289084054529667,-0.5717000365257263,-0.0161268413066864
2.3148193359375,2.8915154933929443,8.244003295898438,0.3715806007385254,0.1915673315525055,-0.024958208203315735
2.2591590881347656,2.9711849689483643,8.58961009979248,0.4679925739765167,0.5121319890022278,-0.05605997517704964
1.3776906728744507,2.702986478805542,9.00749397277832,0.40938442945480347,0.8465545177459717,-0.03234095126390457
0.35765540599823,3.218956232070923,9.971820831298828,0.10604620724916458,0.6486167311668396,0.01202531810849905
0.3289441466331482,3.004723072052002,9.8202486038208,-0.1535191535949707,-0.17402677237987518,0.08683013170957565
1.2659963369369507,2.75486421585083,9.336736679077148,-0.3885626494884491,-0.9138718247413635,0.02042035199701786
2.04650616645813,2.185637950897217,7.920353889465332,-0.6476916670799255,-0.829677164554596,-0.15425220131874084
2.6230969429016113,3.3572261333465576,9.288678169250488,-1.1209900379180908,-0.4000294506549835,-0.24544565379619598
3.4394333362579346,3.6641340255737305,10.960539817810059,-1.2875642776489258,-0.6182479858398438,-0.3128502666950226
0.8582829833030701,3.3841848373413086,10.458159446716309,-1.6274322271347046,-1.25606107711792,-0.6277600526809692
-0.39851006865501404,2.3304295539855957,8.372474670410156,-1.9730074405670166,-1.9453788995742798,-0.49043750762939453
0.2963734269142151,1.308287501335144,7.959475517272949,-2.114867925643921,-2.330538034439087,-0.210224911570549
1.9635804891586304,2.96537184715271,8.818017959594727,-1.4109939336776733,-2.07826828956604,-0.13098695874214172
2.449507713317871,1.313047170639038,6.069942474365234,-0.04251622036099434,-0.634706437587738,-0.13819517195224762
4.468605041503906,0.5675023794174194,4.51846170425415,0.9543460607528687,2.6663219928741455,0.18533651530742645
4.445993900299072,-0.7070364356040955,9.149958610534668,0.5857325196266174,3.116547107696533,0.11124728620052338
0.32884839177131653,0.04927266761660576,9.865307807922363,0.39849358797073364,1.6948543787002563,-0.2136981189250946
-0.4374493658542633,2.0585248470306396,12.170676231384277,0.3308795094490051,-0.37343063950538635,-0.18397516012191772
0.012469002045691013,2.8034088611602783,10.58881664276123,0.2997603118419647,-1.2573002576828003,0.03719296678900719
2.366093635559082,2.4109609127044678,9.074934959411621,0.5387656688690186,-0.6831218600273132,0.08367108553647995
2.219003438949585,1.3553000688552856,7.968736171722412,1.015868902206421,0.5098455548286438,-0.09428268671035767
2.418775796890259,0.9089347124099731,9.312390327453613,1.429686427116394,0.8847946524620056,-0.33862876892089844
0.8511291146278381,2.5262370109558105,8.543583869934082,1.2377525568008423,0.5105960965156555,-0.29530972242355347
2.107538938522339,4.966139316558838,8.329025268554688,0.6368532180786133,-0.0501258559525013,0.0013089969288557768
1.2140613794326782,2.3610849380493164,8.392414093017578,0.1822996437549591,-0.1788264364004135,-0.14985397458076477
2.4406778812408447,2.0973684787750244,8.07327651977539,0.23350760340690613,0.18310248851776123,-0.4162261188030243
2.866702079772949,2.9157450199127197,7.63920783996582,0.448776513338089,0.5232148170471191,-0.5054822564125061
1.7796962261199951,2.9443507194519043,6.465799808502197,0.6046518683433533,1.0209827423095703,-0.31695178151130676
-0.3701435625553131,2.323591709136963,8.19501781463623,0.5054124593734741,1.235553503036499,-0.1526813954114914
1.2419776916503906,3.5602831840515137,8.289579391479492,0.7966380715370178,0.17090263962745667,-0.2892534136772156
1.346728801727295,4.362455368041992,7.2976508140563965,0.4591437578201294,-0.13034118711948395,-0.47945940494537354
-0.026441562920808792,3.300694227218628,7.138723850250244,-0.04804891347885132,-0.10252063721418381,-0.541383683681488
-1.0064553022384644,3.3527824878692627,8.543909072875977,-0.3726626932621002,0.19577358663082123,-0.4282863438129425
-0.8312572240829468,4.226034164428711,9.742724418640137,-0.3434109687805176,0.2194577008485794,-0.12808971107006073
0.1445906162261963,3.9520797729492188,10.389829635620117,-0.016632987186312675,-0.1380031853914261,0.0694117471575737
0.7893682718276978,3.237381935119629,9.659128189086914,0.36561158299446106,-0.6849544644355774,0.02883283980190754
0.3533841669559479,2.7293035984039307,8.106191635131836,0.41955968737602234,-0.5479112267494202,-0.054855696856975555
0.8800318837165833,3.431063175201416,8.484285354614258,0.2551845908164978,-0.2246587872505188,-0.12955579161643982
0.7829326391220093,4.108852386474609,8.425483703613281,0.1693667471408844,-0.3825412690639496,-0.17144368588924408
0.36841973662376404,4.302265167236328,8.574662208557129,0.11269591003656387,-0.29708993434906006,-0.053564153611660004
0.883613646030426,3.8675167560577393,8.7060546875,0.14652039110660553,-0.31213468313217163,-0.007627088576555252
1.0895532369613647,3.689934015274048,8.181025505065918,0.23202407360076904,-0.12274900823831558,-0.06489133834838867
1.0172866582870483,4.1201910972595215,8.084538459777832,0.2542944848537445,0.11850785464048386,-0.07927285134792328
0.5675981640815735,4.071742057800293,7.949314117431641,0.20174260437488556,0.24843016266822815,-0.03256784379482269
0.44933417439460754,3.9801015853881836,8.625455856323242,0.1840798705816269,0.3171263337135315,0.031171580776572227
0.7717661261558533,3.68925404548645,9.339282035827637,0.27234116196632385,0.12796753644943237,0.012897983193397522
0.5497182607650757,4.338599681854248,8.676252365112305,0.0,-0.08313003182411194,-0.10576695203781128
0.2972736358642578,4.446807861328125,8.740991592407227,0.1313185691833496,-0.19074703752994537,-0.07721336930990219
0.40401673316955566,4.6075358390808105,8.18780517578125,0.24785420298576355,-0.17924530804157257,-0.004450589418411255
0.6205291748046875,4.637875080108643,7.710555076599121,0.25504496693611145,-0.045029494911432266,0.01771509274840355
0.6990206837654114,4.618175506591797,7.8997063636779785,0.2192308008670807,0.05400048568844795,0.027349309995770454
0.611594021320343,4.577004909515381,8.23589038848877,0.1578126698732376,-0.051399946212768555,0.027663469314575195
0.5895482301712036,4.549011707305908,8.284712791442871,0.08421213924884796,-0.24214698374271393,-0.0091455252841115
0.9452307820320129,4.433572769165039,8.01921558380127,0.012566370889544487,0.1310742199420929,0.03677408769726753
0.7841010093688965,4.500141143798828,7.877344608306885,-0.03159045800566673,0.19708257913589478,-0.04253367334604263
0.6162100434303284,4.410607814788818,8.354700088500977,-0.05815437063574791,0.16166985034942627,-0.04815363511443138
0.5060096979141235,4.5779242515563965,8.314373016357422,-0.00205948855727911,0.09751154482364655,-0.013700834475457668
0.5451788306236267,4.592423439025879,8.4388427734375,0.02082177810370922,0.11159635335206985,0.034121185541152954
0.7567975521087646,4.412973403930664,8.285392761230469,0.010925761424005032,0.056461401283741,0.005742133129388094
0.8077078461647034,4.566757678985596,8.252517700195312,-0.037751469761133194,0.15889477729797363,0.020036378875374794
0.5718502402305603,4.381992340087891,8.135717391967773,0.10655234754085541,0.38460075855255127,-0.10990338027477264
0.13187262415885925,4.486820220947266,8.804474830627441,0.07442083954811096,0.16741198301315308,-0.14742796123027802
-0.0713280513882637,4.588544845581055,8.561808586120605,0.10550515353679657,-0.1333256959915161,-0.09747663885354996
0.42570820450782776,4.772065162658691,7.913621425628662,0.07323401421308517,-0.16659167408943176,-0.0639488622546196
0.3517656624317169,4.638363361358643,8.2526216506958,-0.026860617101192474,-0.22790509462356567,-0.05834635719656944
0.507264256477356,4.775129795074463,8.450114250183105,0.028134707361459732,-0.16568410396575928,-0.07044149190187454
0.3160537779331207,4.570923328399658,8.371086120605469,0.09393361955881119,-0.220016211271286,-0.0512777715921402
0.4461355209350586,4.58608341217041,7.91399621963501,0.07946483790874481,-0.3171612322330475,-0.05112069472670555
0.6424313187599182,4.713119983673096,7.734621524810791,0.010332348756492138,-0.26923447847366333,-0.06291911751031876
0.654354453086853,4.646427154541016,7.894247531890869,-0.029129544273018837,-0.1437278687953949,-0.09349729120731354
0.5738422274589539,4.546560287475586,8.318538665771484,-0.005672320257872343,-0.11943288147449493,-0.1143539696931839
0.5117174983024597,4.561921119689941,8.15877914428711,0.012967796064913273,-0.1558229923248291,-0.11622147262096405
0.7219188213348389,4.677379131317139,7.743183135986328,0.002478367416188121,-0.16372933983802795,-0.12514010071754456
0.7632139921188354,4.964108943939209,7.063948154449463,-0.06236061453819275,0.13360495865345,-0.12596040964126587
0.26948174834251404,4.757479667663574,7.638155460357666,-0.10114183276891708,0.18329447507858276,-0.0596204474568367
0.1399650275707245,4.733030319213867,7.756706714630127,-0.10862929373979568,0.12288863211870193,-0.022444933652877808
0.06423164159059525,5.046747207641602,8.433088302612305,-0.09512044489383698,0.07094763219356537,0.0601964071393013
0.1848132163286209,4.72421932220459,8.805384635925293,-0.03314380347728729,-0.03618067502975464,0.12157963216304779
0.3805152475833893,4.71606969833374,8.845770835876465,0.03007202222943306,-0.09379399567842484,0.12479104101657867
0.4281981587409973,4.700488090515137,8.242393493652344,0.21844540536403656,-0.06262241303920746,0.15919147431850433
0.6976607441902161,4.582233905792236,8.384369850158691,0.43071234226226807,0.4755324125289917,0.27984610199928284
0.9061669707298279,4.198098659515381,8.487013816833496,0.39364156126976013,-0.12287117540836334,0.04124213010072708
-0.22848345339298248,5.4693427085876465,6.200283050537109,0.2381676286458969,-0.2232101559638977,0.19109609723091125
0.8349730372428894,4.804396629333496,7.7687530517578125,0.12229522317647934,-0.9180606603622437,-0.14032447338104248
1.20260751247406,4.756847858428955,7.590346813201904,0.007941247895359993,-0.7627089023590088,-0.22109830379486084
1.1098943948745728,5.051104545593262,8.325203895568848,-0.011170106939971447,-0.7566525936126709,-0.28010788559913635
0.7443476915359497,5.4344162940979,8.465216636657715,-0.03410373255610466,-1.0177538394927979,-0.2177298218011856
1.8507177829742432,5.366037845611572,7.467620372772217,-0.1566607505083084,-1.0264281034469604,-0.12650147080421448
2.2709097862243652,3.9149601459503174,7.392087936401367,-0.15589280426502228,-0.2528458535671234,-0.27429595589637756
1.9197282791137695,4.118074417114258,9.257381439208984,0.08789478242397308,0.041399210691452026,-0.5453281402587891
1.6105890274047852,5.068716526031494,10.29443645477295,0.35758304595947266,-0.6158044934272766,-0.4753055274486542
1.8336328268051147,5.553321838378906,7.781222343444824,0.4127703607082367,-1.1592825651168823,-0.24849997460842133
1.2477620840072632,4.799588680267334,5.979307651519775,0.23527038097381592,-0.6252816319465637,-0.3174055814743042
1.3818278312683105,5.478164196014404,7.468903541564941,0.34522613883018494,-0.3272143304347992,-0.179751455783844
1.8405568599700928,6.018946170806885,7.19186544418335,0.20544271171092987,-0.3799232840538025,-0.05738642439246178
1.8882014751434326,5.17104434967041,8.015777587890625,-0.10623819380998611,-0.12388347089290619,-0.20224875211715698
1.7035415172576904,5.366928577423096,8.521184921264648,-0.08215264976024628,-0.47390925884246826,-0.2321811467409134
1.6959565877914429,5.637521266937256,8.443601608276367,-0.0302465558052063,-0.8355589509010315,-0.11845549941062927
1.657802700996399,5.480825424194336,7.421718597412109,0.08347909897565842,-0.8195542693138123,-0.11044443398714066
2.3068132400512695,5.34943151473999,7.957560062408447,0.16404350101947784,0.1042659655213356,0.03520328924059868
1.7712111473083496,5.365242958068848,7.241061687469482,0.2373124212026596,0.10510372370481491,0.054593898355960846
2.7329907417297363,5.312206745147705,5.162530899047852,0.30634018778800964,0.7557101249694824,-0.011397000402212143
2.533141851425171,5.732341289520264,5.301394462585449,0.14669492840766907,1.3226454257965088,-0.10730284452438354
1.8941487073898315,5.595756530761719,7.78527307510376,-0.11794935166835785,1.215098261833191,-0.12978267669677734
0.988843560218811,5.35954475402832,7.9315972328186035,0.06316346675157547,-0.0915948823094368,-0.15599752962589264
0.8819855451583862,5.40454626083374,7.726998329162598,0.10882128030061722,-0.06405358016490936,-0.18359118700027466
0.7376152276992798,5.607143402099609,7.4957661628723145,0.09025097638368607,-0.11704178154468536,-0.23438026010990143
0.4770015776157379,5.958277225494385,7.6794114112854,0.07829546928405762,-0.16657422482967377,-0.15577062964439392
0.854720413684845,5.852874755859375,7.40658712387085,0.14130185544490814,-0.5293059945106506,-0.007801621686667204
0.9212600588798523,5.876510143280029,7.015987396240234,0.1557880938053131,-0.49235737323760986,0.03190461918711662
1.1439974308013916,5.869298934936523,7.192296504974365,0.18540632724761963,-0.24092525243759155,0.076602503657341
1.1672019958496094,5.600679397583008,7.209783554077148,0.2096489518880844,-0.20439550280570984,0.10758209228515625
1.4809094667434692,5.49966287612915,6.7629876136779785,0.15015067160129547,-0.023404864594340324,0.07157595455646515
1.1467076539993286,5.720264911651611,7.480539321899414,-0.062343161553144455,-0.08925613760948181,0.022427480667829514
1.3880336284637451,5.6296586990356445,6.721146583557129,-0.11852531135082245,-0.03591887652873993,0.07655014097690582
1.7193719148635864,5.6194305419921875,5.849704742431641,-0.180851012468338,0.15648621320724487,0.06314601004123688
1.836668610572815,5.945204734802246,5.870477199554443,-0.3706381320953369,0.9601405262947083,0.08744099736213684
0.5805747509002686,5.219292640686035,9.069254875183105,0.1454208344221115,0.7564082145690918,0.16053538024425507
0.751549482345581,5.104236602783203,8.776424407958984,0.1860695481300354,0.4633849263191223,0.1281769871711731
0.7195342183113098,5.176713943481445,7.504012107849121,0.07956956326961517,0.1589645892381668,0.01441641990095377
0.5034143924713135,5.676105976104736,6.912720680236816,-0.1918640434741974,0.19572122395038605,-0.029164452105760574
0.7811513543128967,5.324713706970215,7.860173225402832,0.11784463375806808,0.05611233413219452,-0.1835039108991623
0.37761348485946655,5.496991157531738,7.798498630523682,0.17154841125011444,0.09290387481451035,-0.19134044647216797
0.028835764154791832,5.6868896484375,8.159524917602539,-0.09595820307731628,-0.16147786378860474,-0.09840166568756104
0.2446586787700653,5.635634422302246,7.179588317871094,0.06838200241327286,-0.09730210900306702,-0.0725707933306694
0.05353434756398201,5.6988701820373535,7.305992603302002,-0.048345621675252914,-0.06520549952983856,0.005410520825535059
0.05701072886586189,5.729640483856201,7.134500503540039,-0.08688248693943024,0.06689847260713577,0.05066690966486931
0.06401137262582779,5.610811233520508,7.636028289794922,-0.07621853053569794,0.18500490486621857,0.07925540208816528
-0.016194378957152367,5.497843265533447,8.182241439819336,0.002007128670811653,0.04951499029994011,0.06040584668517113
0.44848185777664185,5.599654674530029,7.0945940017700195,0.21704915165901184,-0.011030481196939945,0.03153809905052185
0.3306584060192108,5.581881046295166,8.118066787719727,0.29890507459640503,0.330722451210022,-0.0455007329583168
-0.20072028040885925,5.787064075469971,8.545232772827148,0.09944885969161987,-0.00905825849622488,-0.04178318381309509
-0.0816422775387764,5.811819076538086,7.591505527496338,-0.14500194787979126,-0.3527834117412567,-0.03968878835439682
0.1732444316148758,5.697663307189941,6.498408794403076,-0.2790955901145935,-0.25921630859375,-0.03378957509994507
0.39999446272850037,5.929422378540039,6.99777364730835,-0.2390577495098114,0.17990854382514954,-0.05599016323685646
-0.09299079328775406,5.892733573913574,8.50214672088623,-0.028274333104491234,0.1904154270887375,-0.0040317103266716
-0.004424484446644783,5.540278434753418,8.29661750793457,0.17908823490142822,0.00724311638623476,0.00094247778179124
0.09374735504388809,5.4469523429870605,7.818676948547363,0.22944098711013794,-0.012304571457207203,-0.0309621412307024
0.10273998230695724,5.624841690063477,7.384809494018555,0.21930061280727386,0.010227628983557224,-0.08918632566928864
-0.02261083945631981,5.83540678024292,6.991730690002441,0.10733775049448013,-0.01820378378033638,-0.07417649030685425
0.1437382847070694,5.7850422859191895,7.0929083824157715,0.03272492438554764,0.016057029366493225,-0.0411897711455822
0.37094801664352417,5.7119903564453125,6.382213592529297,0.15512485802173615,0.21842795610427856,-0.049323003739118576
-0.21474072337150574,5.607651233673096,7.737427711486816,0.1653699427843094,0.30052822828292847,-0.056740652769804
-0.39106887578964233,5.6060709953308105,8.269898414611816,-0.030857421457767487,-0.07679449021816254,-0.058887407183647156
-0.3957136273384094,6.052168369293213,7.4355854988098145,-0.2678033113479614,-0.42441171407699585,-0.0362853966653347
0.20231960713863373,5.8494462966918945,6.679774761199951,-0.42641884088516235,0.07497934252023697,0.06644468754529953
0.1599709689617157,5.961322784423828,7.350390434265137,-0.29995229840278625,0.43193408846855164,0.1529432088136673
-0.6932937502861023,5.718215465545654,8.412812232971191,-0.14856243133544922,0.19685567915439606,0.3171263337135315
-2.3115155696868896,5.023283958435059,8.059391021728516,-0.05993460491299629,-0.26864108443260193,0.8609185814857483
1.2802945375442505,5.576105117797852,7.201022148132324,0.5814040899276733,-0.09608037769794464,1.0180505514144897
1.3933870792388916,5.915306091308594,6.761847972869873,0.6328738331794739,0.3470238149166107,0.6737145185470581
0.6017394661903381,5.966819763183594,6.422464847564697,0.31037190556526184,0.5844060182571411,0.3792774975299835
0.14864161610603333,5.708169460296631,6.510859966278076,-0.2974913716316223,0.42874014377593994,0.16861626505851746
1.8965141773223877,5.289327621459961,7.1358795166015625,-0.7429342865943909,-1.1847469806671143,-0.2278527319431305
1.4626177549362183,5.214073181152344,8.057522773742676,-0.1483180820941925,-0.8044920563697815,-0.01713913306593895
1.947817087173462,4.557544708251953,9.08456802368164,0.05804964900016785,-0.8473922610282898,0.04016002640128136
4.597240447998047,3.8515233993530273,6.4329705238342285,0.3072652220726013,-0.3320488929748535,-0.3462035059928894
3.3292906284332275,4.507841110229492,6.295783042907715,0.014294246211647987,-0.3021514117717743,-0.4015653431415558
4.0016303062438965,4.943853855133057,6.556540012359619,-0.2408205270767212,-0.2660754323005676,-0.34578463435173035
3.179863691329956,4.5173797607421875,7.052725315093994,-0.3258180618286133,-0.08145451545715332,-0.29939377307891846
3.1078076362609863,4.695220947265625,7.247219562530518,-0.19408060610294342,0.1034107580780983,-0.2664245069026947
3.2466235160827637,4.547852993011475,7.747511863708496,0.03476695716381073,0.3667111396789551,-0.18420204520225525
3.6267077922821045,4.269608497619629,7.482569694519043,0.027471482753753662,0.1886351853609085,-0.21310469508171082
2.9407691955566406,4.547182559967041,7.415943622589111,-0.17044885456562042,0.01516691129654646,-0.26139795780181885
2.5426230430603027,5.113813400268555,8.371728897094727,-0.014678219333291054,0.023684117943048477,-0.03672172874212265
3.114626407623291,4.558013916015625,8.740310668945312,0.12388347089290619,-0.19334757328033447,0.06241297349333763
3.51544451713562,4.454392910003662,8.416547775268555,0.15280357003211975,-0.34379494190216064,0.057910025119781494
3.0114266872406006,4.721949577331543,7.2900567054748535,0.09644689410924911,-0.5121319890022278,0.09032078832387924
3.4146294593811035,5.016570568084717,7.340344429016113,0.021362829953432083,-0.47198939323425293,0.15634658932685852
4.074586391448975,4.44789981842041,7.6116743087768555,-0.14880676567554474,0.3865904211997986,-0.03127630054950714
3.9203615188598633,4.682905197143555,8.276113510131836,-0.01111774705350399,0.3891560733318329,-0.02900737151503563
3.9249391555786133,4.894887924194336,7.780350685119629,0.04735078290104866,0.39987239241600037,0.007470009382814169
3.9017441272735596,4.913849830627441,8.108538627624512,0.006213372107595205,0.3522947132587433,0.04153883457183838
3.4995949268341064,4.096086502075195,7.519583702087402,0.029653143137693405,0.25705209374427795,-0.006667157635092735
3.203786611557007,4.634456157684326,7.12309455871582,0.05482079088687897,0.4819203019142151,-0.03335324302315712
3.3570823669433594,5.330096244812012,6.9869794845581055,0.09634217619895935,0.8147022128105164,-0.022794000804424286
2.8627755641937256,5.430183410644531,6.4653401374816895,0.11754792183637619,1.139804720878601,0.03867649659514427
3.110881805419922,5.633718967437744,8.757414817810059,0.24815091490745544,1.2922418117523193,0.23088960349559784
2.764354705810547,3.748792886734009,9.446542739868164,0.5404760837554932,1.0374411344528198,0.09471901506185532
2.66314697265625,4.863437652587891,10.121871948242188,0.7342076301574707,0.5428323149681091,-0.056094881147146225
2.2519476413726807,5.837522983551025,8.915604591369629,0.7625343203544617,0.09416051208972931,0.13439035415649414
3.5485994815826416,5.213517665863037,7.687178134918213,0.5521697998046875,-0.055867988616228104,0.19561649858951569
3.058563709259033,5.0770673751831055,6.357429027557373,0.13267992436885834,0.6875724792480469,0.175719752907753
3.038299322128296,5.590604305267334,7.29954719543457,-0.1120326817035675,0.919439435005188,0.1901187151670456
2.6158759593963623,5.807586193084717,6.117194652557373,0.07562511414289474,1.3414949178695679,0.35212016105651855
2.37970232963562,3.865227699279785,7.313433647155762,0.3785444498062134,1.306658148765564,0.45980697870254517
2.3028483390808105,5.689302921295166,8.857665061950684,0.7390771508216858,1.1980812549591064,0.04756022244691849
1.9671143293380737,5.4252705574035645,9.233726501464844,0.5325174331665039,-0.0385892279446125,0.21378538012504578
1.9963427782058716,4.254400253295898,7.358367919921875,-0.004188789986073971,-0.5660277009010315,0.2151816487312317
2.273399829864502,4.424724102020264,5.524294376373291,-0.19275416433811188,-0.3419274389743805,-0.07679449021816254
2.977917432785034,5.803707599639893,5.943768501281738,-0.20572195947170258,0.4141840934753418,-0.076602503657341
2.5433030128479004,5.427549839019775,7.6139726638793945,-0.1339191198348999,0.5327268242835999,0.012042772024869919
1.6068731546401978,4.609835147857666,7.437970161437988,-0.28410470485687256,0.18786723911762238,0.08103563636541367
1.7811328172683716,4.518002033233643,6.738231182098389,-0.5593082308769226,0.08360127359628677,-0.02015855349600315
1.9989476203918457,5.2520833015441895,8.0814847946167,-0.4783772826194763,0.33569663763046265,-0.09665632992982864
2.036412000656128,4.738268852233887,9.271221160888672,-0.05567600205540657,0.1748296320438385,-0.14741051197052002
1.1378682851791382,5.40187406539917,6.838222980499268,0.0184306763112545,0.1710946261882782,-0.330006867647171
0.8986779451370239,5.535566329956055,6.890809059143066,-0.16894787549972534,0.10189232230186462,-0.2943148612976074
1.1377724409103394,5.649233818054199,7.554203987121582,-0.4119326174259186,-0.02802998758852482,-0.2563888728618622
1.0473099946975708,5.487021446228027,7.434829235076904,-0.3519980013370514,-0.0031590459402650595,-0.2267182618379593
1.1161097288131714,5.640078067779541,7.491389751434326,-0.27897343039512634,0.07880161702632904,-0.18624408543109894
1.3739652633666992,5.5986104011535645,7.881146430969238,-0.1642180234193802,0.16854643821716309,-0.10152580589056015
1.378859043121338,5.289921283721924,8.02135181427002,-0.08199556916952133,0.11341149359941483,-0.08747590333223343
1.1480004787445068,5.398943901062012,8.02962589263916,-0.08175121992826462,-0.03879866749048233,-0.05993460491299629
1.392822027206421,5.107607841491699,7.833789348602295,-0.08014551550149918,-0.07063347101211548,-0.04141666367650032
1.628928542137146,5.133187294006348,7.790914058685303,-0.020088739693164825,0.017348572611808777,-0.06147049739956856
1.4154711961746216,5.036231994628906,7.936586856842041,0.018081611022353172,0.01776745170354843,-0.058573249727487564
1.4938669204711914,5.174319744110107,7.703678607940674,0.04675737023353577,-0.034924037754535675,-0.04295255243778229
1.7018847465515137,5.188455104827881,7.5934977531433105,0.015254177153110504,-0.03595378249883652,-0.03525565192103386
1.6851348876953125,4.95336389541626,7.7289042472839355,-0.044052109122276306,-0.08765043318271637,-0.047682393342256546
1.679360032081604,4.424771785736084,7.708342552185059,-0.12550662457942963,0.028064893558621407,-0.2151292860507965
1.2952343225479126,5.006112575531006,7.798069000244141,-0.0789063349366188,0.06469935178756714,-0.30545008182525635
0.7281054258346558,5.695279121398926,7.051354885101318,-0.046966809779405594,0.27831020951271057,-0.03174753859639168
1.1981351375579834,5.737608432769775,6.533814430236816,-0.0645248219370842,0.3893829584121704,0.053930673748254776
1.2566206455230713,5.224349021911621,7.979950428009033,-0.2310117781162262,0.8161857724189758,0.32300809025764465
1.1849573850631714,4.215202808380127,8.67497730255127,-0.06721262633800507,0.8137772083282471,0.22680553793907166
0.7876157164573669,4.1517181396484375,8.019857406616211,0.08913396298885345,0.7368431091308594,0.07302457839250565
1.5280369520187378,4.760716438293457,8.124464988708496,0.0910189226269722,0.7929030656814575,0.03331833705306053
0.9623157978057861,5.019893646240234,7.877518177032471,0.01342158205807209,0.8839743733406067,-0.1094495952129364
0.2610541582107544,4.636898040771484,8.12028980255127,-0.1414065808057785,0.8982511758804321,-0.07250097393989563
0.3821241557598114,4.452516078948975,8.729364395141602,-0.24678955972194672,0.4646415412425995,-0.15084880590438843
0.6769174337387085,4.713991641998291,8.423088073730469,-0.2848551869392395,0.17231635749340057,-0.2698453664779663
0.3374866545200348,4.9380598068237305,8.119513511657715,-0.2315877377986908,0.27000242471694946,-0.3033033311367035
-0.16227898001670837,5.219254016876221,8.085515975952148,-0.16091935336589813,0.3650006949901581,-0.176854208111763
-0.22468145191669464,5.183082580566406,8.305170059204102,-0.059952057898044586,0.4917290508747101,-0.12093386054039001
-0.6007530689239502,4.684256553649902,7.94395112991333,0.03579670190811157,0.49302059412002563,-0.02267182618379593
-0.10367850959300995,4.841190338134766,8.436870574951172,0.05057964101433754,0.4263315796852112,-0.032218776643276215
-0.23216094076633453,4.526966094970703,8.45671272277832,0.022916173562407494,0.02099631167948246,-0.1872214674949646
-0.3278811275959015,4.902960777282715,8.00526237487793,-0.03874630853533745,-0.17350317537784576,-0.27431339025497437
-0.6163249611854553,5.2803635597229,8.041214942932129,-0.11597713083028793,-0.24205970764160156,-0.23924973607063293
-0.6122452616691589,5.456289768218994,7.973179817199707,-0.1751088798046112,-0.3647040128707886,-0.12753120064735413
-0.248805433511734,5.064004421234131,7.698401927947998,-0.13836970925331116,-0.24843016266822815,-0.057334065437316895
-0.11039184778928757,5.148931503295898,7.70947265625,-0.0033684854861348867,-0.09192649275064468,-0.009564404375851154
-0.0968119353055954,5.106899261474609,7.735128879547119,0.08021533489227295,0.03778637945652008,0.011972958222031593
-0.08954314142465591,4.892464637756348,7.816617965698242,0.14365805685520172,-0.11049679666757584,0.005916666239500046
-0.10830410569906235,4.5107622146606445,8.169120788574219,0.14823080599308014,0.006911503616720438,0.008621926419436932
-0.10277828574180603,4.776642799377441,8.345784187316895,0.0682598277926445,0.10128145664930344,-0.03179989755153656
-0.1509687751531601,5.04896879196167,8.060242652893066,-0.09136798232793808,0.08162904530763626,-0.08222246170043945
-0.02194046415388584,4.988165855407715,7.554586887359619,-0.10911798477172852,-0.12564624845981598,-0.06517059355974197
-0.31076738238334656,5.102350234985352,8.345373153686523,-0.04508185386657715,-0.049497537314891815,0.030316369608044624
-0.3144257068634033,4.774555206298828,9.05274486541748,-0.07513642311096191,-0.1938711702823639,0.07616616785526276
0.19319291412830353,4.768272876739502,7.769097805023193,-0.004153883550316095,-0.04995132237672806,0.1552470326423645
0.09599790722131729,4.6283650398254395,7.911045551300049,-0.040735986083745956,-0.06187192350625992,0.14378021657466888
0.5858898758888245,4.76033353805542,7.42690896987915,0.13751448690891266,-0.1780235767364502,0.12313298135995865
0.5862537622451782,4.597882270812988,7.67409610748291,0.20929987728595734,0.16194909811019897,0.13953907787799835
0.4689379036426544,4.976070404052734,7.935849189758301,-0.24410174787044525,0.5309116840362549,0.08651597052812576
0.051149722188711166,4.638679504394531,8.98775577545166,-0.22568853199481964,0.4856378734111786,0.027227135375142097
-0.0219213105738163,4.4032721519470215,9.91872787475586,-0.10948450118303299,0.1474628746509552,-0.026982789859175682
-0.11945150792598724,4.429100513458252,9.468358993530273,0.09599310904741287,-0.22390829026699066,-0.1051386371254921
0.030186094343662262,4.754903316497803,8.095064163208008,0.24560272693634033,-0.21734584867954254,-0.12435470521450043
0.028730418533086777,5.141155242919922,7.517764091491699,0.23860396444797516,0.019146261736750603,-0.09381144493818283
-0.14996321499347687,5.098078727722168,7.798939228057861,0.09775589406490326,0.08574802428483963,-0.041695915162563324
-0.2761472165584564,4.938117504119873,7.9160542488098145,-0.06860889494419098,0.0829380452632904,-0.017645278945565224
-0.3022057116031647,4.803707122802734,8.051682472229004,-0.01492256484925747,0.06379178166389465,0.009581857360899448
-0.23316650092601776,4.84365177154541,8.029166221618652,0.008290314115583897,0.07911577820777893,0.014556045643985271
-0.09675447642803192,4.711319446563721,7.937285900115967,0.13439035415649414,-0.13611823320388794,0.032759830355644226
0.03646847978234291,4.7152557373046875,7.9973039627075195,0.18099063634872437,0.037088245153427124,0.04968952387571335
-0.10081504285335541,4.730271816253662,7.960212707519531,0.1650208830833435,0.19027578830718994,0.018343409523367882
-0.13203543424606323,4.914999008178711,8.067712783813477,-0.006195918656885624,0.18107791244983673,0.022287854924798012
-0.02073378674685955,4.911924839019775,8.147583961486816,-0.1120501384139061,-0.19219565391540527,0.0036128314677625895
-0.2450704723596573,4.951908111572266,8.311270713806152,-0.09955357760190964,-0.09182177484035492,0.01310742273926735
0.07491935789585114,4.865161418914795,8.220012664794922,-0.058625608682632446,-0.130742609500885,0.02617993950843811
0.21860018372535706,4.738776206970215,8.271507263183594,0.06721262633800507,-0.033510319888591766,0.02546435408294201
-0.006090848706662655,4.782408237457275,8.088350296020508,0.23809781670570374,-0.02687807008624077,0.051801372319459915
0.09648632258176804,4.542451858520508,7.799293518066406,0.29562386870384216,-0.07052875310182571,-0.034260813146829605
0.24300189316272736,5.21484899520874,7.708783149719238,0.2350434958934784,-0.14727088809013367,-0.09916960448026657
0.2986718714237213,5.114215850830078,8.508858680725098,0.2370506227016449,-0.1517912894487381,0.024347342550754547
0.0911233127117157,4.528891086578369,8.575149536132812,0.3344748914241791,-0.49841368198394775,0.012444197200238705
0.047663766890764236,4.478468894958496,7.680962562561035,0.3819129467010498,-0.6210579872131348,-0.11602948606014252
0.06964253634214401,4.7830305099487305,7.14522647857666,0.38784706592559814,-0.5285031199455261,-0.16376423835754395
-0.22686496376991272,5.378238677978516,7.394464015960693,0.3948982059955597,-0.29483845829963684,-0.18359118700027466
1.0703229904174805,5.067883014678955,8.301223754882812,-0.08684758096933365,-0.3488040566444397,0.04082325100898743
1.1993992328643799,4.855881214141846,8.111114501953125,-0.1324704885482788,-0.4332256317138672,0.007941247895359993
1.5283242464065552,4.915343761444092,8.345784187316895,-0.03364994749426842,-0.39414769411087036,-0.0345575176179409
1.3807073831558228,4.932898044586182,7.892648220062256,-0.0010646508308127522,-0.35899677872657776,-0.09754645079374313
1.4041322469711304,5.32294225692749,7.71396541595459,-0.06754424422979355,-0.3306177258491516,-0.12599532306194305
1.484491229057312,5.189661979675293,7.671184539794922,-0.05607742816209793,-0.17437584698200226,-0.09169960021972656
1.6003609895706177,4.978052616119385,8.065749168395996,0.016632987186312675,-0.03782128542661667,-0.10271262377500534
1.474253535270691,4.9274582862854,8.114831924438477,0.01797689124941826,-0.10531316697597504,-0.1540951132774353
1.3728926181793213,5.18644380569458,7.868141174316406,-0.07422885298728943,-0.2773328125476837,-0.16643460094928741
1.4516044855117798,5.239480495452881,7.769118309020996,-0.14423400163650513,-0.3001268208026886,-0.10843730717897415
1.8154655694961548,5.22542142868042,8.404097557067871,-0.025621432811021805,-0.25965264439582825,-0.04106759652495384
1.8275994062423706,4.728366374969482,8.066783905029297,0.14768975973129272,-0.18903660774230957,-0.03851941600441933
1.9102568626403809,4.660189151763916,6.759175777435303,0.23750440776348114,0.15322245657444,-0.1292939931154251
1.6832482814788818,4.794130325317383,7.8604044914245605,0.11503464728593826,0.40734240412712097,-0.20024162530899048
1.2939318418502808,4.837876796722412,8.666540145874023,0.057962384074926376,0.27375489473342896,-0.22273892164230347
1.0814417600631714,5.172787666320801,8.825257301330566,0.015062191523611546,-0.05625196173787117,-0.19425514340400696
1.4992873668670654,5.093414783477783,6.970564842224121,-0.04501204192638397,0.04591961205005646,-0.1682322919368744
1.431703805923462,5.1103081703186035,6.303846836090088,-0.15102334320545197,0.4317770004272461,-0.18900170922279358
0.8470685482025146,5.187018394470215,6.939996719360352,-0.2113768309354782,0.7756068706512451,-0.17016960680484772
0.6005232334136963,5.5442633628845215,8.250189781188965,-0.17784905433654785,0.7283084392547607,-0.07953465729951859
0.4059991240501404,5.261497497558594,8.045379638671875,-0.1693841964006424,0.7578394412994385,0.049357909709215164
0.6921637058258057,5.607469081878662,8.70970344543457,-0.16053538024425507,0.3282789885997772,0.054593898355960846
0.41832447052001953,4.983386993408203,7.996796131134033,-0.12854349613189697,0.2506641745567322,0.1342158168554306
1.44337797164917,4.000270366668701,7.018651008605957,-0.1388758420944214,0.36475634574890137,0.05311036854982376
1.4155573844909668,4.934784889221191,7.328076362609863,-0.21521654725074768,0.47361254692077637,-0.17385224997997284
0.9067128896713257,4.6278395652771,7.367283821105957,-0.26220080256462097,0.532290518283844,-0.17585937678813934
-0.19651606678962708,4.215863227844238,8.130019187927246,-0.21539108455181122,0.4763352572917938,-0.015289084054529667
-0.9958921074867249,4.926797866821289,8.43777084350586,-0.10957176983356476,0.34114205837249756,0.27211427688598633
-1.1673935651779175,5.410397529602051,8.842975616455078,-0.09040805697441101,0.005410520825535059,0.6447595357894897
-0.42610085010528564,4.97245979309082,8.811429023742676,-0.16093680262565613,-0.3386462330818176,0.946561872959137
0.6896066665649414,4.5108771324157715,8.530579566955566,-0.2036275565624237,-0.4649033546447754,0.9770004153251648
1.611058235168457,4.601741790771484,8.03005599975586,-0.2665117681026459,-0.5030388236045837,0.7376808524131775
2.1952242851257324,4.330804347991943,7.4459381103515625,-0.38500216603279114,-0.45544368028640747,0.2644173800945282
1.0607653856277466,3.597421884536743,8.718676567077637,-0.48486992716789246,-0.5856277942657471,-0.20155061781406403
-0.3260711133480072,4.377050399780273,9.087785720825195,-0.5618040561676025,-1.3041797876358032,-0.2834065556526184
-0.815761923789978,4.91773796081543,8.247698783874512,-0.7416078448295593,-1.8489494323730469,0.003543018363416195
0.6211420893669128,5.257992267608643,8.066313743591309,-0.8918457627296448,-2.2321364879608154,0.3330437242984772
2.0595784187316895,5.138914108276367,8.094642639160156,-0.696892499923706,-2.302647829055786,0.28471556305885315
2.6876444816589355,4.28038215637207,7.783359050750732,-0.5269498229026794,-2.1331937313079834,0.21378538012504578
3.398894786834717,3.078617572784424,7.332491397857666,-0.07080800831317902,-1.4292501211166382,-0.04513421282172203
3.5857765674591064,3.264580011367798,7.363644599914551,0.46615999937057495,-0.34899604320526123,-0.4254763722419739
2.895078182220459,4.480221748352051,8.149556159973145,0.7054271697998047,0.7162831425666809,-0.13950416445732117
2.7529296875,4.030619144439697,8.3194580078125,0.4239928424358368,0.414725124835968,-0.1339016556739807
2.767390489578247,4.659125804901123,8.742685317993164,0.10817550867795944,-0.12562879920005798,-0.16020376980304718
2.916166305541992,4.650238513946533,8.8630952835083,0.036651913076639175,-0.4472929835319519,-0.1371130645275116
3.0212812423706055,4.551539897918701,8.785934448242188,0.07501424849033356,-0.5237733125686646,-0.13725268840789795
2.889044761657715,4.391569137573242,7.748115062713623,0.2177821844816208,-0.3520503640174866,-0.17467254400253296
2.885712146759033,4.5609540939331055,7.325864315032959,0.22938862442970276,-0.14924310147762299,-0.22828906774520874
2.3717057704925537,5.062290191650391,7.170212268829346,0.10882128030061722,0.08115781098604202,-0.1780235767364502
2.2620415687561035,5.049562931060791,7.492165565490723,0.1460491567850113,0.16439256072044373,-0.15172147750854492
2.6824634075164795,5.187928199768066,6.617822170257568,0.19978784024715424,0.45781731605529785,-0.11109020560979843
2.0387680530548096,5.1382246017456055,8.750481605529785,0.249442458152771,0.5343151092529297,-0.0806516632437706
2.0462188720703125,5.22373628616333,6.538546562194824,0.048747044056653976,0.22766074538230896,0.03246312215924263
2.0453951358795166,5.473374843597412,7.640989303588867,-0.13875368237495422,0.48890161514282227,0.04982915148139
2.07299542427063,5.131176471710205,8.189960479736328,0.004817108623683453,0.5486267805099487,0.07555530220270157
1.9846206903457642,4.751743316650391,7.987411022186279,0.19908970594406128,0.6195394992828369,0.03073524869978428
1.9669227600097656,4.755305767059326,7.525961875915527,0.27895596623420715,0.7276801466941833,-0.05548401549458504
1.8395416736602783,5.049237251281738,8.038378715515137,0.13458234071731567,0.6297671794891357,-0.16638223826885223
1.700132131576538,5.132660865783691,8.100101470947266,0.11740829795598984,0.47827258706092834,-0.15758578479290009
1.372605323791504,5.178552627563477,7.40112829208374,0.08819148689508438,0.4985882043838501,-0.1598547101020813
1.058332920074463,5.691017150878906,7.2543158531188965,-0.06993534415960312,0.5679126977920532,0.01129228062927723
0.9941108226776123,5.4356231689453125,7.601293087005615,-0.08175121992826462,0.6250722408294678,0.09412560611963272
0.7531104683876038,5.2514801025390625,7.988886833190918,-0.1503775715827942,0.09876818209886551,0.11842058598995209
0.4773463308811188,4.941210746765137,7.500985622406006,-0.13819517195224762,-0.005497787147760391,0.11965977400541306
0.33708444237709045,4.761588096618652,7.452824115753174,-0.13215632736682892,-0.02281145378947258,0.06325073540210724
0.7674756646156311,5.15366268157959,7.621912002563477,-0.10327113419771194,-0.005393067374825478,0.015219271183013916
0.9713850617408752,5.0453104972839355,7.930516242980957,-0.014364060014486313,0.08710937947034836,0.011588986031711102
0.875300943851471,4.732330799102783,8.34720230102539,0.09630727022886276,0.03932226821780205,-0.022567106410861015
0.9011296033859253,4.7920613288879395,8.407315254211426,0.14838789403438568,-0.1399753987789154,-0.09356710314750671
0.8079089522361755,5.133857727050781,7.783156871795654,0.13114404678344727,-0.2790955901145935,-0.12095131725072861
1.02879798412323,5.538764953613281,7.159640789031982,0.03893829509615898,-0.16861626505851746,-0.07911577820777893
1.0008145570755005,5.588152885437012,7.323776721954346,-0.030857421457767487,0.006126105785369873,0.008098327554762363
0.8690281510353088,5.324646949768066,7.560065269470215,-0.0636696144938469,0.04230678081512451,0.07789404690265656
0.8662412762641907,5.221159934997559,7.71985387802124,-0.08833111077547073,0.029688050970435143,0.09555677324533463
1.0157352685928345,5.232087135314941,7.9471116065979,-0.14379768073558807,-0.0786445364356041,0.10344566404819489
1.1330511569976807,5.135236740112305,8.095159530639648,-0.15976743400096893,-0.1437104046344757,0.09697049111127853
1.244199514389038,4.996612548828125,8.231341361999512,-0.04159119725227356,-0.12084659934043884,0.03998549282550812
1.1552789211273193,4.8433356285095215,8.226533889770508,0.033196162432432175,-0.13931217789649963,-0.00823795422911644
1.203201174736023,5.077220439910889,8.065462112426758,0.06581636518239975,-0.2226691097021103,-0.05316272750496864
1.3871620893478394,5.224569320678711,7.820429801940918,0.09435249865055084,-0.16283921897411346,-0.04303981736302376
1.386214017868042,5.187775135040283,7.828244209289551,0.14529865980148315,-0.06354743987321854,-0.04216715320944786
1.2477812767028809,5.0514397621154785,7.668330669403076,0.18858282268047333,0.0131772356107831,-0.0601964071393013
1.1261845827102661,5.217243194580078,7.404499530792236,0.15343189239501953,0.06016149744391441,-0.07356562465429306
1.0655345916748047,5.341856479644775,7.435413360595703,0.09745918214321136,0.04920083284378052,-0.05944591388106346
0.9890159368515015,5.419361591339111,7.599723815917969,-0.028588492423295975,-0.035499997437000275,-0.013456488028168678
1.2022722959518433,4.9540629386901855,7.881778717041016,0.10475466400384903,-0.0010471974965184927,-0.00376991112716496
1.1470524072647095,5.197984218597412,7.905538558959961,0.1494874507188797,-0.06841690838336945,-0.013805554248392582
1.1934999227523804,5.325882434844971,7.5938520431518555,0.16997762024402618,-0.07159340381622314,0.015044738538563251
1.322250485420227,5.529983043670654,7.499692916870117,0.1059938445687294,-0.08545131981372833,-0.0006806784076616168
1.2482504844665527,5.60888671875,7.308692932128906,0.051399946212768555,-0.04937536269426346,0.04403465613722801
1.3469873666763306,5.49228048324585,7.75305700302124,-0.041346848011016846,-0.10796606540679932,0.0924500897526741
1.4762647151947021,5.372664928436279,8.214343070983887,-0.09190903604030609,-0.3099704682826996,0.1100430116057396
1.604440689086914,5.183743476867676,7.909101486206055,-0.09555677324533463,-0.48663270473480225,0.08559094369411469
1.6361973285675049,5.274081230163574,7.290132999420166,-0.09857619553804398,-0.42263147234916687,0.01218239776790142
1.6207021474838257,5.391282081604004,7.416259765625,-0.021101031452417374,-0.2237686663866043,-0.014189526438713074
1.500982403755188,5.358902931213379,7.565544128417969,0.16379915177822113,-0.02139773592352867,-0.019722219556570053
1.6984658241271973,5.365396022796631,7.621586322784424,0.2693741023540497,0.1051211804151535,-0.015865042805671692
1.6119585037231445,5.31256103515625,7.827364444732666,0.258116751909256,-0.0003316125657875091,-0.03352777659893036
1.5028403997421265,5.455418109893799,7.626250267028809,0.1831897646188736,-0.13932962715625763,-0.025813419371843338
1.6039810180664062,5.556434154510498,6.914914131164551,0.08009316027164459,-0.13028882443904877,0.0014660765882581472
1.4574271440505981,5.532482624053955,7.155396938323975,0.046652652323246,-0.004904375411570072,0.03160791099071503
1.4120235443115234,5.556769371032715,7.230594158172607,0.0601964071393013,0.03785619139671326,0.07220426946878433
1.4566417932510376,5.56626033782959,7.375797748565674,0.03881612420082092,0.06063273921608925,0.11466813087463379
1.5410230159759521,5.45887565612793,7.740157127380371,0.010506882332265377,-0.11426670849323273,0.1416858285665512
1.8121424913406372,5.240121841430664,7.086243152618408,-0.03286454826593399,0.026302112266421318,0.08110544830560684
1.6326347589492798,5.5395026206970215,7.065250396728516,-0.12051498144865036,0.11568041890859604,0.05455899238586426
1.5314462184906006,5.47067403793335,7.09322452545166,-0.1367989033460617,0.3528357744216919,0.23036600649356842
1.5700311660766602,5.510599613189697,6.797626972198486,-0.16205382347106934,0.5421690940856934,0.22174407541751862
1.4062294960021973,5.7139153480529785,6.786718845367432,-0.2655867636203766,0.7142585515975952,0.2594780921936035
1.1408753395080566,5.8435564041137695,6.9827752113342285,-0.4032583236694336,0.8290139436721802,0.35323718190193176
0.8768332600593567,5.562400817871094,7.1976118087768555,-0.49389326572418213,0.9392663836479187,0.4761258065700531
0.7721970677375793,5.29086971282959,7.679229259490967,-0.5655913949012756,0.9746791124343872,0.5821022391319275
0.6274340748786926,5.111476898193359,7.851756572723389,-0.6252990961074829,0.8748462796211243,0.6621429920196533
0.6035494804382324,5.152752876281738,7.97235631942749,-0.6994930505752563,0.8102341890335083,0.7448018193244934
0.17567694187164307,5.137889385223389,8.988503456115723,-0.7289367318153381,0.4044800400733948,0.986791729927063
0.8661838173866272,5.598562717437744,9.489351272583008,-0.5713160634040833,-0.1385616958141327,1.202514410018921
2.1553847789764404,4.03143310546875,7.056966781616211,-0.7299665212631226,0.7880685329437256,1.0411936044692993
2.3367695808410645,2.325258255004883,6.892073154449463,-0.9741555452346802,0.759235680103302,0.7507359385490417
2.133405923843384,3.354985237121582,8.681960105895996,-1.2607210874557495,0.6813765168190002,0.42753586173057556
1.8588676452636719,3.7984678745269775,9.538987159729004,-1.3694376945495605,0.2631781995296478,0.16662658751010895
1.3478684425354004,3.51135516166687,9.715957641601562,-1.4075207710266113,0.08862782269716263,-0.02843141369521618
0.7599961757659912,2.633028030395508,9.596678733825684,-1.4352365732192993,-0.04035201296210289,-0.0829380452632904
0.7166515588760376,2.3886661529541016,10.057686805725098,-1.4258466958999634,-0.40425315499305725,-0.17551030218601227
0.8691909313201904,1.9081212282180786,9.44827651977539,-1.3721604347229004,-0.8593652248382568,-0.23656192421913147
1.302560567855835,1.6439449787139893,8.963327407836914,-1.1014598608016968,-0.750596284866333,-0.33026865124702454
1.7952107191085815,0.6642856001853943,10.02189826965332,-0.39929643273353577,-0.10231120139360428,-0.4355120062828064
0.9070959687232971,0.7512525916099548,10.254575729370117,0.1754404902458191,0.24293237924575806,-0.3021164834499359
0.970120906829834,2.2110068798065186,11.42072582244873,0.8548098802566528,0.02661627158522606,0.034697145223617554
0.11254663020372391,3.486311912536621,10.479287147521973,1.7465684413909912,0.059288833290338516,0.20603612065315247
1.0050188302993774,2.952845335006714,8.40738296508789,2.3206770420074463,-0.19458675384521484,0.3565358519554138
2.2192907333374023,2.9704668521881104,9.251520156860352,1.19834303855896,1.0195690393447876,0.468359112739563
2.1190121173858643,2.001255750656128,8.82474136352539,0.6817604899406433,-0.30600857734680176,0.029112091287970543
1.6268887519836426,3.325153350830078,7.666090965270996,0.5851739645004272,-0.4613952338695526,-0.25998425483703613
1.5086151361465454,3.4598894119262695,8.581584930419922,1.198884129524231,-0.05094616115093231,-0.32330480217933655
1.4002344608306885,4.035733222961426,6.759128093719482,0.9145525097846985,-0.1388409435749054,-0.4001167416572571
1.0784728527069092,4.661146640777588,6.289299488067627,0.5105087757110596,0.014974924735724926,-0.43195152282714844
0.9683874845504761,4.715926170349121,6.4948859214782715,0.21006782352924347,0.21964968740940094,-0.446926474571228
0.7912548780441284,5.03281307220459,8.098673820495605,0.11826351284980774,0.19292870163917542,-0.3562391400337219
0.8974521160125732,4.539559364318848,8.791403770446777,0.1909913867712021,-0.275308221578598,-0.21275563538074493
1.2510948181152344,4.2440385818481445,8.170759201049805,0.13374458253383636,-0.6194173693656921,-0.39769071340560913
1.2575209140777588,4.038146495819092,7.6133599281311035,-0.018186330795288086,-0.733474612236023,-0.5910906791687012
1.4710166454315186,4.350609302520752,7.32963752746582,-0.0999375507235527,-0.6908711194992065,-0.7422187328338623
1.0435271263122559,4.940138339996338,7.049611568450928,-0.11794935166835785,-0.41973423957824707,-0.7047464847564697
0.855812132358551,5.085964202880859,8.018248558044434,-0.06115633621811867,-0.42586034536361694,-0.5171759724617004
0.751903772354126,5.085801124572754,7.697559356689453,0.04738568887114525,-0.37749725580215454,-0.37257543206214905
0.7796190977096558,5.273650169372559,7.271238327026367,0.14009757339954376,-0.1192408949136734,-0.23668409883975983
0.8877604007720947,5.192132472991943,7.432789325714111,0.19374899566173553,0.07323401421308517,-0.10372491925954819
0.9581882357597351,4.979930877685547,8.190467834472656,-0.2139773666858673,-0.11588986217975616,-0.07312929630279541
1.1205151081085205,4.608914852142334,8.321171760559082,-0.1290147304534912,-0.13295918703079224,-0.07190756499767303
1.3607876300811768,4.478076457977295,8.415398597717285,-0.027209682390093803,-0.09155996888875961,-0.20523326098918915
1.1065711975097656,4.981672763824463,7.823427200317383,-0.02324778586626053,-0.10299187898635864,-0.20354029536247253
0.9285671710968018,4.910498142242432,7.992860317230225,-0.011065387167036533,-0.01745329238474369,-0.14339624345302582
1.0997812747955322,4.938548564910889,7.836758136749268,0.11554079502820969,0.04284783452749252,-0.004485496319830418
1.0927997827529907,4.76231575012207,7.89312744140625,0.06161012127995491,0.05925392732024193,-0.00010471975838299841
1.135617733001709,4.781622886657715,7.60884952545166,-0.0385892279446125,-0.0328296422958374,-0.0026179938577115536
1.0059189796447754,4.714652061462402,8.103205680847168,-0.06742206960916519,0.0002617993741296232,-0.034121185541152954
0.9843041896820068,4.774478435516357,8.413780212402344,0.01647590845823288,-0.02569124661386013,-0.035185836255550385
0.8942917585372925,4.863178730010986,8.264477729797363,0.12018337100744247,-0.07300712168216705,-0.03689625859260559
0.7810173034667969,5.06052827835083,8.088610649108887,0.12376129627227783,-0.13210396468639374,0.02241002768278122
0.9489465951919556,4.943116664886475,7.742704391479492,0.12955579161643982,-0.12784536182880402,0.07220426946878433
1.104751706123352,5.014023303985596,7.661330223083496,0.153205007314682,-0.11505210399627686,0.08705702424049377
1.4967303276062012,4.8474249839782715,7.524181842803955,0.13213887810707092,0.0437728576362133,0.08888962119817734
1.4449772834777832,4.899561405181885,7.177921772003174,0.0075747291557490826,0.10414379835128784,0.03192207217216492
1.642757534980774,5.13901948928833,6.927478790283203,-0.05599016323685646,0.1987580955028534,0.04977678880095482
1.3069754838943481,5.172903537750244,7.254775524139404,-0.1627694070339203,0.298416405916214,0.11915362626314163
0.7406127452850342,5.474916458129883,6.92941427230835,-0.2796715497970581,0.5971469283103943,0.2496868073940277
0.5962710976600647,5.266984939575195,7.563321113586426,-0.21186551451683044,1.0273356437683105,0.4117929935455322
1.1622604131698608,4.71383810043335,8.155924797058105,0.012147491797804832,1.3087525367736816,0.47626543045043945
1.1753135919570923,4.594013214111328,8.303215980529785,0.19561649858951569,1.4832156896591187,0.41544070839881897
0.43912529945373535,4.777141094207764,8.085660934448242,0.11269591003656387,1.4198776483535767,0.349694162607193
-0.2206304669380188,4.9239821434021,8.624163627624512,-0.15887732803821564,1.1720060110092163,0.3116634488105774
-0.12470917403697968,4.447353839874268,8.739592552185059,-0.33023375272750854,0.7291461825370789,0.28359854221343994
0.2590622007846832,3.9444758892059326,8.888551712036133,-0.39673078060150146,0.304699569940567,0.06246533244848251
-0.6456587314605713,4.7646050453186035,8.895157814025879,-0.12534955143928528,0.03689625859260559,-0.08461356163024902
-0.5353243350982666,5.085762977600098,9.024579048156738,0.04265584796667099,-0.03122393973171711,0.07881906628608704
-0.1067526638507843,4.8415350914001465,8.430291175842285,0.2286555916070938,0.10185741633176804,0.14899875223636627
0.17647181451320648,4.464075088500977,8.146061897277832,0.3258005976676941,0.21785199642181396,0.1751612424850464
-0.30299100279808044,4.8169708251953125,7.969913959503174,-0.0009773843921720982,0.17924530804157257,0.08255407214164734
-0.032053571194410324,4.6478729248046875,8.129378318786621,0.08000589162111282,0.24415411055088043,0.10178760439157486
-0.14458104968070984,4.510034084320068,8.037766456604004,0.14988887310028076,0.30136600136756897,0.10074040293693542
-0.10952993482351303,4.57957124710083,8.037336349487305,0.10896090418100357,0.26488861441612244,0.04207988828420639
-0.3622905910015106,4.587730884552002,8.069005012512207,0.05630432069301605,0.1016654297709465,-0.029740409925580025
-0.02393243834376335,4.459621906280518,8.20661449432373,-0.14309954643249512,-0.15674802660942078,-0.09224065393209457
-0.06802405416965485,4.263957977294922,8.987785339355469,0.08962265402078629,-0.6176894903182983,-0.10585422068834305
0.2725367546081543,4.43122673034668,7.7989583015441895,0.20036379992961884,-0.4783598482608795,-0.12377875298261642
-0.055219866335392,4.923560619354248,6.565217971801758,0.12913690507411957,0.16249015927314758,-0.15414747595787048
-0.4781891107559204,5.202264785766602,6.7771992683410645,-0.06340780854225159,0.46307075023651123,-0.10128145664930344
0.07421067357063293,4.521181583404541,9.049076080322266,-0.36507052183151245,-0.27860692143440247,0.0031241392716765404
0.24731144309043884,4.414045810699463,8.448208808898926,-0.08307766914367676,-0.2255139946937561,-0.1370781660079956
-0.0734541043639183,5.0213303565979,8.576834678649902,0.18877480924129486,0.05251695588231087,-0.09402088820934296
0.25202324986457825,4.578613758087158,7.194634437561035,0.26864108443260193,-0.3789807856082916,-0.0495498962700367
0.7727333307266235,4.365462779998779,7.786269187927246,-0.36140531301498413,-0.1330289989709854,-0.17477726936340332
0.0009193734149448574,4.473881721496582,9.168384552001953,0.07134906202554703,-0.05722934752702713,-0.22691024839878082
-0.4843757152557373,4.8386335372924805,9.953031539916992,0.41811108589172363,-0.32492795586586,-0.22542671859264374
0.28223806619644165,5.104686737060547,6.916378974914551,0.05253440886735916,-0.5613676905632019,-0.28270843625068665
0.33428800106048584,5.429407596588135,7.1054158210754395,-0.341019868850708,-0.7722907662391663,-0.16657422482967377
0.6945004463195801,4.973599433898926,8.052926063537598,-0.2874208092689514,-0.5739689469337463,-0.13973106443881989
0.4600506126880646,4.776499271392822,7.98481559753418,0.07251843065023422,-0.3481931984424591,-0.11801916360855103
0.18946753442287445,4.946813106536865,8.741785049438477,0.2767917513847351,-0.4053003489971161,-0.1984090358018875
-0.0982293039560318,5.6638383865356445,7.455898284912109,0.10267771780490875,-0.9665808081626892,-0.16025613248348236
1.7356812953948975,4.5033698081970215,7.0238118171691895,-0.3810228407382965,-0.1485973298549652,-0.11986920982599258
1.1306952238082886,4.530097484588623,8.333832740783691,-0.3058514893054962,0.016057029366493225,-0.3001966178417206
0.45471635460853577,5.184844493865967,8.485692024230957,-0.18716910481452942,-0.13006193935871124,-0.29049259424209595
0.32164663076400757,5.516719341278076,7.4458136558532715,-0.202213853597641,-0.22734658420085907,-0.10344566404819489
1.3689757585525513,4.720283508300781,6.731738567352295,-0.3055897057056427,0.12514010071754456,-0.03153809905052185
1.1994949579238892,4.450552463531494,8.476823806762695,-0.2453758418560028,0.506302535533905,-0.12021827697753906
0.676342785358429,4.549729824066162,9.995868682861328,-0.08002334833145142,0.3006678819656372,-0.14011503756046295
0.48654964566230774,4.691504955291748,9.726713180541992,0.17296212911605835,-0.1282118856906891,-0.14496704936027527
0.4402841031551361,5.040005207061768,8.079587936401367,0.2657787501811981,-0.2333156168460846,-0.07485716789960861
0.7113747596740723,4.946765422821045,6.878273010253906,0.06302383542060852,-0.08213519304990768,-0.012810716405510902
0.8416863679885864,4.925284385681152,7.072664260864258,-0.18793705105781555,0.013194689527153969,-0.021694442257285118
0.6459938883781433,4.948019981384277,8.171563148498535,-0.18093828856945038,0.1310218721628189,-0.0023038345389068127
0.6562602519989014,4.488131999969482,8.59822940826416,0.08932594954967499,-0.015498523600399494,-0.06433283537626266
0.3469294011592865,4.967249870300293,7.728980541229248,0.13559463620185852,-0.0691324919462204,-0.02909463830292225
0.4504355192184448,5.016302585601807,7.311269283294678,0.030613074079155922,0.011257373727858067,0.048031460493803024
0.6727706789970398,4.808026313781738,8.162158966064453,-0.037227872759103775,-0.14159856736660004,-0.019233528524637222
0.6340899467468262,5.035437107086182,7.621758937835693,-0.0213104709982872,-0.012409291230142117,0.009756390936672688
0.7882190346717834,4.966263771057129,7.833616733551025,-0.06140068173408508,-0.08140215277671814,0.03131120651960373
1.0569825172424316,4.770360469818115,7.762939929962158,-0.11824605613946915,-0.1275835633277893,0.03323106840252876
0.9048836827278137,4.504220962524414,8.49094009399414,0.11210250109434128,0.22849850356578827,-0.012077677994966507
0.5094860792160034,4.664019584655762,8.200092315673828,0.16873842477798462,0.1549852341413498,-0.04632103815674782
0.5679237842559814,4.904081344604492,7.082517623901367,-0.10218902677297592,0.37285467982292175,0.12857840955257416
0.7454586029052734,4.729467391967773,7.391197204589844,-0.28817132115364075,0.413625568151474,0.12686797976493835
0.528151273727417,4.612276077270508,8.064791679382324,-0.3576703369617462,0.3212103843688965,0.09583602845668793
0.41295188665390015,4.606932163238525,8.398275375366211,-0.2739643454551697,0.30695104598999023,0.07332128286361694
0.04382346570491791,4.8273234367370605,9.059775352478027,0.10964158177375793,-0.0038222710136324167,0.11700687557458878
0.3892971873283386,4.798267364501953,8.362181663513184,0.3965562582015991,0.13435544073581696,0.112922802567482
0.3498024344444275,4.777686595916748,8.454720497131348,0.49008846282958984,-0.016528267413377762,0.08759807795286179
0.6234596967697144,4.755190849304199,7.260885715484619,0.3681248426437378,-0.19029325246810913,0.0696909949183464
0.9614059925079346,4.356240272521973,7.488564491271973,0.0131772356107831,-0.6307445168495178,-0.1273392289876938
0.6204142570495605,4.696887016296387,6.833137512207031,-0.09653416275978088,-0.4890063405036926,-0.10307914763689041
1.2319891452789307,4.6595282554626465,7.956172466278076,0.10796606540679932,-0.00143117003608495,-0.0892910435795784
1.1755146980285645,5.075180530548096,6.727591514587402,-0.27921777963638306,0.8065864443778992,-0.04398229718208313
0.6827975511550903,4.457879066467285,8.646142959594727,-0.1391027420759201,0.9077631831169128,-0.03033382259309292
-0.05021119490265846,4.762354373931885,9.279054641723633,-0.07021459192037582,0.5532868504524231,-0.02108357660472393
0.14195699989795685,4.544347763061523,8.561415672302246,-0.013735741376876831,0.2903180718421936,0.014817845076322556
0.17415422201156616,4.767784118652344,8.078372955322266,-0.002478367416188121,0.2961125671863556,0.00205948855727911
0.5742923617362976,4.759376049041748,8.259181022644043,-0.08689994364976883,0.2402096688747406,-0.03537782281637192
1.0383844375610352,4.010105609893799,9.065893173217773,-0.10039133578538895,0.25452136993408203,-0.15769049525260925
0.5687090754508972,3.8756186962127686,9.688299179077148,0.2940181791782379,0.2785719931125641,-0.3824714422225952
-0.28417256474494934,4.431839466094971,9.564959526062012,0.46732935309410095,0.09854128956794739,-0.3759613633155823
-0.6347985863685608,5.282355785369873,7.582589626312256,0.54508376121521,0.05372123420238495,-0.16027358174324036
0.07573338598012924,5.259495735168457,6.138522148132324,0.33218851685523987,0.5245063304901123,0.03659955412149429
0.3741849660873413,4.795585632324219,8.340719223022461,0.05749114602804184,0.5836206674575806,0.08883725851774216
-0.052337247878313065,5.103250503540039,7.419295787811279,0.5730788707733154,0.501904308795929,0.11229448020458221
0.21556434035301208,4.456729888916016,8.339550971984863,0.4530525803565979,0.6096958518028259,0.01012290921062231
-0.7920688986778259,5.046718597412109,6.537108898162842,-0.4675039052963257,-0.15807446837425232,-0.029688050970435143
0.3220009505748749,4.932534217834473,6.169550895690918,-0.6354045867919922,0.30140089988708496,0.0023387412074953318
0.70923912525177,4.571584224700928,7.362342357635498,-0.6691941618919373,0.7836004495620728,-0.029775317758321762
0.6752797961235046,4.5267744064331055,8.240671157836914,-0.6666459441184998,0.7042229175567627,-0.007888888008892536
0.184372678399086,4.378602027893066,8.645893096923828,-0.5160938501358032,0.6259972453117371,-0.006300638429820538
-0.9597108960151672,4.9521379470825195,8.689543724060059,-0.12767083942890167,0.7994480729103088,0.23113395273685455
-0.9773322343826294,4.942867279052734,8.463244438171387,-0.08827875554561615,0.7540520429611206,0.480436772108078
-0.9285959005355835,4.577608108520508,8.652692794799805,-0.1298874020576477,0.7905817627906799,0.5573185086250305
-1.0204949378967285,4.357571601867676,9.180231094360352,-0.11093312501907349,0.7722209095954895,0.5495692491531372
-1.285896897315979,3.822218418121338,9.716445922851562,-0.019826939329504967,0.45579272508621216,0.5451186895370483
-0.4932246804237366,4.116504192352295,9.840983390808105,0.1984439343214035,0.16112878918647766,0.5371599793434143
-0.6900184750556946,4.302093029022217,8.604856491088867,0.5262691378593445,0.15454889833927155,0.20615829527378082
-1.1163108348846436,4.515914440155029,8.783501625061035,0.6300289630889893,0.43079960346221924,0.07564257085323334
-0.7942619919776917,4.6425676345825195,7.44939661026001,0.5905845165252686,-0.12477358430624008,0.12353440374135971
-0.6581181287765503,4.878645420074463,6.461145877838135,0.33346259593963623,-0.11314969509840012,0.0021118484437465668
-0.7638843655586243,5.242171287536621,6.515101432800293,-0.006073745898902416,-0.01377064734697342,-0.022479841485619545
-0.808713436126709,5.0356574058532715,7.3114705085754395,-0.26050785183906555,-0.11662290245294571,-0.02600540593266487
-0.8062617778778076,4.90457010269165,7.927421569824219,-0.29475119709968567,-0.1673421710729599,-0.060039326548576355
-0.7865239381790161,4.817622184753418,8.04527473449707,-0.1293114423751831,-0.08745844662189484,-0.052028264850378036
-0.9739420413970947,4.759557723999023,8.026589393615723,0.20205676555633545,0.0423416867852211,0.02897246554493904
-0.8512822985649109,4.81884765625,7.60815954208374,0.20151571929454803,-0.04885176569223404,0.03644247353076935
-0.9383450746536255,4.842004776000977,7.525177955627441,0.10452777147293091,-0.24226915836334229,0.051260318607091904
-0.9372437596321106,4.918600082397461,8.065251350402832,-0.39699259400367737,0.009180432185530663,0.04043927788734436
-0.5220987796783447,4.593141555786133,8.627477645874023,-0.24649284780025482,0.11285299062728882,0.05572836101055145
-0.6599664688110352,4.50971794128418,9.001289367675781,0.06729989498853683,0.10796606540679932,3.490658491500653e-05
-0.7935246229171753,4.608704090118408,8.793797492980957,0.18481291830539703,-0.01869247667491436,-0.021781709045171738
-0.7945780754089355,4.908524990081787,7.847589492797852,0.21615903079509735,-0.21006782352924347,-0.017418386414647102
-0.6069684028625488,5.030370712280273,7.410437107086182,0.06333799660205841,-0.086428701877594,-0.023369958624243736
-0.8998079895973206,5.0350728034973145,7.74360466003418,-0.08789478242397308,-0.10292206704616547,-0.0013962633674964309
-0.6567199230194092,4.883845806121826,7.82394552230835,-0.13472196459770203,-0.2111673802137375,0.008185594342648983
-0.4535192549228668,4.77524471282959,7.825284957885742,-0.07335618883371353,-0.07234390079975128,-0.03947934880852699
-0.7304039001464844,4.925016403198242,8.394282341003418,0.014556045643985271,-0.07093018293380737,0.009826203808188438
-1.6136727333068848,5.278036594390869,8.062713623046875,0.1912880837917328,-1.130484700202942,-0.029269171878695488
-0.38044822216033936,4.679017066955566,7.714395523071289,-0.26221826672554016,-1.516586422920227,-0.08667305111885071
0.18929515779018402,4.638459205627441,8.601485252380371,-0.17126916348934174,-1.037249207496643,-0.21448351442813873
0.12850159406661987,4.8621063232421875,8.190860748291016,0.35241687297821045,-0.9399121403694153,-0.16411331295967102
0.46592122316360474,5.395323753356934,7.04263973236084,0.4965810775756836,-0.5940053462982178,-0.08370599150657654
0.3972555100917816,5.607469081878662,7.162014484405518,0.3246137797832489,-0.19333012402057648,0.0861319974064827
0.6643909215927124,4.832695960998535,7.956334114074707,0.13261011242866516,-0.2502278685569763,0.16566665470600128
1.318764567375183,4.2634124755859375,8.086454391479492,-0.013788101263344288,-0.4882733225822449,-0.027454029768705368
1.2388173341751099,4.746514320373535,7.960069179534912,-0.11122982949018478,-0.41894882917404175,-0.2404714673757553
0.6619201302528381,5.109083652496338,8.196051597595215,-0.026022858917713165,-0.33021628856658936,-0.22401301562786102
0.4265892505645752,5.190677165985107,7.849686622619629,0.11341149359941483,-0.21752038598060608,-0.12545426189899445
0.4884171187877655,5.046086311340332,7.7237324714660645,0.11381292343139648,-0.24932028353214264,-0.06785839796066284
0.8667105436325073,4.958841800689697,7.911592483520508,-0.03384193405508995,-0.44401174783706665,-0.05811946466565132
1.0140880346298218,5.096096515655518,7.933589458465576,-0.0812276229262352,-0.5342278480529785,-0.06695082783699036
1.0637916326522827,4.923378944396973,7.738950252532959,-0.005113814491778612,-0.39009854197502136,-0.03249803185462952
1.2060264348983765,4.812297344207764,7.632053852081299,0.0728674978017807,-0.2145882248878479,-0.07813838869333267
1.0253982543945312,5.151613235473633,7.2905449867248535,0.08620180934667587,-0.0694117471575737,-0.09580112248659134
0.9401742219924927,5.003756999969482,8.097773551940918,-0.019373154267668724,-0.18139207363128662,-0.1189441904425621
0.6987141966819763,5.026645183563232,8.102542877197266,-0.2911732792854309,-0.775519609451294,-0.12222540378570557
0.8045762181282043,5.540661334991455,7.3551788330078125,-0.5240350961685181,-1.0058332681655884,-0.046041786670684814
1.3618888854980469,5.251001358032227,7.204152584075928,-0.23872613906860352,-0.4660029113292694,0.07848745584487915
2.324204683303833,4.137391090393066,8.876224517822266,0.3911108374595642,0.6679549813270569,-0.07087782025337219
1.290876865386963,4.82125186920166,9.064094543457031,0.15310028195381165,-0.07981390506029129,-0.15575318038463593
1.185876727104187,4.9954729080200195,7.625800132751465,-0.19694295525550842,-0.6891607046127319,-0.0651182308793068
1.1898894309997559,5.584408283233643,5.650765895843506,-0.29105111956596375,-0.11927580088376999,0.03232349827885628
1.0584478378295898,5.952301025390625,4.752222061157227,-0.35929349064826965,0.4326845705509186,0.18198548257350922
1.3398526906967163,5.841248512268066,5.644004821777344,-0.3569372892379761,1.614900827407837,0.44835764169692993
1.607390284538269,4.35471773147583,9.509806632995605,-0.08998917788267136,0.6297497153282166,0.5177693963050842
2.0581130981445312,3.7517809867858887,9.851269721984863,0.16957618296146393,0.3309493362903595,0.054192472249269485
1.0720947980880737,4.68480110168457,10.036109924316406,0.45788711309432983,0.2719571888446808,-0.08494517207145691
-0.045796290040016174,5.24204683303833,8.928475379943848,0.5924345850944519,0.03330088034272194,0.04309218004345894
1.263697862625122,4.941708564758301,7.838711738586426,0.5336693525314331,-0.08082620054483414,-0.046129051595926285
0.576839804649353,4.406096935272217,6.6198811531066895,0.11149163544178009,0.2708227336406708,-0.1754230409860611
-0.19552965462207794,4.796131610870361,7.01333475112915,-0.33948400616645813,0.20399408042430878,-0.22160445153713226
-0.14798080921173096,4.544137001037598,7.934288501739502,-0.3505668342113495,-0.1022413894534111,0.09819222241640091
0.16131173074245453,4.444452285766602,8.189270973205566,-0.1422792375087738,-0.008499753661453724,-0.0114493602886796
0.3121081292629242,4.606328964233398,7.813113212585449,0.12978267669677734,-0.06613052636384964,-0.12887510657310486
0.008714893832802773,4.801724433898926,7.942878723144531,-0.023980824276804924,0.17257815599441528,-0.12189379334449768
-0.20724208652973175,5.0357818603515625,7.7688775062561035,-0.09684831649065018,0.015934856608510017,-0.10667452216148376
-0.19207243621349335,5.051765441894531,7.5812296867370605,-0.17470745742321014,0.08258897811174393,-0.038606684654951096
-0.1487182229757309,5.089938640594482,7.981722354888916,-0.16976816952228546,0.17561502754688263,0.005358160939067602
-0.2771432101726532,4.905795574188232,8.207763671875,-0.08436921238899231,0.09211847931146622,0.06579891592264175
-0.08914091438055038,4.879354000091553,7.7813849449157715,-0.0524296909570694,0.07841764390468597,0.11313223838806152
0.10357315838336945,4.165709495544434,8.723350524902344,0.20491909980773926,0.15330971777439117,0.15421728789806366
0.021404162049293518,4.698026657104492,7.393629550933838,0.14554300904273987,0.246527761220932,0.07578219473361969
0.049540817737579346,4.678318023681641,7.691286563873291,-0.21032962203025818,0.02892010472714901,0.03460988029837608
-0.16177141666412354,4.957807540893555,7.747981071472168,-0.5645442008972168,-0.1992991417646408,0.02497566118836403
-0.15138058364391327,4.5462727546691895,8.561233520507812,-0.5774073004722595,-0.17708110809326172,0.0033684854861348867
-0.42163804173469543,5.003220558166504,9.577008247375488,-0.30517080426216125,-0.2010270208120346,-0.05331980809569359
-0.6591237187385559,5.124070167541504,9.647186279296875,0.07751007378101349,-0.4680972993373871,0.13557717204093933
-0.6338217854499817,4.9546661376953125,8.672545433044434,0.23944172263145447,-0.6590363383293152,0.41807615756988525
0.37492239475250244,4.773233413696289,7.485576629638672,0.21036453545093536,-0.43446481227874756,0.5862910151481628
0.9932106137275696,4.233522891998291,7.39628267288208,0.3372848629951477,0.22769565880298615,0.5310164093971252
1.0420140027999878,3.562859296798706,8.327953338623047,0.4207290709018707,0.1448797732591629,0.2416757345199585
0.6606464385986328,4.8577680587768555,7.775524139404297,-0.29363420605659485,0.2522349953651428,0.11023499816656113
1.1648460626602173,4.001208782196045,7.910815715789795,-0.13500121235847473,0.7017619609832764,-0.039444439113140106
0.6612018942832947,3.9225833415985107,8.77364730834961,0.003926991019397974,0.9058957099914551,-0.26169466972351074
0.24316468834877014,3.8692786693573,9.287040710449219,0.06773623079061508,0.24029693007469177,-0.2706831097602844
0.4838298261165619,3.6755590438842773,7.921388149261475,-0.08319984376430511,-0.6046867966651917,-0.31721359491348267
0.3947751224040985,5.043807029724121,6.602202415466309,-0.513126790523529,-0.6828426122665405,-0.3269525170326233
0.4840213656425476,4.628748416900635,7.892485618591309,-0.6626491546630859,-0.031014500185847282,-0.2491806596517563
0.5349125266075134,3.7992053031921387,9.505681037902832,-0.274208664894104,0.15084880590438843,-0.1901187151670456
0.32374393939971924,3.999992609024048,9.261950492858887,0.18969982862472534,0.3361329734325409,-0.15433946251869202
0.2855420708656311,3.9177660942077637,8.653058052062988,0.44800856709480286,0.3663795292377472,-0.15426965057849884
0.49492934346199036,3.877955436706543,8.599044799804688,0.3687357008457184,0.2281145304441452,-0.30168014764785767
-0.05705861374735832,4.482692241668701,8.410887718200684,0.13871876895427704,-0.14067353308200836,-0.36081191897392273
-0.57620769739151,4.930609226226807,7.722564220428467,0.0016929693520069122,-0.1851968914270401,-0.2826211750507355
-0.6293590068817139,4.683987140655518,8.265694618225098,0.14158110320568085,0.11791444569826126,-0.24747022986412048
-0.7646888494491577,4.776326656341553,8.972500801086426,0.37259289622306824,0.20139354467391968,-0.2074149250984192
-0.7549875378608704,5.087936878204346,9.008538246154785,0.38903388381004333,-0.1480388194322586,-0.10986847430467606
-0.26118823885917664,4.974633693695068,7.309602737426758,0.2013411819934845,-0.5385562181472778,-0.03104940801858902
-0.039571363478899,4.767439365386963,7.224982261657715,0.04288274049758911,-0.509112536907196,-0.032131511718034744
0.3813101351261139,4.80964469909668,6.305972576141357,-0.18542377650737762,-0.1976061761379242,0.05391322076320648
0.5413768887519836,4.382174015045166,7.54506778717041,-0.2986781895160675,0.08187339454889297,0.06319837272167206
0.65706467628479,4.108057498931885,8.936328887939453,-0.19163715839385986,0.052237704396247864,0.001117010717280209
0.7993856072425842,4.145962238311768,8.723072052001953,-0.0645073652267456,-0.11744320392608643,-0.06550220400094986
0.21000978350639343,4.622936248779297,7.881060600280762,-0.005567600484937429,-0.04541346803307533,-0.07536331564188004
-0.06064991652965546,4.637472629547119,8.065384864807129,-0.027314402163028717,0.09847147762775421,0.04482005536556244
0.380706787109375,4.287842750549316,8.348121643066406,-0.08791223168373108,0.010437068529427052,0.048432886600494385
0.3510952889919281,4.416028022766113,8.88170337677002,-0.12887510657310486,-0.1546536237001419,0.015149458311498165
0.5938768982887268,4.194516658782959,8.531278610229492,-0.04511675983667374,-0.21101030707359314,-0.014590952545404434
0.47451159358024597,4.400312900543213,7.928743362426758,0.026162484660744667,-0.05019566789269447,-0.030455995351076126
0.40839332342147827,4.456202983856201,7.8541975021362305,0.009494591504335403,0.04846779257059097,-0.023998277261853218
0.05945281311869621,4.821759223937988,8.024578094482422,-0.06721262633800507,-0.05541420355439186,0.02312561310827732
-0.2776890695095062,4.975447654724121,7.803689479827881,-0.1117708832025528,-0.16626006364822388,0.15875515341758728
0.09434112161397934,4.570741653442383,7.61876106262207,-0.11510446667671204,-0.12754866480827332,0.2370680719614029
0.5725685358047485,4.28297758102417,7.9405517578125,-0.11850785464048386,-0.061767201870679855,0.19092155992984772
1.145788311958313,3.8593668937683105,8.965940475463867,-0.08248426020145416,-0.035185836255550385,0.08019787818193436
1.0326383113861084,3.6714794635772705,8.482876777648926,-0.11192796379327774,-0.05736897140741348,-0.1226791962981224
0.5553781390190125,4.013409614562988,8.241196632385254,-0.13667672872543335,0.05265658348798752,-0.16351990401744843
0.04552813619375229,4.6012725830078125,8.60799789428711,-0.10723303258419037,0.3813020884990692,-0.0512777715921402
-0.024583661928772926,4.515397071838379,8.910327911376953,-0.05824163556098938,0.4346567988395691,0.0010995573829859495
0.012267889454960823,4.636706352233887,8.935736656188965,0.022689281031489372,0.23279201984405518,0.061854466795921326
0.48686566948890686,4.0450897216796875,8.963948249816895,0.0017976891249418259,0.1071632131934166,0.02165953628718853
0.18119317293167114,4.541685581207275,8.79152774810791,0.06819001585245132,-0.08878489583730698,-0.048432886600494385
-0.07121313363313675,4.647279262542725,7.9017653465271,0.12952087819576263,0.014398965984582901,0.057072266936302185
0.10001058876514435,4.596972465515137,7.960280895233154,0.11142181605100632,0.10164797306060791,0.08292059600353241
0.2974556088447571,4.407045364379883,8.410255432128906,0.034836772829294205,0.09859365224838257,0.1082802265882492
0.3293176293373108,4.071177005767822,8.580540657043457,0.058398716151714325,0.014224433340132236,0.06237806752324104
0.25391945242881775,4.278495788574219,8.442452430725098,0.12178907543420792,-0.12032299488782883,0.0013264502631500363
0.17082150280475616,4.611452579498291,7.520225524902344,0.04164355620741844,-0.15023794770240784,-0.02197369560599327
0.4424101412296295,4.484167098999023,7.534188747406006,-0.04984660446643829,0.02122320421040058,0.017558012157678604
0.3902452886104584,4.2988176345825195,8.151691436767578,-0.04326671361923218,0.12486085295677185,0.0005934119690209627
0.17793706059455872,4.390898704528809,8.799217224121094,0.006963863503187895,0.04270820692181587,-0.0033335788175463676
0.24475444853305817,4.32942533493042,8.382176399230957,0.0648215264081955,-0.08920377492904663,0.005689773242920637
0.3937695622444153,4.360454082489014,7.844515323638916,0.05497787147760391,-0.008499753661453724,-0.024294983595609665
0.3574160039424896,4.431628704071045,8.141319274902344,0.003455751808360219,0.05078908056020737,-0.020490165799856186
0.09550949186086655,4.759261131286621,7.477177619934082,-0.03618067502975464,0.3297101557254791,0.06606071442365646
0.4460110366344452,4.1880717277526855,8.598478317260742,0.17837265133857727,0.5373170375823975,-0.041661009192466736
0.16572663187980652,4.458271503448486,8.770305633544922,0.16355480253696442,0.33910003304481506,-0.059725165367126465
0.17473840713500977,4.298846244812012,9.036646842956543,0.053040556609630585,-0.02007128670811653,-0.1048419252038002
0.06683652848005295,4.410483360290527,7.438363075256348,-0.10372491925954819,-0.0699876993894577,-0.23633503913879395
-0.20565234124660492,5.9865288734436035,6.957051753997803,0.08604472875595093,0.11754792183637619,-0.1215272769331932
-0.46544235944747925,4.5153398513793945,9.82064151763916,0.07040657848119736,0.23546236753463745,0.04237659275531769
-0.1688486784696579,4.404449939727783,9.766140937805176,0.10733775049448013,-0.4007101356983185,-0.06576400250196457
-0.05303635448217392,5.511183738708496,6.808592319488525,0.23364722728729248,0.001117010717280209,0.11133455485105515
0.18737979233264923,5.117213249206543,7.1633172035217285,0.4172907769680023,0.6982713341712952,0.2567030191421509
-0.29930391907691956,4.9658708572387695,8.378795623779297,0.43388885259628296,0.633711576461792,0.3105464279651642
-0.4670608341693878,4.950050354003906,8.789373397827148,0.4331907331943512,0.4231899678707123,0.32735395431518555
-0.6483306288719177,4.713933944702148,8.08914566040039,0.5176122784614563,-0.011746065691113472,0.37229618430137634
-1.0622402429580688,5.230525970458984,7.102178573608398,0.6961594820022583,0.11294025182723999,0.7189185619354248
0.062028974294662476,5.989622116088867,7.016983509063721,0.9572432637214661,0.28532642126083374,0.8691914081573486
0.8807309865951538,4.222921371459961,7.479332447052002,0.8215439319610596,0.32794737815856934,0.6573957204818726
0.5010010600090027,4.069108486175537,7.6149115562438965,0.28935813903808594,-0.2134188562631607,-0.019495327025651932
-1.273006558418274,6.1180949211120605,6.7082366943359375,0.00593411922454834,-0.2209586799144745,-0.13955652713775635
-1.6003226041793823,6.599377155303955,6.990254878997803,-0.28438395261764526,-0.20580922067165375,0.07002261281013489
-0.9673628211021423,5.863236904144287,7.726147174835205,-0.48202502727508545,-0.2454107403755188,0.15529939532279968
0.030980968847870827,6.366775989532471,8.90513801574707,-0.6324549317359924,-0.7291287183761597,0.17990854382514954
0.9491860270500183,6.028331279754639,8.692177772521973,-0.6411292552947998,-1.1761075258255005,0.20113174617290497
1.4875078201293945,4.42356538772583,7.641716957092285,-0.12686797976493835,-0.6320884227752686,-0.00890117883682251
0.7924519777297974,5.107588768005371,8.083992958068848,0.20584413409233093,-0.13573426008224487,-0.10161306709051132
1.1526069641113281,4.763647079467773,7.645902156829834,-0.04995132237672806,-0.7688698768615723,-0.00839503388851881
0.8721118569374084,5.0828423500061035,7.16084623336792,-0.35292303562164307,-0.8484917879104614,-0.07120943069458008
1.2177579402923584,5.2916259765625,7.400832653045654,-0.39648643136024475,-0.6439043283462524,-0.00029670598451048136
1.4917120933532715,4.907816410064697,8.524593353271484,-0.13254030048847198,-0.4297873377799988,-0.021118484437465668
1.6929877996444702,4.767420291900635,8.284273147583008,0.10835003852844238,-0.5141216516494751,-0.06773623079061508
1.6272813081741333,5.090915203094482,7.201298713684082,0.13613568246364594,-0.33283427357673645,-0.0777718722820282
1.5106358528137207,5.124635219573975,7.403982162475586,0.1348266899585724,-0.096761055290699,-0.0478045679628849
1.5853253602981567,4.984249114990234,7.492175102233887,0.12323769927024841,-0.06485643237829208,-0.021694442257285118
1.8190665245056152,5.015670299530029,7.512937545776367,0.10793115943670273,0.002251474652439356,-0.04295255243778229
1.649806022644043,5.061744213104248,7.624200820922852,0.133657306432724,-0.011431906372308731,-0.08286823332309723
1.3998513221740723,5.11111307144165,7.485414028167725,0.16727235913276672,-0.0131772356107831,-0.10948450118303299
1.466860294342041,5.241730690002441,7.741392135620117,0.16193164885044098,-0.038955748081207275,-0.13587388396263123
1.4549083709716797,5.354918956756592,7.788098335266113,0.12114330381155014,-0.14763739705085754,-0.12505283951759338
1.494795799255371,5.311316013336182,7.4259419441223145,0.08082620054483414,-0.2637890577316284,-0.08712683618068695
1.7909681797027588,5.5854902267456055,6.37774133682251,0.2909463942050934,0.18072883784770966,-0.08436921238899231
1.266829490661621,5.23315954208374,7.901066303253174,0.1494874507188797,0.13041099905967712,-0.1094495952129364
0.4023407995700836,6.164848804473877,7.084787368774414,-0.2096664011478424,-0.2315702885389328,0.10119418799877167
0.6038176417350769,5.700948238372803,6.505946159362793,-0.24172809720039368,-0.10576695203781128,0.21882937848567963
1.034639835357666,5.394509792327881,6.577494144439697,-0.3927863538265228,0.28036969900131226,0.25586527585983276
1.2901298999786377,5.0566205978393555,9.082585334777832,-0.34035664796829224,0.2286555916070938,0.1748121827840805
2.1658809185028076,4.637568473815918,8.958575248718262,0.04415683075785637,-0.39872047305107117,-0.00022689280740451068
2.0863168239593506,4.58995246887207,7.61704683303833,-0.05276130139827728,-0.5993984341621399,-0.2626371383666992
1.9525288343429565,5.412121295928955,7.014024257659912,-0.2460041642189026,-0.4800702631473541,-0.3506017327308655
0.0478648766875267,5.588076114654541,7.227242469787598,-0.37201693654060364,-0.13348278403282166,-0.19626227021217346
2.618356227874756,4.716385841369629,7.77221155166626,-0.1794547587633133,-0.8526107668876648,-0.034487705677747726
2.0630643367767334,4.876720428466797,6.802367210388184,-0.3506017327308655,-0.9323199987411499,-0.2437003254890442
1.6170724630355835,5.1827473640441895,6.661128520965576,-0.35377824306488037,-0.591526985168457,-0.14097024500370026
1.6535409688949585,4.867919445037842,7.994861602783203,-0.24785420298576355,-0.25855308771133423,-0.006230825558304787
1.9469839334487915,4.83669900894165,8.901317596435547,-0.1310218721628189,-0.36505305767059326,0.054279740899801254
2.365260601043701,4.412906169891357,8.892227172851562,-0.006527531426399946,-0.6326818466186523,0.01904154196381569
2.8009955883026123,4.26515531539917,7.810844421386719,-0.04475024342536926,-0.8911476731300354,-0.20839230716228485
2.4556081295013428,4.937542915344238,7.043741226196289,-0.015568336471915245,-0.647429883480072,-0.19683822989463806
2.7724759578704834,4.809778690338135,7.230307102203369,-0.043912485241889954,-0.3623303472995758,-0.14761994779109955
2.8983631134033203,4.846256732940674,7.841910362243652,0.003176499158143997,-0.2908940315246582,-0.17186257243156433
2.599719762802124,5.134940147399902,7.355389595031738,0.06475171446800232,-0.2068040668964386,-0.14477506279945374
2.8072397708892822,5.023724555969238,7.158001899719238,0.06949900835752487,-0.09033824503421783,-0.13294172286987305
2.5871167182922363,5.209475994110107,7.442222595214844,0.015149458311498165,-0.11599458009004593,-0.08019787818193436
2.4296836853027344,5.051621913909912,7.764549255371094,-0.1632930040359497,-0.4358087182044983,0.011327186599373817
2.969097375869751,5.042906761169434,4.944380760192871,0.04185299575328827,0.16987289488315582,0.015411256812512875
3.371007204055786,4.165422439575195,7.39747953414917,0.03712315484881401,0.7772474884986877,-0.19371409714221954
2.627636194229126,4.63754940032959,9.11118221282959,0.027890361845493317,0.5218534469604492,-0.22629939019680023
1.7399524450302124,5.305943489074707,9.696900367736816,-0.07908086478710175,-0.3245439827442169,-0.05749114602804184
3.111973762512207,3.9503560066223145,7.818332195281982,0.11716394871473312,-0.333026260137558,-0.02869321219623089
3.549959421157837,5.127776622772217,5.877918243408203,0.28331929445266724,0.5087110996246338,-0.15084880590438843
3.2158820629119873,4.933645248413086,6.004791736602783,0.2528109550476074,0.8242840766906738,-0.17498670518398285
2.624504566192627,5.111361980438232,6.914521217346191,-0.005201081279665232,0.9676454663276672,-0.16632987558841705
1.8343223333358765,4.9986042976379395,8.621031761169434,-0.16175711154937744,0.6655812859535217,-0.11451105028390884
1.8008514642715454,4.963735580444336,8.610477447509766,-0.015830136835575104,0.33225831389427185,-0.06283185631036758
2.009309768676758,4.892388343811035,7.673061847686768,0.14990632236003876,0.4247956871986389,-0.08361872285604477
2.470346689224243,4.975007057189941,6.359124183654785,0.4335572421550751,1.1157366037368774,-0.16830210387706757
2.255816698074341,4.633258819580078,6.865239143371582,0.44750240445137024,1.4691832065582275,-0.3310016989707947
1.2113797664642334,5.417762279510498,7.866752624511719,0.1544092744588852,1.06351637840271,-0.3377910256385803
0.9368702173233032,5.039583683013916,7.503178596496582,-0.41779690980911255,0.7366511225700378,-0.1247037723660469
1.201889157295227,5.329444885253906,8.269783020019531,-0.45429176092147827,0.9191252589225769,-0.12477358430624008
0.9836912751197815,5.301365852355957,9.139559745788574,-0.12772318720817566,1.159928321838379,-0.10691887140274048
0.9363818168640137,5.1914238929748535,9.423711776733398,0.10698868334293365,1.1153701543807983,-0.10384708642959595
0.6051105260848999,5.15753173828125,9.219639778137207,0.4763352572917938,0.9639802575111389,-0.10588912665843964
0.05164771527051926,5.327165603637695,8.467199325561523,0.5687329769134521,0.5706703066825867,-0.04775220900774002
0.03694731742143631,5.375844478607178,7.063584327697754,0.37610098719596863,0.35299283266067505,0.0316777266561985
0.16393576562404633,5.493256092071533,6.0520148277282715,0.08222246170043945,0.5523443222045898,0.08217009902000427
0.3230735659599304,5.554969310760498,6.393332481384277,-0.19540706276893616,0.7974234819412231,0.1374272257089615
-0.6648793816566467,4.664536952972412,6.832055568695068,-0.42935100197792053,1.000195860862732,0.30342549085617065
-0.3642825484275818,5.053297519683838,7.44182014465332,-0.8173202276229858,0.8117526173591614,0.4836307466030121
0.47862961888313293,4.534397602081299,8.076773643493652,-0.8169886469841003,0.42753586173057556,0.3771132826805115
-0.009768342599272728,4.822046756744385,9.025613784790039,-0.4155628979206085,0.5215392708778381,0.18140952289104462
-0.07540777325630188,4.785243034362793,9.237059593200684,0.24734805524349213,-0.09011135250329971,0.08789478242397308
-0.4056447744369507,4.431073188781738,8.991385459899902,0.4513944983482361,-0.2597573399543762,0.04911356419324875
-0.5419802069664001,4.720178127288818,8.57756233215332,0.5288522243499756,-0.4613603353500366,0.09133307635784149
0.3304477035999298,4.9634480476379395,7.075047492980957,0.5292536616325378,-0.24959953129291534,0.08607963472604752
0.290646493434906,5.072451114654541,7.011045932769775,0.5171759724617004,0.007016223389655352,0.03480186685919762
0.13358686864376068,5.669440746307373,7.7656121253967285,0.4009544849395752,0.1578126698732376,-0.015341443940997124
0.01677856408059597,5.185495853424072,7.804283142089844,0.22479841113090515,0.09119345247745514,-0.02125811018049717
0.10507672280073166,4.858361721038818,7.7972636222839355,0.10290461033582687,-0.04043927788734436,-0.07773696631193161
0.39990827441215515,5.375346660614014,7.822690010070801,0.06532767415046692,-0.14990632236003876,-0.1874658167362213
0.03614286705851555,5.767296314239502,7.505161285400391,0.08148942142724991,-0.1514596790075302,-0.18716910481452942
0.2114846110343933,5.593276500701904,6.887284755706787,0.13110913336277008,0.14782938361167908,-0.13749703764915466
-0.1844588667154312,5.718626976013184,8.449454307556152,0.18282324075698853,0.2998126447200775,-0.1201310083270073
-0.7402967214584351,5.462801933288574,7.141290664672852,0.2540850341320038,0.293791264295578,-0.0524296909570694
