accX,accY,accZ,gyroX,gyroY,gyroZ
-1.4229027032852173,4.8044633865356445,8.441849708557129,-0.033859387040138245,-0.037402406334877014,0.04995132237672806
-1.398012638092041,4.9476847648620605,8.382731437683105,-0.03597123548388481,-0.05017821490764618,0.06698573380708694
-1.3516992330551147,4.923857688903809,8.2979097366333,-0.07216936349868774,-0.05337216705083847,0.09147270768880844
-1.3227293491363525,4.8879923820495605,8.398036003112793,-0.10175269842147827,-0.06005677953362465,0.10875146836042404
-1.1789336204528809,4.695537090301514,8.513733863830566,-0.10478956997394562,-0.06543239206075668,0.1218239814043045
-1.0897160768508911,4.693583011627197,8.540328025817871,-0.1051211804151535,-0.06232570856809616,0.12721705436706543
-1.0398017168045044,4.6324639320373535,8.598851203918457,-0.09807004779577255,-0.0483979806303978,0.11602948606014252
-0.9477303624153137,4.5367536544799805,8.668188095092773,-0.04501204192638397,-0.05176646634936333,0.06794566661119461
-0.8699666857719421,4.555542945861816,8.647780418395996,-0.04588470607995987,-0.053529247641563416,0.04862487316131592
-0.8465609550476074,4.5221967697143555,8.562019348144531,-0.0455007329583168,-0.04120722413063049,0.022444933652877808
-0.9547788500785828,4.56725549697876,8.696066856384277,-0.05740387737751007,-0.05201081186532974,-0.03153809905052185
-0.9053050875663757,4.593716144561768,8.590598106384277,-0.03277728334069252,-0.026371924206614494,-0.0263544712215662
-0.9617699384689331,4.541723728179932,8.663390159606934,-0.03052580915391445,-0.0018500490114092827,-0.010175269097089767
-0.9195075035095215,4.642059803009033,8.645615577697754,-0.0007330382941290736,0.00808087456971407,-0.025411993265151978
-0.9447327852249146,4.536782264709473,8.691612243652344,-0.0009773843921720982,0.025185100734233856,-0.013439035043120384
-0.9664721488952637,4.512945652008057,8.75866985321045,0.014678219333291054,0.0154810706153512,-0.01788962446153164
-0.944579541683197,4.654605865478516,8.605545997619629,0.012758356519043446,0.024260075762867928,-0.028187068179249763
-1.0187807083129883,4.6250996589660645,8.703516960144043,-0.011187560856342316,0.004153883550316095,-0.03487167879939079
-1.030531406402588,4.615982532501221,8.7942476272583,-0.010855947621166706,-0.02427753061056137,-0.03548254445195198
-1.0390547513961792,4.627110481262207,8.712777137756348,-0.0022165682166814804,-0.026860617101192474,-0.03171263262629509
-1.3486920595169067,4.943700790405273,7.936903953552246,0.0126710906624794,-0.05578072369098663,-0.03729768469929695
-1.3325072526931763,4.9216742515563965,8.70241641998291,-0.07782422751188278,0.003944444004446268,0.05438445881009102
-1.0231859683990479,4.593716144561768,8.581853866577148,-0.1036900132894516,0.0414690226316452,0.09077457338571548
-1.0587254762649536,4.204716205596924,9.085947036743164,-0.03817034885287285,0.006492624990642071,0.0529881976544857
-0.9432387948036194,4.596752166748047,8.658649444580078,-0.018133969977498055,-0.02094395086169243,-0.0015882495790719986
-0.9991194605827332,4.620349407196045,8.71320915222168,-0.016685348004102707,-0.028955012559890747,0.007278022821992636
-0.9914197325706482,4.62070369720459,8.679909706115723,-0.0037000980228185654,-0.017697637900710106,0.019495327025651932
-0.9695558547973633,4.555619716644287,8.701428413391113,0.01984439417719841,0.02015855349600315,0.04029965400695801
-0.9558418989181519,4.513750076293945,8.774864196777344,0.028413960710167885,0.018814649432897568,0.04052654653787613
-0.9203406572341919,4.485287666320801,8.747703552246094,0.03637266159057617,0.0021816615480929613,0.023282691836357117
-0.9190382361412048,4.486130237579346,8.686278343200684,0.026476643979549408,-0.01696459949016571,0.0013264502631500363
-0.9809427261352539,4.5420684814453125,8.701955795288086,0.01895427517592907,-0.022183135151863098,-0.01120501384139061
-1.008456826210022,4.609269142150879,8.688404083251953,0.027872908860445023,-0.02010619267821312,-0.006702064536511898
-1.003227949142456,4.625530242919922,8.653621673583984,0.035238198935985565,-0.017523106187582016,-0.0016057029133662581
-1.0468693971633911,4.656243324279785,8.514355659484863,0.03719296678900719,-0.011187560856342316,0.010629055090248585
-0.9546543955802917,4.676459789276123,8.519001007080078,0.0019198621157556772,-0.01310742273926735,0.030770154669880867
-0.8450286388397217,4.580921649932861,8.61186695098877,-0.01589994877576828,-0.01080358773469925,0.027436574921011925
-0.8246588110923767,4.518940448760986,8.71120834350586,-0.009616764262318611,-0.004502949304878712,0.005288347601890564
-0.8931233882904053,4.618539333343506,8.711533546447754,0.07312929630279541,-0.002548180753365159,-0.04911356419324875
-0.9404998421669006,4.5526509284973145,8.723867416381836,0.06468190252780914,-0.016283921897411346,-0.0518362782895565
-0.9413330554962158,4.538247585296631,8.66281509399414,0.07684684544801712,-0.021868975833058357,-0.06517059355974197
-1.0809149742126465,4.632866382598877,8.549291610717773,0.08902924507856369,-0.0015707963611930609,-0.06557202339172363
-1.1324573755264282,4.7375407218933105,8.511453628540039,0.07613126188516617,-0.0013962633674964309,-0.04518657550215721
-1.0582658052444458,4.736171245574951,8.4319486618042,0.04372049868106842,0.01539380382746458,-0.0071907564997673035
-1.0596544742584229,4.683278560638428,8.4678316116333,0.045779984444379807,0.02776818908751011,-0.004084070213139057
-1.0267390012741089,4.756991386413574,8.448813438415527,0.03810053691267967,0.040020398795604706,0.0035604715812951326
-0.9674585461616516,4.758686542510986,8.530856132507324,0.02050761878490448,0.03947934880852699,0.0031939526088535786
-0.9772939682006836,4.771787643432617,8.628511428833008,-0.00047123889089562,0.02214822731912136,-0.0041015236638486385
-1.0046261548995972,4.763666152954102,8.690540313720703,-0.01961750164628029,-0.018046705052256584,-0.015847589820623398
-1.2319316864013672,5.057214736938477,7.990868091583252,-0.021293016150593758,-0.02874557301402092,-0.0159872155636549
-1.1041579246520996,4.990243911743164,8.519584655761719,-0.060475658625364304,0.03300417587161064,0.046006880700588226
-1.0417267084121704,4.750498294830322,8.733406066894531,0.01736602559685707,-0.025534166023135185,0.052237704396247864
-1.0526537895202637,4.795825004577637,8.565773010253906,0.043074727058410645,0.007295476272702217,0.08299040794372559
-1.0950311422348022,4.8183979988098145,8.56094741821289,0.0035953782498836517,-0.01242674421519041,0.09923942387104034
-0.9239606857299805,4.78153657913208,8.572965621948242,-0.03176499158143997,-0.0987856388092041,0.13072516024112701
-0.8009466528892517,4.623624801635742,8.549752235412598,-0.03836233541369438,-0.05324999615550041,0.10667452216148376
-0.7761043906211853,4.719842910766602,8.615495681762695,-0.021135937422513962,-0.016196655109524727,0.10365510731935501
-0.7243800759315491,4.585173606872559,8.620494842529297,-0.01226966455578804,-0.00188495556358248,0.1054178848862648
-0.6130880117416382,4.550343036651611,8.696056365966797,-0.012828170321881771,0.006981316953897476,0.08215264976024628
-0.6070258617401123,4.430718898773193,8.765976905822754,-0.033196162432432175,-0.014887658879160881,0.050736721605062485
-0.6895779371261597,4.834122657775879,8.433959007263184,0.07360053062438965,0.1811826229095459,-0.014852751977741718
-0.8567889928817749,4.7224860191345215,8.647819519042969,0.056461401283741,0.05146975815296173,-0.0008726646192371845
-0.800055980682373,4.596397876739502,8.693978309631348,-0.019320795312523842,-0.10979866236448288,-0.07621853053569794
-0.8660114407539368,4.654404640197754,8.630340576171875,-0.033597588539123535,-0.11627383530139923,-0.08227481693029404
-0.9319286346435547,4.677819728851318,8.69571304321289,0.01401499379426241,0.013962633907794952,-0.04064871743321419
-0.9242767691612244,4.7291131019592285,8.686403274536133,0.08457865566015244,0.02658136375248432,-0.016859879717230797
-0.8584553599357605,4.738067626953125,8.51956558227539,0.10810569673776627,0.06899286806583405,-0.006998770404607058
-0.8494818806648254,4.777657985687256,8.607815742492676,-0.05014330893754959,-0.05314527451992035,-0.0293738916516304
-0.847805917263031,4.725454807281494,8.616913795471191,-0.0316777266561985,-0.03132865950465202,-0.024329889565706253
-0.8631958961486816,4.7239990234375,8.675782203674316,-0.005532693583518267,-0.0020420351065695286,-0.01616174913942814
-0.8696219325065613,4.7000861167907715,8.699015617370605,0.036966074258089066,0.03511602431535721,0.0003490658418741077
-0.8784038424491882,4.6685686111450195,8.746793746948242,0.03593632951378822,0.018657568842172623,-0.0021118484437465668
-0.8582350611686707,4.660638809204102,8.704809188842773,0.004380776546895504,-0.04026474431157112,-0.020629791542887688
-0.8754158616065979,4.645114898681641,8.644197463989258,0.025324726477265358,-0.01940806210041046,-0.02701769582927227
-0.8590108156204224,4.663942813873291,8.614990234375,0.054593898355960846,0.01687733456492424,-0.02263692021369934
-1.0083515644073486,4.799502849578857,8.605392456054688,0.00593411922454834,0.0035604715812951326,-0.029565878212451935
-1.0604876279830933,4.83204460144043,8.567411422729492,0.0029321531765162945,-0.007609635591506958,-0.017732545733451843
-1.0612250566482544,4.899331569671631,8.586555480957031,-0.02312561310827732,-0.00905825849622488,0.01837831735610962
-0.9892936944961548,4.790721893310547,8.6886625289917,-0.024417156353592873,-0.022130774334073067,0.03663446009159088
-0.8582829833030701,4.711061000823975,8.681021690368652,0.004206243436783552,-0.021205751225352287,0.022689281031489372
-0.8384972810745239,4.689129829406738,8.63120174407959,-0.04012512043118477,-0.040945425629615784,0.020053833723068237
-0.7659050822257996,4.682206153869629,8.641267776489258,-0.03323106840252876,-0.040055304765701294,0.0076445420272648335
-0.7696017622947693,4.670024394989014,8.646017074584961,0.006702064536511898,0.0025656339712440968,-0.0034208453726023436
-0.7961965203285217,4.719344615936279,8.678646087646484,0.03389429301023483,0.020472712814807892,-0.00663225119933486
-0.8514164090156555,4.709595680236816,8.57595443725586,0.025883233174681664,0.0033859387040138245,-0.005619960371404886
-0.8436112999916077,4.725550651550293,8.574143409729004,0.0049916417337954044,-0.008621926419436932,-0.004485496319830418
-0.8279148936271667,4.735950946807861,8.549779891967773,0.0019024088978767395,-0.011885692365467548,-0.006998770404607058
-0.9087623357772827,4.850240707397461,8.516902923583984,0.01727875880897045,-0.0021293016616255045,-0.010279988870024681
-0.8828762173652649,4.8663201332092285,8.506417274475098,-0.0013962633674964309,0.004380776546895504,0.002024581888690591
-0.8874539136886597,4.777744293212891,8.631011009216309,-0.007609635591506958,0.009512044489383698,0.008918632753193378
-0.8988407254219055,4.731900215148926,8.65143871307373,0.0052534411661326885,0.0009948377264663577,0.0011693706037476659
-0.9404136538505554,4.739025115966797,8.642837524414062,0.009267698042094707,0.0007504915702156723,-0.003717551240697503
-0.9315263628959656,4.804932594299316,8.618905067443848,0.012007865123450756,-0.007888888008892536,0.0038222710136324167
-0.8731940388679504,4.804272174835205,8.596332550048828,0.018483037129044533,0.0006806784076616168,0.01745329238474369
-0.7638077735900879,4.734121799468994,8.573894500732422,0.035098571330308914,0.025446901097893715,0.0205948855727911
-0.7521911263465881,4.695335865020752,8.531804084777832,0.04593706503510475,0.04680972918868065,0.0031241392716765404
-0.8492807745933533,4.724832534790039,8.595547676086426,0.02808234840631485,0.02626720443367958,-0.01673770695924759
-0.8678310513496399,4.830224990844727,8.5718355178833,0.001029744278639555,-0.006649704650044441,-0.00954695139080286
-0.8309699296951294,4.7745361328125,8.529467582702637,-0.001343903481028974,0.0017976891249418259,0.00047123889089562
-0.7705498337745667,4.714336395263672,8.575504302978516,0.02666863054037094,0.03752457723021507,-0.004206243436783552
-0.8096327781677246,4.747778415679932,8.555412292480469,0.04441862925887108,0.0449422262609005,-0.0077841682359576225
-0.8494914770126343,4.756876468658447,8.605374336242676,0.020978856831789017,0.022043507546186447,-0.01679006777703762
-0.9011104702949524,4.829334259033203,8.608553886413574,0.031555552035570145,0.022968532517552376,-0.020315632224082947
-0.9033035635948181,4.823396682739258,8.550047874450684,0.049672070890665054,0.04846779257059097,0.00617846567183733
-0.7897226214408875,4.697547912597656,8.46986198425293,0.0642455667257309,0.09831439703702927,0.008848818950355053
-0.8702348470687866,4.749598026275635,8.538738250732422,0.08944812417030334,0.12719959020614624,-0.017034413293004036
-0.9141731858253479,4.85978889465332,8.518732070922852,0.11009536683559418,0.1552121341228485,-0.014451325871050358
-1.0070490837097168,4.951563358306885,8.298312187194824,0.030089477077126503,0.0789237916469574,-0.06209881603717804
-1.0619529485702515,4.910210609436035,8.371930122375488,0.022828906774520874,0.09583602845668793,-0.06209881603717804
-1.1731395721435547,4.9833197593688965,8.447376251220703,-5.2359879191499203e-05,0.07168067246675491,-0.06817255914211273
-1.2866630554199219,5.021397113800049,8.549551010131836,-0.04682718217372894,0.024294983595609665,-0.05160938575863838
-1.2278518676757812,4.923828601837158,8.603879928588867,-0.0524296909570694,-0.0075747291557490826,-0.03565707802772522
-1.228407382965088,4.9101338386535645,8.613073348999023,-0.034260813146829605,-0.005794493015855551,-0.031119219958782196
-1.2377735376358032,4.9521379470825195,8.460151672363281,0.009878563694655895,0.028099801391363144,-0.011501720175147057
-1.2461435794830322,4.992906093597412,8.436400413513184,0.02419026382267475,0.0679805725812912,0.010000736452639103
-0.9703699350357056,4.816463470458984,8.467294692993164,0.031171580776572227,0.10384708642959595,0.028099801391363144
-0.9508715271949768,4.713167667388916,8.398323059082031,0.057910025119781494,0.17034412920475006,-0.005078908056020737
-1.168351173400879,4.8109660148620605,8.561339378356934,0.0449247732758522,0.15718434751033783,-0.03841469809412956
-1.7413603067398071,5.086433410644531,8.131360054016113,0.05815437063574791,0.10435323417186737,0.029914943501353264
-1.5929580926895142,5.252131462097168,8.101136207580566,-0.06777113676071167,0.17271777987480164,0.06072000414133072
-1.283914566040039,4.751637935638428,8.736740112304688,-0.12416272610425949,-0.19374899566173553,-0.009075712412595749
-1.2241840362548828,4.890262126922607,8.5106201171875,-0.08173377066850662,-0.15337952971458435,-0.034260813146829605
-1.3446698188781738,5.019577503204346,8.388066291809082,-0.03783873841166496,-0.06297148019075394,-0.021711895242333412
-1.3904660940170288,4.96322774887085,8.480339050292969,0.03249803185462952,0.06323327869176865,0.045465826988220215
-1.403241515159607,4.8733110427856445,8.555143356323242,0.05119050666689873,0.06831218302249908,0.06051056459546089
-1.3141868114471436,4.784275531768799,8.600480079650879,0.038641590625047684,0.015777776017785072,0.04632103815674782
-1.2979350090026855,4.705564022064209,8.473875999450684,-0.0223227608948946,-0.06213372200727463,-0.008185594342648983
-1.3772118091583252,4.911072731018066,8.51525592803955,-0.02148500271141529,-0.043022364377975464,-0.01722639985382557
-1.39987051486969,4.861761569976807,8.489274024963379,-0.0025307273026555777,-0.024748768657445908,0.015219271183013916
-1.3638521432876587,4.827486038208008,8.461261749267578,-0.013159782625734806,-0.024260075762867928,0.01432915311306715
-1.3370083570480347,4.801283836364746,8.472782135009766,-0.046931903809309006,-0.06094689667224884,-0.0032114058267325163
-1.2777183055877686,4.8276777267456055,8.452556610107422,-0.07264060527086258,-0.09192649275064468,-0.02422516979277134
-1.2662453651428223,4.854215145111084,8.39266300201416,-0.08763298392295837,-0.09587093442678452,-0.0269304309040308
-1.2346514463424683,4.847070693969727,8.444866180419922,-0.07984881103038788,-0.050300389528274536,-0.008866272866725922
-1.2285605669021606,4.791985034942627,8.584046363830566,-0.05619960278272629,-0.013037609867751598,0.01218239776790142
-1.250999093055725,4.681056976318359,8.669538497924805,-0.0460766926407814,-0.023719023913145065,0.01302015595138073
-1.1922836303710938,4.6867451667785645,8.65084457397461,-0.04281292483210564,-0.04007275775074959,0.00769690191373229
-1.1841912269592285,4.737808704376221,8.711658477783203,1.7453292457503267e-05,-0.017697637900710106,0.0031939526088535786
-1.1564089059829712,4.714250087738037,8.636948585510254,0.011693705804646015,-0.00188495556358248,0.004660028964281082
-1.1842870712280273,4.685787677764893,8.667402267456055,0.015917403623461723,-0.002478367416188121,-0.00029670598451048136
-1.2313379049301147,4.666298866271973,8.661521911621094,0.018971728160977364,-0.023666664958000183,-0.017034413293004036
-1.2465554475784302,4.653312683105469,8.634563446044922,0.01638864167034626,-0.0319744311273098,-0.02364921197295189
-1.2627402544021606,4.725598335266113,8.609654426574707,0.017034413293004036,-0.03728023171424866,-0.03220132365822792
-1.2675765752792358,4.679017066955566,8.50648307800293,0.04253367334604263,0.0031066860537976027,-0.007417649496346712
-1.2733992338180542,4.81909704208374,8.436631202697754,0.028466319665312767,0.00143117003608495,-0.0205948855727911
-1.319770097732544,4.821951866149902,8.431726455688477,-0.013962633907794952,-0.016022123396396637,-0.0012391837080940604
-1.2453678846359253,4.737990856170654,8.49630355834961,-0.024347342550754547,-0.020751964300870895,0.00823795422911644
-1.174269676208496,4.733211994171143,8.502365112304688,0.0024260077625513077,0.0044156829826533794,0.003089232835918665
-1.1580848693847656,4.778309345245361,8.518311500549316,0.011431906372308731,0.014364060014486313,0.00047123889089562
-1.418708086013794,4.840472221374512,8.074281692504883,0.02869321219623089,-0.03881612420082092,-0.010855947621166706
-1.3174141645431519,5.0496296882629395,8.433919906616211,-0.11595967411994934,0.03710569813847542,0.049183379858732224
-1.2905895709991455,4.673203945159912,8.856344223022461,-0.12393582612276077,-0.09337511658668518,0.04230678081512451
-1.195693016052246,4.429732799530029,8.780695915222168,-0.13311626017093658,-0.16797049343585968,-0.004852015525102615
-1.3304578065872192,4.596340179443359,8.778953552246094,-0.1494874507188797,-0.20902062952518463,-0.056269414722919464
-0.9594906568527222,4.791621208190918,8.31137466430664,0.025045474991202354,0.014800392091274261,0.10204940289258957
-0.9082834720611572,4.80154275894165,8.462728500366211,0.00411897711455822,0.05804964900016785,0.12248720973730087
-0.8390144109725952,4.671173572540283,8.709243774414062,-0.11391764134168625,-0.09711012244224548,0.0705636590719223
-0.8424142003059387,4.568232536315918,8.748078346252441,-0.1540776640176773,-0.1518261879682541,0.014119713567197323
-0.8815546035766602,4.5064239501953125,8.822614669799805,-0.15196581184864044,-0.18186330795288086,-0.03246312215924263
-0.9294194579124451,4.511269569396973,8.813180923461914,-0.11946778744459152,-0.15632914006710052,-0.04893903061747551
-1.003572702407837,4.515167236328125,8.75646686553955,-0.06314601004123688,-0.07522369176149368,-0.028710665181279182
-1.0491678714752197,4.495027542114258,8.863065719604492,0.01473057921975851,0.004241149872541428,0.006824237294495106
-0.9974530935287476,4.448215961456299,8.828896522521973,0.06637486815452576,0.018814649432897568,0.013892821036279202
-0.9453936219215393,4.532645225524902,8.662260055541992,0.0486772321164608,-0.005777040030807257,-0.010035643354058266
-0.9042516350746155,4.6980462074279785,8.594704627990723,0.014957471750676632,-0.022392574697732925,-0.01794198527932167
-0.8932479023933411,4.720781326293945,8.618714332580566,-0.005969026125967503,-0.022340213879942894,-0.0021816615480929613
-0.8480358123779297,4.628470420837402,8.63764762878418,0.0007504915702156723,-0.007923794910311699,0.009494591504335403
-0.8271870613098145,4.535920143127441,8.713898658752441,0.005986479111015797,0.005881759338080883,0.002740166848525405
-1.0429620742797852,4.712325096130371,8.51541805267334,0.01864011585712433,0.05578072369098663,-0.019216075539588928
-1.1045984029769897,4.663358688354492,8.743653297424316,-0.020717058330774307,-0.02715732343494892,0.009110618382692337
-0.9137518405914307,4.445591926574707,8.903107643127441,-0.05777039751410484,-0.08183848857879639,0.0007853981805965304
-0.904309093952179,4.385602951049805,8.820602416992188,-0.004939281847327948,-0.0262148454785347,-0.029653143137693405
-0.9629287123680115,4.599251747131348,8.866552352905273,0.08101818710565567,0.019338248297572136,-0.0302465558052063
-0.924870491027832,4.70446252822876,8.587944030761719,0.09368927031755447,0.023631757125258446,-0.004921828396618366
-0.9165578484535217,4.6615777015686035,8.5458345413208,0.03447025269269943,0.0038746309000998735,-0.009005898609757423
-0.8792274594306946,4.721059322357178,8.654013633728027,-0.006021386012434959,-0.029338983818888664,-0.02710496261715889
-0.900947630405426,4.73415994644165,8.688002586364746,-0.01424188632518053,-0.03694862127304077,-0.03153809905052185
-0.9672478437423706,4.699185848236084,8.736977577209473,0.009110618382692337,-0.004066617228090763,-0.016528267413377762
-0.9930382370948792,4.613157272338867,8.832765579223633,0.03595378249883652,0.010105456225574017,0.003228859044611454
-0.9582648277282715,4.54446268081665,8.671013832092285,0.06501351296901703,-0.0009773843921720982,-0.013543754816055298
-0.9352230429649353,4.592193603515625,8.6406831741333,0.06766641139984131,0.0038746309000998735,-0.02099631167948246
-0.9014073014259338,4.703744411468506,8.542147636413574,0.07016223669052124,0.014660765416920185,-0.017697637900710106
-0.9432292580604553,4.680060863494873,8.594476699829102,0.035360369831323624,0.008447393774986267,-0.03078760765492916
-0.9831358194351196,4.72059965133667,8.551417350769043,0.032096605747938156,0.013875367119908333,-0.026982789859175682
-0.9940820932388306,4.745776653289795,8.592301368713379,0.02497566118836403,0.022392574697732925,-0.009564404375851154
-0.9685215950012207,4.707756996154785,8.636987686157227,0.02033308520913124,0.017383478581905365,-0.0005934119690209627
-0.8831347823143005,4.66213321685791,8.628070831298828,0.026459190994501114,0.028588492423295975,-0.009756390936672688
-0.9217963218688965,4.683766841888428,8.599148750305176,0.04583234712481499,0.06572909653186798,-0.021153390407562256
-0.9566846489906311,4.708982944488525,8.622382164001465,0.054017938673496246,0.08805186301469803,-0.014364060014486313
-0.9931914210319519,4.766740322113037,8.726033210754395,0.09939649701118469,0.13894565403461456,0.023404864594340324
-0.9544340968132019,4.6230788230896,8.62281322479248,0.17950710654258728,0.2509608864784241,0.0506843626499176
-1.7316398620605469,5.026750564575195,8.35172176361084,0.1350884884595871,0.4610636234283447,-0.1373574137687683
-1.8352034091949463,4.9289140701293945,8.342336654663086,0.10248573124408722,0.4018445909023285,-0.10562732815742493
-2.030618190765381,4.939965724945068,8.513282775878906,0.09147270768880844,0.3337593078613281,-0.10250318795442581
-2.043632984161377,5.076607704162598,8.428624153137207,0.08665559440851212,0.24033184349536896,-0.10128145664930344
-2.08117413520813,5.197170257568359,8.21279239654541,0.07007496803998947,0.22478094696998596,-0.08100073039531708
-2.220459222793579,5.219532012939453,8.262237548828125,0.036477379500865936,0.21478021144866943,-0.03659955412149429
-2.2222118377685547,5.246203422546387,8.391130447387695,0.04323180392384529,0.1926668882369995,0.019512781873345375
-2.155241012573242,5.175593376159668,8.362956047058105,0.06665412336587906,0.1684766262769699,0.05801474303007126
-2.068915843963623,5.139086723327637,8.350726127624512,0.060562923550605774,0.13692107796669006,0.05656611919403076
-2.004875659942627,5.148586750030518,8.26559829711914,0.024033183231949806,0.0990823432803154,0.0547160729765892
-1.9458059072494507,5.052981853485107,8.324830055236816,0.011763518676161766,0.08597491681575775,0.05316272750496864
-1.966654658317566,4.9928202629089355,8.368999481201172,0.021903881803154945,0.07061602175235748,0.048432886600494385
-1.8561766147613525,5.056821823120117,8.30888557434082,0.06073745712637901,0.1019621342420578,0.06358234584331512
-1.83979070186615,5.010776519775391,8.285566329956055,0.10726793855428696,0.14264576137065887,0.056635934859514236
-1.8389478921890259,5.066590309143066,8.302631378173828,0.09231046587228775,0.12980014085769653,0.042760565876960754
-1.9603052139282227,4.985628128051758,8.427704811096191,0.04845033958554268,0.02312561310827732,0.009791296906769276
-1.9557275772094727,5.183934688568115,7.724173069000244,-0.08461356163024902,-0.07197737693786621,-0.03364994749426842
-1.8659929037094116,5.043787956237793,8.053338050842285,-0.03525565192103386,-0.04202752932906151,-0.04270820692181587
-2.0135045051574707,5.152340888977051,8.225979804992676,0.027471482753753662,0.06304129213094711,-0.013473941944539547
-2.0890750885009766,5.090014934539795,8.164658546447754,0.02776818908751011,0.03269001841545105,0.006300638429820538
-2.018599271774292,5.0575785636901855,8.153826713562012,-0.01984439417719841,-0.019390607252717018,-0.0012740903766825795
-1.9489854574203491,5.09805965423584,8.149144172668457,-0.0512777715921402,-0.057997290045022964,-0.02909463830292225
-1.9703991413116455,5.138856887817383,8.089489936828613,-0.060615286231040955,-0.05895722284913063,-0.03853686898946762
-1.977984070777893,5.166428565979004,8.118940353393555,-0.06051056459546089,-0.02494075521826744,-0.025499260053038597
-1.985923171043396,5.153585910797119,8.293255805969238,-0.053267449140548706,-0.005689773242920637,-0.005270894151180983
-1.9689913988113403,5.10386323928833,8.338592529296875,-0.05555383116006851,-0.023858651518821716,0.0017802357906475663
-1.9614927768707275,5.019261837005615,8.404614448547363,-0.06871361285448074,-0.04389503225684166,-0.009826203808188438
-1.9722858667373657,5.013496398925781,8.44640827178955,-0.06284930557012558,-0.07136651128530502,-0.027454029768705368
-1.9934792518615723,4.990416526794434,8.382808685302734,-0.03701843321323395,-0.06436774134635925,-0.03104940801858902
-2.0163965225219727,5.094727039337158,8.332301139831543,-0.007522369269281626,-0.046617742627859116,-0.018273597583174706
-2.0017249584198,5.1089677810668945,8.290640830993652,-0.007400196045637131,-0.031206486746668816,0.012234757654368877
-1.90797758102417,4.998776912689209,8.308770179748535,-0.016755159944295883,-0.04988151043653488,0.011135200969874859
-1.873989462852478,4.936795711517334,8.308732032775879,-0.021868975833058357,-0.07087782025337219,-0.02324778586626053
-1.937292218208313,5.064723014831543,8.339398384094238,-0.08274605870246887,-0.22603759169578552,-0.04265584796667099
-1.917190432548523,5.058172225952148,8.292424201965332,-0.0947539210319519,-0.20984093844890594,-0.02808234840631485
-1.9069336652755737,5.017432689666748,8.402957916259766,-0.0944921225309372,-0.17727309465408325,-0.00038397242315113544
-1.9113198518753052,4.962116718292236,8.519957542419434,-0.08826129883527756,-0.18106046319007874,0.0091455252841115
-1.8935165405273438,4.869384765625,8.624124526977539,-0.07740534842014313,-0.24467770755290985,0.01235693134367466
-1.7987158298492432,4.847263336181641,8.608152389526367,-0.09306095540523529,-0.34438836574554443,0.001483529806137085
-1.5023902654647827,4.859300136566162,8.360360145568848,-0.1679355800151825,-0.47829002141952515,-0.04283038154244423
-1.4571589231491089,4.8466973304748535,8.35817813873291,-0.19495327770709991,-0.44135886430740356,-0.0414864756166935
-1.1599044799804688,4.703514575958252,8.51970100402832,-0.1299223154783249,-0.2338915765285492,0.02209586836397648
-1.1135718822479248,4.64146614074707,8.544398307800293,-0.1373574137687683,-0.2192133516073227,0.021781709045171738
-0.935155987739563,4.559680461883545,8.610918045043945,-0.05859070271253586,-0.099675752222538,0.02989749051630497
-0.9173240065574646,4.523163795471191,8.652970314025879,-0.009477137587964535,-0.02387610450387001,0.0371580608189106
-0.9373107552528381,4.588535308837891,8.601006507873535,-0.016423547640442848,-0.047019168734550476,0.009861109778285027
-0.8881146907806396,4.589962005615234,8.599148750305176,0.00041887903353199363,-0.00753982225432992,0.010698867961764336
-1.2034789323806763,4.788987159729004,8.390096664428711,-0.013194689527153969,0.0757298395037651,0.03166027367115021
-0.9766139984130859,4.572589874267578,8.65138053894043,-0.11035716533660889,-0.07190756499767303,0.00753982225432992
-0.9402604103088379,4.343416690826416,8.751171112060547,-0.18179349601268768,-0.12250465899705887,-0.05461135134100914
-1.1292587518692017,4.509335041046143,9.05095386505127,-0.02356194518506527,-0.03047344833612442,-0.02710496261715889
-1.0915547609329224,4.589722633361816,8.852522850036621,0.025185100734233856,0.009320057928562164,-0.0023387412074953318
-1.0123546123504639,4.633258819580078,8.7189359664917,0.06780604273080826,0.06075491011142731,0.01961750164628029
-0.9675351977348328,4.6608686447143555,8.648058891296387,0.021729348227381706,0.02967059798538685,0.013404129073023796
-0.987119734287262,4.608617782592773,8.666378021240234,-0.045553091913461685,-0.030403634533286095,-0.00930260494351387
-0.9674394130706787,4.593314170837402,8.69133472442627,-0.05834635719656944,-0.04539601504802704,-0.02024581842124462
-0.975091278553009,4.6112799644470215,8.71788215637207,-0.0357094369828701,-0.01516691129654646,-0.020891591906547546
-1.0504894256591797,4.627780914306641,8.757108688354492,0.00678933085873723,0.017296213656663895,-0.0016231562476605177
-1.0536307096481323,4.591025352478027,8.757244110107422,0.005864306353032589,0.02649409882724285,0.020315632224082947
-1.0077193975448608,4.503493309020996,8.854389190673828,-0.00472984230145812,0.006806783843785524,0.01909390278160572
-0.9993301630020142,4.466201305389404,8.888781547546387,0.003630284918472171,-0.01417207345366478,-0.005323254037648439
-1.0456914901733398,4.520865440368652,8.770564079284668,0.021851522848010063,-0.019739674404263496,-0.012636183761060238
-1.053170919418335,4.6082444190979,8.724671363830566,0.03741985931992531,0.00472984230145812,0.0040317103266716
-0.9923103451728821,4.594319820404053,8.697186470031738,0.04773475602269173,0.02090904489159584,0.020263273268938065
-0.9862291216850281,4.548839569091797,8.695893287658691,0.03586651757359505,0.0038746309000998735,0.01302015595138073
-0.9949439764022827,4.547642230987549,8.700288772583008,0.022602014243602753,-0.012793263420462608,0.005462880712002516
-0.9906631708145142,4.552334785461426,8.666923522949219,0.005044001620262861,-0.02586578018963337,-0.0022689281031489372
-1.012967586517334,4.551003932952881,8.662787437438965,0.0119555052369833,-0.010629055090248585,0.002914699725806713
-0.9856449365615845,4.5220723152160645,8.677860260009766,0.03064798191189766,0.014713125303387642,0.014608405530452728
-0.9433633089065552,4.4640655517578125,8.732667922973633,0.03827507048845291,0.018622662872076035,0.005864306353032589
-0.96729576587677,4.552057266235352,8.64609432220459,0.01014036312699318,-0.009075712412595749,0.013002702966332436
-0.9462555050849915,4.527780055999756,8.692981719970703,0.008761553093791008,-0.027262043207883835,-0.005532693583518267
-0.9893224239349365,4.607746124267578,8.56721019744873,-0.0007853981805965304,-0.0302465558052063,-0.013543754816055298
-1.0295641422271729,4.573605060577393,8.599685668945312,-0.02488839440047741,-0.025883233174681664,0.0039618974551558495
-1.001293420791626,4.516718864440918,8.669806480407715,-0.027471482753753662,-0.02148500271141529,0.007400196045637131
-0.9363722205162048,4.474034786224365,8.7181978225708,-0.008499753661453724,-0.0293738916516304,-0.019216075539588928
-0.9783856868743896,4.601176738739014,8.644696235656738,-0.009442231617867947,-0.024068091064691544,-0.03494149073958397
-1.0005559921264648,4.6656670570373535,8.684123992919922,-0.028361599892377853,-0.03614576905965805,-0.024434609338641167
-0.9822547435760498,4.581094264984131,8.779518127441406,-0.04207988828420639,-0.051312681287527084,-0.013369222171604633
-0.9533998370170593,4.473948955535889,8.782238006591797,-0.034784410148859024,-0.054017938673496246,-0.014276793226599693
-0.9000665545463562,4.551396369934082,8.693020820617676,0.03637266159057617,0.003455751808360219,-0.0021293016616255045
-0.9152553677558899,4.515331268310547,8.6498384475708,0.03726277872920036,0.016406094655394554,-0.015184364281594753
-0.9175825715065002,4.547115802764893,8.658371925354004,0.025673793628811836,0.003036872949451208,-0.033999014645814896
-0.9377800226211548,4.610245704650879,8.625657081604004,0.01563815027475357,-0.00563741335645318,-0.040997784584760666
-0.9336619973182678,4.66310977935791,8.633940696716309,0.04150392860174179,0.0015882495790719986,0.015760323032736778
-1.015265941619873,4.571440696716309,8.28274154663086,0.047193702310323715,0.028902651742100716,0.01029744278639555
-1.108898401260376,4.8622307777404785,8.284667015075684,0.04473278671503067,0.07756242901086807,0.008342674002051353
-1.1117331981658936,4.840366840362549,8.566396713256836,-0.007016223389655352,0.02010619267821312,0.05864306166768074
-0.822350800037384,4.483554363250732,8.721071243286133,-0.05400048568844795,-0.03928736224770546,0.053302355110645294
-0.907325804233551,4.460072040557861,8.785274505615234,-0.035901423543691635,-0.0406138114631176,0.0022689281031489372
-0.9272359609603882,4.588219165802002,8.797216415405273,0.012601276859641075,0.0073303827084600925,-0.0013613568153232336
-0.9860184192657471,4.6820526123046875,8.772144317626953,0.044488441199064255,0.03145083412528038,0.02324778586626053
-0.9959782958030701,4.589014053344727,8.703556060791016,0.03508111834526062,0.009983283467590809,0.028902651742100716
-0.949329674243927,4.635117053985596,8.61435604095459,0.013840461149811745,-0.00188495556358248,0.006597344763576984
-0.9714233875274658,4.710639476776123,8.64030933380127,0.009878563694655895,-0.006544984877109528,0.00010471975838299841
-0.8407095074653625,4.609508514404297,8.556648254394531,0.0077841682359576225,0.015219271183013916,0.031555552035570145
-0.7895885109901428,4.610753536224365,8.605650901794434,-0.0008028514566831291,0.01211258489638567,0.016598081216216087
-0.7935341596603394,4.583039283752441,8.441293716430664,-0.005550147034227848,0.017121680080890656,-0.01705186627805233
-0.8702348470687866,4.7161173820495605,8.69734001159668,-0.02419026382267475,0.01151917316019535,-0.008360126987099648
-0.8912655115127563,4.5251078605651855,8.66707706451416,-0.025220006704330444,-0.016057029366493225,-0.024993114173412323
-0.9847542643547058,4.586246490478516,8.668129920959473,-0.019512781873345375,0.013142329640686512,-0.050649452954530716
-1.1553363800048828,4.697145938873291,8.816839218139648,0.0019198621157556772,0.011780972592532635,-0.04335397854447365
-0.9410648941993713,4.718837261199951,8.56057357788086,-0.014433872886002064,0.02652900479733944,0.011972958222031593
-0.9350314736366272,4.670675754547119,8.652894020080566,-0.05337216705083847,-0.008377579972147942,0.0037873645778745413
-0.8597386479377747,4.525615692138672,8.826521873474121,0.0006806784076616168,0.007365289609879255,0.01160643994808197
-0.837836503982544,4.438878536224365,8.786480903625488,0.040037851780653,0.020088739693164825,0.0016929693520069122
-1.063293695449829,4.677178382873535,8.509444236755371,0.03441789373755455,0.06517059355974197,-0.05965535342693329
-1.0751785039901733,4.758973598480225,8.493515968322754,0.01869247667491436,0.070266954600811,-0.04991641640663147
-1.2138314247131348,4.645316123962402,8.490750312805176,-0.041608650237321854,0.03637266159057617,-0.04673991724848747
-1.204168438911438,4.718616962432861,8.651141166687012,-0.06435029208660126,0.01727875880897045,-0.03193952515721321
-1.1567153930664062,4.672753810882568,8.678109169006348,-0.03817034885287285,0.03778637945652008,-0.009162978269159794
-1.12641441822052,4.702757835388184,8.69214916229248,-0.0008726646192371845,0.09142034500837326,0.0031241392716765404
-1.2056241035461426,4.675540447235107,8.821847915649414,0.02281145378947258,0.11400490999221802,0.03090978041291237
-1.2677967548370361,4.5832390785217285,8.917357444763184,0.025394540280103683,0.0875806212425232,0.04513421282172203
-1.227765679359436,4.553982257843018,8.932938575744629,0.05475097894668579,0.08080874383449554,0.055030230432748795
-1.1974838972091675,4.5595173835754395,8.89175033569336,0.07579965144395828,0.08576548099517822,0.05885250121355057
-1.1588318347930908,4.586131572723389,8.764751434326172,0.10555751621723175,0.0999375507235527,0.05815437063574791
-1.1383854150772095,4.588582992553711,8.664606094360352,0.10815805196762085,0.09271188825368881,0.04403465613722801
-1.107816219329834,4.637654781341553,8.574986457824707,0.09489355236291885,0.08735372871160507,0.03029891662299633
-1.514581561088562,5.095770835876465,8.20513916015625,-0.00783652812242508,0.11079350113868713,0.058660514652729034
-1.2553373575210571,4.851140975952148,8.483624458312988,-0.029530970379710197,0.026145031675696373,0.08145451545715332
-1.3115915060043335,4.7525858879089355,8.641927719116211,-0.03588397055864334,0.013735741376876831,0.0884358361363411
-1.2342013120651245,4.703044891357422,8.568809509277344,-0.028047440573573112,0.013386675156652927,0.0688357874751091
-1.1958845853805542,4.712238788604736,8.574565887451172,-0.0012740903766825795,0.043476153165102005,0.05110324174165726
-1.2242510318756104,4.805593490600586,8.549302101135254,0.029792770743370056,0.06527531147003174,0.045954518020153046
-1.2781301736831665,4.829746246337891,8.502596855163574,0.020385446026921272,0.06949900835752487,0.06215117499232292
-1.2308398485183716,4.781871795654297,8.56094741821289,-0.0038222710136324167,0.03619812801480293,0.05612978711724281
-1.16842782497406,4.760438919067383,8.60725212097168,-0.01417207345366478,0.011013027280569077,0.015777776017785072
-1.2258790731430054,4.788719177246094,8.626538276672363,-0.02998475730419159,-0.013473941944539547,-0.004939281847327948
-1.3044089078903198,4.776719570159912,8.636679649353027,-0.01966986060142517,-0.02546435408294201,-0.0077667152509093285
-1.3673477172851562,4.788336277008057,8.66649341583252,0.0023561944253742695,-0.011030481196939945,-0.0024260077625513077
-1.362750768661499,4.828395843505859,8.647405624389648,0.029653143137693405,-0.014067353680729866,0.003525565145537257
-1.4891934394836426,4.717716693878174,8.736164093017578,0.0126710906624794,-0.03555235639214516,0.024015730246901512
-1.3718488216400146,4.7869954109191895,8.651429176330566,0.04675737023353577,0.010943214409053326,0.028117254376411438
-1.395235300064087,4.871108531951904,8.369515419006348,0.06932447850704193,0.012880530208349228,0.027872908860445023
-1.331568717956543,4.976146697998047,8.329294204711914,0.042935099452733994,0.02431243658065796,0.050823986530303955
-1.1030086278915405,4.900882720947266,8.311432838439941,-0.005864306353032589,0.0008203047327697277,0.0601964071393013
-1.0331171751022339,4.824306488037109,8.389129638671875,-0.02387610450387001,0.014102260582149029,0.0403171069920063
-1.0727459192276,4.821165561676025,8.572908401489258,-0.05009094998240471,-0.014381512999534607,0.024469515308737755
-1.1050580739974976,4.723788261413574,8.660459518432617,-0.05890486389398575,-0.05679301545023918,0.010175269097089767
-1.0835773944854736,4.711673736572266,8.72131061553955,-0.0114493602886796,-0.04562290757894516,-0.012391837313771248
-1.1024627685546875,4.726642608642578,8.672545433044434,0.02427753061056137,-0.025237461552023888,-0.024923302233219147
-1.1724979877471924,4.736573696136475,8.602328300476074,0.04274311289191246,-0.018360864371061325,-0.04783947393298149
-1.3623485565185547,4.985091686248779,8.452375411987305,0.03956661373376846,-0.018622662872076035,-0.05345943570137024
-1.366955041885376,5.029853820800781,8.372599601745605,0.04288274049758911,0.006963863503187895,-0.02188642881810665
-1.3492188453674316,4.9882426261901855,8.35706615447998,0.02834414690732956,0.01993165910243988,-0.00038397242315113544
-1.3212641477584839,4.919806480407715,8.380797386169434,-0.002827433403581381,0.006143558770418167,0.0038746309000998735
-1.2908194065093994,4.894533157348633,8.433029174804688,-0.02298598550260067,-0.0017976891249418259,0.005044001620262861
-1.267289161682129,4.858668327331543,8.492807388305664,-0.013823007233440876,0.002740166848525405,0.006894050631672144
-1.353652834892273,4.922966957092285,7.999678611755371,-0.0213104709982872,0.025446901097893715,0.016702800989151
-1.31760573387146,4.846601486206055,8.614624977111816,-0.058259088546037674,0.003996803890913725,0.038379788398742676
-1.2764829397201538,4.699300765991211,8.694189071655273,-0.03597123548388481,-0.03796090930700302,0.013072515837848186
