accX,accY,accZ,gyroX,gyroY,gyroZ
-0.5991154313087463,2.2896132469177246,8.929519653320312,0.03193952515721321,0.039304815232753754,-0.005323254037648439
-0.5795787572860718,2.465146541595459,8.792935371398926,0.011938052251935005,0.007627088576555252,-0.0019373154500499368
-0.6321937441825867,2.4760642051696777,8.968161582946777,-0.01357866171747446,-0.017662731930613518,0.0068765971809625626
-0.630546510219574,2.380784511566162,9.078009605407715,-0.006248278543353081,-0.0262148454785347,0.010821041651070118
-0.5643612146377563,2.3827764987945557,8.866313934326172,0.007120943162590265,-0.00921533815562725,-0.0050090947188436985
-0.5675023794174194,2.4036922454833984,8.900272369384766,-0.006440265104174614,-0.004904375411570072,-0.015254177153110504
-0.574254035949707,2.3920085430145264,9.161442756652832,-0.004502949304878712,-0.007871435023844242,-0.009669124148786068
-0.5485690236091614,2.368277072906494,9.113480567932129,0.015132004395127296,-0.004084070213139057,-0.011554080061614513
-0.5453320741653442,2.4406490325927734,8.826560974121094,0.016144296154379845,0.0046774824149906635,-0.019216075539588928
-0.5825188159942627,2.459505796432495,8.884000778198242,-0.013596114702522755,-0.015934856608510017,-0.022026054561138153
-0.5799043774604797,2.3414430618286133,9.06527042388916,-0.018971728160977364,-0.02825688011944294,-0.01539380382746458
-0.4989228844642639,2.3335134983062744,9.052715301513672,0.00017453292093705386,-0.011466813273727894,-0.007592182140797377
-0.5062587261199951,2.415653705596924,8.906305313110352,-0.0005410520825535059,0.02007128670811653,-0.005794493015855551
-0.5790807604789734,2.4472858905792236,9.039949417114258,-0.013142329640686512,0.009197885170578957,-0.004049163777381182
-0.6140169501304626,2.4106833934783936,9.103137969970703,-0.004904375411570072,-0.0008901178953237832,-0.0047996556386351585
-0.5333419442176819,2.32361102104187,8.920967102050781,0.0038222710136324167,-0.002321287989616394,-0.009599311277270317
-0.5418844223022461,2.398607015609741,8.842975616455078,-0.006981316953897476,0.005777040030807257,-0.00921533815562725
-0.6067577004432678,2.4323267936706543,9.042305946350098,-0.010402162559330463,-0.001972222002223134,-0.005654866807162762
-0.5971330404281616,2.3901889324188232,9.060606956481934,0.0002617993741296232,-0.004049163777381182,-0.008779006078839302
-0.5266956090927124,2.362933397293091,8.82744026184082,0.008447393774986267,-0.00017453292093705386,-0.004380776546895504
-0.54352205991745,2.3762929439544678,8.863489151000977,-0.000715585018042475,0.00251327408477664,-0.003996803890913725
-0.493559867143631,2.3848354816436768,8.913153648376465,-0.0007504915702156723,-0.005427973810583353,0.003909537568688393
-0.548281729221344,2.4057512283325195,9.010205268859863,-0.001343903481028974,-0.003996803890913725,0.006003932561725378
-0.5342996120452881,2.3777198791503906,9.135823249816895,0.010751227848231792,0.0008377580670639873,0.0061610122211277485
-0.5290132164955139,2.391500949859619,9.060895919799805,0.0247662216424942,-0.016667895019054413,0.005689773242920637
-0.5040464997291565,2.457063674926758,8.807243347167969,0.010925761424005032,-0.016720253974199295,0.0009599310578778386
-0.5302103161811829,2.4648592472076416,8.959763526916504,-0.009093165397644043,-0.00472984230145812,0.00013962633966002613
-0.6102628111839294,2.3847014904022217,9.233372688293457,0.008429939858615398,0.008499753661453724,0.00094247778179124
-0.45971542596817017,2.384356737136841,8.864225387573242,-6.981316983001307e-05,-0.010192723013460636,-0.00010471975838299841
-0.5338399410247803,2.4292335510253906,9.060090065002441,-0.0165631752461195,-0.035726889967918396,0.00040142572834156454
-0.49055275321006775,2.3625693321228027,9.025087356567383,-0.009162978269159794,-0.023195425048470497,-0.000715585018042475
-0.5276628732681274,2.2939229011535645,9.142325401306152,-0.011013027280569077,-0.061767201870679855,-0.0005759586347267032
-0.4096478819847107,2.274510622024536,8.982929229736328,-0.01160643994808197,-0.09224065393209457,-0.006544984877109528
-0.3409247398376465,2.316141128540039,8.926868438720703,0.0005235987482592463,-0.0036826448049396276,0.0019896754529327154
-0.419301301240921,2.371399164199829,9.279389381408691,0.024731315672397614,0.0515570268034935,0.009616764262318611
-0.44377005100250244,2.43530535697937,9.118863105773926,0.019687313586473465,-0.009093165397644043,0.009738937020301819
-0.42677122354507446,2.414820432662964,8.885122299194336,0.013473941944539547,-0.004136430099606514,0.005044001620262861
-0.4108641445636749,2.386923313140869,9.003337860107422,-0.0008028514566831291,0.0076445420272648335,0.002460914198309183
-0.3915573060512543,2.439499855041504,8.85082721710205,0.006946410518139601,0.0026529005263000727,-0.00029670598451048136
-0.4058842062950134,2.381732702255249,8.990218162536621,-0.0012042771559208632,0.019320795312523842,-0.0010122909443452954
-0.42687657475471497,2.3422954082489014,9.114764213562012,0.001117010717280209,-0.009634217247366905,-0.0038746309000998735
-0.3813292682170868,2.356229543685913,8.952609062194824,0.0012391837080940604,-0.03401646763086319,-0.0035953782498836517
-0.401708722114563,2.319262981414795,9.116171836853027,-0.022689281031489372,-0.05864306166768074,0.00017453292093705386
-0.35360443592071533,2.355252742767334,9.076485633850098,-0.02431243658065796,-0.13369221985340118,-0.002914699725806713
-0.3558070957660675,2.495208263397217,8.922835350036621,-0.06890559941530228,-0.3062180280685425,-0.01665044017136097
-0.35393962264060974,2.425671100616455,8.906784057617188,0.03415609151124954,0.09030333161354065,0.008115780539810658
-0.3629992604255676,2.4652233123779297,9.086292266845703,-0.007871435023844242,-0.023666664958000183,0.015097098425030708
-0.28838637471199036,2.3327088356018066,9.235308647155762,0.008866272866725922,0.020699605345726013,0.01869247667491436
-0.33997663855552673,2.296250104904175,8.97167682647705,0.03747221827507019,0.0625002384185791,0.0073303827084600925
-0.34566524624824524,2.420719861984253,8.890380859375,0.009005898609757423,0.01595230959355831,0.0009599310578778386
-0.35860350728034973,2.363211154937744,9.144031524658203,-0.006318091880530119,-0.018762288615107536,0.0031066860537976027
-0.34550243616104126,2.312501907348633,9.170787811279297,0.0200189258903265,0.0034208453726023436,0.011938052251935005
-0.31234753131866455,2.438197374343872,8.849649429321289,0.02537708729505539,0.01895427517592907,0.005951572675257921
-0.3208804726600647,2.457350969314575,8.858986854553223,-0.0025830871891230345,0.015917403623461723,0.0045378562062978745
-0.3868933916091919,2.409907579421997,9.152429580688477,-0.005899212788790464,0.00019198621157556772,0.0074525559321045876
-0.3769526779651642,2.346240997314453,9.094949722290039,0.013631021603941917,0.0051312679424881935,0.0011519172694534063
-0.3744531273841858,2.403740167617798,8.890714645385742,0.009494591504335403,0.018238689750432968,-0.002007128670811653
-0.4341166317462921,2.412675142288208,9.013604164123535,-0.012164944782853127,0.008255407214164734,-0.004049163777381182
-0.4227010905742645,2.3175487518310547,9.222455024719238,-0.006841690745204687,-0.007749261800199747,-0.00015707963029854
-0.311811238527298,2.330793619155884,9.088982582092285,0.006265731994062662,0.0020420351065695286,0.006021386012434959
-0.30182263255119324,2.400416851043701,8.950377464294434,-0.00027925267932005227,0.034749504178762436,0.009424777701497078
-0.3618308901786804,2.4007999897003174,9.143973350524902,-0.008377579972147942,0.04274311289191246,0.007923794910311699
-0.43368569016456604,2.3567371368408203,9.198866844177246,0.008761553093791008,0.04698426276445389,0.0027925267349928617
-0.3487394154071808,2.3088338375091553,8.935591697692871,0.014503685757517815,0.05363396927714348,0.004258603323251009
-0.31330522894859314,2.415337562561035,8.837611198425293,-0.0016406094655394554,0.07595673203468323,0.015289084054529667
-0.4173572361469269,2.372682571411133,9.040946006774902,0.013892821036279202,0.13013175129890442,0.013823007233440876
-0.392505407333374,2.4194939136505127,8.829930305480957,0.004136430099606514,0.1440071165561676,0.014992378652095795
-0.4363863468170166,2.45682430267334,9.028888702392578,-0.010506882332265377,0.113481305539608,0.015620696358382702
-0.6438199877738953,2.2605669498443604,9.231074333190918,-0.0023038345389068127,0.06253514438867569,0.001117010717280209
-0.4967776834964752,2.248758554458618,8.967597961425781,0.014468779787421227,0.024120450019836426,-0.010629055090248585
-0.5251824855804443,2.3383593559265137,9.03833293914795,0.01211258489638567,-0.005270894151180983,0.003263765713199973
-0.48659753799438477,2.422884225845337,8.853259086608887,-0.0031066860537976027,0.0063355453312397,0.004607669077813625
-0.5804980993270874,2.409543752670288,9.074311256408691,-0.014224433340132236,0.0025830871891230345,0.008342674002051353
-0.5447478890419006,2.329969882965088,8.963995933532715,0.010489428415894508,-0.014556045643985271,-0.006108652334660292
-0.49847277998924255,2.381866693496704,8.902082443237305,-0.005846852902323008,-0.0012740903766825795,0.0
-0.5792052745819092,2.4001104831695557,9.150053977966309,-0.014590952545404434,-0.0076445420272648335,0.005148721393197775
-0.5587491989135742,2.3517379760742188,9.156834602355957,0.006265731994062662,-0.006510077975690365,0.0051312679424881935
-0.4972565174102783,2.3883883953094482,8.85793399810791,0.01104793418198824,-0.0024085543118417263,-0.002007128670811653
-0.5176646709442139,2.382086992263794,8.90397834777832,-0.008918632753193378,-0.009756390936672688,-0.005044001620262861
-0.5603101849555969,2.368516683578491,9.11270523071289,-0.01120501384139061,-0.020839231088757515,-0.005288347601890564
-0.3735624849796295,2.362502336502075,8.840139389038086,0.004380776546895504,0.08805186301469803,-0.005113814491778612
-0.5268201231956482,2.3394415378570557,9.328115463256836,-0.03834488242864609,-0.05054473504424095,-0.0017802357906475663
-0.5469505786895752,2.3173668384552,9.422974586486816,0.004921828396618366,-0.00708603672683239,0.004433136433362961
-0.5318575501441956,2.2753055095672607,8.731586456298828,0.03553490340709686,0.032044246792793274,0.0039618974551558495
-0.5204706788063049,2.399564504623413,8.88925838470459,0.012007865123450756,0.021903881803154945,0.00617846567183733
-0.5186319351196289,2.3777198791503906,9.09777545928955,-0.006440265104174614,-0.0547335259616375,0.007225662935525179
-0.5081645250320435,2.4247899055480957,9.130949020385742,0.020874137058854103,-0.010524335317313671,0.006911503616720438
-0.4712459146976471,2.5298571586608887,8.82326602935791,0.017069319263100624,0.023527037352323532,0.0010471974965184927
-0.5704712271690369,2.4588162899017334,9.148205757141113,-0.020053833723068237,-0.0339815616607666,-0.004136430099606514
-0.5021981596946716,2.36501145362854,9.185162544250488,0.00678933085873723,-0.011815878562629223,-0.0038222710136324167
-0.4759385585784912,2.3968544006347656,8.933043479919434,0.013910274021327496,0.0008901178953237832,-0.0037873645778745413
-0.4280066192150116,2.4344146251678467,8.90250301361084,0.004433136433362961,-0.0052534411661326885,0.0012915435945615172
-0.47238555550575256,2.408212423324585,9.081628799438477,-0.0017627825727686286,-0.002478367416188121,0.008813912980258465
-0.5738039612770081,2.397371530532837,9.161833763122559,0.01935570128262043,0.008185594342648983,0.004974188283085823
-0.5053776502609253,2.354180097579956,8.905750274658203,0.02330014482140541,0.022130774334073067,0.0008901178953237832
-0.5052435994148254,2.4041998386383057,8.90703296661377,0.008499753661453724,0.046652652323246,0.00563741335645318
-0.5358127355575562,2.460702896118164,9.056249618530273,0.007749261800199747,0.05860815569758415,0.011222466826438904
-0.6273574233055115,2.4773473739624023,9.085899353027344,0.018081611022353172,0.053284902125597,-0.0020420351065695286
-0.5720130801200867,2.3700010776519775,8.896986961364746,-0.005497787147760391,0.017959438264369965,-0.004049163777381182
-0.6129826307296753,2.400397777557373,9.097315788269043,-0.019600046798586845,0.016859879717230797,0.0008552113431505859
-0.6314946413040161,2.3556549549102783,9.115242958068848,-0.0077841682359576225,0.013229595497250557,0.00094247778179124
-0.5895290374755859,2.402207851409912,8.84313678741455,-0.00040142572834156454,0.0246265958994627,-0.009285151958465576
-0.5864261388778687,2.4441733360290527,8.909551620483398,-0.02724459022283554,0.019512781873345375,-0.013404129073023796
-0.6235266923904419,2.333130359649658,9.207572937011719,-0.03223622962832451,0.0002617993741296232,-0.00823795422911644
-0.5607794523239136,2.318544864654541,9.16579818725586,0.0045378562062978745,0.011972958222031593,0.0008726646192371845
-0.5560102462768555,2.4226064682006836,8.861209869384766,0.0253421813249588,0.03113667294383049,-0.0021642083302140236
-0.6108853220939636,2.467167377471924,8.926254272460938,0.001745329238474369,-0.005148721393197775,-0.004171337001025677
-0.6139020323753357,2.3781700134277344,9.029635429382324,-0.00020943951676599681,0.0033335788175463676,-0.004625122528523207
-0.7249355316162109,2.273983955383301,9.369478225708008,0.11440633237361908,0.309324711561203,-0.004956734832376242
-0.7416278719902039,2.442899703979492,9.039912223815918,-0.03447025269269943,-0.13201670348644257,-0.006352998316287994
-0.7611166834831238,2.3494300842285156,9.085832595825195,-0.04766494035720825,-0.06757915019989014,-0.006021386012434959
-0.5971139073371887,2.3797309398651123,9.064102172851562,0.0009599310578778386,0.047106437385082245,-0.002460914198309183
-0.6294834613800049,2.4363491535186768,8.952417373657227,-0.033824481070041656,-0.011100294068455696,-0.006649704650044441
-0.7773110866546631,2.6535511016845703,9.164917945861816,-0.03136356547474861,-0.034348078072071075,0.004084070213139057
-0.5283236503601074,2.3422091007232666,8.754168510437012,-0.013159782625734806,0.007173303049057722,-0.011431906372308731
-0.5641696453094482,2.40266752243042,8.809369087219238,-0.04185299575328827,0.01682497374713421,-0.03176499158143997
-0.5956007242202759,2.281128168106079,9.075834274291992,-0.03675663471221924,-0.019146261736750603,-0.03450515866279602
-0.6854215860366821,2.3564114570617676,8.9096097946167,-0.025970499962568283,-0.005497787147760391,0.0008726646192371845
-0.6999879479408264,2.3273937702178955,9.098713874816895,-0.02387610450387001,-0.003403391921892762,0.0
-0.6476219296455383,2.295081615447998,8.969847679138184,-0.012705996632575989,-0.016406094655394554,-0.009826203808188438
-0.6157311797142029,2.3287057876586914,8.901670455932617,-0.021066123619675636,-0.021293016150593758,-0.01326450239866972
-0.6286981701850891,2.3164188861846924,9.074581146240234,-0.032934363931417465,-0.05333726108074188,-0.014433872886002064
-0.7358434796333313,2.2455503940582275,9.196990013122559,-0.024783674627542496,-0.06928957253694534,-0.011082841083407402
-0.6601388454437256,2.231271505355835,9.097381591796875,-0.00015707963029854,-0.05239478498697281,-0.003351032268255949
-0.5765620470046997,2.272576093673706,8.916285514831543,0.0017627825727686286,-0.03160791099071503,0.00015707963029854
-0.647641122341156,2.269320011138916,9.005023002624512,-0.004502949304878712,-0.01869247667491436,0.010821041651070118
-0.6619775891304016,2.2922372817993164,9.041742324829102,0.002373647876083851,-0.014032446779310703,0.008674286305904388
-0.5892513394355774,2.2704405784606934,8.96552848815918,-0.002321287989616394,-0.027209682390093803,-0.0062831854447722435
-0.5900940895080566,2.3292038440704346,9.078333854675293,-0.008325220085680485,-0.04180063679814339,-0.008639379404485226
-0.6428143978118896,2.315058946609497,9.114333152770996,-0.0003665191470645368,0.011135200969874859,-0.004904375411570072
-0.5851715803146362,2.3285908699035645,9.069666862487793,0.007103490177541971,-0.011152653954923153,-0.009581857360899448
-0.5715725421905518,2.3168785572052,8.862117767333984,0.008796459063887596,-0.02033308520913124,-0.012496557086706161
-0.6480816602706909,2.296135187149048,9.009811401367188,0.018081611022353172,-0.03522074595093727,-0.021799162030220032
-0.5956965088844299,2.3256030082702637,8.870593070983887,-0.004904375411570072,-0.057735491544008255,-0.00783652812242508
-0.5376323461532593,2.3546016216278076,9.095514297485352,-0.014660765416920185,-0.05766567960381508,0.0007504915702156723
-0.3958956003189087,2.3381102085113525,9.086713790893555,-0.003909537568688393,-0.06878342479467392,-0.012985249981284142
-0.3891439437866211,2.3658254146575928,8.840752601623535,0.004241149872541428,-0.03033382259309292,-0.02457423508167267
-0.4279491603374481,2.2822296619415283,9.011305809020996,0.00027925267932005227,-0.023998277261853218,-0.019338248297572136
-0.4752873182296753,2.285428285598755,9.114601135253906,-0.00012217304902151227,-0.05169665068387985,-0.01731366664171219
-0.37805402278900146,2.2724804878234863,9.018985748291016,0.00921533815562725,-0.05071926862001419,-0.009930923581123352
-0.3905804753303528,2.3128082752227783,8.94313907623291,0.010855947621166706,-0.00938987173140049,-0.005148721393197775
-0.4512687027454376,2.367041826248169,9.096923828125,-0.012950343079864979,-0.04508185386657715,-0.0019547687843441963
-0.49524539709091187,2.3158249855041504,9.130939483642578,-0.024521876126527786,-0.08693484961986542,0.00013962633966002613
-0.4127124845981598,2.2834842205047607,9.061976432800293,-0.03701843321323395,-0.13877113163471222,-0.0011693706037476659
-0.33245882391929626,2.3179798126220703,9.086732864379883,-0.051888637244701385,-0.14273302257061005,-0.002548180753365159
-0.3544280230998993,2.3106822967529297,9.256415367126465,-0.046530477702617645,-0.11180578917264938,-0.001117010717280209
-0.35643914341926575,2.2563626766204834,9.152822494506836,-0.018325956538319588,-0.08604472875595093,0.0063355453312397
-0.26956793665885925,2.2622427940368652,8.924568176269531,-0.0011519172694534063,-0.07131415605545044,0.007923794910311699
-0.25393858551979065,2.3130669593811035,8.981244087219238,-0.00019198621157556772,-0.05700245499610901,0.007749261800199747
-0.32585084438323975,2.3688135147094727,9.096664428710938,-0.010629055090248585,-0.08913396298885345,0.002321287989616394
-0.3509516417980194,2.348376512527466,9.071342468261719,-0.012636183761060238,-0.10838494449853897,-0.0025307273026555777
-0.26348668336868286,2.2577128410339355,8.970528602600098,-0.013194689527153969,-0.1301841139793396,-0.00724311638623476
-0.26900291442871094,2.135244846343994,9.534515380859375,0.0740368664264679,0.1771160066127777,0.013648474588990211
-0.3899771273136139,2.2114953994750977,9.283613204956055,0.031782444566488266,0.032620202749967575,0.0025307273026555777
-0.29125940799713135,2.339460611343384,9.325645446777344,-0.02045525796711445,-0.1575683206319809,-0.01045452244579792
-0.47786349058151245,2.3644847869873047,8.67623233795166,-0.04363323003053665,-0.15632914006710052,-0.01326450239866972
-0.2995625138282776,2.2209763526916504,8.954573631286621,0.014556045643985271,0.04136430472135544,0.013281955383718014
-0.25758737325668335,2.2967288494110107,8.996366500854492,0.008918632753193378,-0.006859143730252981,-0.004206243436783552
-0.2302551567554474,2.415222644805908,9.099316596984863,-0.008377579972147942,-0.046617742627859116,0.0010471974965184927
-0.19919757544994354,2.395810604095459,9.091607093811035,0.00945968460291624,-0.012095131911337376,-0.0014660765882581472
-0.20690689980983734,2.362253427505493,8.910720825195312,0.016493361443281174,0.019216075539588928,-0.007470009382814169
-0.27709531784057617,2.3383114337921143,8.938751220703125,-0.013037609867751598,-0.0022165682166814804,-0.012095131911337376
-0.3568030893802643,2.3082306385040283,9.117273330688477,-0.017243852838873863,-0.018535396084189415,-0.012496557086706161
-0.2627396881580353,2.2821433544158936,9.067770004272461,-0.004328416660428047,-0.04101523756980896,-0.014276793226599693
-0.25342145562171936,2.28147292137146,8.928313255310059,-0.008482299745082855,-0.028588492423295975,-0.00970403105020523
-0.29021555185317993,2.341404676437378,9.014130592346191,-0.010908307507634163,-0.00045378561480902135,-0.0005585053586401045
-0.33143413066864014,2.3485777378082275,9.18869686126709,-0.013735741376876831,-0.011501720175147057,-0.005393067374825478
-0.24096202850341797,2.348261594772339,9.111920356750488,-0.013089969754219055,-0.027471482753753662,-0.005427973810583353
-0.23997561633586884,2.35982084274292,8.995905876159668,-0.014276793226599693,-0.022392574697732925,-0.0036128314677625895
-0.2712821960449219,2.3224234580993652,9.077022552490234,-0.01754055917263031,-0.04314453899860382,-0.0012217304902151227
-0.16081373393535614,2.6795616149902344,7.817891597747803,0.04518657550215721,0.14334389567375183,0.0031066860537976027
-0.29891127347946167,2.046151638031006,9.776138305664062,0.08264134079217911,0.23809781670570374,0.0006806784076616168
-0.3219626545906067,2.403529405593872,9.52547550201416,0.032847095280885696,-0.045779984444379807,0.0033684854861348867
-0.28851085901260376,2.4944419860839844,8.619068145751953,0.017034413293004036,0.012810716405510902,-0.008203047327697277
-0.447390079498291,2.3612477779388428,9.224284172058105,-0.00996582955121994,-0.04043927788734436,0.0253421813249588
-0.2931077480316162,2.240647077560425,9.0015287399292,0.004084070213139057,0.011554080061614513,0.021327923983335495
-0.3095032274723053,2.3295295238494873,8.914848327636719,0.029688050970435143,0.13229595124721527,0.015219271183013916
-0.4425346553325653,2.345991849899292,9.011247634887695,0.04628613218665123,0.1733984649181366,0.00815068744122982
-0.4174817204475403,2.3345093727111816,9.172159194946289,0.05546656250953674,0.11732102930545807,-0.005881759338080883
-0.4449288547039032,2.3618319034576416,9.034510612487793,0.005794493015855551,-0.04187044873833656,-0.01696459949016571
-0.42971131205558777,2.2507123947143555,8.947428703308105,-0.03890338912606239,-0.09227555990219116,-0.01595230959355831
-0.2336932271718979,2.0473296642303467,8.916351318359375,-0.06407103687524796,0.02892010472714901,-0.04822344705462456
-0.7258548736572266,2.5663063526153564,9.282273292541504,-0.033335790038108826,-0.1302364617586136,-0.009494591504335403
-0.33687373995780945,2.390763521194458,8.6305513381958,-0.042673300951719284,-0.16770868003368378,-0.017331119626760483
-0.20538419485092163,2.3825466632843018,8.720697402954102,-0.0746128261089325,-0.054908059537410736,-0.044977135956287384
-0.0035338415764272213,2.3307743072509766,9.587331771850586,-0.014381512999534607,-0.11957250535488129,-0.04988151043653488
-0.1497620940208435,2.1394011974334717,8.843367576599121,0.02830924093723297,0.011135200969874859,-0.058660514652729034
-0.2260509431362152,2.1880033016204834,9.022817611694336,-0.04181808978319168,-0.053564153611660004,-0.01357866171747446
-0.32064104080200195,2.2198750972747803,9.257468223571777,-0.008918632753193378,-0.0039618974551558495,-0.005759586580097675
-0.38425979018211365,2.3091883659362793,9.233209609985352,0.025324726477265358,0.00830776710063219,0.00898844562470913
-0.342447429895401,2.348012685775757,8.977173805236816,0.030054569244384766,0.019373154267668724,0.00015707963029854
-0.23476582765579224,2.365490436553955,8.981578826904297,0.005288347601890564,0.005148721393197775,0.0021118484437465668
-0.2612074017524719,2.3893749713897705,9.101041793823242,0.002687806962057948,-0.011641345918178558,0.006911503616720438
-0.25050053000450134,2.360452890396118,9.048942565917969,0.007801621686667204,-0.045727625489234924,-0.004293509759008884
-0.186996728181839,2.3257083892822266,8.871551513671875,-0.025935592129826546,-0.10880382359027863,-0.02125811018049717
-0.24410322308540344,2.283263921737671,9.040602684020996,-0.06063273921608925,-0.14049901068210602,-0.017610372975468636
-0.2438637912273407,2.2381763458251953,9.283403396606445,-0.03813544288277626,-0.10903071612119675,-0.013439035043120384
-0.10631212592124939,2.2443628311157227,9.121764183044434,-0.03471459820866585,-0.033684853464365005,-0.00188495556358248
-0.1632462441921234,2.1970534324645996,9.27074146270752,0.011623892933130264,0.03785619139671326,0.006946410518139601
-0.1662054806947708,2.26303768157959,9.000177383422852,0.029792770743370056,0.07033676654100418,0.0008377580670639873
-0.11861832439899445,2.322538375854492,8.89237117767334,0.0007330382941290736,0.04105014353990555,-0.004712388850748539
-0.10787314921617508,2.3018715381622314,9.089040756225586,-0.01970476657152176,-0.03015928901731968,-0.011152653954923153
-0.04916732385754585,2.2410013675689697,9.144336700439453,-0.004869468510150909,-0.013700834475457668,-0.014119713567197323
0.09897629171609879,2.4015088081359863,8.315406799316406,0.00296705961227417,0.05829399824142456,-0.012897983193397522
-0.2238578498363495,2.1147408485412598,9.47226619720459,-0.011972958222031593,0.03988077491521835,-0.004921828396618366
-0.25572946667671204,2.254619598388672,9.353973388671875,0.02888519875705242,0.10005972534418106,-0.002548180753365159
-0.2124422937631607,2.3482329845428467,9.104843139648438,0.021153390407562256,0.01401499379426241,-0.006318091880530119
-0.13814543187618256,2.236347198486328,8.703526496887207,0.00012217304902151227,0.010890854522585869,-0.00970403105020523
-0.28133782744407654,2.222719192504883,9.180374145507812,-0.014294246211647987,0.03754203021526337,0.008918632753193378
-0.16031573712825775,2.225850820541382,9.116899490356445,-0.0035953782498836517,0.10732029378414154,0.013194689527153969
-0.20109377801418304,2.3137564659118652,8.968814849853516,-0.022706734016537666,0.09410814940929413,0.007958701811730862
-0.2502610981464386,2.3175487518310547,9.061019897460938,-0.04054399952292442,0.08260643482208252,0.012828170321881771
-0.2850632071495056,2.2113707065582275,9.265005111694336,-0.04455825686454773,0.07901105284690857,0.021293016150593758
-0.28236255049705505,2.152186155319214,9.216325759887695,-0.022933626547455788,0.10550515353679657,0.03021164983510971
-0.12655749917030334,2.198518753051758,8.929950714111328,-0.01080358773469925,0.13072516024112701,0.022567106410861015
-0.18759047985076904,2.2135255336761475,8.944679260253906,-0.03291691094636917,0.14837044477462769,0.02223549410700798
-0.594719648361206,2.2168965339660645,8.951260566711426,-0.0016406094655394554,0.089867003262043,0.0239110104739666
-0.3573489487171173,2.2913849353790283,9.022128105163574,-0.04113740846514702,-0.01492256484925747,0.01780235767364502
-0.32643502950668335,2.3500332832336426,9.117473602294922,-0.036250486969947815,-0.02085668407380581,-0.013281955383718014
-0.434882789850235,2.170851230621338,9.068154335021973,-0.015201817266643047,0.002775073517113924,-0.015760323032736778
-0.22687454521656036,2.165947914123535,9.040658950805664,0.03848451003432274,0.10826276987791061,-0.0610516183078289
-0.38326379656791687,2.198317527770996,9.159229278564453,0.08222246170043945,0.1912182718515396,-0.06459463387727737
-0.10721234977245331,2.1852357387542725,9.243515968322754,0.09656906872987747,0.20519836246967316,-0.07269296050071716
0.08075163513422012,2.03463077545166,9.259431838989258,0.10342821478843689,0.08159413933753967,-0.19627973437309265
-0.8675820231437683,2.2123475074768066,8.788923263549805,0.048956483602523804,0.01104793418198824,-0.16626006364822388
-0.7471728324890137,2.2611989974975586,8.831605911254883,0.015655603259801865,0.06468190252780914,-0.10641272366046906
-1.156313180923462,2.318678855895996,9.0958890914917,-0.03274237737059593,-0.02076941728591919,-0.04862487316131592
-0.751549482345581,2.2263872623443604,9.131246566772461,-0.018849555402994156,0.011972958222031593,0.0342782661318779
-0.7111353278160095,2.23945951461792,9.108433723449707,-0.023369958624243736,-0.027262043207883835,-0.013892821036279202
-0.5563454031944275,2.2320950031280518,8.941683769226074,-0.02413790300488472,-0.0820828378200531,-0.025656340643763542
-0.41486725211143494,2.227775812149048,8.945714950561523,-0.02670353837311268,-0.0699876993894577,-0.020036378875374794
-1.0932499170303345,2.667351245880127,9.132194519042969,0.03480186685919762,0.11056660860776901,0.007470009382814169
-0.09101796895265579,1.8188941478729248,9.353082656860352,0.0426209419965744,0.10822786390781403,-0.007470009382814169
-0.31762436032295227,1.9424540996551514,9.545108795166016,-0.011484266258776188,-0.03865904361009598,-0.006946410518139601
-0.3346806466579437,1.9752354621887207,9.642580032348633,-0.01424188632518053,-0.1442689150571823,-0.00783652812242508
-0.330648809671402,2.056734085083008,8.706734657287598,-0.025394540280103683,-0.1940980702638626,0.0011868239380419254
-0.17886601388454437,2.114894151687622,8.562469482421875,0.05092870816588402,0.1687733381986618,0.019495327025651932
-0.3225660026073456,2.1362695693969727,9.048693656921387,0.04850269854068756,0.17064084112644196,0.021153390407562256
-0.19483055174350739,2.151621103286743,9.229226112365723,0.06967354565858841,0.1520705372095108,0.028989918529987335
-0.21700085699558258,2.309418201446533,9.025038719177246,0.164148211479187,0.32824406027793884,0.018099064007401466
-0.3068313002586365,2.3053958415985107,9.151740074157715,0.08356636762619019,0.16615533828735352,0.009669124148786068
-0.5048125982284546,2.250559091567993,9.270894050598145,0.06923720985651016,0.077178455889225,0.001658062799833715
-0.34500443935394287,2.294976234436035,9.008231163024902,0.017645278945565224,-0.06469935178756714,-0.009040805511176586
-0.35950374603271484,2.2610743045806885,8.888310432434082,-0.0020943949930369854,-0.06953391432762146,-0.012845623306930065
-0.41472360491752625,2.2705554962158203,9.12508773803711,-0.004258603323251009,-0.07899360358715057,-0.010821041651070118
-0.3845853805541992,2.213841676712036,9.244309425354004,-0.003001966280862689,-0.08520697057247162,-0.008587019518017769
-0.31697314977645874,2.233100652694702,9.021477699279785,0.009983283467590809,-0.038606684654951096,-0.014468779787421227
-0.2977141737937927,2.2432520389556885,8.918066024780273,0.0070685832761228085,-0.002007128670811653,-0.008360126987099648
-0.40123945474624634,2.2672035694122314,9.258665084838867,0.0038222710136324167,-0.006248278543353081,-0.008098327554762363
-0.343903124332428,2.255481481552124,9.201309204101562,0.027628561481833458,-0.03162536770105362,-0.004660028964281082
-0.34993651509284973,2.241767644882202,8.848930358886719,0.020926497876644135,0.01111774705350399,-0.005410520825535059
-0.4263402819633484,2.310960054397583,9.000741958618164,-0.013910274021327496,0.029967302456498146,-0.0073303827084600925
-0.45475465059280396,2.331559658050537,9.322676658630371,0.005794493015855551,-0.015568336471915245,-0.0035953782498836517
-0.3198844790458679,2.2460389137268066,9.014801979064941,0.0319744311273098,-0.028588492423295975,-0.008709193207323551
-0.3335122764110565,2.3331973552703857,8.955300331115723,-0.005427973810583353,-0.031555552035570145,0.00188495556358248
-0.18838535249233246,2.2629706859588623,9.292950630187988,0.034086279571056366,0.05092870816588402,-0.002251474652439356
-0.22200952470302582,2.3494491577148438,9.127270698547363,0.02733185514807701,-0.012409291230142117,-0.009634217247366905
-0.41564297676086426,2.3810718059539795,8.855969429016113,0.02644173800945282,0.029914943501353264,-0.008045967668294907
-0.5506089329719543,2.3351128101348877,9.051624298095703,0.0008028514566831291,0.02724459022283554,0.010384708642959595
-0.5313690900802612,2.2708139419555664,9.219572067260742,-0.014957471750676632,-0.04288274049758911,0.005218534264713526
-0.39907509088516235,2.293376922607422,9.175959587097168,0.03230604529380798,0.05085889250040054,0.007871435023844242
-0.36244380474090576,2.3933396339416504,9.089969635009766,0.009424777701497078,-0.05398303270339966,0.005689773242920637
-0.23098298907279968,2.356449842453003,8.892553329467773,0.011798425577580929,-0.05044001340866089,-0.0045378562062978745
-0.27342739701271057,2.357053279876709,9.017348289489746,0.008028514683246613,-0.014800392091274261,0.0020769417751580477
-0.3273831307888031,2.405186176300049,9.130824089050293,0.00012217304902151227,-0.039933133870363235,0.00502654816955328
-0.31428205966949463,2.3507802486419678,8.927948951721191,-0.0057072266936302185,-0.022602014243602753,-0.005986479111015797
-0.35354694724082947,2.2845280170440674,9.027386665344238,-0.018081611022353172,-0.02382374368607998,0.0007679448463022709
-0.32501766085624695,2.2415857315063477,9.196406364440918,-0.011100294068455696,-0.02905973233282566,0.0029845130629837513
-0.2761184871196747,2.282804250717163,9.139281272888184,-0.0012217304902151227,-0.040596358478069305,-0.00017453292093705386
-0.2433658093214035,2.3042752742767334,9.122654914855957,-0.008429939858615398,0.008813912980258465,0.012339477427303791
-0.2749980092048645,2.31974196434021,9.209890365600586,-0.00376991112716496,-0.0010122909443452954,0.01151917316019535
-0.30028077960014343,2.3057119846343994,9.095916748046875,0.0026529005263000727,-0.019250981509685516,0.008203047327697277
-0.37229835987091064,2.3311574459075928,8.753375053405762,-0.007260569836944342,0.07595673203468323,0.007661995477974415
-0.25933992862701416,2.181701898574829,9.307812690734863,0.03810053691267967,0.15142476558685303,0.0080634206533432
-0.35629549622535706,2.0680155754089355,9.610823631286621,0.03906046971678734,0.05181882530450821,0.007941247895359993
-0.20288464426994324,2.5015480518341064,8.935458183288574,0.03865904361009598,-0.012636183761060238,1.7453292457503267e-05
-0.39038893580436707,2.282095432281494,8.776712417602539,0.023771384730935097,0.08974482864141464,-0.0005061454721726477
-0.48202940821647644,2.308795690536499,9.242998123168945,0.01218239776790142,0.009930923581123352,0.013491394929587841
-0.31431078910827637,2.300511598587036,9.087920188903809,0.019373154267668724,0.01837831735610962,0.015446163713932037
-0.33614590764045715,2.4117655754089355,8.896249771118164,0.021676989272236824,0.0757472887635231,-0.0006108652451075613
-0.4585183262825012,2.4281418323516846,8.914119720458984,-0.016406094655394554,0.017994344234466553,-0.017959438264369965
-0.4891832768917084,2.307971954345703,9.168060302734375,-0.017383478581905365,-0.03502875939011574,-0.024434609338641167
-0.49315765500068665,2.29638409614563,9.204949378967285,-0.006562437862157822,-0.04415683075785637,-0.020751964300870895
-0.3804386258125305,2.177373170852661,8.988167762756348,0.018308503553271294,0.0035953782498836517,-0.023143066093325615
-0.19770358502864838,1.9924545288085938,8.418970108032227,-0.004764748737215996,0.07607889920473099,-0.028955012559890747
-0.44089701771736145,2.436147928237915,9.299164772033691,-0.0154810706153512,0.11555825173854828,-0.01342158205807209
-0.35777992010116577,2.4000818729400635,9.308475494384766,0.030089477077126503,0.07405432313680649,-0.006370451766997576
-0.3521966338157654,2.4377281665802,9.173105239868164,0.030752701684832573,0.045553091913461685,-0.007976154796779156
-0.3259083032608032,2.371399164199829,8.777755737304688,0.003403391921892762,0.06260495632886887,-0.01825614459812641
-0.3566019535064697,2.3727686405181885,9.056949615478516,-0.028728120028972626,0.052324969321489334,-0.010192723013460636
-0.43735358119010925,2.3640635013580322,9.223010063171387,-0.02759365551173687,0.022741639986634254,-0.0038397242315113544
-0.5614785552024841,2.4066131114959717,9.29688549041748,0.012060225009918213,-0.027925267815589905,-0.0030194194987416267
-0.40001362562179565,2.259542226791382,8.858354568481445,0.0460941456258297,0.01771509274840355,5.2359879191499203e-05
-0.43760257959365845,2.3567371368408203,8.889613151550293,0.044977135956287384,0.10533062368631363,0.008412486873567104
-0.5206430554389954,2.4557995796203613,9.201309204101562,-0.004153883550316095,0.013683381490409374,0.007487462367862463
-0.3838288187980652,2.3899974822998047,9.03038215637207,-0.01975712738931179,-0.04420918971300125,0.0006806784076616168
-0.4322587251663208,2.351048469543457,8.983637809753418,0.0013788101496174932,0.012304571457207203,-0.010733774863183498
-0.4448713958263397,2.3385891914367676,8.98624324798584,-0.004014257341623306,-0.0047996556386351585,-0.013910274021327496
-0.46038582921028137,2.2505686283111572,9.176372528076172,0.00808087456971407,0.00020943951676599681,-0.006562437862157822
-0.37192484736442566,2.29594349861145,9.054774284362793,0.036425020545721054,0.020210912451148033,-0.007627088576555252
-0.5943461656570435,2.3484914302825928,9.13719367980957,-0.010646508075296879,-0.03070034086704254,-0.002827433403581381
-0.45709139108657837,2.323342800140381,9.030594825744629,8.726646046852693e-05,-0.023527037352323532,-0.0032114058267325163
-0.3589770197868347,2.344766139984131,8.94983196258545,0.01136209350079298,0.0313984714448452,-0.006108652334660292
-0.5438860058784485,2.4258530139923096,9.062551498413086,0.004642575979232788,0.029391344636678696,-0.006318091880530119
-0.5827391147613525,2.427710771560669,9.12426471710205,-0.0025656339712440968,-0.011414453387260437,-0.003176499158143997
-0.5017480254173279,2.3756704330444336,9.083457946777344,-0.01748819835484028,-0.020141098648309708,-0.005951572675257921
-0.5012117624282837,2.3885416984558105,9.155590057373047,0.0037350046914070845,0.00296705961227417,-0.007487462367862463
-0.4910603165626526,2.34921932220459,8.947169303894043,0.018011797219514847,0.010419615544378757,-0.0057072266936302185
-0.5016905665397644,2.35744571685791,9.116890907287598,-0.011327186599373817,-0.01171115878969431,-0.0077841682359576225
-0.48073652386665344,2.2777955532073975,9.007589340209961,-0.008534659631550312,-0.023753931745886803,-0.010245082899928093
-0.3758896589279175,2.411803722381592,8.828226089477539,-0.03307398781180382,-0.10362019389867783,-0.01638864167034626
-0.3721642792224884,2.3017375469207764,8.982192039489746,-0.021711895242333412,-0.009808750823140144,-0.013404129073023796
-0.6520847678184509,2.3135457038879395,9.377877235412598,0.00769690191373229,0.04647811874747276,-0.0017278759041801095
-0.48868528008461,2.279797077178955,8.868448257446289,-0.0008203047327697277,-0.0114493602886796,0.005864306353032589
-0.44490012526512146,2.3305444717407227,8.90290641784668,-0.006562437862157822,-0.03159045800566673,0.008953538723289967
-0.44531193375587463,2.340073585510254,9.09754467010498,0.004293509759008884,-0.0057072266936302185,0.01310742273926735
-0.4992485046386719,2.4207868576049805,9.105331420898438,0.007225662935525179,0.005078908056020737,0.010471975430846214
-0.4764940142631531,2.3933396339416504,8.960108757019043,0.013369222171604633,0.013037609867751598,0.0021118484437465668
-0.406841903924942,2.379300117492676,8.948962211608887,-0.004206243436783552,-0.00472984230145812,-0.0017802357906475663
-0.40061697363853455,2.393406629562378,9.14682674407959,-0.018971728160977364,-0.03415609151124954,-0.0045378562062978745
-0.46409204602241516,2.3485968112945557,9.180307388305664,8.726646046852693e-05,-0.018081611022353172,-0.007941247895359993
-0.48465344309806824,2.288473606109619,8.920795440673828,0.00945968460291624,-0.009983283467590809,-0.009738937020301819
-0.4381101727485657,2.2700862884521484,8.959811210632324,-0.0026703537441790104,-0.006265731994062662,-0.006946410518139601
-0.5643899440765381,2.3004064559936523,9.199165344238281,-0.006492624990642071,-0.02679080329835415,-0.0038222710136324167
-0.48181870579719543,2.2817699909210205,9.073881149291992,0.0031939526088535786,-0.03064798191189766,-0.0009773843921720982
-0.4382633864879608,2.3032984733581543,8.994537353515625,0.025481807067990303,0.056897733360528946,-0.002548180753365159
-0.4588726758956909,2.3663618564605713,9.081254959106445,0.03073524869978428,0.06703809648752213,-0.004904375411570072
-0.5702317953109741,2.4019110202789307,9.11510944366455,0.02932153083384037,0.048747044056653976,-0.004712388850748539
-0.49749594926834106,2.4341273307800293,8.918315887451172,0.0036651913542300463,-0.02422516979277134,-0.002286381321027875
-0.37129276990890503,2.391749858856201,8.888827323913574,-0.017959438264369965,-0.003455751808360219,-0.009599311277270317
-0.5575042366981506,2.278714895248413,8.868593215942383,-0.0119555052369833,0.005340707488358021,0.0057246801443398
-0.5627714395523071,2.2960104942321777,9.217580795288086,-0.05141739919781685,-0.00724311638623476,0.016685348004102707
-0.5258528590202332,2.2969586849212646,9.209537506103516,-0.03754203021526337,-0.004188789986073971,0.008185594342648983
-0.5340889096260071,2.29638409614563,8.931473731994629,0.00013962633966002613,0.03274237737059593,-0.0057246801443398
-0.5465483665466309,2.252723455429077,8.980401039123535,-0.01326450239866972,-0.013840461149811745,-0.015027284622192383
-0.5409458875656128,2.1829276084899902,9.164563179016113,-0.0103672556579113,-0.03349286690354347,-0.006841690745204687
-0.4455704987049103,2.2391915321350098,9.115510940551758,0.01904154196381569,-0.00024434609804302454,0.0018675023457035422
-0.4312435984611511,2.3158538341522217,8.915997505187988,0.024870941415429115,0.026633724570274353,0.0037000980228185654
-0.6002359390258789,2.3270585536956787,9.042171478271484,0.006544984877109528,0.01958259381353855,0.003455751808360219
-0.5663340091705322,2.254868745803833,9.02254867553711,0.00839503388851881,-0.014835298992693424,0.0035604715812951326
-0.49129974842071533,2.2815113067626953,8.985486030578613,0.008656833320856094,0.008936085738241673,0.0017104226863011718
-0.5428325533866882,2.3581161499023438,9.197689056396484,0.008290314115583897,-0.007347836159169674,0.006963863503187895
-0.4857930839061737,2.312875270843506,8.953922271728516,0.01754055917263031,0.0018151424592360854,-0.0031590459402650595
-0.5148395299911499,2.2826988697052,8.949736595153809,0.0028623400721699,0.01251401100307703,-0.01457349956035614
-0.48096635937690735,2.286749839782715,9.033293724060059,-0.010000736452639103,-0.025656340643763542,-0.016004668548703194
-0.5769738554954529,2.3132009506225586,9.227205276489258,-0.017435839399695396,-0.038065630942583084,-0.011414453387260437
-0.4979652166366577,2.2677876949310303,8.962674140930176,-0.030106930062174797,-0.09410814940929413,-0.006998770404607058
-0.47681960463523865,2.133645534515381,9.184721946716309,-0.00043633230961859226,0.023317597806453705,-0.00031415926059708
-0.5010106563568115,2.351536989212036,9.268261909484863,0.0518537312746048,0.09812241047620773,0.005794493015855551
-0.7155023813247681,2.305434226989746,8.899142265319824,0.033719759434461594,0.026808258146047592,0.008447393774986267
-0.6084815263748169,2.3713512420654297,8.974080085754395,-0.017872171476483345,-0.06628760695457458,0.0213104709982872
-0.48584097623825073,2.2141194343566895,8.979597091674805,-0.02900737151503563,-0.014905111864209175,0.013439035043120384
-0.474348783493042,2.258143901824951,9.060905456542969,-0.01837831735610962,0.009197885170578957,0.004188789986073971
-0.5864644646644592,2.349008560180664,9.103233337402344,-0.010088003240525723,-0.0309621412307024,-0.002199114765971899
-0.4998614192008972,2.3055777549743652,9.19479751586914,0.011222466826438904,-0.06058037653565407,-0.00020943951676599681
-0.4498034417629242,2.300234079360962,9.022309303283691,0.03223622962832451,-0.015289084054529667,0.007103490177541971
-0.45881521701812744,2.3199622631073,8.92934799194336,0.013055062852799892,0.011327186599373817,0.010838494636118412
-0.46905282139778137,2.3602325916290283,9.071276664733887,1.7453292457503267e-05,0.022287854924798012,0.009599311277270317
-0.4628949463367462,2.303834915161133,9.111268997192383,0.006352998316287994,0.017994344234466553,0.004398229531943798
-0.4701828956604004,2.281224012374878,8.929511070251465,-0.00012217304902151227,0.02174680307507515,0.004049163777381182
-0.4910411834716797,2.264253854751587,9.082758903503418,-0.0006632251315750182,0.0403171069920063,0.01136209350079298
-0.6000826954841614,2.2865869998931885,9.146799087524414,0.012705996632575989,0.0472460612654686,0.024155355989933014
-0.4371620714664459,2.2787818908691406,9.048904418945312,0.014800392091274261,0.05080653354525566,0.030717793852090836
-0.40373900532722473,2.374023199081421,8.93690299987793,0.01705186627805233,0.13086478412151337,0.03249803185462952
-0.42737457156181335,2.3311479091644287,8.937938690185547,0.01532399095594883,0.1526639461517334,0.033370696008205414
-0.6963391900062561,2.4027249813079834,9.121668815612793,0.0036826448049396276,0.1276010274887085,0.03234095126390457
-0.6053212285041809,2.353787422180176,9.15017032623291,0.007557275705039501,0.06815510988235474,0.01624901592731476
-0.5855163931846619,2.3269436359405518,8.900693893432617,-0.003996803890913725,0.021118484437465668,0.003926991019397974
-0.5340889096260071,2.3013832569122314,8.998741149902344,-0.020036378875374794,-0.007714355364441872,-0.0044156829826533794
-0.7286992073059082,2.2908008098602295,9.15398120880127,0.010978121310472488,0.02439970336854458,-0.0009948377264663577
-0.7426430583000183,2.2407140731811523,8.879700660705566,0.0013962633674964309,-0.00823795422911644,0.022916173562407494
-0.47646528482437134,2.2944209575653076,9.00531005859375,-0.0055850534699857235,-0.0024085543118417263,0.019477874040603638
-0.6134614944458008,2.365097761154175,9.185105323791504,0.015795229002833366,0.030892327427864075,0.023369958624243736
-0.7182126045227051,2.317357301712036,9.044307708740234,0.02206096239387989,0.03249803185462952,0.022794000804424286
-0.6271371841430664,2.3383593559265137,8.919118881225586,-0.003944444004446268,-0.015515976585447788,0.007714355364441872
-0.7455639839172363,2.3218774795532227,9.04714298248291,-0.030927233397960663,-0.09840166568756104,0.005829399451613426
-0.6538564562797546,2.1869020462036133,9.180403709411621,-0.011239920742809772,-0.07298967242240906,0.011379546485841274
-0.6058383584022522,2.244295835494995,9.0614595413208,0.017994344234466553,-0.00045378561480902135,0.012653636746108532
-0.6618243455886841,2.362828016281128,8.96739673614502,0.010646508075296879,0.05775294452905655,0.01837831735610962
-0.6070354580879211,2.3909358978271484,9.09056282043457,-0.009337511844933033,0.03659955412149429,0.021013764664530754
-0.6456778645515442,2.3995070457458496,9.111421585083008,-0.012688543647527695,-0.012897983193397522,0.016842426732182503
-0.491558313369751,2.2489309310913086,9.003405570983887,0.0028448866214603186,0.0009773843921720982,-0.0011693706037476659
-0.48888638615608215,2.3503494262695312,8.981291770935059,-0.008761553093791008,0.0024434609804302454,-0.008517206646502018
-0.6451032757759094,2.351393222808838,9.156059265136719,-0.018273597583174706,-0.009948376566171646,-0.014713125303387642
-0.7124665379524231,2.2852559089660645,9.13839054107666,-0.00472984230145812,-0.03949680179357529,-0.00930260494351387
-0.5103576183319092,2.269186019897461,8.924789428710938,0.03626793995499611,0.031520646065473557,0.005270894151180983
-0.509409487247467,2.2293176651000977,8.879155158996582,0.06716027110815048,0.10934487730264664,0.012880530208349228
-1.0200830698013306,2.4263222217559814,8.883398056030273,0.035674531012773514,0.06319837272167206,0.010576695203781128
-0.826564610004425,2.3823742866516113,8.994987487792969,0.013735741376876831,-0.010786134749650955,0.01679006777703762
-0.678928554058075,2.3963372707366943,8.913986206054688,-0.05633922666311264,-0.09478883445262909,-0.010070549324154854
-0.6397114992141724,2.366543769836426,9.165348052978516,-0.07119198143482208,-0.1333780586719513,-0.015603243373334408
-0.7237575650215149,2.280122756958008,9.178363800048828,-0.04574507847428322,-0.12482594698667526,-0.024748768657445908
-0.8179837465286255,2.2911934852600098,9.077415466308594,-0.053302355110645294,-0.06005677953362465,0.0006981316837482154
-0.8236819505691528,2.2976865768432617,9.158550262451172,-0.049584802240133286,-0.08995427191257477,0.013194689527153969
-0.6308721303939819,2.2499749660491943,8.998990058898926,0.03406882658600807,0.08772024512290955,0.019512781873345375
-0.5974969267845154,2.3755650520324707,8.959207534790039,0.05892231687903404,0.1757022887468338,0.013281955383718014
-0.6412342190742493,2.5540289878845215,8.981857299804688,0.00047123889089562,0.018535396084189415,-0.0035604715812951326
-0.730901837348938,2.398434638977051,9.017224311828613,-0.012548916973173618,-0.03164282068610191,0.0068765971809625626
-0.3029622733592987,2.289402723312378,9.088247299194336,-0.0016406094655394554,-0.0165631752461195,-0.01740093342959881
-0.29290661215782166,2.415174722671509,9.01639175415039,-0.010524335317313671,-0.02237512171268463,-0.059777528047561646
-1.0092134475708008,2.4464621543884277,9.039213180541992,-0.015446163713932037,-0.029775317758321762,-0.03335324302315712
-0.5594674348831177,2.3227012157440186,9.050254821777344,-0.043074727058410645,-0.09320057928562164,-0.018151424825191498
-0.5407831072807312,2.279193639755249,9.106270790100098,-0.04951499029994011,-0.1298699527978897,-0.04789183288812637
-0.6894630193710327,2.1610829830169678,9.002994537353516,-0.060615286231040955,-0.12208577990531921,-0.04035201296210289
0.2904166579246521,1.5212278366088867,9.211892127990723,-0.06295402348041534,-0.12447687983512878,-0.1762433499097824
-1.3511724472045898,2.395810604095459,8.994603157043457,0.014992378652095795,-0.06869615614414215,-0.15447908639907837
-1.4968739748001099,2.839714527130127,8.71863842010498,-0.00015707963029854,0.11431906372308731,0.03951425477862358
-0.500225305557251,1.9277344942092896,9.952313423156738,0.032218776643276215,0.048345621675252914,0.02799508161842823
-0.4144458770751953,2.6742560863494873,9.204872131347656,0.09639453142881393,0.03277728334069252,-0.008464846760034561
-0.9322829246520996,2.499948740005493,8.201480865478516,-0.001343903481028974,-0.0011693706037476659,-0.014433872886002064
-0.5624170899391174,2.361056327819824,8.981138229370117,-0.08806931227445602,-0.09681341052055359,0.02675589732825756
-0.4317415952682495,2.0861923694610596,9.393622398376465,-0.06476917117834091,-0.08789478242397308,0.02373647689819336
-0.441758930683136,2.2245676517486572,9.259671211242676,0.014206980355083942,-0.00989601667970419,0.007278022821992636
-0.5440775156021118,2.3480892181396484,8.735494613647461,0.018901916220784187,0.03525565192103386,-0.0016755161341279745
-0.6938108801841736,2.347083806991577,9.032556533813477,-0.016022123396396637,-0.027296949177980423,-0.00040142572834156454
-0.6685568690299988,2.2082488536834717,9.23670482635498,-0.013683381490409374,-0.04731587693095207,0.008325220085680485
-0.5583661198616028,2.2196547985076904,9.213539123535156,-0.0013962633674964309,-0.04052654653787613,0.009913469664752483
-0.6534446477890015,2.188549280166626,9.063864707946777,0.08902924507856369,0.14533357322216034,-0.012042772024869919
-0.5882936120033264,2.3650784492492676,8.789918899536133,0.00031415926059708,-0.03958406671881676,-0.0019198621157556772
-0.5932735800743103,2.323467254638672,9.087652206420898,0.0004886921960860491,-0.014067353680729866,-0.0013788101496174932
-0.5501300692558289,2.269674301147461,9.20474910736084,0.02511528693139553,-0.013491394929587841,-0.0020420351065695286
-0.5413002371788025,2.3189661502838135,8.898597717285156,0.0016755161341279745,-0.05736897140741348,-0.0034732052590698004
-0.5927277207374573,2.3321821689605713,9.043876647949219,-0.019024088978767395,-0.06373942643404007,-0.0018675023457035422
-0.6476602554321289,2.323132038116455,9.19407844543457,-0.008691739290952682,-0.052726395428180695,-0.004293509759008884
-0.5340505838394165,2.3130955696105957,9.009974479675293,0.009564404375851154,-0.022916173562407494,-0.01401499379426241
-0.5281034111976624,2.273629665374756,8.97354507446289,0.024905849248170853,0.04675737023353577,-0.02197369560599327
-0.5984737873077393,2.346719741821289,9.079109191894531,0.00038397242315113544,0.0007504915702156723,-0.01607448235154152
-0.6597366333007812,2.284595012664795,9.109094619750977,0.005096361506730318,0.007225662935525179,-0.010594148188829422
-0.5585959553718567,2.1974940299987793,9.035957336425781,0.018395770341157913,0.02382374368607998,-0.006963863503187895
-0.6395965814590454,2.3252294063568115,9.102812767028809,-0.008883725851774216,0.010018189437687397,-0.005986479111015797
-0.6809205412864685,2.234891414642334,9.241416931152344,-0.003298672381788492,0.021118484437465668,-0.013369222171604633
-0.6104064583778381,2.1257925033569336,9.039738655090332,0.023282691836357117,0.09660397469997406,-0.016772614791989326
-0.521859347820282,2.073014736175537,8.790014266967773,-0.003176499158143997,0.06532767415046692,-0.007958701811730862
-0.6430538296699524,2.087092638015747,8.951776504516602,-0.013962633907794952,0.07319910824298859,0.004136430099606514
-0.6824623942375183,2.232851505279541,9.110742568969727,0.02094395086169243,0.13639748096466064,0.009162978269159794
-0.45010989904403687,2.538572072982788,9.011277198791504,0.047054074704647064,0.20577432215213776,0.009773843921720982
-0.6193512082099915,2.238262414932251,9.048300743103027,0.014067353680729866,0.0791855901479721,-0.01218239776790142
-0.8370607495307922,2.278485059738159,9.095830917358398,0.046617742627859116,0.1454906463623047,-0.005777040030807257
-0.8246588110923767,2.3584322929382324,9.154507637023926,-0.014521139673888683,0.017592918127775192,-0.009442231617867947
-0.8379896879196167,2.4379100799560547,9.080814361572266,-0.023404864594340324,0.011100294068455696,-0.005427973810583353
-0.7455160617828369,2.4073026180267334,8.952446937561035,-0.025673793628811836,-0.009599311277270317,-0.008831365965306759
-0.7196682691574097,2.3367886543273926,9.010817527770996,-0.031730085611343384,0.014538592658936977,-0.009337511844933033
-0.8139040470123291,2.298194169998169,9.128966331481934,-0.04518657550215721,-0.026476643979549408,-0.00996582955121994
-0.6019980311393738,2.2284271717071533,9.199987411499023,-0.009861109778285027,-0.015306537039577961,-0.011239920742809772
-0.46394839882850647,2.146526336669922,9.169190406799316,-0.0013788101496174932,-0.04288274049758911,-0.012077677994966507
-0.43756428360939026,2.0977420806884766,8.876522064208984,-0.003490658476948738,-0.06492624431848526,-0.02214822731912136
-0.4056447744369507,2.079364061355591,9.034117698669434,-0.005899212788790464,-0.03834488242864609,-0.026319565251469612
-0.22246921062469482,1.9789034128189087,9.25197982788086,0.00031415926059708,-0.030682887881994247,-0.0388859361410141
0.455559104681015,1.662265419960022,9.476097106933594,0.010384708642959595,-0.0708429142832756,-0.14967943727970123
-0.5594387054443359,1.9831267595291138,9.041406631469727,0.031433381140232086,-0.08791223168373108,-0.2142740786075592
-1.2913461923599243,2.4283907413482666,8.915596008300781,0.029024824500083923,-0.029513517394661903,-0.1218414381146431
-1.3801805973052979,2.433744192123413,8.955395698547363,-0.0005759586347267032,-0.0426209419965744,0.01713913306593895
-0.43016141653060913,1.9846973419189453,9.170836448669434,0.012950343079864979,-0.026459190994501114,0.015550883486866951
-0.5905537605285645,1.9964097738265991,9.58640193939209,0.02382374368607998,0.03132865950465202,-0.004520402755588293
-0.6771089434623718,2.075408935546875,8.964437484741211,0.022567106410861015,-0.031468287110328674,-0.010925761424005032
-0.6024385690689087,2.093126058578491,9.001978874206543,0.015917403623461723,-0.03544763848185539,0.013473941944539547
-0.36754825711250305,2.083022356033325,9.101155281066895,0.039217546582221985,0.05834635719656944,0.012828170321881771
-0.7424227595329285,2.2883780002593994,9.063145637512207,0.05482079088687897,0.06475171446800232,0.022357666864991188
-0.5389826893806458,2.257502317428589,8.944449424743652,0.06201154738664627,0.09698794782161713,0.030613074079155922
-0.3261573016643524,2.2556827068328857,9.014400482177734,0.06448991596698761,0.09375908970832825,0.0008552113431505859
-0.5108555555343628,2.3161985874176025,9.013863563537598,0.01302015595138073,-0.03338814899325371,-0.023282691836357117
-0.6436667442321777,2.2256784439086914,9.142681121826172,-0.0033859387040138245,-0.04274311289191246,-0.00753982225432992
-0.5930246114730835,2.2069270610809326,9.266412734985352,0.027471482753753662,-0.000715585018042475,-0.00609119888395071
-0.572080135345459,2.309887409210205,8.971858978271484,0.027890361845493317,-0.010157816112041473,-0.0114493602886796
-0.6508589386940002,2.3421995639801025,9.021533966064453,0.002251474652439356,-0.0205948855727911,-0.01242674421519041
-0.6654443740844727,2.2117252349853516,9.130498886108398,0.0023387412074953318,-0.013072515837848186,-0.014189526438713074
-0.5825571417808533,2.1518797874450684,9.102007865905762,0.02719222940504551,-0.0023561944253742695,-0.018273597583174706
-0.5778932571411133,2.1828606128692627,8.875526428222656,0.03230604529380798,0.027646014466881752,-0.017505653202533722
-0.6017969250679016,2.213439464569092,9.200304985046387,0.02981022372841835,0.06466444581747055,-0.009826203808188438
-0.6126474738121033,2.346691131591797,9.255582809448242,0.05708971992135048,0.06895796209573746,-0.008534659631550312
-0.7729823589324951,2.4379100799560547,8.930304527282715,0.07939502596855164,0.20439550280570984,0.005829399451613426
-0.6839276552200317,2.3230745792388916,9.122941970825195,-0.004694935865700245,0.020559977740049362,-0.002251474652439356
-0.7065863609313965,2.2084882259368896,9.139883995056152,-0.014381512999534607,-0.0570373609662056,-0.0020769417751580477
-0.6987525224685669,2.1508357524871826,9.009218215942383,0.022741639986634254,0.01401499379426241,-0.003543018363416195
-0.6763811111450195,2.248873472213745,8.929031372070312,0.006492624990642071,-0.026284659281373024,-0.007033676840364933
-0.6746764183044434,2.2822678089141846,9.121065139770508,-0.006056292448192835,-0.0524296909570694,-0.006021386012434959
-0.3303998112678528,2.0848324298858643,8.69373893737793,-0.0038920841179788113,-0.01507964450865984,-0.01563815027475357
-0.717034637928009,2.464054822921753,9.189970016479492,-0.0028972465079277754,0.00808087456971407,-0.023527037352323532
-0.46892833709716797,2.219731330871582,9.026322364807129,0.000715585018042475,-0.03021164983510971,-0.008011061698198318
-0.608462393283844,2.24090576171875,9.145984649658203,0.03358013555407524,0.030229102820158005,-0.011170106939971447
-0.7539149522781372,2.4375078678131104,9.033084869384766,0.02975786291062832,0.008534659631550312,-0.01029744278639555
-0.6959177851676941,2.241135597229004,8.975019454956055,0.04122467711567879,0.13149310648441315,0.01104793418198824
-0.6850193738937378,2.4311585426330566,8.83720874786377,-0.03476695716381073,-0.06447245925664902,0.015254177153110504
-0.548492431640625,2.448310613632202,8.941740036010742,-0.049323003739118576,-0.034435346722602844,0.02015855349600315
-0.7647175788879395,2.3039402961730957,9.211163520812988,-0.041835542768239975,0.0036477381363511086,0.01940806210041046
-0.5576478838920593,2.1691083908081055,8.96798038482666,-0.04478514939546585,-0.049898963421583176,0.014660765416920185
-0.4338389039039612,2.1054322719573975,9.198322296142578,-0.014381512999534607,0.05895722284913063,0.034924037754535675
-0.6999304890632629,2.3769633769989014,9.136282920837402,0.018448129296302795,0.1342158168554306,0.024242622777819633
-0.7038378119468689,2.3478689193725586,9.031675338745117,-0.0073129297234117985,0.12079423666000366,0.030281461775302887
-0.662590503692627,2.409677743911743,8.79726505279541,-0.047106437385082245,0.006213372107595205,0.013281955383718014
-0.5962615609169006,2.019442081451416,8.987363815307617,-0.04295255243778229,0.03757693991065025,0.03052580915391445
-0.25776931643486023,1.9255701303482056,8.987211227416992,0.08599237352609634,0.24087288975715637,-0.017610372975468636
-0.5330833792686462,2.0297563076019287,8.66779613494873,-0.03553490340709686,0.05002113804221153,-0.19109609723091125
-1.790403127670288,2.7902791500091553,9.257831573486328,-0.05181882530450821,-0.016528267413377762,-0.10201449692249298
-0.9754647612571716,2.4377377033233643,9.227023124694824,-0.0126710906624794,-0.07559020817279816,0.020926497876644135
-0.8839775323867798,2.1711864471435547,9.152812004089355,-0.04426154866814613,-0.10410889238119125,0.014590952545404434
-0.6010116338729858,2.229576349258423,9.050972938537598,-0.032096605747938156,-0.060213860124349594,0.00017453292093705386
-0.7264295220375061,2.1472063064575195,9.237384796142578,-0.0007330382941290736,-0.0063355453312397,-0.004345869645476341
-0.7750222086906433,2.207549571990967,9.086320877075195,0.00923279207199812,-0.01516691129654646,0.0003490658418741077
-0.6785071492195129,2.194793224334717,9.005061149597168,0.016283921897411346,0.017034413293004036,-0.0037000980228185654
-0.7484082579612732,2.2368929386138916,8.929471969604492,-0.012985249981284142,-0.032271139323711395,-0.0006981316837482154
-0.6973351836204529,2.1877639293670654,9.112762451171875,-0.021066123619675636,-0.031154127791523933,-0.0015882495790719986
-0.6432549357414246,2.192763090133667,9.218664169311523,0.008936085738241673,-0.005689773242920637,-0.008168140426278114
-0.5917412638664246,2.26210880279541,8.905665397644043,-0.00040142572834156454,-0.027471482753753662,-0.00890117883682251
-0.5451405644416809,2.2140331268310547,8.987746238708496,-0.01603957638144493,-0.019634954631328583,-0.01251401100307703
-0.607801616191864,2.1740403175354004,9.193812370300293,-0.012688543647527695,-0.04082325100898743,-0.018291050568223
-0.8049880266189575,2.2651925086975098,9.17287540435791,-0.010698867961764336,-0.060789816081523895,-0.015690509229898453
-0.7189021110534668,2.1580088138580322,8.97206974029541,-0.02223549410700798,-0.11328931897878647,-0.007278022821992636
-0.577835738658905,2.2180840969085693,9.542722702026367,0.010908307507634163,-0.005759586580097675,-0.010105456225574017
-0.5804693698883057,2.287353277206421,8.751811981201172,-0.012845623306930065,-0.015777776017785072,-0.032358404248952866
0.9034567475318909,1.2863757610321045,9.1830472946167,0.006562437862157822,0.027262043207883835,-0.17034412920475006
-0.8489360213279724,2.1568117141723633,9.215339660644531,0.05907939374446869,0.07562511414289474,-0.28153905272483826
-2.226942777633667,2.936852216720581,8.759129524230957,-0.005340707488358021,-0.09923942387104034,-0.13590878248214722
-0.6982353925704956,2.293750524520874,8.681633949279785,-0.09772098809480667,-0.19395844638347626,0.04052654653787613
-0.38101324439048767,2.1398510932922363,9.422332763671875,0.003752457909286022,0.054681167006492615,0.004712388850748539
-0.6144382953643799,2.146756172180176,9.12149715423584,0.03188716620206833,-0.003944444004446268,-0.006963863503187895
-0.61030113697052,2.266159772872925,8.79102897644043,0.016894787549972534,-0.01572541706264019,-0.01377064734697342
-0.6156162619590759,2.2953593730926514,8.939920425415039,-0.03387684002518654,-0.09405579417943954,-0.013718287460505962
-0.5138435363769531,2.2236578464508057,9.245345115661621,-0.018744835630059242,-0.11164870858192444,-0.011658798903226852
-0.500225305557251,2.209484100341797,9.094815254211426,0.0038920841179788113,-0.099675752222538,-0.013543754816055298
-0.5626565217971802,2.2234280109405518,8.859695434570312,-0.010175269097089767,-0.06197664141654968,-0.009930923581123352
-0.5657785534858704,2.178215980529785,9.079032897949219,-0.027523841708898544,-0.050108402967453,-0.0028972465079277754
-0.6943663358688354,2.1238770484924316,9.304279327392578,-0.010786134749650955,-0.07185520231723785,-0.005515240598469973
-0.6100713014602661,2.1161677837371826,9.10714054107666,0.01005309633910656,-0.06546729803085327,-0.009075712412595749
-0.5560485124588013,2.237515449523926,8.962981224060059,3.490658491500653e-05,-0.060475658625364304,-0.005270894151180983
-0.575882077217102,2.2659106254577637,9.11847972869873,-0.010663961991667747,-0.05763076990842819,-0.007155850064009428
-0.5506951212882996,2.227210760116577,9.176362037658691,-0.004520402755588293,-0.06618288159370422,-0.016283921897411346
-0.5301241278648376,2.1442372798919678,8.973726272583008,-0.002460914198309183,-0.06586872786283493,-0.02436479553580284
-0.4802289605140686,2.1307244300842285,8.992602348327637,-0.02600540593266487,-0.08398524671792984,-0.019634954631328583
-0.30612263083457947,2.1279473304748535,9.101978302001953,0.017645278945565224,0.09039060026407242,-0.006195918656885624
-0.42772889137268066,1.9904721975326538,9.727642059326172,0.06630505621433258,0.15241959691047668,0.006056292448192835
-0.4677886962890625,2.2315587997436523,9.075613975524902,0.014538592658936977,-0.01005309633910656,-0.011920598335564137
-0.47449246048927307,2.400618076324463,8.701639175415039,-0.0016231562476605177,0.018849555402994156,-0.020961403846740723
-0.7576403021812439,2.045586585998535,9.070633888244629,-0.00989601667970419,0.00411897711455822,-0.004660028964281082
-0.6954581141471863,2.200012683868408,9.107122421264648,-0.007278022821992636,-0.010262535884976387,0.000715585018042475
-0.5387815237045288,2.0442075729370117,9.124848365783691,0.00015707963029854,0.002251474652439356,0.00040142572834156454
-0.543943464756012,2.0962862968444824,9.064324378967285,0.016371188685297966,0.07808603346347809,0.014346606098115444
-0.650351345539093,2.207310199737549,9.124810218811035,0.036791540682315826,0.152105450630188,0.023527037352323532
-0.7710382342338562,2.301909923553467,9.138226509094238,0.030717793852090836,0.08403760194778442,0.014678219333291054
-0.5974777936935425,2.2203633785247803,8.900187492370605,-0.0005759586347267032,-0.03825761750340462,-0.0024260077625513077
-0.5947005152702332,2.1728432178497314,9.20991039276123,-0.00609119888395071,0.02617993950843811,-0.009756390936672688
-0.506268322467804,2.200491428375244,9.127108573913574,0.010559242218732834,0.04766494035720825,-0.0002617993741296232
-0.4709490239620209,2.3150970935821533,8.894659996032715,0.032882001250982285,0.0915948823094368,0.012548916973173618
-0.6149746179580688,2.321446657180786,9.043742179870605,0.00609119888395071,0.038030724972486496,0.008761553093791008
-0.5502162575721741,2.2826988697052,9.1114501953125,-0.007138396613299847,0.0067544239573180676,0.0007504915702156723
-0.5300379395484924,2.305204391479492,9.13216495513916,-0.005061454605311155,-0.00027925267932005227,-5.2359879191499203e-05
-0.6329885721206665,2.309398889541626,8.987211227416992,-0.008290314115583897,0.00930260494351387,-0.0017627825727686286
-0.6862547993659973,2.21455979347229,9.085277557373047,-0.015097098425030708,0.007033676840364933,-0.012287117540836334
-0.7109246253967285,2.179795980453491,9.165234565734863,-0.004398229531943798,0.018186330795288086,-0.006894050631672144
-0.47888821363449097,2.239708662033081,9.075882911682129,0.007941247895359993,0.026982789859175682,-0.00921533815562725
-0.5813504457473755,2.2831106185913086,8.916217803955078,-0.016091935336589813,-0.004468042869120836,-0.008604473434388638
-0.6112588047981262,2.281109094619751,9.118163108825684,-0.02857103943824768,-0.0004886921960860491,-0.0006632251315750182
-0.573593258857727,2.168447494506836,9.192230224609375,-0.012164944782853127,-0.010437068529427052,-0.004869468510150909
-0.5104438066482544,2.1216840744018555,8.998089790344238,0.002827433403581381,-0.009197885170578957,-0.013491394929587841
-0.642670750617981,2.167231321334839,8.97233772277832,-0.008429939858615398,-0.007155850064009428,-0.009320057928562164
-0.728938639163971,2.1982219219207764,9.107734680175781,-0.024486970156431198,-0.02387610450387001,-0.0024260077625513077
-0.650887668132782,2.1250455379486084,9.168290138244629,-0.032131511718034744,-0.09147270768880844,-0.011815878562629223
-0.5241768956184387,2.1097800731658936,8.931903839111328,-0.026633724570274353,-0.09374163299798965,-0.024958208203315735
-0.6734793186187744,2.1350245475769043,9.008012771606445,-0.013805554248392582,-0.03145083412528038,-0.021450096741318703
-0.7679928541183472,2.2410013675689697,9.060118675231934,-0.03923500329256058,-0.08780751377344131,-0.017592918127775192
-0.49078258872032166,2.068666696548462,9.584746360778809,-0.009791296906769276,-0.1777268797159195,-0.014940018765628338
-0.7666041851043701,2.238616704940796,9.113059997558594,-0.0003316125657875091,0.11976449191570282,0.0045378562062978745
-0.6957454085350037,2.2568509578704834,9.274352073669434,0.009791296906769276,0.1137780100107193,0.011065387167036533
-0.5565082430839539,2.1641571521759033,8.968104362487793,0.024382250383496284,0.04237659275531769,0.0067544239573180676
-0.6157503724098206,2.1617534160614014,8.997476577758789,0.003543018363416195,0.042498767375946045,0.010419615544378757
-0.6231244802474976,2.2187929153442383,9.212973594665527,-0.004049163777381182,0.05382595211267471,0.0049916417337954044
-0.6012223362922668,2.2084786891937256,9.038053512573242,-0.0012391837080940604,0.007120943162590265,-0.0037873645778745413
-0.5195226073265076,2.146047353744507,8.881080627441406,-0.004084070213139057,-0.010227628983557224,-0.00251327408477664
-0.5835914015769958,2.148135185241699,9.138811111450195,-0.003351032268255949,-0.02946115843951702,0.0009773843921720982
-0.6356796622276306,2.1586217880249023,9.178460121154785,0.012339477427303791,-0.04738568887114525,0.0028972465079277754
-0.5408980250358582,2.2029335498809814,8.995963096618652,0.017174039036035538,-0.033126350492239,0.00769690191373229
-0.5084038972854614,2.2446980476379395,8.977499008178711,0.0020769417751580477,0.013194689527153969,0.007400196045637131
-0.5952272415161133,2.2654223442077637,9.106451034545898,-0.01710422709584236,-0.0142593402415514,0.002809980185702443
-0.6299335956573486,2.228178024291992,9.095208168029785,-0.02848377265036106,-0.05743878707289696,-0.0044156829826533794
-0.5156822800636292,2.0924651622772217,8.990811347961426,-0.028989918529987335,-0.0648215264081955,-0.01448623277246952
-0.46652454137802124,2.084190845489502,9.08261489868164,-0.029426250606775284,-0.034033920615911484,-0.010698867961764336
-0.6216592192649841,2.1514008045196533,9.219104766845703,-0.03378957509994507,-0.04773475602269173,-0.003857177682220936
-0.4229500889778137,2.116694450378418,9.012818336486816,-0.004153883550316095,0.03216641768813133,-0.012252211570739746
-0.6913113594055176,2.1555187702178955,9.26199722290039,0.027663469314575195,0.08831366151571274,0.005969026125967503
-0.9190860986709595,2.073378562927246,9.15224838256836,0.03981095924973488,0.09691813588142395,0.018221236765384674
-0.5051286816596985,1.9529407024383545,9.175069808959961,0.09178686141967773,0.2278701812028885,0.05021312087774277
-0.5366842150688171,2.242361307144165,8.930822372436523,0.053878314793109894,0.14440853893756866,0.03998549282550812
-0.5621681213378906,2.336482286453247,9.032154083251953,0.008587019518017769,0.05843362212181091,0.019460421055555344
-0.622099757194519,2.294823169708252,9.149738311767578,-5.2359879191499203e-05,-0.005462880712002516,-0.0034732052590698004
-0.65240079164505,2.104560613632202,8.967206001281738,0.0008726646192371845,-0.02373647689819336,-0.015603243373334408
-0.5982630848884583,2.0792107582092285,9.049029350280762,-0.008866272866725922,-0.03326597437262535,-0.01661553420126438
-0.631848931312561,2.1798343658447266,9.219027519226074,0.00823795422911644,-0.0067369709722697735,-0.013596114702522755
-0.624915361404419,2.1703245639801025,9.151348114013672,0.03525565192103386,0.03508111834526062,-0.004014257341623306
-0.5292143225669861,2.2370173931121826,8.923236846923828,0.02361430414021015,0.009756390936672688,-0.011397000402212143
-0.794539749622345,2.1414027214050293,8.985016822814941,-0.0033684854861348867,-0.013543754816055298,0.005148721393197775
-0.7985907196998596,2.0535640716552734,9.181638717651367,-0.0018500490114092827,-0.04075343906879425,0.01061160210520029
-0.686091959476471,2.116818904876709,9.19588851928711,0.01682497374713421,-0.033737216144800186,0.008429939858615398
-0.5485307574272156,2.2037572860717773,8.9487886428833,0.0029845130629837513,-0.05599016323685646,0.0028623400721699
-0.5941354632377625,2.2565255165100098,9.141128540039062,-0.006387905217707157,-0.057648226618766785,0.0010646508308127522
-0.5615168809890747,2.2456367015838623,9.133726119995117,0.0010122909443452954,-0.08023278415203094,-0.006527531426399946
-0.46769291162490845,2.17205810546875,9.054727554321289,0.01473057921975851,-0.03937462717294693,-0.017645278945565224
-0.5300762057304382,2.1894302368164062,8.974865913391113,-0.016894787549972534,-0.08866272866725922,-0.010384708642959595
-0.5854684710502625,2.142322063446045,9.011191368103027,-0.030264008790254593,-0.11077604442834854,-0.004782202187925577
-0.4788977801799774,2.098153829574585,8.916801452636719,0.04047418385744095,0.1319468915462494,0.021362829953432083
-0.482891321182251,1.7784991264343262,9.972002983093262,0.07307693362236023,0.12065461277961731,0.016458455473184586
-0.5207197070121765,1.9888728857040405,9.833504676818848,0.04942772537469864,-0.03473205119371414,-0.007522369269281626
-0.6058000326156616,2.3323450088500977,8.6659574508667,0.012583823874592781,-0.08918632566928864,-0.013596114702522755
-0.7857291102409363,2.314197063446045,8.895071983337402,-0.009354964829981327,0.04513421282172203,0.01507964450865984
-0.6859483122825623,2.245847225189209,9.182950973510742,-0.013037609867751598,0.02396337129175663,0.01638864167034626
-0.38775530457496643,2.1690316200256348,9.100475311279297,0.00472984230145812,0.013910274021327496,-0.0038222710136324167
-0.42787256836891174,2.204446792602539,8.913689613342285,-0.004363323096185923,0.016720253974199295,0.0026529005263000727
-0.6567103266716003,2.2515549659729004,9.134665489196777,0.0017976891249418259,0.09000662714242935,0.013055062852799892
-0.8395220041275024,2.160393476486206,9.161087036132812,0.0184306763112545,0.0581892766058445,0.01940806210041046
-0.42135074734687805,2.383054256439209,9.285548210144043,-0.023684117943048477,-0.008517206646502018,0.015132004395127296
-0.5619861483573914,2.210824966430664,9.0440673828125,0.02099631167948246,0.013281955383718014,0.006248278543353081
-0.5279884934425354,2.154733657836914,8.979557991027832,0.0285186804831028,0.040456730872392654,-0.011484266258776188
-0.6556568741798401,2.150519847869873,9.081360816955566,0.014189526438713074,0.0036651913542300463,-0.0037350046914070845
-0.5288503766059875,2.168686866760254,9.143782615661621,0.03635520860552788,0.04251622036099434,0.009529497474431992
-0.531493604183197,2.2579236030578613,9.006316184997559,0.04256857931613922,0.05085889250040054,0.004782202187925577
-0.5655965805053711,2.3714375495910645,8.823763847351074,-0.003351032268255949,-0.004956734832376242,0.004398229531943798
-0.6245706081390381,2.262194871902466,9.104832649230957,-0.02604031190276146,0.003543018363416195,0.003909537568688393
-0.6732303500175476,2.148135185241699,9.284857749938965,0.0021293016616255045,0.03349286690354347,-0.002286381321027875
-0.8135018348693848,2.1636784076690674,8.9708251953125,0.005410520825535059,0.010995574295520782,0.0008901178953237832
-0.8459097146987915,2.2171361446380615,9.16406536102295,0.0025656339712440968,0.003979350905865431,0.009581857360899448
-0.7753956913948059,2.2386839389801025,9.135238647460938,0.01251401100307703,-0.006405358202755451,0.009442231617867947
-0.7129645347595215,2.286529541015625,8.894612312316895,0.005899212788790464,-0.01377064734697342,-0.0024958208668977022
-0.6404393315315247,2.244860887527466,8.998032569885254,-0.021903881803154945,-0.016493361443281174,-0.007470009382814169
-0.6306901574134827,2.248729944229126,9.262505531311035,-0.02710496261715889,-0.024033183231949806,-0.009477137587964535
-0.571869432926178,2.236605644226074,9.203875541687012,-0.0014137167017906904,-0.03644247353076935,-0.015830136835575104
-0.5289653539657593,2.2481935024261475,8.927834510803223,0.012130037881433964,-0.009023352526128292,-0.016109388321638107
-0.638437807559967,2.2482223510742188,8.946614265441895,0.0010122909443452954,-0.022689281031489372,-0.00923279207199812
-0.6935427188873291,2.2069270610809326,9.041271209716797,-0.016528267413377762,-0.035761795938014984,-0.011344640515744686
-0.5222615599632263,2.3245208263397217,9.110865592956543,0.0005410520825535059,-0.17756979167461395,-0.007470009382814169
-0.6148213744163513,2.1674420833587646,8.842753410339355,-0.014608405530452728,-0.027471482753753662,0.022968532517552376
-0.7230871915817261,2.2521679401397705,8.995723724365234,0.026965336874127388,0.04778711497783661,0.00823795422911644
-0.6520464420318604,2.132927179336548,9.074953079223633,0.015568336471915245,0.09327039122581482,0.00012217304902151227
-0.6044784188270569,2.204102039337158,9.04382038116455,0.010419615544378757,0.07768460363149643,0.008604473434388638
-0.6652050018310547,2.233330488204956,9.063959121704102,-0.006440265104174614,0.032096605747938156,0.010262535884976387
-0.734454870223999,2.1864709854125977,9.213395118713379,0.013561207801103592,0.03755948692560196,0.009738937020301819
-0.48679864406585693,2.0298328399658203,9.036752700805664,0.058538343757390976,0.13720032572746277,0.00411897711455822
-0.5895290374755859,2.356325387954712,8.929099082946777,0.0671253651380539,0.19807741045951843,0.0067369709722697735
-0.8060606122016907,2.400397777557373,8.982307434082031,0.02249729447066784,0.12229522317647934,-0.00041887903353199363
-0.8352411985397339,2.3453311920166016,9.125815391540527,-0.002373647876083851,0.013386675156652927,-0.012618730776011944
-0.8327224850654602,2.234537124633789,8.863707542419434,-0.01104793418198824,-0.047944195568561554,-0.025097833946347237
-0.7501416802406311,2.1113409996032715,9.03531551361084,0.0015009831404313445,0.037000980228185654,-0.017331119626760483
-0.7723885774612427,2.2463836669921875,9.203282356262207,0.05084143951535225,0.1270250678062439,-0.013037609867751598
0.1457398384809494,1.8400684595108032,8.989279747009277,0.024015730246901512,0.022863812744617462,-0.07169812172651291
-0.9746220111846924,2.2078847885131836,8.922260284423828,-0.03199188411235809,-0.16468927264213562,-0.16076228022575378
-1.6189782619476318,2.585766553878784,8.967070579528809,-0.04124213010072708,-0.1546361744403839,-0.06051056459546089
-0.7949802875518799,2.168198585510254,9.119668006896973,-0.060789816081523895,-0.22284363210201263,0.0013089969288557768
-0.6113162636756897,2.1663694381713867,9.237701416015625,-0.029269171878695488,-0.17271777987480164,-0.00815068744122982
-0.5659509301185608,2.2182374000549316,9.074455261230469,0.0025307273026555777,-0.06380923837423325,-0.004660028964281082
-0.748207151889801,2.3315885066986084,9.048952102661133,-0.013281955383718014,-0.038327429443597794,0.015655603259801865
-0.5909751653671265,2.2343742847442627,9.152947425842285,-0.008761553093791008,-0.0006981316837482154,0.01151917316019535
-0.5161324143409729,2.1399757862091064,8.993244171142578,0.010088003240525723,0.011222466826438904,-0.006422811653465033
-0.7297430634498596,2.2809271812438965,8.88796615600586,-0.011623892933130264,-0.014852751977741718,-0.011379546485841274
-0.7404307723045349,2.2916245460510254,9.13234806060791,-0.036704275757074356,-0.04363323003053665,-0.008674286305904388
-0.7335641980171204,2.2112271785736084,9.1416654586792,-0.023369958624243736,-0.06492624431848526,-0.00954695139080286
-0.5922297239303589,2.109981060028076,8.964455604553223,-0.018413223326206207,-0.10372491925954819,-0.015760323032736778
-0.6143617033958435,2.208909511566162,8.945426940917969,-0.023282691836357117,-0.09855873882770538,-0.01151917316019535
-0.5212368369102478,2.4015278816223145,8.49350643157959,-0.0042236968874931335,-0.04197516664862633,0.007504915818572044
-0.5545353889465332,2.1224021911621094,9.348984718322754,0.04392993822693825,0.16987289488315582,0.02782054804265499
-0.7593449950218201,2.2324013710021973,9.000129699707031,0.006510077975690365,-0.0045378562062978745,-0.01710422709584236
-0.868903636932373,2.229585886001587,8.739249229431152,-0.03897320106625557,-0.031241392716765404,-0.0016755161341279745
-0.662054181098938,2.1345744132995605,9.066985130310059,-0.027052603662014008,0.039095375686883926,0.002809980185702443
-0.652094304561615,2.1233599185943604,9.307229042053223,0.003577925032004714,0.06618288159370422,-0.005235987715423107
-0.6209122538566589,2.173724412918091,9.071629524230957,0.00830776710063219,0.0008726646192371845,-0.022252947092056274
-0.730777382850647,2.320852756500244,8.923295021057129,-0.0478045679628849,-0.1221381425857544,-0.033283427357673645
-0.6195235848426819,2.2930705547332764,9.196474075317383,-0.08033750206232071,-0.19867083430290222,-0.03460988029837608
-0.617665708065033,2.1736860275268555,9.212063789367676,-0.038065630942583084,-0.139434352517128,-0.033597588539123535
-0.5150885581970215,2.0246996879577637,8.876291275024414,-0.004310963209718466,-0.07440338283777237,-0.024748768657445908
-0.530411422252655,2.08984112739563,8.938340187072754,0.011554080061614513,0.004834562074393034,-0.014835298992693424
0.15587210655212402,1.7695640325546265,9.263031959533691,0.021293016150593758,-0.0026354470755904913,-0.14297737181186676
-0.8145840167999268,2.3436264991760254,9.193331718444824,0.020699605345726013,-0.03911282867193222,-0.1604481190443039
-1.4391162395477295,2.641369342803955,8.865804672241211,-0.012304571457207203,-0.0547160729765892,-0.054105207324028015
-0.4930618703365326,2.0358757972717285,9.04762077331543,-0.04824090003967285,-0.044087015092372894,-0.0003316125657875091
-0.6442605257034302,2.029890298843384,9.375885963439941,-0.013753194361925125,-0.01326450239866972,-0.003717551240697503
-0.5807949900627136,2.1140224933624268,9.097613334655762,-0.00031415926059708,-0.03296926990151405,-0.007103490177541971
-0.5462802052497864,2.27016282081604,8.931703567504883,-0.014643312431871891,-0.030543262138962746,-0.006702064536511898
-0.5428038239479065,2.2291548252105713,9.13768196105957,-0.023666664958000183,-0.030264008790254593,-0.008761553093791008
-0.5697242021560669,2.1012566089630127,9.162973403930664,-0.020786872133612633,-0.0524296909570694,-0.017121680080890656
-0.4630385935306549,2.017871379852295,8.990974426269531,-0.021153390407562256,-0.07105235010385513,-0.028466319665312767
-0.4443255066871643,2.1167232990264893,8.992410659790039,-0.027174776419997215,-0.04583234712481499,-0.01797689124941826
-0.5262359380722046,2.12947940826416,9.191990852355957,-0.017819812521338463,-0.022602014243602753,-0.003525565145537257
-0.47079581022262573,2.1185619831085205,9.212150573730469,0.007103490177541971,-0.0016929693520069122,-0.002600540639832616
-0.44758161902427673,2.0961904525756836,8.96767520904541,0.035063665360212326,0.0875457152724266,0.0024958208668977022
-0.4461834132671356,2.0503463745117188,9.255159378051758,0.012374384328722954,0.04792674258351326,0.005148721393197775
-0.5346156358718872,2.2478010654449463,9.058107376098633,-0.00923279207199812,-0.03132865950465202,-0.005462880712002516
-0.6792445778846741,2.0633037090301514,9.087747573852539,-0.013089969754219055,-0.015463616698980331,-0.005375613924115896
-0.6338601112365723,2.064347743988037,9.057273864746094,-0.012130037881433964,-0.024818582460284233,0.002809980185702443
-0.568077027797699,2.0178043842315674,9.168500900268555,-0.016545720398426056,-0.012409291230142117,0.014660765416920185
-0.6144287586212158,2.0394959449768066,9.232596397399902,0.016632987186312675,0.04974188283085823,0.02324778586626053
-0.6022278666496277,2.1114559173583984,9.019388198852539,0.03862413763999939,0.0878598764538765,0.02330014482140541
-0.5191395282745361,2.1029326915740967,9.098999977111816,0.08501498401165009,0.2742261290550232,0.060929443687200546
-0.42385029792785645,2.431101083755493,9.0050048828125,0.023719023913145065,0.12074187397956848,0.02617993950843811
-0.4976491630077362,2.3207952976226807,9.083016395568848,-0.0009773843921720982,0.04565781354904175,-0.00045378561480902135
-0.431799054145813,2.185925245285034,9.038312911987305,0.00753982225432992,0.02321287989616394,-0.022933626547455788
-0.6207494139671326,2.127200126647949,9.27083683013916,-0.0017627825727686286,-0.03925245627760887,0.013491394929587841
-0.6192362904548645,2.165938377380371,9.194042205810547,0.016266468912363052,-0.03577924892306328,0.01120501384139061
-0.5944036245346069,2.2261765003204346,8.934816360473633,0.01953023485839367,-0.010227628983557224,0.0034382985904812813
-0.6011936068534851,2.2021484375,9.016802787780762,-0.0009250245057046413,-0.02281145378947258,-0.0019547687843441963
-0.6607996225357056,2.2135350704193115,9.135727882385254,-0.01417207345366478,-0.06108652427792549,-0.00548033369705081
-0.6048710942268372,2.1779956817626953,9.104536056518555,-0.005759586580097675,-0.060789816081523895,-0.002740166848525405
-0.47486594319343567,2.1373229026794434,8.735350608825684,0.06627015024423599,0.09374163299798965,-0.00013962633966002613
-0.7895310521125793,2.2302370071411133,9.301492691040039,0.022305307909846306,0.0006806784076616168,0.006963863503187895
-0.5858611464500427,2.2324206829071045,8.884232521057129,-0.008587019518017769,0.00015707963029854,-0.006492624990642071
-0.7072567343711853,2.056398868560791,9.106280326843262,-0.0039618974551558495,0.006073745898902416,0.008325220085680485
-0.5644857287406921,2.095520257949829,8.989251136779785,0.005235987715423107,0.041835542768239975,0.0190066359937191
-0.5535489916801453,2.1607766151428223,9.109689712524414,-0.00143117003608495,0.09227555990219116,0.0131772356107831
-0.6817153692245483,2.1906752586364746,9.153741836547852,0.0005585053586401045,0.07653268426656723,0.012967796064913273
-0.6632800102233887,2.166273593902588,9.027912139892578,0.0062831854447722435,0.03947934880852699,0.0207345113158226
-0.7048625349998474,2.0703907012939453,9.025862693786621,0.027227135375142097,0.06330309063196182,0.025132741779088974
-0.45498448610305786,2.2288198471069336,9.216392517089844,0.08953539282083511,0.29623472690582275,0.06230825558304787
-0.7181742787361145,2.492335081100464,9.035324096679688,0.025621432811021805,0.05712462589144707,0.02609267272055149
-0.678392231464386,2.2740318775177,8.842065811157227,0.006143558770418167,0.0024260077625513077,0.0020420351065695286
-0.6406596302986145,2.2143683433532715,9.046241760253906,0.006544984877109528,0.0019198621157556772,-0.008761553093791008
-0.6783539056777954,2.3108162879943848,9.082059860229492,-0.006806783843785524,-0.048694685101509094,-0.012723450548946857
-0.6469324231147766,2.0933845043182373,9.017885208129883,0.02799508161842823,0.027890361845493317,-0.016091935336589813
-0.8502288460731506,2.131031036376953,9.005664825439453,0.023719023913145065,0.0457974411547184,0.01096066739410162
-0.71531081199646,2.265096664428711,8.918201446533203,-0.017296213656663895,-0.05159193277359009,-0.0047996556386351585
-0.7271477580070496,2.2734858989715576,9.13570785522461,-0.025900686159729958,-0.0653974860906601,-0.00038397242315113544
-0.6874902248382568,2.226569175720215,9.238812446594238,-0.0007504915702156723,-0.0584685280919075,-0.0051312679424881935
-0.6612497568130493,2.1805813312530518,9.006383895874023,0.013665927574038506,-0.055344391614198685,-0.026720991358160973
-0.6621786952018738,2.1547718048095703,8.905319213867188,-0.00143117003608495,-0.05035274848341942,-0.02427753061056137
-0.6902099847793579,2.2539970874786377,8.92447280883789,-0.0103672556579113,0.05752605199813843,0.015149458311498165
-0.6952090859413147,2.163745403289795,9.000521659851074,-0.017697637900710106,0.036704275757074356,0.017435839399695396
-0.5835626721382141,2.1213295459747314,9.231342315673828,0.005619960371404886,0.04689699783921242,0.01441641990095377
-0.592756450176239,2.2327940464019775,9.082355499267578,0.03157300502061844,0.002600540639832616,0.0018151424592360854
-0.7045943737030029,2.3464419841766357,8.783990859985352,0.025150194764137268,0.015917403623461723,-0.0013962633674964309
-0.7610688209533691,2.3490278720855713,9.035094261169434,0.019320795312523842,0.043563418090343475,0.01080358773469925
-0.7723694443702698,2.3519487380981445,9.003433227539062,-0.040107667446136475,-0.09374163299798965,-0.005567600484937429
-0.6990110874176025,2.190234661102295,8.998329162597656,-0.028239427134394646,-0.11191051453351974,-0.016022123396396637
-0.63304603099823,2.280362129211426,9.138514518737793,0.003176499158143997,-0.014957471750676632,-0.0015358896926045418
-0.5512793064117432,2.294478416442871,8.954334259033203,-0.005270894151180983,-0.01705186627805233,-0.006841690745204687
-0.529109001159668,2.195396661758423,9.094566345214844,-0.017435839399695396,-0.02125811018049717,-0.003996803890913725
-0.6031089425086975,2.215747356414795,9.201434135437012,-0.01926843449473381,-0.0610516183078289,-0.01029744278639555
-0.48844584822654724,2.1413259506225586,9.114265441894531,-0.010629055090248585,-0.08107054233551025,-0.019390607252717018
-0.565797746181488,2.18552303314209,9.198896408081055,-0.005113814491778612,-0.042062435299158096,-0.009599311277270317
-0.5630874633789062,2.27557373046875,8.664031028747559,0.0091455252841115,-0.05504768341779709,-0.015777776017785072
-0.46008893847465515,2.0126233100891113,9.404118537902832,0.02905973233282566,0.05686282739043236,-0.00563741335645318
-0.5481764078140259,2.1361448764801025,9.465600967407227,0.041346848011016846,0.05794493108987808,-0.0035604715812951326
-0.8320137858390808,2.3021397590637207,8.96059799194336,0.028553586453199387,0.02816961333155632,0.0007330382941290736
