accX,accY,accZ,gyroX,gyroY,gyroZ
0.3652019500732422,4.177173137664795,8.594149589538574,-0.2782403826713562,0.35445892810821533,0.004660028964281082
0.19354726374149323,4.115469932556152,9.271307945251465,-0.17709855735301971,0.21924826502799988,-0.007033676840364933
0.19258958101272583,3.899627685546875,9.479009628295898,0.06241297349333763,0.09683086723089218,-0.004904375411570072
0.03675578162074089,4.114598274230957,9.380213737487793,0.20024162530899048,0.007138396613299847,-0.010663961991667747
0.20865945518016815,4.357619285583496,8.809378623962402,0.17161822319030762,-0.004310963209718466,0.0011868239380419254
0.46396753191947937,4.272711277008057,8.447097778320312,0.04455825686454773,0.11800170689821243,-0.028501227498054504
0.4868178069591522,4.204256534576416,8.544838905334473,-0.0431968979537487,0.25069910287857056,-0.043022364377975464
0.6275585293769836,4.18671178817749,8.821139335632324,-0.12274900823831558,0.10730284452438354,-0.1313011199235916
0.5315797924995422,4.310166358947754,8.701496124267578,-0.10819295793771744,0.11248646676540375,-0.19289378821849823
0.23216094076633453,4.4516825675964355,8.568253517150879,-0.16584119200706482,0.0953473374247551,-0.20202186703681946
0.06881893426179886,4.212281703948975,8.799275398254395,-0.21217967569828033,0.07557275891304016,-0.20181241631507874
0.012708421796560287,3.9836738109588623,8.927785873413086,-0.2272942215204239,0.06792821735143661,-0.2194402515888214
0.23728452622890472,3.905153512954712,8.661744117736816,-0.29651397466659546,0.19252726435661316,-0.2612932324409485
0.19436128437519073,4.15759801864624,8.592042922973633,-0.4277103841304779,0.29277896881103516,-0.30921998620033264
-0.4086519181728363,4.048537254333496,9.119197845458984,-0.5096361637115479,0.14493213593959808,-0.27321383357048035
-0.5554835200309753,3.5088653564453125,9.201482772827148,-0.4600164294242859,-0.08154178410768509,-0.249425008893013
-0.6985514163970947,2.937465190887451,9.260915756225586,-0.25183355808258057,-0.07876671105623245,-0.1999100148677826
-0.7003518342971802,3.010047674179077,9.346733093261719,-0.1560847908258438,-0.026319565251469612,-0.14997614920139313
-1.1655547618865967,3.4186229705810547,9.717087745666504,-0.07642796635627747,-0.10953686386346817,-0.06757915019989014
0.553673505783081,3.3306026458740234,9.098627090454102,0.26345744729042053,-0.14840534329414368,-0.05679301545023918
0.08986875414848328,3.857863187789917,9.057936668395996,0.0780511274933815,0.09855873882770538,-0.06352998316287994
-0.19359514117240906,3.7786152362823486,9.301828384399414,-0.02347467839717865,0.24867451190948486,-0.012007865123450756
-0.16185760498046875,3.689359426498413,9.42226505279541,-0.038955748081207275,0.25705209374427795,0.009791296906769276
0.04256890341639519,3.6111550331115723,9.345968246459961,-0.03853686898946762,0.19938641786575317,0.046652652323246
-0.17623239755630493,3.60448956489563,9.157179832458496,-0.031101766973733902,0.13119639456272125,0.034784410148859024
-0.10697292536497116,3.745556116104126,9.225385665893555,0.22848105430603027,-0.019495327025651932,-0.02661627158522606
0.00934696290642023,3.9033243656158447,8.586852073669434,0.10901326686143875,0.10876891762018204,0.029862582683563232
-0.004606443922966719,3.5027456283569336,8.521796226501465,0.007522369269281626,0.3024830222129822,0.08655087649822235
-0.6384282112121582,3.660236358642578,9.314507484436035,0.10611601918935776,0.24939009547233582,-0.007609635591506958
-0.533993124961853,4.038500785827637,9.84338665008545,0.18467329442501068,-0.34543555974960327,-0.0578925721347332
-0.07406701892614365,3.9527885913848877,9.252372741699219,0.16777850687503815,-0.3208264112472534,0.013683381490409374
-0.4206516444683075,3.867985963821411,9.09443187713623,0.009285151958465576,-0.1953023374080658,-0.06161012127995491
-0.5173582434654236,3.494117021560669,9.514021873474121,-0.08735372871160507,-0.2312910258769989,-0.2053903490304947
0.07244853675365448,3.4668996334075928,9.716886520385742,0.002286381321027875,-0.4755847752094269,-0.3168819844722748
0.10028831660747528,3.8352811336517334,9.558687210083008,0.06611306965351105,-0.4646590054035187,-0.312239408493042
0.3612275719642639,4.213804244995117,9.179532051086426,0.05094616115093231,-0.46067965030670166,-0.17434093356132507
0.6854982376098633,3.8415253162384033,8.502836227416992,-0.0872664600610733,-0.20610593259334564,-0.02719222940504551
0.5474006533622742,3.545515775680542,7.940695285797119,-0.23600341379642487,0.29798007011413574,-0.007155850064009428
0.04521210119128227,3.6080427169799805,8.410236358642578,-0.3245614171028137,0.49584802985191345,-0.008115780539810658
-0.18844282627105713,3.505666494369507,9.183305740356445,-0.25103071331977844,0.31468287110328674,0.0024434609804302454
-0.1539280116558075,3.2674436569213867,9.854438781738281,0.03902556374669075,0.27237609028816223,-0.02932153083384037
-0.3465079963207245,4.004340648651123,9.665162086486816,0.13407619297504425,-0.11461576819419861,0.018483037129044533
0.12639468908309937,3.588467597961426,8.881503105163574,0.029967302456498146,0.029391344636678696,0.06188937649130821
0.10812214761972427,3.4041428565979004,7.874528884887695,-0.20575685799121857,0.42177626490592957,0.04996877536177635
-0.15065273642539978,3.410339117050171,8.981637001037598,-0.28270843625068665,0.5322032570838928,-0.001483529806137085
-0.07434474676847458,3.8500869274139404,9.76210880279541,-0.18353882431983948,0.26776841282844543,0.0076445420272648335
-0.4489319622516632,3.8244783878326416,9.480952262878418,0.006702064536511898,0.23024383187294006,0.06592108309268951
-0.5116409063339233,3.0938735008239746,9.125336647033691,0.24666738510131836,0.09953612834215164,0.04173082113265991
-0.1302349865436554,3.4646682739257812,9.043876647949219,0.36824703216552734,0.022026054561138153,0.016772614791989326
-0.07181647419929504,3.840998411178589,9.103482246398926,0.40130355954170227,0.00047123889089562,0.052063170820474625
-0.33635658025741577,3.739082098007202,9.10945987701416,0.3988949954509735,0.11796680092811584,0.10534807294607162
-0.8383249044418335,3.8543007373809814,9.363752365112305,0.413625568151474,0.05248204991221428,0.11437142640352249
-0.05881116911768913,3.986546754837036,8.228401184082031,-0.004660028964281082,0.41460296511650085,0.13486158847808838
-0.7792551517486572,4.1775946617126465,8.90464973449707,-0.13203415274620056,0.6107430458068848,0.11487757414579391
-1.1169525384902954,3.926845073699951,9.553889274597168,-0.03433062508702278,0.4674689769744873,0.14063863456249237
-0.7665371894836426,3.8225343227386475,9.332204818725586,0.0659734457731247,0.2793399393558502,0.11220721900463104
-1.2617921829223633,3.819479465484619,9.165837287902832,-0.19303341209888458,0.21610666811466217,0.002373647876083851
-1.0534104108810425,3.7966866493225098,9.438268661499023,-0.0961850956082344,0.1149124801158905,0.027262043207883835
-0.8075354695320129,3.895653247833252,9.154651641845703,0.05424483120441437,0.05077162757515907,0.04082325100898743
-0.7071992754936218,3.8651416301727295,8.684563636779785,0.08459610491991043,0.06518805027008057,0.038728855550289154
-0.7277128100395203,3.7951159477233887,8.609847068786621,0.08068656921386719,0.2145533263683319,0.06370452046394348
-0.936448872089386,3.98087739944458,8.975202560424805,0.08883725851774216,0.3114016354084015,0.0610690712928772
-1.1312123537063599,4.032189846038818,9.075882911682129,0.07983136177062988,0.2733185589313507,0.05014330893754959
-1.019700050354004,3.9979047775268555,8.83228588104248,0.002548180753365159,0.2940356135368347,0.06901031732559204
-0.8129846453666687,3.805870771408081,8.627687454223633,-0.045204028487205505,0.4600338935852051,0.1313534826040268
-1.0603439807891846,3.7310566902160645,8.688557624816895,-0.05508258938789368,0.5243492722511292,0.11901400238275528
-1.5182877779006958,4.011302947998047,9.187807083129883,0.011693705804646015,0.33718016743659973,0.050597093999385834
-1.7022294998168945,4.400533199310303,9.333268165588379,-0.046129051595926285,-0.17095500230789185,-0.03555235639214516
-1.4409645795822144,3.881910562515259,9.087776184082031,-0.15830136835575104,-0.146345853805542,-0.07304202765226364
-1.74278724193573,3.8702938556671143,8.90001392364502,-0.25506240129470825,-0.11402235925197601,-0.136537104845047
-2.0588889122009277,4.001601696014404,9.305313110351562,-0.28558823466300964,-0.3274586796760559,-0.1005135104060173
-0.7667957544326782,3.7551231384277344,9.057906150817871,-0.026337018236517906,-0.2252347320318222,-0.06808529049158096
-0.8772737979888916,3.715456008911133,9.04385757446289,-0.012793263420462608,-0.3061133027076721,-0.05331980809569359
-1.1329936981201172,3.8757143020629883,8.986071586608887,-0.0751887857913971,-0.3752283453941345,-0.022532200440764427
-0.4334079623222351,3.5832674503326416,8.768102645874023,-0.10286970436573029,-0.2344151735305786,-0.06667158007621765
-0.729704737663269,3.807058334350586,9.40723991394043,-0.019722219556570053,0.12391837686300278,0.006230825558304787
-0.7234511375427246,3.814767599105835,9.402345657348633,0.048572514206171036,0.11199777573347092,0.06981316953897476
-0.5383123159408569,3.5136919021606445,9.15642261505127,0.2980498671531677,0.028099801391363144,0.07023204863071442
-0.42326611280441284,3.544193983078003,8.795645713806152,0.37634533643722534,0.11707668751478195,0.06415830552577972
-0.9287012219429016,3.7385075092315674,8.918917655944824,0.48350855708122253,0.048973940312862396,0.06237806752324104
-0.626754105091095,3.7628326416015625,8.69428539276123,0.48576003313064575,0.052551861852407455,0.06328564137220383
-0.3041498064994812,4.0041680335998535,8.3016357421875,0.26050785183906555,0.37320375442504883,0.06065019220113754
-0.810762882232666,4.35226583480835,8.412764549255371,0.0024434609804302454,0.8011934161186218,0.10215412080287933
-1.369435429573059,4.095540523529053,8.93490219116211,-0.08887216448783875,0.7783121466636658,0.12170180678367615
-1.3809467554092407,3.9732542037963867,9.088313102722168,-0.1284911334514618,0.6358932852745056,0.13432054221630096
-1.3311856985092163,4.217357158660889,8.933178901672363,-0.17933258414268494,0.5020439624786377,0.1299048513174057
-1.8573354482650757,4.500821113586426,9.308971405029297,-0.19886282086372375,0.052464596927165985,-0.014364060014486313
-1.7548636198043823,4.011484622955322,9.228422164916992,-0.3087312877178192,0.05044001340866089,-0.025324726477265358
-1.8584271669387817,3.8314216136932373,8.837936401367188,-0.35899677872657776,-0.0021293016616255045,-0.11068878322839737
-2.1458845138549805,3.739685535430908,9.084463119506836,-0.30063295364379883,-0.30372220277786255,-0.18854792416095734
-1.5848177671432495,3.8344383239746094,9.411118507385254,-0.21066124737262726,-0.6523691415786743,-0.21034708619117737
-1.0265858173370361,3.6104369163513184,9.525972366333008,-0.02652900479733944,-0.8691914081573486,-0.2522524297237396
-0.6666606664657593,3.5544891357421875,9.13505744934082,0.096761055290699,-0.9119170904159546,-0.19638444483280182
-0.42115920782089233,3.5602352619171143,8.429361343383789,-0.024923302233219147,-0.6629109382629395,-0.1123119369149208
-0.6750594973564148,3.7705514430999756,8.325309753417969,-0.2733709216117859,-0.24102996289730072,-0.11554079502820969
-0.709775447845459,3.656367301940918,8.98273754119873,-0.3609166443347931,0.015132004395127296,-0.0777893215417862
-0.7065384984016418,3.465980291366577,9.868353843688965,-0.15203562378883362,-0.0734434574842453,-0.07663740962743759
-0.7576786279678345,3.5029850006103516,10.086398124694824,0.21359339356422424,-0.3438822329044342,-0.10932742059230804
-0.911654531955719,3.806579351425171,9.885025978088379,0.43333035707473755,-0.7048162817955017,-0.09740682691335678
-0.6387442350387573,3.871682643890381,8.949640274047852,0.33592352271080017,-0.7230375409126282,-0.018989183008670807
-0.34487995505332947,3.522406816482544,8.378613471984863,0.08450884371995926,-0.43704789876937866,0.009320057928562164
-0.37721124291419983,3.4762561321258545,8.626251220703125,-0.12582078576087952,-0.12610003352165222,-0.008709193207323551
-0.2889609932899475,3.6498072147369385,8.962071418762207,-0.20865410566329956,0.024818582460284233,-0.03954916074872017
-0.23375068604946136,3.7298309803009033,9.411261558532715,-0.1068490594625473,0.015777776017785072,-0.07136651128530502
-0.23697806894779205,3.885789155960083,9.410658836364746,0.056409042328596115,-0.15866787731647491,-0.08902924507856369
-0.12544658780097961,3.7644031047821045,9.015730857849121,0.1186823919415474,-0.2281319797039032,-0.045954518020153046
-0.20185992121696472,3.6269664764404297,8.756600379943848,0.08510225266218185,-0.1863488107919693,-0.03783873841166496
-0.29584670066833496,3.6700620651245117,8.707289695739746,0.03265510872006416,-0.10288716107606888,-0.046355944126844406
-0.38746801018714905,3.836813449859619,8.936864852905273,0.020123645663261414,-0.05000368133187294,-0.024591689929366112
-0.2679302990436554,3.7158584594726562,9.058452606201172,-0.0256388857960701,0.0008203047327697277,-0.00663225119933486
-0.34810733795166016,3.770982503890991,9.111124992370605,-0.02857103943824768,0.042498767375946045,-0.0036651913542300463
-0.26565104722976685,3.702728509902954,9.104008674621582,-0.006422811653465033,0.054332099854946136,0.006265731994062662
-0.17642392218112946,3.6955173015594482,9.178651809692383,0.021450096741318703,0.029478611424565315,0.018081611022353172
-0.26063278317451477,3.7832694053649902,9.335356712341309,0.0507018156349659,-0.04982915148139,-0.002251474652439356
-0.32239359617233276,3.7563490867614746,9.135392189025879,0.03645992651581764,-0.08590510487556458,-0.015690509229898453
-0.25308626890182495,3.709097146987915,8.89002513885498,-0.012583823874592781,-0.007155850064009428,-0.0021642083302140236
-0.1481148898601532,3.7673144340515137,9.096980094909668,-0.038030724972486496,0.04173082113265991,-0.006649704650044441
-0.1866423785686493,3.829831838607788,9.16504192352295,-0.03047344833612442,0.05695009231567383,-0.005061454605311155
-0.3102502226829529,3.7620952129364014,9.120366096496582,-0.021013764664530754,0.15802210569381714,0.03136356547474861
-0.4863964319229126,3.6445112228393555,9.223384857177734,-0.00251327408477664,0.11705923080444336,0.0263544712215662
-0.4437987804412842,3.6328177452087402,9.088006973266602,0.031817350536584854,0.04035201296210289,0.0023911010939627886
-0.4756225049495697,3.7509765625,9.63306999206543,0.1252622753381729,-0.08203047513961792,-0.020804325118660927
-0.23185448348522186,4.116504192352295,8.86218547821045,0.06319837272167206,-0.19926424324512482,-0.010629055090248585
-0.2504239082336426,3.916368007659912,8.780686378479004,-0.010698867961764336,-0.15542156994342804,-0.019600046798586845
-0.3215221166610718,3.6784896850585938,8.348245620727539,-0.15187855064868927,0.024172810837626457,-0.026302112266421318
-0.3661404550075531,3.572254180908203,9.003021240234375,-0.23853415250778198,-0.013753194361925125,-0.03145083412528038
-0.7347134351730347,3.644942045211792,9.512258529663086,-0.19636699557304382,-0.14885912835597992,-0.0745953693985939
-0.22245962917804718,3.6783268451690674,9.540088653564453,-0.06588617712259293,-0.1938362717628479,-0.08014551550149918
-0.07996633648872375,3.7002384662628174,9.04052448272705,0.08513715863227844,-0.10248573124408722,-0.002809980185702443
-0.23678654432296753,3.6843602657318115,9.233506202697754,0.07253587990999222,-0.1829105019569397,-0.0223227608948946
-0.12672030925750732,3.6573822498321533,9.07695484161377,0.09894271194934845,-0.19800759851932526,0.008621926419436932
0.02896026335656643,3.653226137161255,9.123842239379883,0.1341983675956726,-0.18285813927650452,0.032358404248952866
0.1842290312051773,3.778414011001587,8.997946739196777,0.15285593271255493,-0.18099063634872437,0.0010646508308127522
0.21996009349822998,3.881240129470825,8.886463165283203,0.10995574295520782,-0.13891075551509857,-0.007592182140797377
0.21192514896392822,3.8966684341430664,8.86196517944336,0.028117254376411438,-0.07906341552734375,-0.019896753132343292
0.2114846110343933,3.9835684299468994,8.821196556091309,-0.03433062508702278,-0.03281218931078911,-0.016318827867507935
0.10282617062330246,3.843909740447998,9.065759658813477,-0.06443755328655243,-0.021799162030220032,-0.0021642083302140236
0.06201939657330513,3.687329053878784,9.252058029174805,0.008272860199213028,-0.0377340167760849,0.004310963209718466
0.03293463587760925,3.7165956497192383,9.26773452758789,0.04358087107539177,-0.0740194097161293,0.003089232835918665
0.1349467784166336,3.7801952362060547,8.957531929016113,0.03818780556321144,-0.06607816368341446,0.01851794309914112
0.2265489250421524,3.7356631755828857,8.94731330871582,-0.0024260077625513077,-0.00839503388851881,-0.001343903481028974
0.09252152591943741,3.940779209136963,8.962827682495117,-0.07148868590593338,-0.010489428415894508,0.01218239776790142
0.1478467434644699,3.84234881401062,9.093791007995605,-0.10170033574104309,0.007731808349490166,0.01944296807050705
0.13885411620140076,3.78973388671875,9.123392105102539,-0.08868017792701721,0.005689773242920637,0.007679448463022709
0.2057289481163025,3.718214273452759,9.243553161621094,-0.03242821618914604,-0.029478611424565315,-0.005096361506730318
0.16079458594322205,3.8448100090026855,9.246923446655273,0.015027284622192383,-0.05359905958175659,0.0010122909443452954
0.17578227818012238,3.783729076385498,9.211623191833496,0.03902556374669075,-0.07190756499767303,0.02755874954164028
0.22331197559833527,3.782149076461792,9.130996704101562,0.05784020945429802,-0.06445500999689102,0.008796459063887596
-0.0158783458173275,4.026463031768799,9.022683143615723,0.06955137103796005,-0.1515294909477234,0.0002617993741296232
0.37373486161231995,3.6211533546447754,8.58938980102539,0.1396787017583847,-0.1629962921142578,-0.005811946466565132
0.37857115268707275,3.7784714698791504,8.848020553588867,0.03145083412528038,0.1555088311433792,0.02410299703478813
0.14984829723834991,3.850632667541504,9.409988403320312,-0.15329226851463318,0.4194375276565552,0.027000242844223976
0.12376107275485992,3.820657253265381,9.563563346862793,-0.15559610724449158,0.44397684931755066,0.047193702310323715
0.3256305754184723,3.8242485523223877,9.455410957336426,-0.022252947092056274,0.312274307012558,0.044087015092372894
-0.23339635133743286,3.9540812969207764,9.275090217590332,0.04323180392384529,0.24087288975715637,0.04389503225684166
0.03867114335298538,3.814173936843872,9.108405113220215,0.1382998824119568,0.12016592174768448,0.04534365236759186
-0.10290278494358063,3.769861936569214,8.92019271850586,0.18401005864143372,0.0313984714448452,0.04283038154244423
0.09825803339481354,3.762765645980835,8.86931037902832,0.23575907945632935,-0.01993165910243988,0.012967796064913273
0.04774995520710945,4.010105609893799,8.809226989746094,0.23917992413043976,-0.04141666367650032,0.014992378652095795
-0.17281347513198853,3.9989869594573975,8.787476539611816,-0.06476917117834091,0.37138861417770386,0.10651744157075882
-0.10321881622076035,3.9779562950134277,9.150093078613281,-0.08283332735300064,0.34780922532081604,0.11437142640352249
-0.056742578744888306,3.9222192764282227,9.10465145111084,-0.11985176056623459,0.3698178231716156,0.09831439703702927
-0.7664796710014343,4.326159477233887,9.424247741699219,0.009983283467590809,-0.062255892902612686,-0.04202752932906151
-0.5103192925453186,3.840519666671753,8.915365219116211,-0.058835048228502274,-0.07272786647081375,-0.02560397982597351
-0.9094231128692627,3.8621153831481934,9.033992767333984,-0.020437804982066154,-0.17460273206233978,-0.08428195118904114
-0.8936213850975037,3.979182243347168,9.21509075164795,-0.042586032301187515,-0.31560787558555603,-0.082955501973629
-0.3142150044441223,3.8124499320983887,8.827086448669434,-0.2177647352218628,0.05948081985116005,-0.06009168550372124
-0.10004889965057373,3.636160135269165,8.929922103881836,-0.24951227009296417,0.23019146919250488,-0.06819001585245132
-0.3469102382659912,4.057424545288086,8.989442825317383,-0.27347564697265625,0.3449817895889282,-0.009320057928562164
-0.2823050916194916,3.6212873458862305,9.150236129760742,-0.1866455078125,0.35589009523391724,0.07770206034183502
-0.8105904459953308,3.420078754425049,9.248790740966797,0.06161012127995491,0.2606649100780487,0.039043016731739044
-1.028692603111267,3.5174076557159424,9.861717224121094,0.37926003336906433,-0.1443038284778595,-0.00970403105020523
-0.567655622959137,3.8530941009521484,9.282943725585938,0.3883531987667084,-0.31496211886405945,0.021066123619675636
-0.3040444552898407,3.7510435581207275,8.566961288452148,0.17177531123161316,-0.044889867305755615,0.0036128314677625895
-0.5937811732292175,3.9384424686431885,9.146397590637207,-0.1474628746509552,0.22834143042564392,0.051888637244701385
-1.0457968711853027,4.004101276397705,9.238582611083984,0.0023387412074953318,0.10262536257505417,0.05408775433897972
-0.39647021889686584,3.6553807258605957,8.974309921264648,0.16020376980304718,0.1318770796060562,0.09356710314750671
-0.3106524348258972,3.674304485321045,8.761983871459961,0.29907962679862976,0.2672622799873352,0.11442378163337708
-1.032159447669983,4.076118469238281,8.763601303100586,0.23380430042743683,0.5449267029762268,0.0895877480506897
-1.0483729839324951,4.061715126037598,8.893759727478027,0.119834303855896,0.5027246475219727,0.08796459436416626
-1.1002888679504395,4.0454535484313965,8.937986373901367,-0.004468042869120836,0.4334525167942047,0.0705636590719223
-1.3168970346450806,4.202245235443115,9.348342895507812,-0.10175269842147827,-0.07244861871004105,-0.04804891347885132
-1.020016074180603,3.85603404045105,8.992879867553711,-0.19376645982265472,-0.008709193207323551,-0.01877974346280098
-1.2104125022888184,3.7795345783233643,8.889747619628906,-0.19607028365135193,-0.001483529806137085,-0.040945425629615784
-1.4881303310394287,4.065153121948242,9.20536994934082,-0.04663519561290741,-0.21649064123630524,-0.042184606194496155
-0.8457756638526917,3.8602957725524902,9.155838966369629,0.07194247096776962,-0.353708416223526,-0.052953287959098816
-0.6090369820594788,3.8315269947052,8.682477951049805,0.06174974888563156,-0.17517869174480438,-0.03851941600441933
-0.8574689626693726,3.7360942363739014,8.63012981414795,0.020088739693164825,-0.08148942142724991,-0.04415683075785637
-0.8292748332023621,3.921644687652588,8.960443496704102,0.06204645335674286,-0.1984264850616455,-0.07449065148830414
-0.7542597055435181,4.087879180908203,9.047476768493652,0.07723081856966019,-0.312274307012558,-0.056269414722919464
-0.6635003089904785,3.9131979942321777,8.843416213989258,0.06042329967021942,-0.2416582852602005,-0.01961750164628029
-0.7684141993522644,3.789599657058716,8.815650939941406,0.0627794936299324,-0.10557496547698975,-0.018762288615107536
-0.6612497568130493,3.8421669006347656,8.794716835021973,0.0409105159342289,0.007714355364441872,0.0018500490114092827
-0.4651263356208801,3.7755696773529053,9.027643203735352,0.01607448235154152,0.1454731971025467,0.02485348843038082
-0.5702413320541382,3.9149506092071533,9.077184677124023,0.018570303916931152,0.2226691097021103,0.038152895867824554
-0.6879115700721741,4.00565242767334,8.940256118774414,0.02825688011944294,0.2382199913263321,0.0789412409067154
-0.7815248370170593,3.9446768760681152,8.873878479003906,0.03808308392763138,0.2986607551574707,0.08782497048377991
-1.25135338306427,4.171350479125977,8.464115142822266,-0.03007202222943306,0.38069120049476624,0.015306537039577961
-1.3145220279693604,4.151172161102295,8.731884002685547,-0.036704275757074356,0.34433600306510925,0.03248057886958122
-1.1171823740005493,4.141384601593018,9.198866844177246,0.11962486803531647,0.29941123723983765,0.037053339183330536
-1.1240967512130737,4.211084365844727,8.759282112121582,0.21451841294765472,0.3230953514575958,0.05276130139827728
-0.9913239479064941,3.7953362464904785,8.2367525100708,0.1128878965973854,0.44233623147010803,0.05864306166768074
-0.9144988059997559,3.6884398460388184,8.324360847473145,0.00411897711455822,0.6082472205162048,-0.020664697512984276
-1.5424308776855469,4.284040927886963,8.463789939880371,-0.0570199079811573,0.7574554681777954,-0.082972951233387
-2.227910041809082,4.688612937927246,8.989556312561035,-0.07934267073869705,0.5471956133842468,-0.007801621686667204
-2.0771613121032715,4.255405902862549,9.459423065185547,0.04312708601355553,0.3404264748096466,0.0688357874751091
-1.9859998226165771,4.091997146606445,9.395756721496582,0.1402372121810913,0.07452555745840073,0.02661627158522606
-2.0833959579467773,4.347994804382324,8.719060897827148,0.13062043488025665,0.13205161690711975,0.020612338557839394
-2.042435884475708,4.483908653259277,8.547950744628906,0.01120501384139061,0.34005993604660034,0.032131511718034744
-2.177622079849243,4.380814552307129,8.983312606811523,-0.01776745170354843,0.362417608499527,0.011135200969874859
-2.152214765548706,4.190810680389404,9.21194076538086,0.08103563636541367,0.2499835044145584,0.01603957638144493
-1.9586771726608276,4.2320098876953125,8.911026954650879,0.17304939031600952,0.22732913494110107,0.022340213879942894
-1.9638774394989014,4.324177265167236,8.359919548034668,0.05902703478932381,0.1632930040359497,0.02604031190276146
-1.9439384937286377,4.38886833190918,8.57707405090332,0.0722915381193161,0.12140510231256485,0.036302849650382996
-2.116110324859619,4.667620658874512,8.288744926452637,-0.0806516632437706,-0.2970201373100281,0.008133234456181526
-1.9202358722686768,4.346385478973389,8.503064155578613,-0.14322172105312347,0.04190535470843315,-0.04590215906500816
-2.291605234146118,4.368594169616699,8.524949073791504,-0.19823449850082397,0.2105739712715149,-0.08450884371995926
-2.396193504333496,4.159590244293213,9.027366638183594,-0.13285446166992188,-0.022427480667829514,-0.06574655324220657
-2.2709097862243652,4.591370105743408,9.06287670135498,-0.02382374368607998,-0.23902283608913422,-0.019024088978767395
-2.0765292644500732,4.569400787353516,8.849794387817383,0.021851522848010063,-0.34925782680511475,-0.005078908056020737
-1.942051887512207,4.335726737976074,8.583547592163086,-0.005777040030807257,-0.35702455043792725,-0.0049916417337954044
-1.837080478668213,4.190465927124023,8.378911018371582,-0.12465141713619232,-0.16111133992671967,0.015742870047688484
-1.9285389184951782,4.197743892669678,8.566349029541016,-0.07991862297058105,-0.1996307522058487,0.0080634206533432
-1.8882110118865967,4.25288724899292,8.62515926361084,-0.029164452105760574,-0.30976104736328125,-0.014800392091274261
-1.632481575012207,4.1886749267578125,8.537847518920898,-0.019076447933912277,-0.34234634041786194,-0.03735004737973213
-1.6351726055145264,4.310223579406738,8.42292594909668,-0.08459610491991043,-0.25940829515457153,-0.04527384042739868
-1.707046627998352,4.464352607727051,8.502510070800781,-0.1972571164369583,-0.16973327100276947,-0.04248131439089775
-1.713788628578186,4.326217174530029,8.775677680969238,-0.2557605504989624,-0.11611675471067429,-0.028710665181279182
-1.5902765989303589,4.106726169586182,9.019149780273438,-0.21753783524036407,-0.17332865297794342,-0.014974924735724926
-1.6457645893096924,4.128848552703857,8.697770118713379,-0.018675023689866066,-0.18814648687839508,-0.02569124661386013
-1.5156828165054321,4.13081169128418,8.935083389282227,-0.023090705275535583,-0.210224911570549,-0.05686282739043236
-1.5180962085723877,4.197169303894043,8.777853012084961,-0.08939576148986816,-0.2848726511001587,-0.07738789916038513
-1.5590466260910034,4.214120388031006,8.884537696838379,-0.15711453557014465,-0.39385101199150085,-0.09536478668451309
-1.269760012626648,4.123581409454346,9.084137916564941,-0.16929693520069122,-0.3753156065940857,-0.11217231303453445
-1.3231315612792969,4.129901885986328,9.100072860717773,-0.1552470326423645,-0.26745426654815674,-0.12318533658981323
-1.298107385635376,4.001917362213135,8.945656776428223,-0.14933037757873535,-0.24787165224552155,-0.10220648348331451
-1.316523551940918,3.974872589111328,8.882633209228516,-0.18486528098583221,-0.3087661862373352,-0.1080009713768959
-1.3321433067321777,4.150980472564697,9.352701187133789,-0.2096489518880844,-0.42158427834510803,-0.09761626273393631
-1.1017158031463623,3.9819021224975586,9.393439292907715,-0.08943066745996475,-0.38261106610298157,-0.07925540208816528
-1.0815279483795166,3.790921449661255,9.259967803955078,-0.07134906202554703,-0.4466995596885681,-0.06541494280099869
-0.8906334042549133,3.7655045986175537,8.896000862121582,-0.10163052380084991,-0.4954291582107544,-0.024207716807723045
-0.6676661968231201,3.7463316917419434,8.992304801940918,-0.10505136847496033,-0.4698251783847809,-0.03007202222943306
-0.5645719170570374,3.631563186645508,8.869013786315918,-0.061854466795921326,-0.3856304883956909,-0.07073819637298584
-0.6541246175765991,3.649031400680542,8.569048881530762,-0.07356562465429306,-0.27696630358695984,-0.05023057386279106
-0.4211975336074829,3.621574640274048,9.032317161560059,-0.2869321405887604,-0.16435766220092773,-0.050248030573129654
-0.6865229606628418,3.172872543334961,8.937257766723633,-0.19292870163917542,-0.03162536770105362,-0.008011061698198318
-0.5431677103042603,3.3532707691192627,9.804255485534668,0.06291911751031876,-0.1468869149684906,-0.019879300147294998
-0.14025233685970306,3.3899214267730713,9.814571380615234,0.3117332458496094,-0.2709798216819763,-0.049008846282958984
-0.031153351068496704,3.5032436847686768,8.739965438842773,0.27122417092323303,-0.23657937347888947,-0.043388884514570236
-0.07964072376489639,3.220526695251465,8.496427536010742,-0.048293258994817734,0.38320448994636536,0.09224065393209457
0.062028974294662476,2.8798511028289795,9.048942565917969,0.15789993107318878,0.4770333766937256,0.13519319891929626
-0.026048913598060608,3.3732481002807617,9.071534156799316,0.5099502801895142,0.5504768490791321,0.16578882932662964
0.04985685274004936,3.714843273162842,9.163518905639648,0.816273033618927,0.6968576312065125,0.17074556648731232
-0.1692221760749817,3.605466604232788,8.545892715454102,0.9528799653053284,0.880204439163208,0.1731366664171219
-0.596242368221283,3.8207435607910156,8.10233211517334,0.8484917879104614,0.9894446134567261,0.15116296708583832
-1.961435317993164,4.85978889465332,8.370454788208008,0.4328416585922241,1.100709319114685,0.13582152128219604
-1.9941688776016235,4.8759541511535645,8.870976448059082,0.07323401421308517,1.1013202667236328,0.13372713327407837
-2.359131336212158,4.566556453704834,9.709196090698242,0.2851867973804474,0.12674580514431,0.22596777975559235
-2.0622024536132812,4.188492774963379,8.051682472229004,0.39648643136024475,-0.01970476657152176,0.15196581184864044
-2.107433795928955,4.165106296539307,8.072731018066406,0.2952573597431183,-0.12667599320411682,0.07963937520980835
-1.8120945692062378,4.623624801635742,8.169120788574219,-0.05927138030529022,-0.024417156353592873,-0.037227872759103775
-1.8043086528778076,4.397027969360352,8.822452545166016,-0.17037904262542725,0.2623229920864105,-0.10667452216148376
-2.130877733230591,4.246001720428467,9.023429870605469,-0.07122688740491867,0.08148942142724991,-0.06878342479467392
-1.9992541074752808,4.414122581481934,8.890110969543457,-0.004590216092765331,-0.10044369846582413,-0.022427480667829514
-1.8893506526947021,4.572628021240234,8.620763778686523,0.046041786670684814,-0.440067321062088,0.007208209950476885
-1.791169285774231,4.552114486694336,8.088859558105469,-0.026651177555322647,-0.4945739507675171,-0.012897983193397522
-1.5349225997924805,4.295236110687256,8.253072738647461,-0.13784609735012054,-0.38894662261009216,-0.03902556374669075
-1.3065253496170044,4.188262939453125,8.51805305480957,-0.16435766220092773,-0.3066892623901367,-0.0524296909570694
-1.3426203727722168,4.252724647521973,8.626232147216797,-0.183748260140419,-0.30058059096336365,-0.07157595455646515
-1.552065134048462,4.34751558303833,8.9326810836792,-0.24432864785194397,-0.32854077219963074,-0.08328711241483688
-1.480583906173706,4.25768518447876,9.030709266662598,-0.25942572951316833,-0.3588920533657074,-0.08791223168373108
-1.4225963354110718,4.171474933624268,9.012781143188477,-0.23141320049762726,-0.3758217394351959,-0.1137605607509613
-1.3734194040298462,4.147915840148926,9.168221473693848,-0.2096489518880844,-0.42322489619255066,-0.13987068831920624
-1.3454837799072266,4.12939453125,9.191484451293945,-0.20039869844913483,-0.4588470458984375,-0.13236576318740845
-1.3687554597854614,4.12192440032959,9.11500358581543,-0.20551252365112305,-0.45750316977500916,-0.11341149359941483
-1.2433280944824219,4.024011135101318,8.806888580322266,-0.25963518023490906,-0.4136604964733124,-0.05291838198900223
-1.0242873430252075,3.944868564605713,9.047170639038086,-0.3171786963939667,-0.1840449720621109,-0.0538608618080616
-1.0325042009353638,3.908409595489502,9.160186767578125,-0.4087212085723877,-0.1831897646188736,-0.07967428117990494
-0.9048070907592773,3.9019548892974854,9.166354179382324,-0.37625807523727417,-0.203348308801651,-0.05176646634936333
-0.9143934845924377,3.7814691066741943,9.25447940826416,-0.27310910820961,-0.3016103506088257,-0.08454374969005585
-0.9417831301689148,3.642519235610962,8.96851634979248,-0.294890820980072,-0.3907966613769531,-0.09382890164852142
-0.40811559557914734,3.6058688163757324,8.74165153503418,-0.41784927248954773,-0.34491196274757385,0.007260569836944342
-0.6111247539520264,2.983778476715088,9.226095199584961,-0.24930283427238464,-0.3510555326938629,-0.09538224339485168
-0.8918209671974182,3.0025393962860107,9.191598892211914,-0.1480737328529358,-0.5174726843833923,-0.14851006865501404
-0.08180508017539978,3.227067708969116,8.816043853759766,-0.19434240460395813,-0.0013962633674964309,-0.09234537184238434
-0.19949445128440857,3.3439812660217285,9.218673706054688,-0.16257742047309875,0.19519762694835663,-0.0038746309000998735
-0.6314371824264526,3.1831867694854736,9.742283821105957,-0.11489502340555191,0.1298874020576477,0.013439035043120384
-0.5171858668327332,2.5180296897888184,9.722919464111328,0.15547393262386322,-0.033457960933446884,0.0051312679424881935
-0.42057502269744873,3.334031105041504,9.196321487426758,0.10967648774385452,-0.15132004022598267,-0.014294246211647987
-0.5605592131614685,3.432394504547119,9.51992130279541,-0.005235987715423107,-0.23465952277183533,-0.008220500312745571
-0.6512324213981628,2.9657740592956543,9.371421813964844,-0.009930923581123352,-0.14065608382225037,-0.04016002640128136
-0.7716894745826721,2.9928669929504395,9.970346450805664,0.20586158335208893,-0.1864011585712433,-0.06513568758964539
-0.6725216507911682,3.1642820835113525,10.044059753417969,0.28239426016807556,-0.4286179542541504,-0.02776818908751011
-0.09345047920942307,3.244028329849243,8.949248313903809,0.1639038622379303,-0.2563888728618622,-0.08552113175392151
-0.06856993585824966,3.4127140045166016,8.669729232788086,-0.11737339198589325,0.05537929758429527,-0.06045820564031601
-0.4225861728191376,3.1257259845733643,9.035821914672852,-0.224065363407135,0.298416405916214,0.016283921897411346
-0.43987229466438293,2.8503928184509277,9.12144947052002,-0.18421949446201324,0.3269350826740265,0.0006108652451075613
-0.28992822766304016,3.0023767948150635,9.294587135314941,-0.10937978327274323,0.29138273000717163,0.016196655109524727
-0.6794552803039551,2.9530370235443115,10.037375450134277,0.16407839953899384,0.2626720368862152,0.00031415926059708
-1.0835869312286377,3.339595317840576,9.972893714904785,0.22937117516994476,-0.3303559124469757,0.01235693134367466
-0.383790522813797,3.169377088546753,9.392281532287598,0.16891296207904816,-0.376240611076355,0.04708898440003395
-0.4205271601676941,2.9755711555480957,9.039328575134277,-0.03131120651960373,0.07044149190187454,-0.015865042805671692
-0.491443395614624,3.1640236377716064,10.09713363647461,0.04225442185997963,-0.25384068489074707,-0.03480186685919762
-0.10328585654497147,3.4313888549804688,9.476901054382324,0.08429940044879913,-0.24806363880634308,0.038030724972486496
0.08646898716688156,3.1894500255584717,8.98246955871582,0.015550883486866951,-0.1132020577788353,0.03410373255610466
-0.07502470165491104,3.0808298587799072,8.931790351867676,-0.04735078290104866,0.07014477998018265,0.022340213879942894
-0.25549963116645813,3.1122512817382812,9.19786262512207,-0.058224182575941086,0.1284736841917038,-0.013508847914636135
-0.36071041226387024,3.196239948272705,9.589370727539062,0.14336134493350983,-0.13463470339775085,0.031031953170895576
-0.32854193449020386,3.1865386962890625,9.127050399780273,-0.07609635591506958,0.20258036255836487,-0.00548033369705081
-0.4167921841144562,3.3057315349578857,9.331602096557617,-0.10719811916351318,0.22617721557617188,-0.0060388389974832535
-0.5237172245979309,3.331857204437256,9.358895301818848,-0.10515608638525009,0.16585864126682281,0.03977605327963829
-0.2905794680118561,3.071540355682373,8.619375228881836,-0.03473205119371414,0.21821852028369904,0.03021164983510971
-0.6901621222496033,2.9205429553985596,10.309671401977539,0.3004409670829773,-0.029443703591823578,-0.04412192478775978
-0.3233991861343384,3.5109338760375977,8.182212829589844,-0.17102481424808502,0.006475171539932489,0.006056292448192835
-0.3292218744754791,3.2881581783294678,8.307286262512207,-0.2819928526878357,0.147445410490036,-0.013299409300088882
-0.5948920845985413,3.221158742904663,9.507892608642578,-0.38552576303482056,0.03331833705306053,-0.1604306697845459
-0.9339876174926758,3.290724754333496,9.188735008239746,-0.5161113142967224,-0.059236474335193634,-0.26427775621414185
-0.41072049736976624,3.4424021244049072,9.414690017700195,-0.6305525302886963,0.023666664958000183,-0.22947588562965393
-0.38374263048171997,3.236663579940796,9.6481351852417,-0.5538802146911621,-0.02422516979277134,-0.16739453375339508
-0.6822038292884827,2.7467525005340576,10.064697265625,-0.2301042079925537,-0.08082620054483414,-0.12709487974643707
-0.5635184645652771,2.930713415145874,9.891529083251953,0.05021312087774277,-0.2477320283651352,-0.02768092229962349
0.15841953456401825,2.7178115844726562,9.21039867401123,0.13377948105335236,-0.15690509974956512,0.08241444826126099
0.22299593687057495,3.0991790294647217,8.992323875427246,0.03070034086704254,0.1547059863805771,0.13217377662658691
0.06853162497282028,3.2938947677612305,9.068939208984375,-0.04021238535642624,0.28728118538856506,0.09292133152484894
-0.5263508558273315,2.832493782043457,9.664759635925293,-0.03569198399782181,0.3314729332923889,0.037402406334877014
-0.845727801322937,2.913867950439453,10.065013885498047,0.1261174976825714,0.0031066860537976027,0.005846852902323008
-0.4046871066093445,2.9766151905059814,9.368645668029785,0.21162116527557373,-0.1612684279680252,0.01563815027475357
-0.20347841084003448,2.7804150581359863,8.58448600769043,-0.2652725875377655,0.160151407122612,-0.0869872123003006
-0.43185651302337646,3.0303122997283936,9.273575782775879,-0.3680550456047058,0.27754226326942444,-0.13751448690891266
-0.3462589979171753,2.9933457374572754,9.876398086547852,-0.3473554253578186,0.2246936857700348,-0.10131636261940002
-0.5753266215324402,2.893134117126465,9.880276679992676,-0.24862214922904968,0.1981472223997116,-0.06173229590058327
-0.7853747606277466,2.622934103012085,9.810787200927734,0.011239920742809772,0.18793705105781555,0.003996803890913725
-0.6832572817802429,2.719573497772217,9.708229064941406,0.11742575466632843,0.19397589564323425,0.04642575979232788
-0.5823081135749817,2.819383144378662,9.730908393859863,0.2793923020362854,0.20285962522029877,0.10882128030061722
-0.8962741494178772,2.9795167446136475,9.88357162475586,0.35238197445869446,0.02679080329835415,0.09220574051141739
-0.9463991522789001,2.9801201820373535,9.372897148132324,0.4034503102302551,-0.035849060863256454,0.06419321149587631
-0.9704177975654602,2.928884267807007,9.761466026306152,0.47106435894966125,-0.10044369846582413,0.032847095280885696
-0.5603293776512146,3.245321035385132,9.038494110107422,0.3275284767150879,-0.13262757658958435,0.06757915019989014
-0.3698083758354187,3.2943544387817383,8.469622611999512,0.02843141369521618,0.08038986474275589,0.05982988700270653
-0.5185744762420654,2.849597930908203,8.778483390808105,-0.263195663690567,0.2539977729320526,-0.040107667446136475
-0.7063756585121155,2.8845627307891846,9.051470756530762,-0.2813819944858551,0.2562841475009918,-0.05216789245605469
-1.1028075218200684,3.0295748710632324,10.148340225219727,-0.16830210387706757,-0.06843435764312744,-0.06272713094949722
-0.8726481795310974,3.4594967365264893,9.857885360717773,-0.02099631167948246,-0.20493656396865845,0.0021642083302140236
-0.2611595094203949,3.0206780433654785,9.072846412658691,0.11294025182723999,0.07377506792545319,0.10419615358114243
-0.7034164071083069,2.983069896697998,9.10633659362793,0.055292028933763504,0.3234094977378845,0.07305948436260223
-0.8220539093017578,3.0490636825561523,9.110722541809082,0.08733627200126648,0.2436828762292862,0.059917151927948
-1.1082088947296143,3.0523581504821777,10.16110610961914,0.29042279720306396,0.11569787561893463,0.02263692021369934
-1.1395058631896973,3.2782652378082275,9.613906860351562,0.39531707763671875,-0.4639957845211029,0.004904375411570072
-0.5537596940994263,3.158804178237915,8.882095336914062,0.20582668483257294,-0.4493873715400696,0.004886921960860491
-0.8810087442398071,3.136404037475586,10.090862274169922,-0.11342895030975342,-0.11917108297348022,-0.02165953628718853
-0.37052664160728455,3.1265017986297607,9.237692832946777,-0.07873180508613586,0.2479763776063919,-0.00769690191373229
-0.5436082482337952,3.435411214828491,9.431468963623047,-0.09114108979701996,0.1921432912349701,0.04057890549302101
-0.9015030860900879,2.7664806842803955,9.928668022155762,0.229877308011055,0.16196654736995697,-0.0012915435945615172
-0.9679661393165588,3.1143105030059814,9.834431648254395,0.3168994188308716,-0.3542145788669586,0.008726646192371845
-0.17410634458065033,3.2147135734558105,8.369142532348633,0.1028347983956337,-0.2001543641090393,0.007714355364441872
-0.2994571626186371,3.238368272781372,8.260618209838867,-0.13501867651939392,0.11396999657154083,0.01211258489638567
-0.5609614253044128,3.11185884475708,9.65329647064209,-0.2321462482213974,0.07194247096776962,-0.0005061454721726477
-0.17283262312412262,3.306698799133301,9.563838958740234,-0.2263517528772354,-0.1414589285850525,-0.03659955412149429
-0.34350088238716125,3.095367431640625,9.578962326049805,-0.04075343906879425,0.007051130291074514,0.04495968297123909
-0.46932098269462585,2.912632465362549,9.299175262451172,0.17610372602939606,-0.05768313258886337,0.008115780539810658
-0.10183975845575333,3.1179592609405518,8.810748100280762,0.048694685101509094,0.24034929275512695,0.04930555075407028
-0.7977192401885986,3.5860064029693604,9.89887523651123,0.6378130912780762,0.11735593527555466,0.26743680238723755
-1.5323847532272339,3.7393407821655273,8.886272430419922,0.5440889596939087,0.1114741787314415,0.4127179980278015
-1.6436768770217896,3.6261236667633057,8.893349647521973,0.2620611786842346,0.289777010679245,0.6053325533866882
-1.0269783735275269,3.509870767593384,8.431975364685059,-0.010681414976716042,0.5171585083007812,0.666523814201355
-0.5519975423812866,3.8817572593688965,8.867682456970215,-0.147445410490036,0.7150090336799622,0.47919759154319763
-0.39365461468696594,4.405608654022217,9.776511192321777,0.012985249981284142,0.5842664241790771,0.23237313330173492
-1.0521750450134277,4.074251174926758,8.48009967803955,-0.13285446166992188,-0.07274532318115234,-0.04773475602269173
-1.182687759399414,4.0215020179748535,8.498055458068848,-0.27054348587989807,0.29255208373069763,-0.07387978583574295
