accX,accY,accZ,gyroX,gyroY,gyroZ
-1.581954836845398,5.481059551239014,7.195217609405518,-1.638195276260376,-1.4128984212875366,-0.10678961127996445
-1.800000786781311,5.818746566772461,6.953243732452393,-1.4678910970687866,-1.1137011051177979,-0.05459319427609444
-1.43599271774292,5.557928562164307,8.086244583129883,-1.2069090604782104,-0.6909367442131042,0.2170412242412567
-0.6574280261993408,4.700101852416992,8.074280738830566,-0.8182321190834045,-0.7536523938179016,0.34273871779441833
-1.2418749332427979,5.895616054534912,7.921140193939209,-0.5551195740699768,-0.943263828754425,0.24899822473526
-0.5350949764251709,5.157729148864746,7.63609504699707,-0.4688356816768646,-0.966698944568634,0.34913012385368347
0.2602194547653198,5.009075164794922,7.741379261016846,-0.6243597269058228,-1.0039820671081543,0.17230144143104553
0.056530434638261795,5.394917964935303,8.64197826385498,-0.7244915962219238,-0.866567075252533,-0.04713656008243561
-0.29312077164649963,5.68474817276001,9.410971641540527,-0.5359453558921814,-0.7983921766281128,-0.09400681406259537
-0.08015955984592438,5.516951560974121,9.44447135925293,-0.09400681406259537,-0.6121095418930054,0.06258244067430496
0.3008974492549896,5.222335338592529,8.936893463134766,0.3564535975456238,-0.28295251727104187,0.22023692727088928
0.7103692293167114,4.798506736755371,8.450551986694336,0.6227618455886841,-0.021038351580500603,0.272433340549469
1.2302099466323853,4.719244480133057,8.802596092224121,0.5812177658081055,-0.10199606418609619,0.19254086911678314
1.970489501953125,4.77457857131958,9.468698501586914,0.2607157826423645,-0.3298227787017822,-0.06524552404880524
1.8987047672271729,4.824827671051025,8.958429336547852,-0.021570969372987747,-0.7165023684501648,-0.45392242074012756
-0.18065811693668365,6.355337142944336,9.650552749633789,0.0018641578499227762,-0.5492607951164246,-0.09400681406259537
0.8398807644844055,4.724030017852783,9.528518676757812,0.18188853561878204,-0.21797330677509308,0.22662831842899323
1.4315061569213867,3.5575289726257324,9.806385040283203,0.2607157826423645,0.019440501928329468,0.07323476672172546
1.1105687618255615,3.6798620223999023,9.207581520080566,0.32143405079841614,-0.10625699162483215,-0.17283405363559723
0.763310432434082,3.7516467571258545,8.618049621582031,0.3278254568576813,-0.4310199022293091,-0.3037245571613312
1.0842477083206177,3.492922782897949,8.361719131469727,0.2521939277648926,-0.6110442876815796,-0.32609444856643677
0.7800601720809937,3.3873395919799805,8.318648338317871,0.25645485520362854,-0.4193023443222046,-0.20146219432353973
0.547657310962677,3.8832521438598633,7.367800235748291,0.2404763549566269,-0.4097152650356293,-0.0801587849855423
0.851844847202301,3.9167516231536865,6.737590312957764,0.015712186694145203,-0.17749445140361786,-0.031158065423369408
1.0722836256027222,3.828217029571533,8.016853332519531,-0.21544337272644043,0.1334204375743866,0.011451254598796368
1.5200406312942505,4.5445685386657715,7.899604797363281,0.3150426745414734,0.12489857524633408,0.14673584699630737
1.5032907724380493,4.735994338989258,7.216753005981445,0.3256950080394745,0.26657456159591675,0.09453943371772766
1.0001999139785767,4.889433860778809,6.891030311584473,0.13501828908920288,0.279357373714447,0.018907885998487473
0.849452018737793,4.848755836486816,7.643273830413818,-0.09507204592227936,0.17709499597549438,0.0050598569214344025
1.280758261680603,4.441378116607666,8.177471160888672,-0.020505735650658607,-0.08601756393909454,0.1339530497789383
1.2349956035614014,4.494318962097168,8.22293472290039,0.24154159426689148,0.0908111184835434,0.07110430300235748
1.445863127708435,4.7264227867126465,7.0683979988098145,0.3363473415374756,0.07270215451717377,0.05086487531661987
1.5152549743652344,4.824827671051025,7.022635459899902,0.17762760818004608,0.13555090129375458,0.014646953903138638
1.2589237689971924,4.9995036125183105,7.005885601043701,0.06045197322964668,0.009853405877947807,-0.019440501928329468
1.4051851034164429,5.109872817993164,7.240681171417236,0.0902784988284111,0.06418029218912125,0.0050598569214344025
1.3262219429016113,5.301597595214844,7.446763038635254,0.18188853561878204,0.10678961127996445,0.03488638252019882
1.1751750707626343,5.414060115814209,7.109076023101807,0.2617810070514679,-0.028494983911514282,0.06045197322964668
1.3310075998306274,5.560321807861328,6.52462911605835,0.23301972448825836,-0.13381989300251007,0.06577813625335693
2.059023857116699,5.850152492523193,6.622735023498535,0.012516488321125507,-0.06790860742330551,0.12436595559120178
1.599302887916565,5.7517476081848145,8.074280738830566,-0.23674803972244263,0.3017272651195526,0.19360610842704773
1.3381860256195068,5.886044502258301,8.663812637329102,-0.1227681040763855,0.2814878225326538,0.2191716879606247
1.536790370941162,5.675177097320557,8.773882865905762,0.021038351580500603,0.2601831555366516,0.2937380075454712
1.7907286882400513,5.773283004760742,8.84805965423584,0.17762760818004608,0.3336842358112335,0.34060826897621155
1.4841482639312744,6.307480335235596,8.40748119354248,0.20106273889541626,0.40398961305618286,0.272433340549469
1.350150227546692,6.295516490936279,8.69491958618164,0.08921326696872711,0.49653175473213196,0.18934516608715057
0.8542376756668091,6.348158359527588,9.370293617248535,-0.00133154122158885,0.4444684684276581,0.10732222348451614
0.7489534616470337,5.900401592254639,9.451948165893555,0.0018641578499227762,0.4007939398288727,0.12969212234020233
0.3008974492549896,4.654638290405273,9.137890815734863,-0.09720251709222794,0.2591179311275482,0.2948032319545746
0.4854438900947571,4.276273250579834,8.395517349243164,-0.031158065423369408,0.10572437942028046,0.36404338479042053
0.6840481758117676,4.316951274871826,7.736593723297119,0.05938674136996269,-0.015712186694145203,0.38215234875679016
0.849452018737793,4.360022068023682,7.4347991943359375,0.11477886140346527,-0.05619104206562042,0.35126060247421265
0.9475577473640442,4.479662895202637,7.384549617767334,0.07536523789167404,-0.05619104206562042,0.28841185569763184
0.914058268070221,4.604389190673828,7.602595806121826,0.025299284607172012,-0.010386021807789803,0.25325915217399597
0.5261218547821045,4.685744762420654,7.731808185577393,-0.07057169079780579,0.021570969372987747,0.1957365721464157
0.32961133122444153,4.889433860778809,7.477869987487793,-0.18242116272449493,0.018375270068645477,0.16164910793304443
0.3678964674472809,4.863112926483154,7.913961887359619,-0.3516600430011749,0.16005125641822815,0.1552577167749405
0.21714866161346436,4.606781959533691,8.8648099899292,-0.41237834095954895,0.3592498302459717,0.16804051399230957
0.1618146300315857,4.563711166381836,9.020642280578613,-0.3005288541316986,0.3059881925582886,0.15632294118404388
0.3415754437446594,4.654638290405273,8.397910118103027,-0.18242116272449493,0.10572437942028046,0.11051792651414871
0.6481558084487915,4.894219398498535,7.547261714935303,-0.17070358991622925,-0.1115831583738327,0.05619104206562042
0.8566305041313171,5.006682395935059,7.020242691040039,-0.29413747787475586,-0.19134248793125153,0.017842652276158333
1.0459625720977783,4.980361461639404,7.200003147125244,-0.42516112327575684,-0.13275466859340668,-0.026897134259343147
1.00259268283844,4.779364109039307,8.043173789978027,-0.4592485725879669,-0.08708280324935913,-0.09826774895191193
0.8590233325958252,4.78893518447876,8.170292854309082,-0.40279123187065125,-0.09240896254777908,-0.132355198264122
0.5667998790740967,4.8367919921875,7.890033721923828,-0.21437814831733704,-0.1625811904668808,-0.1653774231672287
0.6002993583679199,4.839184761047363,7.564011573791504,-0.1430075317621231,-0.19773387908935547,-0.1664426624774933
0.7223333120346069,4.832006454467773,7.001100063323975,-0.11531147360801697,-0.16364642977714539,-0.18242116272449493
0.4253242313861847,5.009075164794922,6.910172462463379,-0.21118244528770447,-0.10519175976514816,-0.22276686131954193
0.2913261651992798,5.047659397125244,7.35822868347168,-0.30692026019096375,-0.18814678490161896,-0.24939768016338348
0.24586252868175507,5.107480049133301,7.535297393798828,-0.3133116662502289,-0.24566936492919922,-0.2675066292285919
0.28175488114356995,5.227120876312256,7.7461652755737305,-0.26324570178985596,-0.2925396263599396,-0.28241991996765137
0.027816563844680786,5.694319725036621,8.503194808959961,0.10412652790546417,0.013049104250967503,-0.2696371078491211
-0.020039889961481094,5.821438312530518,8.685347557067871,0.12330072373151779,-0.04979964345693588,-0.22063638269901276
-0.03918246924877167,5.584249973297119,9.324830055236816,-0.006657706573605537,-0.17855969071388245,-0.1440727710723877
-0.1543370634317398,5.363811016082764,9.713065147399902,0.022103585302829742,-0.183885857462883,-0.08974587917327881
-0.19262222945690155,5.723033428192139,9.324830055236816,0.23195448517799377,-0.18601632118225098,-0.015179570764303207
0.4372883439064026,5.876473426818848,8.663812637329102,0.3841496706008911,-0.22436471283435822,0.08814803510904312
0.9188438653945923,5.938686847686768,8.68774127960205,0.2607157826423645,-0.32875755429267883,0.07430000603199005
1.0292128324508667,5.831009864807129,9.279366493225098,-0.021570969372987747,-0.4097152650356293,0.06577813625335693
1.4937195777893066,5.162514686584473,10.220643043518066,-0.1643121987581253,-0.37882348895072937,0.019973119720816612
1.4267204999923706,4.523033142089844,11.06889820098877,-0.17709499597549438,-0.13914605975151062,-0.05352795869112015
1.038784146308899,3.9143588542938232,11.128719329833984,-0.024766668677330017,-0.00399462366476655,-0.03967992961406708
0.8207381963729858,4.00319242477417,9.851848602294922,0.26391148567199707,0.0002663082559593022,0.025299284607172012
0.7752745151519775,3.988835334777832,8.970393180847168,0.3766930401325226,-0.013581721112132072,0.06364767253398895
0.9643075466156006,3.6942191123962402,7.9019975662231445,0.3649754524230957,-0.05193011090159416,0.09880036115646362
1.0220344066619873,3.466601848602295,7.552047252655029,0.1978670358657837,-0.14979839324951172,0.07430000603199005
1.287936806678772,3.2150564193725586,7.662416458129883,0.08495233207941055,-0.19986434280872345,0.05938674136996269
1.4530415534973145,3.3562328815460205,7.679165840148926,0.11797455698251724,-0.15618979930877686,0.07749570161104202
1.3836497068405151,3.8210387229919434,7.398906707763672,0.1861494779586792,-0.03808208182454109,0.10625699162483215
1.4482558965682983,3.8521454334259033,7.501798152923584,0.08921326696872711,0.06311506032943726,0.11371362209320068
1.342971682548523,3.8210387229919434,7.8780694007873535,-0.10359390825033188,0.09720251709222794,0.08921326696872711
1.1823534965515137,3.7851462364196777,8.433802604675293,-0.23674803972244263,0.20372581481933594,0.12969212234020233
0.9762716293334961,3.928715705871582,8.596514701843262,-0.23568280041217804,0.27509641647338867,0.19041040539741516
0.763310432434082,4.067798614501953,8.498408317565918,-0.1653774231672287,0.27509641647338867,0.2394111156463623
0.6625127792358398,4.130012035369873,8.352147102355957,-0.06418029218912125,0.3059881925582886,0.30971649289131165
0.9332008361816406,4.4054856300354,8.000102996826172,-0.03967992961406708,0.4860125780105591,0.4288894534111023
1.098604679107666,4.230809688568115,7.909176349639893,0.10945269465446472,0.5806851387023926,0.4629769027233124
1.0196415185928345,4.290630340576172,7.767700672149658,0.14034445583820343,0.4828168749809265,0.44273748993873596
1.2326027154922485,4.625924587249756,7.556832790374756,0.017842652276158333,0.27616167068481445,0.4299546778202057
1.129711389541626,4.875077247619629,7.9881391525268555,-0.17922545969486237,0.0801587849855423,0.39386990666389465
1.1823534965515137,4.934897422790527,8.546265602111816,-0.18029068410396576,0.04713656008243561,0.4002613127231598
1.2397812604904175,4.985146999359131,8.481658935546875,0.03808208182454109,0.10572437942028046,0.44380271434783936
1.2373883724212646,5.241477966308594,8.22293472290039,0.15845340490341187,0.21970431506633759,0.5258256793022156
1.1536396741867065,5.102694511413574,8.476873397827148,0.20319320261478424,0.4114462435245514,0.6376751065254211
1.2062816619873047,5.143372058868408,8.591729164123535,0.22343263030052185,0.31877097487449646,0.6387403607368469
1.4530415534973145,5.018945693969727,8.637192726135254,0.2170412242412567,0.28574874997138977,0.6344794034957886
1.4482558965682983,5.207978248596191,8.991928100585938,0.19041040539741516,0.283618301153183,0.6195661425590515
1.2684950828552246,5.509773254394531,9.255437850952148,0.22343263030052185,0.3997286856174469,0.6248922944068909
1.2397812604904175,5.373382568359375,9.403793334960938,0.2383458912372589,0.5838808417320251,0.6344794034957886
0.14745768904685974,4.242773532867432,9.161818504333496,0.016777420416474342,0.754318118095398,0.5971962809562683
0.08763712644577026,4.053441524505615,8.968000411987305,0.05512581020593643,0.7010564804077148,0.6057181358337402
0.18813568353652954,3.9335012435913086,8.40030288696289,0.17869283258914948,0.43701183795928955,0.6440665125846863
0.5021936297416687,4.096512317657471,7.489833831787109,0.28628137707710266,0.23568280041217804,0.7090457081794739
0.7489534616470337,4.18983268737793,7.106683254241943,0.24367205798625946,0.3017272651195526,0.7186328172683716
0.667298436164856,4.297808647155762,7.286144733428955,0.10625699162483215,0.4316856861114502,0.6664364337921143
0.33439695835113525,4.441378116607666,7.719843864440918,-0.11744193732738495,0.5412715077400208,0.6142399907112122
-0.25244277715682983,4.472484588623047,9.30329418182373,-0.3218335211277008,0.6808170676231384,0.5822830200195312
-0.26440688967704773,4.364807605743408,9.355937004089355,-0.2282261699438095,0.6094464659690857,0.5716306567192078
0.08045866340398788,4.422235488891602,8.944071769714355,-0.13661614060401917,0.4125114977359772,0.560978353023529
0.28893333673477173,4.499104976654053,8.43858814239502,-0.16750788688659668,0.12063764035701752,0.48747727274894714
0.4854438900947571,4.52781867980957,7.892426490783691,-0.2600499987602234,-0.11797455698251724,0.42356327176094055
0.8255237936973572,4.523033142089844,7.748558044433594,-0.29626792669296265,-0.17110306024551392,0.3768261969089508
1.1081759929656982,4.539782524108887,7.63609504699707,-0.21437814831733704,-0.09773512929677963,0.27562904357910156
1.0268200635910034,4.618745803833008,7.5137619972229,-0.11637670546770096,-0.021038351580500603,0.19360610842704773
0.8542376756668091,4.7336015701293945,7.607381343841553,-0.11531147360801697,0.03328853100538254,0.16910573840141296
0.4902295470237732,4.563711166381836,7.856534004211426,-0.14726845920085907,0.05352795869112015,0.13714875280857086
0.4540380835533142,4.587639331817627,7.727022647857666,-0.13874660432338715,0.05246272683143616,0.14673584699630737
0.5691927075386047,4.551746845245361,7.520940780639648,-0.09826774895191193,0.06524552404880524,0.18295377492904663
0.5213362574577332,4.915754795074463,8.043173789978027,0.08069140464067459,-0.15405932068824768,0.07216953486204147
0.9858429431915283,5.557928562164307,7.655237674713135,0.17762760818004608,-0.1423417627811432,0.015712186694145203
1.0292128324508667,5.727818965911865,8.376375198364258,0.04447348043322563,-0.2360822707414627,-0.05246272683143616
0.8063812255859375,5.711069583892822,9.660123825073242,-0.006657706573605537,-0.4256937503814697,-0.11850717663764954
1.4793626070022583,5.787639617919922,9.145069122314453,0.3575188219547272,-0.2041252851486206,-0.08974587917327881
1.441077470779419,5.79481840133667,9.051749229431152,0.29586848616600037,-0.2477998286485672,-0.12383333593606949
1.3716856241226196,5.943472385406494,9.198010444641113,0.08175663650035858,-0.49919483065605164,-0.18135592341423035
1.469791293144226,5.6153564453125,9.279366493225098,-0.08868064731359482,-0.6323489546775818,-0.23022349178791046
1.4482558965682983,4.949254512786865,9.550054550170898,-0.12383333593606949,-0.43208515644073486,-0.25152814388275146
1.1751750707626343,4.362414836883545,10.220643043518066,-0.023701434955000877,-0.05193011090159416,-0.23981058597564697
1.0196415185928345,4.046263217926025,10.328619003295898,0.06790860742330551,0.06204982474446297,-0.20891882479190826
1.038784146308899,3.849752426147461,9.657731056213379,0.26604193449020386,0.05778888985514641,-0.16857312619686127
0.8279166221618652,4.110869407653809,8.172685623168945,0.4182371199131012,-0.10199606418609619,-0.1962691843509674
0.9403793215751648,3.91914439201355,7.2430739402771,0.2596505582332611,-0.05619104206562042,-0.1962691843509674
1.09381902217865,3.88803768157959,8.313861846923828,-0.024766668677330017,-0.06151720881462097,-0.07270215451717377
1.3286148309707642,4.005585193634033,8.74756145477295,-0.0482017956674099,-0.11371362209320068,-0.010918638668954372
1.4267204999923706,4.067798614501953,8.869595527648926,0.025299284607172012,-0.07430000603199005,-0.029027599841356277
1.3692927360534668,4.240380764007568,8.84805965423584,0.05725627392530441,-0.04127778112888336,-0.04500609636306763
1.2373883724212646,4.2810587882995605,8.630014419555664,0.07430000603199005,-0.04234301298856735,-0.0695064514875412
1.292722463607788,4.400700092315674,8.23968505859375,0.08601756393909454,0.022636201232671738,-0.05778888985514641
1.1991032361984253,4.400700092315674,7.779664516448975,0.07962616533041,0.19413872063159943,-0.00452724052593112
0.9619147181510925,4.487140655517578,7.63609504699707,0.06577813625335693,0.2580527067184448,0.017842652276158333
0.545264482498169,4.673780918121338,7.621738433837891,0.03169068321585655,0.2292914092540741,0.08495233207941055
0.7127620577812195,4.657031059265137,7.53769063949585,0.023168819025158882,0.0801587849855423,0.2585853040218353
0.7848458290100098,4.659423828125,7.437191963195801,0.030625449493527412,0.0482017956674099,0.3011946380138397
1.1416754722595215,4.613960266113281,7.401299476623535,0.04340824484825134,0.05672365799546242,0.31930360198020935
1.2783654928207397,4.578067779541016,7.118647575378418,0.08814803510904312,0.08974587917327881,0.25432437658309937
1.6423736810684204,5.069194793701172,7.061219692230225,-0.24526990950107574,0.3880111277103424,0.3043903410434723
1.1464611291885376,5.277370452880859,7.894819259643555,-0.28241991996765137,0.5167711973190308,0.35232582688331604
1.0292128324508667,5.066802024841309,8.44576644897461,-0.07057169079780579,0.4508598744869232,0.4832163453102112
1.2110673189163208,5.2151570320129395,8.4529447555542,0.14034445583820343,0.2580527067184448,0.523695170879364
1.4291132688522339,5.236692428588867,8.43140983581543,0.1754971444606781,0.13128997385501862,0.4395417869091034
1.4578272104263306,5.533701419830322,7.990531921386719,0.18082331120967865,-0.0018641578499227762,0.4066527187824249
1.8939191102981567,5.730212211608887,8.098209381103516,0.13714875280857086,0.10572437942028046,0.4480636417865753
1.776371717453003,5.404489040374756,8.584549903869629,0.0050598569214344025,0.4114462435245514,0.45658549666404724
1.5705889463424683,5.267798900604248,8.63479995727539,0.3873453438282013,0.37096738815307617,0.5428693890571594
1.8532410860061646,5.579464435577393,8.014460563659668,0.41504141688346863,0.2719007432460785,0.5354127287864685
1.9130617380142212,5.8692946434021,8.35453987121582,0.18295377492904663,0.38161972165107727,0.457650750875473
1.6256239414215088,5.945865154266357,9.449555397033691,0.0689738392829895,0.5412715077400208,0.42249804735183716
1.2038888931274414,5.4403815269470215,9.882955551147461,0.17336668074131012,0.5583152770996094,0.3874785006046295
0.8973084688186646,5.047659397125244,9.657731056213379,0.2607157826423645,0.40505486726760864,0.39386990666389465
0.97148597240448,4.611567497253418,9.33440113067627,0.21597599983215332,0.28681400418281555,0.4087831676006317
1.0268200635910034,4.585246562957764,9.027820587158203,0.13501828908920288,0.24633513391017914,0.42462852597236633
1.0196415185928345,4.623531341552734,8.610871315002441,0.09453943371772766,0.25592222809791565,0.45658549666404724
0.9882357716560364,4.47487735748291,8.572586059570312,0.08495233207941055,0.27722689509391785,0.46723783016204834
0.7561319470405579,4.278666019439697,8.673383712768555,0.06151720881462097,0.2910749316215515,0.44273748993873596
0.41575294733047485,4.12761926651001,8.69491958618164,0.11584409326314926,0.3379451632499695,0.38108712434768677
0.2961117923259735,4.108476638793945,8.14636516571045,0.2298240214586258,0.37416309118270874,0.35978245735168457
0.24107688665390015,4.508676052093506,7.540083408355713,0.21064983308315277,0.31983622908592224,0.35126060247421265
0.3655036687850952,4.731208801269531,7.530511856079102,0.03914731368422508,0.1877473145723343,0.36084768176078796
0.5620142221450806,4.779364109039307,7.798807144165039,-0.11318100988864899,0.09720251709222794,0.36191290616989136
0.7007979154586792,4.537389755249023,8.148757934570312,-0.14726845920085907,0.05672365799546242,0.3544562757015228
1.1057831048965454,4.321736812591553,8.234899520874023,-0.08228924870491028,0.10998530685901642,0.3267602324485779
1.1943175792694092,4.434199333190918,7.8541412353515625,-0.00133154122158885,0.15152940154075623,0.26497671008110046
1.196710467338562,4.680959224700928,7.463512897491455,-0.029027599841356277,0.07270215451717377,0.20319320261478424
1.2182458639144897,4.8176493644714355,7.415656566619873,-0.14726845920085907,-0.04447348043322563,0.12756165862083435
1.0100702047348022,4.887041091918945,7.827520847320557,-0.22396524250507355,-0.03169068321585655,0.07856093347072601
0.8590233325958252,4.78175687789917,8.213363647460938,-0.16857312619686127,0.05778888985514641,0.05406057462096214
0.8303094506263733,4.747958183288574,7.980960845947266,-0.04074516147375107,0.14194230735301971,0.028494983911514282
0.7657032608985901,4.877470016479492,7.729415416717529,-0.03328853100538254,0.1227681040763855,-0.0034620072692632675
0.8015955686569214,5.073980331420898,7.621738433837891,-0.111050546169281,-0.13914605975151062,-0.07696308940649033
0.9954141974449158,5.095515727996826,7.372585773468018,-0.05459319427609444,-0.12423279881477356,-0.09720251709222794
1.0196415185928345,5.243870735168457,7.401299476623535,-0.017310036346316338,0.018375270068645477,-0.12809427082538605
0.7342974543571472,5.3231329917907715,7.53769063949585,0.011451254598796368,0.06204982474446297,-0.112115778028965
0.6625127792358398,5.466702461242676,7.4587273597717285,0.04234301298856735,-0.04127778112888336,-0.09294158220291138
0.7031907439231873,5.473880767822266,7.494619846343994,0.0583215095102787,-0.13808083534240723,-0.09507204592227936
0.7489534616470337,5.679962635040283,7.406085014343262,0.06151720881462097,-0.22862564027309418,-0.12170287221670151
0.7657032608985901,5.813961029052734,7.465905666351318,0.04553871229290962,-0.2382127344608307,-0.15152940154075623
0.7151548862457275,5.852545261383057,7.796414375305176,0.024234050884842873,-0.22116900980472565,-0.17922545969486237
0.7103692293167114,6.012864112854004,8.13679313659668,0.05406057462096214,-0.15938548743724823,-0.2472672164440155
0.9643075466156006,5.895616054534912,8.469695091247559,0.07430000603199005,-0.07643046975135803,-0.2888112962245941
0.5955137610435486,5.758925914764404,8.761918067932129,0.08921326696872711,0.00452724052593112,-0.17389929294586182
0.49262237548828125,5.988935947418213,8.83370304107666,0.13821399211883545,-0.029560215771198273,-0.11424624174833298
0.7151548862457275,6.240481376647949,8.589336395263672,0.2074541300535202,-0.19134248793125153,-0.07057169079780579
1.1703894138336182,6.3361945152282715,8.388339042663574,0.24154159426689148,-0.3447360396385193,-0.06418029218912125
1.5152549743652344,6.547061920166016,8.476873397827148,0.20212796330451965,-0.42143282294273376,-0.10892007499933243
1.6304094791412354,6.525526523590088,8.560622215270996,0.1744319051504135,-0.4299546778202057,-0.13128997385501862
1.745265007019043,6.092126369476318,8.838488578796387,0.15951864421367645,-0.3884105980396271,-0.17176882922649384
1.6758731603622437,5.730212211608887,9.30329418182373,0.14673584699630737,-0.29467007517814636,-0.23022349178791046
1.350150227546692,4.784149646759033,9.961918830871582,0.25538963079452515,-0.2680392563343048,-0.3314206302165985
1.2110673189163208,4.537389755249023,8.670990943908691,0.5151733160018921,-0.3234313726425171,-0.3356815576553345
1.4003994464874268,4.417449474334717,6.984350204467773,0.6717625856399536,-0.2595174014568329,-0.3228987455368042
1.2903295755386353,4.5206403732299805,6.553342819213867,0.5449998378753662,-0.14660269021987915,-0.3303554058074951
1.0555338859558105,4.829613208770752,7.382156848907471,0.3139774203300476,-0.15938548743724823,-0.3005288541316986
1.184746265411377,4.772185802459717,7.820342540740967,0.23195448517799377,-0.22862564027309418,-0.25259336829185486
1.7428722381591797,4.41266393661499,7.942675590515137,0.14993155002593994,-0.3852148950099945,-0.09933298081159592
2.102393865585327,4.345664978027344,7.640881061553955,0.1328878253698349,-0.39160630106925964,-0.05459319427609444
2.2531416416168213,4.661816596984863,7.4347991943359375,0.1126483902335167,-0.11903978884220123,-0.10359390825033188
1.934597134590149,4.872684001922607,7.576274871826172,0.08921326696872711,0.0002663082559593022,-0.13128997385501862
1.5296118259429932,4.9995036125183105,7.595417499542236,0.025299284607172012,-0.027429750189185143,-0.15046416223049164
1.374078392982483,5.064409255981445,7.274180889129639,-0.05672365799546242,-0.19666863977909088,-0.13661614060401917
1.3812568187713623,5.193621635437012,7.128218650817871,-0.09613727778196335,-0.2669740319252014,-0.11424624174833298
1.2541381120681763,5.157729148864746,6.79531717300415,-0.08548495173454285,-0.2989310026168823,-0.09933298081159592
1.1775678396224976,5.3231329917907715,5.899205207824707,-0.08228924870491028,-0.29680055379867554,-0.0588541254401207
1.3549357652664185,5.5962138175964355,5.369792938232422,-0.13022473454475403,-0.2477998286485672,-0.030092833563685417
2.059023857116699,5.890830039978027,6.052644729614258,-0.3143768906593323,0.22716094553470612,0.08069140464067459
1.5849459171295166,5.85493803024292,6.783353328704834,-0.5327496528625488,0.4742949903011322,0.14034445583820343
2.147857427597046,5.589035511016846,7.178467750549316,-0.7500572204589844,0.6318163275718689,0.22449785470962524
1.6040884256362915,5.4571309089660645,7.695915699005127,-0.8597761988639832,0.8629719018936157,0.27775952219963074
1.409970760345459,5.497808933258057,7.398906707763672,-0.8990566730499268,1.0121045112609863,0.4512593448162079
1.5658032894134521,5.610570907592773,7.508976459503174,-0.9896014928817749,1.2378007173538208,0.5364779829978943
1.043569803237915,5.327918529510498,8.14636516571045,-0.9533835649490356,1.5541750192642212,0.4491288661956787
0.3607180118560791,5.303990364074707,8.433802604675293,-0.7255568504333496,1.4178251028060913,0.37469571828842163
0.2315055876970291,4.96121883392334,8.395517349243164,-0.4730966091156006,0.8310149312019348,0.35019534826278687
0.19531415402889252,5.277370452880859,8.280363082885742,-0.24846559762954712,0.4316856861114502,0.375760942697525
0.4325026869773865,5.667998790740967,7.8684983253479,-0.05565842613577843,0.28681400418281555,0.38321757316589355
0.35832518339157104,5.296812057495117,9.12831974029541,-0.017310036346316338,0.40505486726760864,0.34273871779441833
0.9212366938591003,5.42363166809082,9.339186668395996,0.3990629315376282,0.013049104250967503,0.36297816038131714
0.7127620577812195,5.543272972106934,9.552447319030762,0.560978353023529,-0.04234301298856735,0.3651086091995239
0.5859424471855164,5.953043460845947,9.59073257446289,0.5524564981460571,-0.17536398768424988,0.35019534826278687
0.4420739710330963,6.348158359527588,9.43489933013916,0.46723783016204834,-0.16364642977714539,0.33208638429641724
0.32243284583091736,6.067899227142334,8.92492961883545,0.37136685848236084,-0.04660394415259361,0.34167349338531494
0.11874382197856903,5.826223850250244,8.745168685913086,0.19893226027488708,0.16324695944786072,0.41291093826293945
-0.13040883839130402,5.1290154457092285,8.793025016784668,0.03808208182454109,0.3017272651195526,0.48854249715805054
-0.4585246443748474,4.019941806793213,8.836095809936523,-0.017310036346316338,0.4018591642379761,0.6355446577072144
-0.49680981040000916,3.708575963973999,8.344968795776367,0.06258244067430496,0.29853156208992004,0.6866758465766907
-0.4657030999660492,3.607778310775757,7.978568077087402,0.12649641931056976,0.2729659676551819,0.7228937745094299
-0.005682953633368015,3.8856449127197266,7.710272789001465,0.18827994167804718,0.433816134929657,0.7665683031082153
0.04935196787118912,4.039084434509277,7.614559650421143,0.17869283258914948,0.49653175473213196,0.7314156293869019
-0.10169496387243271,4.427021026611328,7.829914093017578,-0.22716094553470612,0.3667064607143402,0.6270228028297424
-0.16869398951530457,4.276273250579834,8.474480628967285,-0.34633389115333557,0.32729285955429077,0.6057181358337402
0.14745768904685974,4.132404804229736,8.70927619934082,-0.32715970277786255,0.2580527067184448,0.5673697590827942
0.31046873331069946,4.194618225097656,8.34736156463623,-0.19946488738059998,0.2740311920642853,0.5183690190315247
0.4372883439064026,4.293023109436035,7.540083408355713,-0.08868064731359482,0.21544337272644043,0.46510738134384155
0.5380859971046448,4.628317356109619,7.192824840545654,-0.16005125641822815,0.17922545969486237,0.3896089792251587
0.28654050827026367,4.798506736755371,7.339086055755615,-0.28241991996765137,0.18987779319286346,0.33208638429641724
0.14745768904685974,4.870291233062744,7.624131202697754,-0.2973331809043884,0.2729659676551819,0.31930360198020935
0.0038883367087692022,4.740779876708984,7.7940216064453125,-0.22076953947544098,0.3155752718448639,0.3555215299129486
-0.08015955984592438,4.765007019042969,7.997710704803467,-0.14194230735301971,0.3155752718448639,0.3991960883140564
-0.2356930375099182,4.848755836486816,8.08385181427002,-0.08548495173454285,0.2410089671611786,0.4299546778202057
0.07328019291162491,5.02851676940918,8.163114547729492,-0.04926702752709389,0.2079867422580719,0.43315038084983826
0.18335004150867462,5.018945693969727,7.921140193939209,0.00719032296910882,0.18455162644386292,0.3981308341026306
0.32243284583091736,5.107480049133301,7.69830846786499,0.08069140464067459,0.17389929294586182,0.36404338479042053
0.3032902777194977,5.344668388366699,7.609774112701416,0.14567062258720398,0.1749645173549652,0.3235645294189453
0.2554338276386261,5.562714576721191,7.69830846786499,0.19041040539741516,0.19413872063159943,0.3150426745414734
0.4013960063457489,5.651248931884766,8.0383882522583,0.20532366633415222,0.18881255388259888,0.30971649289131165
0.2267199456691742,5.758925914764404,8.337790489196777,0.23301972448825836,0.09826774895191193,0.2809551954269409
0.1498505175113678,6.005685806274414,8.527122497558594,0.25645485520362854,-0.022103585302829742,0.27669426798820496
0.1905284970998764,6.020042896270752,8.311469078063965,0.28521615266799927,-0.024234050884842873,0.272433340549469
0.243469700217247,5.9075798988342285,8.316255569458008,0.28734660148620605,0.020505735650658607,0.2830856740474701
0.2386840581893921,5.852545261383057,8.388339042663574,0.2905423045158386,0.07376738637685776,0.32995593547821045
0.28175488114356995,5.909972667694092,8.388339042663574,0.2926727831363678,0.03435376659035683,0.35019534826278687
0.44446679949760437,6.087041854858398,8.905488014221191,0.2585853040218353,-0.1009308323264122,0.35126060247421265
0.4950151741504669,5.948257923126221,9.595518112182617,0.21384553611278534,-0.27230018377304077,0.3480648994445801
0.851844847202301,5.998507499694824,9.62901782989502,0.16271434724330902,-0.39373674988746643,0.39173945784568787
1.2110673189163208,5.768496990203857,9.372686386108398,0.03169068321585655,-0.19986434280872345,0.4501941204071045
1.5056836605072021,5.001896858215332,9.748957633972168,-0.07483261823654175,0.111050546169281,0.507716715335846
0.6481558084487915,4.206582069396973,9.753743171691895,0.19041040539741516,0.14833369851112366,0.4002613127231598
0.7295117974281311,4.024727821350098,8.42423152923584,0.4256937503814697,0.12383333593606949,0.36191290616989136
1.1536396741867065,3.82582426071167,7.221538543701172,0.5567173957824707,0.19200825691223145,0.3011946380138397
1.2086745500564575,4.125226020812988,6.522236347198486,0.5545869469642639,0.25698745250701904,0.2287587970495224
0.8255237936973572,4.657031059265137,8.567800521850586,-0.09507204592227936,0.14194230735301971,0.22449785470962524
1.0698908567428589,4.625924587249756,9.137890815734863,-0.14726845920085907,0.16857312619686127,0.2063889056444168
1.0148558616638184,4.690530776977539,9.087641716003418,-0.07163692265748978,0.23035664856433868,0.2394111156463623
1.1057831048965454,4.578067779541016,8.23968505859375,0.05938674136996269,0.2953358590602875,0.2521939277648926
0.8997012972831726,4.85114860534668,7.5137619972229,0.14140968024730682,0.29746630787849426,0.24473728239536285
0.7151548862457275,5.138586521148682,6.900601387023926,0.1850842386484146,0.3880111277103424,0.25538963079452515
0.7295117974281311,5.2151570320129395,6.639484405517578,0.11584409326314926,0.6371424794197083,0.32143405079841614
0.355932354927063,4.8798627853393555,6.352046966552734,0.05512581020593643,1.1653649806976318,0.416106641292572
-0.6358926296234131,5.131408214569092,7.669594764709473,-0.07057169079780579,0.6360772848129272,0.32143405079841614
0.4492524564266205,5.052444934844971,8.304290771484375,-0.2388785034418106,-0.14660269021987915,0.24367205798625946
0.667298436164856,5.3709893226623535,7.750950813293457,-0.16111649572849274,-0.3458012640476227,0.1318225860595703
0.5524429082870483,5.483452320098877,7.6528449058532715,-0.04394086077809334,-0.3298227787017822,0.11903978884220123
0.669691264629364,5.274977684020996,7.4276204109191895,0.05193011090159416,-0.2808220684528351,0.16164910793304443
1.0292128324508667,4.9995036125183105,8.210970878601074,0.2287587970495224,-0.420367568731308,0.14886631071567535
0.8614161610603333,5.629713535308838,8.098209381103516,0.2937380075454712,-0.8931978940963745,0.1339530497789383
0.9858429431915283,5.833402633666992,7.9881391525268555,0.25538963079452515,-1.0540480613708496,0.2521939277648926
2.5334010124206543,5.703890800476074,7.578667640686035,0.4832163453102112,-0.7323477268218994,0.3683043122291565
2.4640090465545654,5.957829475402832,7.942675590515137,0.507716715335846,-0.29467007517814636,0.2628462612628937
2.3994028568267822,6.2500529289245605,7.897212028503418,0.43528082966804504,-0.09666989743709564,0.3171731233596802
2.466402053833008,5.909972667694092,7.688737392425537,0.4267589747905731,0.16324695944786072,0.3480648994445801
1.9226330518722534,5.92432975769043,6.936493873596191,0.2628462612628937,0.20585627853870392,0.4077179431915283
1.5466607809066772,6.425027847290039,5.657230854034424,-0.03648423030972481,0.2740311920642853,0.47682493925094604
1.7285152673721313,6.62632417678833,6.594020843505859,-0.44433531165122986,0.9343425035476685,0.6035876870155334
2.078465461730957,6.374778747558594,8.440980911254883,-0.8427324891090393,1.580805778503418,0.6866758465766907
0.5715855360031128,6.204588890075684,9.78963565826416,-0.9533835649490356,1.9875916242599487,1.0465914011001587
-0.31465616822242737,4.810471057891846,10.735697746276855,-0.9576444625854492,1.960960865020752,1.57388174533844
-0.6741777658462524,3.9071803092956543,10.999207496643066,-0.6179683208465576,0.9865389466285706,1.3736180067062378
0.49980083107948303,3.6340994834899902,10.321440696716309,-0.18987779319286346,0.9215596914291382,1.2212896347045898
0.849452018737793,4.374378681182861,9.382257461547852,0.19254086911678314,0.9524514675140381,1.0700265169143677
0.32243284583091736,4.446163654327393,8.409873962402344,0.29799893498420715,0.7426005601882935,0.8613740801811218
-0.5207380056381226,4.355236530303955,9.02542781829834,-0.014114337973296642,0.7255568504333496,0.7900034189224243
-0.8249256014823914,3.5024940967559814,8.843274116516113,-0.24740037322044373,0.5189016461372375,0.7346113324165344
-0.6239284873008728,3.224627733230591,8.009675025939941,-0.07696308940649033,0.2708354890346527,0.8017209768295288
-0.4345964193344116,3.81864595413208,8.40748119354248,0.07323476672172546,0.6243597269058228,0.8421998620033264
-0.489631325006485,3.5479576587677,8.601300239562988,0.10945269465446472,0.6541862487792969,0.860308825969696
-0.05353940650820732,3.399303674697876,7.494619846343994,0.29799893498420715,0.3773587942123413,0.9583102464675903
0.6577271223068237,3.9311084747314453,6.98195743560791,0.30865126848220825,0.3784240186214447,0.9668321013450623
0.9475577473640442,4.096512317657471,6.763911247253418,0.23408496379852295,0.4901403486728668,0.9018529057502747
0.9786644577980042,4.340879440307617,7.154539585113525,0.07643046975135803,0.730883002281189,0.6792191863059998
0.5021936297416687,4.5445685386657715,7.125825881958008,0.012516488321125507,0.754318118095398,0.546065092086792
-0.6502495408058167,4.72163724899292,8.922536849975586,-0.11957240849733353,0.8970593810081482,0.5705654621124268
-0.8656035661697388,4.719244480133057,9.075676918029785,0.12117026001214981,0.769231379032135,0.6749582886695862
-0.005682953633368015,4.692923545837402,7.952247142791748,0.3438039720058441,0.7671009302139282,0.7335460782051086
0.21714866161346436,4.867898464202881,6.831209659576416,0.1978670358657837,0.8587109446525574,0.5567173957824707
-0.8584251403808594,5.164907455444336,8.270791053771973,-0.20159535109996796,0.7191654443740845,0.3896089792251587
-0.7914260625839233,4.908576488494873,9.272188186645508,-0.3250292241573334,0.22716094553470612,0.3991960883140564
-0.6382854580879211,5.217549800872803,8.618049621582031,-0.12809427082538605,0.008788172155618668,0.4098483920097351
-0.22372891008853912,5.057230472564697,8.088638305664062,-0.07163692265748978,0.08335448056459427,0.416106641292572
-0.07776673883199692,5.0811591148376465,8.491230010986328,-0.09720251709222794,-0.05725627392530441,0.37363049387931824
0.05892325937747955,5.481059551239014,7.856534004211426,0.12117026001214981,-0.023168819025158882,0.380021870136261
-0.03678964823484421,5.452345371246338,8.12961483001709,0.1424749195575714,0.13022473454475403,0.3256950080394745
-0.24287149310112,5.2151570320129395,8.661419868469238,0.15632294118404388,0.18242116272449493,0.31823837757110596
-0.24047867953777313,5.1290154457092285,9.00389289855957,0.24260681867599487,0.1536598652601242,0.3459344208240509
-0.041575293987989426,5.30638313293457,8.795417785644531,0.37243208289146423,0.0801587849855423,0.3544562757015228
-0.11605189740657806,5.603392601013184,7.980960845947266,0.4256937503814697,-0.018907885998487473,0.3544562757015228
0.3439682424068451,5.2992048263549805,8.225327491760254,0.3256950080394745,0.03222329914569855,0.3970656096935272
0.8350951075553894,5.200799942016602,8.852845191955566,0.3363473415374756,0.20159535109996796,0.47789016366004944
0.8111668825149536,5.050052165985107,9.241081237792969,0.4256937503814697,0.2505960762500763,0.5130428671836853
1.2086745500564575,4.427021026611328,8.505587577819824,0.37988871335983276,0.1536598652601242,0.47575968503952026
2.8328030109405518,3.7731821537017822,7.5978102684021,0.09560466557741165,0.1643121987581253,-0.13448566198349
1.5849459171295166,4.089334011077881,8.016853332519531,-0.20585627853870392,0.29746630787849426,-0.5838808417320251
-0.2667997181415558,4.932504653930664,8.397910118103027,-0.15152940154075623,0.5114449858665466,-0.660577654838562
-0.8249256014823914,4.985146999359131,8.541479110717773,0.34273871779441833,0.8448629379272461,-0.12915951013565063
-0.18305093050003052,4.355236530303955,8.596514701843262,1.0647003650665283,1.157908320426941,-0.04287562891840935
-1.5388840436935425,5.397310733795166,8.469695091247559,1.248985767364502,0.9641690254211426,0.026364516466856003
-1.2275179624557495,6.029613971710205,6.98195743560791,1.0551133155822754,0.9396686553955078,0.1222354918718338
-1.3782658576965332,6.1088762283325195,7.066005229949951,0.8326127529144287,0.9907998442649841,0.18827994167804718
-1.8550357818603516,6.1950178146362305,8.469695091247559,0.4469984173774719,0.9939955472946167,0.35978245735168457
-1.2299108505249023,5.4571309089660645,9.094820022583008,0.354323148727417,0.8587109446525574,0.5790873169898987
-0.8512466549873352,5.320740222930908,8.515158653259277,0.25645485520362854,0.6169030666351318,0.5503259897232056
-1.0166505575180054,5.687141418457031,7.638488292694092,-0.027962366119027138,0.6595124006271362,0.4736292362213135
-1.0740783214569092,5.042873859405518,8.203792572021484,-0.27496325969696045,1.0802794694900513,0.4917382001876831
-1.9989042282104492,5.1050872802734375,6.91974401473999,-0.2813546657562256,1.4785434007644653,0.5449998378753662
-3.0433712005615234,5.126622676849365,8.3931245803833,-0.32609444856643677,1.0961247682571411,0.7015891075134277
-2.0659031867980957,4.692923545837402,8.92492961883545,-0.12489857524633408,0.25379177927970886,0.7292851805686951
-1.7258232831954956,5.404489040374756,8.079066276550293,0.08921326696872711,-0.07856093347072601,0.6792191863059998
