accX,accY,accZ,gyroX,gyroY,gyroZ
-3.8799619674682617,6.705287456512451,5.492724418640137,-0.08124268800020218,-0.7634063363075256,-0.02367033064365387
-3.42981219291687,6.4947190284729,5.8612189292907715,-0.24311721324920654,-0.8318212628364563,-0.19287502765655518
-3.413062334060669,6.487540245056152,6.598806858062744,-0.2644968628883362,-0.7505785822868347,-0.2692309319972992
-3.985246181488037,6.348756790161133,6.20129919052124,-0.0781884491443634,-0.5086830258369446,-0.3480302393436432
-4.145565032958984,6.3101725578308105,5.8612189292907715,-0.1441599577665329,-0.5813738703727722,-0.3608580231666565
-4.102494239807129,6.183352947235107,5.8612189292907715,-0.28282228112220764,-0.71453857421875,-0.39567631483078003
-3.5829527378082275,5.8698930740356445,6.706483840942383,-0.49173203110694885,-0.8018897175788879,-0.4549284875392914
-2.761915445327759,5.970391750335693,6.826124668121338,-0.5106683373451233,-1.0743275880813599,-0.658951461315155
-4.150351047515869,5.745167255401611,7.036992073059082,-0.5393781065940857,-1.5703356266021729,-0.8959602117538452
-3.951746702194214,5.963212966918945,6.974479675292969,-0.569309651851654,-1.7932947874069214,-0.8214368224143982
-2.9772696495056152,5.434100151062012,6.665805816650391,-0.7085828185081482,-1.8391083478927612,-0.8086090683937073
-2.622832775115967,5.718846321105957,6.605985164642334,-1.054398775100708,-2.1457536220550537,-1.0040801763534546
-1.3061820268630981,5.872285842895508,6.048158168792725,-1.6450880765914917,-3.15494966506958,-1.458016037940979
-2.053041934967041,3.3846476078033447,5.566901683807373,-2.3176307678222656,-3.571547508239746,-1.9876205921173096
-4.8206400871276855,3.516551971435547,7.431807994842529,-2.918093681335449,-3.7499148845672607,-1.6253881454467773
-4.464109897613525,3.9687955379486084,10.182656288146973,-3.047593355178833,-2.956958770751953,-0.6528429985046387
-3.358027458190918,4.045365810394287,11.417951583862305,-2.7947025299072266,-2.3100717067718506,0.23532891273498535
-2.8935208320617676,3.6936209201812744,11.858530044555664,-2.36833119392395,-1.2264286279678345,1.1436587572097778
-2.967698335647583,3.346362352371216,11.700603485107422,-1.7556513547897339,-0.49890950322151184,2.434455394744873
-1.1362916231155396,1.5436697006225586,12.40439224243164,-1.3054569959640503,-0.4030064642429352,3.1302103996276855
5.387739181518555,-3.3332018852233887,12.761221885681152,-0.08185353130102158,-0.5465555787086487,2.607935905456543
4.5568318367004395,-2.569293260574341,11.970993041992188,0.2107423096895218,-0.5544965863227844,1.9805958271026611
3.635295867919922,-0.953240692615509,12.215359687805176,0.8820634484291077,-0.12438376992940903,0.6843016147613525
-0.5593222975730896,1.6298112869262695,10.675877571105957,2.258378744125366,-0.8800781965255737,-0.8238802552223206
0.6523432731628418,2.297708034515381,7.9585280418396,2.326793670654297,-0.8684720993041992,-0.3370349705219269
0.4893322288990021,2.814856767654419,6.730412006378174,2.037862777709961,-0.3755183517932892,-0.23563432693481445
0.40319061279296875,3.691227912902832,5.988337993621826,1.4525947570800781,-0.015042114071547985,-0.11285403370857239
0.9251250624656677,3.794119358062744,6.304190158843994,0.7372926473617554,0.1468324065208435,-0.06032116711139679
-2.4625136852264404,5.515456199645996,7.532306671142578,0.20768806338310242,0.6562790274620056,-0.0035123717971146107
-0.6789634227752686,4.1868414878845215,7.180561542510986,-0.05986303091049194,1.1376266479492188,0.6183301210403442
-0.11635100096464157,3.5596227645874023,7.228417873382568,-0.33352261781692505,1.1370158195495605,0.9390249252319336
0.6475576162338257,3.67447829246521,7.467700481414795,-0.5790832042694092,0.9201650619506836,0.940857470035553
0.838983416557312,3.403790235519409,8.310571670532227,-0.7501204609870911,0.17981816828250885,0.6922426819801331
0.2189432680606842,3.70558500289917,8.712865829467773,-0.7598940134048462,-0.285647451877594,0.5303681492805481
-0.3005983531475067,4.095914363861084,9.588937759399414,-0.6896465420722961,-1.3376027345657349,0.37826716899871826
0.8748757839202881,4.292125701904297,11.240882873535156,-0.41293275356292725,-1.8158961534500122,0.29885703325271606
-1.1650055646896362,4.414159774780273,9.22253704071045,-0.12888877093791962,0.27449947595596313,-0.4402681589126587
-0.3819543123245239,2.420041084289551,10.922636985778809,0.15149012207984924,1.1700016260147095,-0.04810422286391258
0.7863413691520691,3.183650493621826,8.971290588378906,0.05619794875383377,-0.05230379477143288,0.2011214643716812
1.2675977945327759,2.793321371078491,9.785149574279785,0.020157959312200546,-0.0492495596408844,0.11010521650314331
0.3026920557022095,3.76779842376709,8.176573753356934,0.4593571424484253,0.17004460096359253,0.0459662564098835
0.6714858412742615,3.4612178802490234,8.391927719116211,0.2919849753379822,0.26961269974708557,0.10338589549064636
0.364905446767807,3.456432342529297,9.481260299682617,0.2724378705024719,0.21463645994663239,0.06673506647348404
0.1423729509115219,3.6481571197509766,9.385547637939453,0.4202629029750824,-0.07857023179531097,0.054518118500709534
0.3433700501918793,3.9783668518066406,8.705686569213867,0.4178195297718048,0.1217876747250557,0.027029991149902344
0.19740787148475647,4.074378967285156,8.720044136047363,0.4062134325504303,0.09124530851840973,0.00259610079228878
0.08015955984592438,4.205984115600586,8.363214492797852,0.40132665634155273,0.07475243508815765,0.0038177953101694584
0.05114658549427986,4.35673189163208,7.482057094573975,0.2767138183116913,0.135226309299469,0.031916771084070206
0.11126625537872314,4.378267288208008,7.381558895111084,0.14965757727622986,0.20547375082969666,0.05024218559265137
0.041575293987989426,4.30169677734375,8.336893081665039,-0.07635590434074402,0.25800660252571106,0.06795676052570343
-0.04695914313197136,4.280161380767822,9.014361381530762,-0.06658235192298889,0.24456797540187836,0.08750387281179428
-0.06370890140533447,4.237090587615967,9.129216194152832,0.07207997888326645,0.2763320207595825,0.09116895496845245
-0.30538398027420044,4.299304008483887,8.81814956665039,0.21807247400283813,0.3673482835292816,0.08750387281179428
0.10408778488636017,4.129413604736328,8.873184204101562,0.28098973631858826,0.3007659316062927,0.06795676052570343
0.15672987699508667,4.194019794464111,9.112466812133789,0.33596599102020264,-0.05535803362727165,-0.041384901851415634
0.008075776509940624,4.201198577880859,8.485248565673828,0.4227063059806824,0.1865374743938446,-0.07742489129304886
-0.1618146300315857,4.316053867340088,7.956135272979736,0.4049917459487915,0.23051849007606506,-0.08108997344970703
0.18305093050003052,4.1078782081604,8.207680702209473,0.23334364593029022,0.010613471269607544,-0.08292251825332642
-0.2551347017288208,4.4189453125,8.84207820892334,0.06780404597520828,-0.4133908748626709,-0.20142687857151031
-0.2910270392894745,4.576871395111084,9.1986083984375,0.08368607610464096,-0.37918344140052795,-0.15439164638519287
-0.2072782665491104,4.385445594787598,9.050253868103027,0.17592400312423706,0.08941277116537094,-0.033443886786699295
-0.20488543808460236,4.342374801635742,9.026325225830078,0.2211267054080963,0.3172588050365448,0.04107947647571564
-0.31495529413223267,4.411766529083252,8.904291152954102,0.22845686972141266,0.32275640964508057,0.07040014863014221
-0.26949164271354675,4.507479667663574,8.801400184631348,0.23212195932865143,0.3160370886325836,0.0978882759809494
-0.19531415402889252,4.572085857391357,8.837292671203613,0.23028941452503204,0.3184804916381836,0.10827267915010452
-0.24556341767311096,4.66570520401001,8.820542335510254,0.30969956517219543,0.3166479468345642,0.06673506647348404
-0.5521438121795654,4.701597213745117,8.592925071716309,0.33352261781692505,0.07169819623231888,0.0050394898280501366
-0.5904290080070496,4.857131004333496,8.506783485412598,0.3567348122596741,0.0038941511884331703,0.046577103435993195
-0.22402802109718323,5.046164035797119,8.499605178833008,0.3671191930770874,-0.1023932695388794,0.08017370104789734
0.18065811693668365,5.091627597808838,8.449356079101562,0.38605546951293945,-0.12560546398162842,0.01175880990922451
-0.034995030611753464,5.1753764152526855,8.279465675354004,0.4068242609500885,-0.15859122574329376,-0.09941539168357849
-0.3819543123245239,5.3216376304626465,7.884350776672363,0.38727715611457825,-0.19585290551185608,-0.1256818175315857
-0.16899310052394867,5.278566837310791,7.249953269958496,0.16859383881092072,-0.13476817309856415,-0.06642963737249374
0.022432712838053703,5.391029357910156,7.587640762329102,-0.06963659077882767,-0.07979192584753036,-0.07620319724082947
0.21176479756832123,5.170590400695801,8.003992080688477,-0.24189551174640656,-0.059023115783929825,-0.13240113854408264
0.027218356728553772,5.13948392868042,8.238787651062012,-0.29442837834358215,0.08086090534925461,-0.16783028841018677
-0.16899310052394867,5.053342342376709,8.296215057373047,-0.29565006494522095,0.18409408628940582,-0.12751436233520508
-0.10199406743049622,4.8690948486328125,8.621639251708984,-0.31031039357185364,0.10346225649118423,-0.07620319724082947
-0.0014955141814425588,4.6728835105896,9.110074043273926,-0.2376195788383484,-0.06390989571809769,-0.0859767496585846
-0.05892325937747955,4.718347072601318,9.261120796203613,-0.1563768982887268,-0.1543152928352356,-0.10063708573579788
-0.18335004150867462,4.89063024520874,9.160323143005371,0.02626643143594265,-0.2880908250808716,-0.11774080991744995
-0.27427729964256287,4.88345193862915,8.880363464355469,0.11239589750766754,-0.43110546469688416,-0.11346487700939178
-0.08285148441791534,4.8690948486328125,8.583353996276855,0.13621893525123596,-0.44332239031791687,-0.07559234648942947
0.17108681797981262,4.940879821777344,8.487641334533691,0.13499724864959717,-0.23555797338485718,-0.029167955741286278
0.3314059376716614,5.031806945800781,8.592925071716309,0.1313321590423584,-0.0626882016658783,-0.020616095513105392
0.07028916478157043,5.201996326446533,8.051848411560059,0.12522368133068085,0.025884652510285378,-0.032222192734479904
0.12083754688501358,5.182554721832275,7.8819580078125,0.07330167293548584,0.03321481868624687,0.00015271181473508477
0.6017948985099792,5.1514482498168945,7.7455668449401855,-0.182643324136734,0.2781645655632019,0.06306997686624527
0.33858439326286316,5.050949573516846,8.379963874816895,-0.23212195932865143,0.1981435865163803,-0.02244863659143448
0.1423729509115219,5.101198673248291,8.281858444213867,-0.16248537600040436,0.10712733864784241,-0.01511846948415041
0.537188708782196,5.024628639221191,8.372785568237305,-0.15515519678592682,0.16943375766277313,0.0325276181101799
0.24047867953777313,4.955236434936523,8.609675407409668,-0.0525328628718853,0.3844519853591919,-0.0010689827613532543
0.5539384484291077,4.8451666831970215,9.150752067565918,0.13866232335567474,0.3019876182079315,-0.0584886260330677
0.40797626972198486,4.881059169769287,8.358428955078125,0.16431790590286255,-0.15859122574329376,-0.1904316395521164
-0.22881366312503815,4.9863433837890625,8.602496147155762,0.2473931461572647,0.20425204932689667,-0.10674555599689484
0.06550352275371552,4.974379062652588,7.621140003204346,0.2644968628883362,0.17004460096359253,0.02092151902616024
0.05353940650820732,5.450850009918213,7.654639720916748,0.0787992998957634,0.02283041551709175,0.013591351918876171
0.13040883839130402,5.477170944213867,7.992027759552002,-0.026877280324697495,0.2763320207595825,0.049020491540431976
0.0032901312224566936,5.395814895629883,8.470890998840332,0.023823043331503868,0.5041780471801758,0.07895200699567795
0.9203394055366516,5.575276851654053,8.19810962677002,0.45080527663230896,0.6617766618728638,0.08322793990373611
1.7341982126235962,5.599205017089844,7.187740325927734,0.46607646346092224,0.35329878330230713,-0.3046600818634033
0.8030911087989807,4.907380104064941,7.0872416496276855,0.2351761907339096,1.1907703876495361,-0.8782456517219543
-1.5382858514785767,4.505086898803711,6.378367900848389,0.24372805655002594,1.8346034288406372,-0.8232693672180176
-2.326122760772705,5.450850009918213,7.144669532775879,-0.416597843170166,-0.043141089379787445,-0.06948387622833252
-2.0865414142608643,4.304089546203613,10.031908988952637,-0.312142938375473,0.17004460096359253,0.14858859777450562
-0.01824527233839035,4.749454021453857,9.71097183227539,0.5729747414588928,1.748473882675171,0.566408097743988
-0.04695914313197136,6.738786697387695,6.349654197692871,0.5338805317878723,1.9787633419036865,0.38254308700561523
-1.770688772201538,6.834499835968018,6.02183723449707,0.04214845970273018,1.3874632120132446,-0.2020377367734909
-1.8041882514953613,6.2790656089782715,8.039883613586426,-0.2363978922367096,1.0099595785140991,-0.38162681460380554
-2.4457638263702393,4.500301361083984,10.132407188415527,0.23028941452503204,3.1437253952026367,-0.5349494814872742
-3.923032760620117,5.187340259552002,7.029813766479492,0.5033381581306458,3.6201863288879395,-0.48302745819091797
-4.030709743499756,5.6590256690979,5.633901119232178,0.48073679208755493,3.4467055797576904,-0.38040512800216675
-3.666701555252075,6.449255466461182,5.983551979064941,0.16370706260204315,2.6739838123321533,-0.3052709102630615
-3.611666679382324,6.659823417663574,7.130312442779541,0.07574506103992462,2.392383337020874,-0.39078953862190247
-4.921138763427734,6.442076683044434,7.704888820648193,0.22051586210727692,2.209052801132202,-0.6223006248474121
-6.285944938659668,5.826822280883789,5.995516300201416,0.37078428268432617,2.072833776473999,-0.5239542126655579
-6.714559555053711,5.359922885894775,6.069693565368652,0.24067382514476776,1.8162779808044434,-0.21058958768844604
-5.893223285675049,5.706881999969482,6.639484405517578,0.2473931461572647,1.750306487083435,0.01969982497394085
-6.180660724639893,5.939284801483154,5.708078384399414,0.37567105889320374,1.2940036058425903,0.0032069480512291193
-6.546762943267822,5.127519607543945,4.9133620262146,0.31886225938796997,0.9030613303184509,0.0038177953101694584
-5.08654260635376,5.3216376304626465,5.499902725219727,0.08307522535324097,1.240859866142273,0.07956285774707794
-4.691427707672119,5.577669620513916,6.411867141723633,0.09712471067905426,1.7008278369903564,-0.13179029524326324
-6.309873104095459,5.865107536315918,4.501497745513916,0.2229592502117157,1.5114651918411255,-0.31443363428115845
-6.886842727661133,5.670989513397217,3.852743625640869,0.13988402485847473,1.4125078916549683,-0.28999972343444824
-7.7007012367248535,5.608776092529297,4.274179458618164,-0.15515519678592682,1.5585004091262817,-0.07314895838499069
-6.958627223968506,5.953641891479492,4.750650405883789,-0.13866232335567474,1.1724449396133423,0.08628217875957489
-6.9945197105407715,6.09960412979126,4.281357765197754,-0.0653606578707695,-0.3352024257183075,0.05635065957903862
-5.699404239654541,5.338387489318848,5.4520463943481445,-0.016492875292897224,-0.179360032081604,0.03130592033267021
-6.498906135559082,5.810072422027588,3.5030922889709473,-0.05008947476744652,0.1333937644958496,-0.14034216105937958
-6.76002311706543,5.92014217376709,3.25663161277771,-0.1948602795600891,-0.023593975231051445,-0.18676654994487762
-6.831807613372803,5.960820198059082,3.6083765029907227,-0.3396310806274414,-0.3461976945400238,-0.20631365478038788
-6.709774017333984,5.749952793121338,5.219643592834473,-0.4453076422214508,-1.2026054859161377,-0.19776180386543274
-6.764808654785156,5.647061347961426,5.8372907638549805,-0.38422292470932007,-1.5306304693222046,-0.17271706461906433
-6.546762943267822,5.156233787536621,5.880660533905029,-0.15332266688346863,-1.7542005777359009,-0.0462716780602932
-5.6324052810668945,4.960022449493408,5.995516300201416,-0.05925218388438225,-1.7627525329589844,0.10888352245092392
-5.2109694480896,5.44845724105835,6.850052833557129,-0.005497625097632408,-1.2997303009033203,0.17180079221725464
-4.746462821960449,5.551348686218262,6.440880298614502,0.18630841374397278,-0.5190674662590027,0.05512896552681923
-5.306682586669922,5.670989513397217,5.111966609954834,0.13377554714679718,-0.16225630044937134,-0.09513945877552032
-5.713761329650879,5.508277893066406,5.3802618980407715,-0.07391251623630524,-0.03092414326965809,-0.08964183181524277
-6.238088607788086,5.544169902801514,6.263512134552002,-0.05008947476744652,-0.14332003891468048,0.05757235363125801
-5.0362935066223145,5.570491313934326,4.970789909362793,0.08368607610464096,-0.27770644426345825,-0.111021488904953
-5.840580940246582,5.6925249099731445,5.408975601196289,-0.13438639044761658,-0.41705596446990967,-0.18737739324569702
-5.682654857635498,5.2283172607421875,6.6107707023620605,-0.20096874237060547,-0.18241426348686218,-0.08780929446220398
-4.9139604568481445,5.283352375030518,7.05852746963501,-0.07635590434074402,0.40583163499832153,0.04474456235766411
-5.100899696350098,5.558526992797852,6.411867141723633,0.10262233763933182,0.7185854315757751,0.04474456235766411
-5.9315080642700195,5.429314613342285,5.02343225479126,0.1313321590423584,0.7790593504905701,0.036192700266838074
-6.214160442352295,5.141876697540283,4.915754795074463,-0.1172826737165451,1.2982795238494873,0.20356485247612
-5.232504844665527,5.66620397567749,5.492724418640137,-0.2718270421028137,1.7240400314331055,0.23655059933662415
-4.600500583648682,5.936892032623291,6.275476455688477,-0.1557660549879074,1.375246286392212,-0.04871506989002228
-6.479763507843018,5.78135871887207,6.072086334228516,0.1569877415895462,0.815710186958313,-0.3089359998703003
-8.4502534866333,5.642275810241699,2.7825536727905273,0.3817795515060425,-0.61313796043396,-0.23929941654205322
-6.419943332672119,5.163412094116211,4.386641979217529,-0.02993151545524597,-0.7017107605934143,0.11438114941120148
-5.754439353942871,5.326423168182373,4.812863826751709,-0.20707722008228302,-0.12132953852415085,-0.0035123717971146107
-6.508477687835693,5.72841739654541,4.740779876708984,-0.4227063059806824,-0.3315373361110687,-0.1904316395521164
-7.133303165435791,5.400600910186768,6.282654762268066,-0.46668729186058044,-1.376697063446045,-0.21364383399486542
-6.913163661956787,5.31685209274292,6.969694137573242,-0.2345653474330902,-2.553799629211426,-0.029778804630041122
-5.268397331237793,5.225924491882324,6.627520561218262,0.006719320081174374,-2.9258055686950684,0.08933641016483307
-4.238885402679443,5.405386447906494,6.897909641265869,-0.046424392610788345,-2.4004769325256348,0.00992626789957285
-4.064209461212158,5.182554721832275,7.527521133422852,-0.0787992998957634,-1.5996562242507935,-0.09697200357913971
-4.870889663696289,5.3694939613342285,7.391129970550537,0.015271181240677834,-1.3485980033874512,-0.15744587779045105
-4.940281391143799,5.4795637130737305,6.629913330078125,0.02748812735080719,-1.9942635297775269,-0.14767232537269592
-4.471288204193115,5.4795637130737305,6.33290433883667,-0.021990500390529633,-2.29724383354187,-0.17454960942268372
-3.4082767963409424,5.465207099914551,5.607579708099365,-0.26632940769195557,-2.442014694213867,-0.27839362621307373
-3.310171127319336,4.909772872924805,5.5142598152160645,-0.7568397521972656,-2.226996421813965,-0.48730340600013733
-3.7002010345458984,4.610371112823486,5.966802597045898,-1.0049201250076294,-2.131704330444336,-0.5502206683158875
-3.889533281326294,4.325624942779541,7.767102241516113,-1.3500487804412842,-2.1653008460998535,-0.45920443534851074
-3.4154551029205322,4.48833703994751,9.91705322265625,-1.239485502243042,-2.32351016998291,-0.2838912606239319
-2.8863422870635986,4.337589263916016,9.7636137008667,-1.0434035062789917,-2.262425422668457,-0.19287502765655518
-2.7427730560302734,4.763810634613037,10.089336395263672,-0.7568397521972656,-1.4109044075012207,-0.11529742181301117
-2.5007987022399902,4.5577287673950195,9.39033317565918,-0.573585569858551,-1.219098448753357,-0.04199574887752533
-2.4098715782165527,3.9687955379486084,8.777471542358398,-0.6267293095588684,-1.5917152166366577,0.07650861889123917
-1.8592232465744019,3.7797625064849854,9.277871131896973,-0.6456655263900757,-1.774969458580017,0.15897299349308014
-1.2990036010742188,3.8922250270843506,11.74606704711914,-0.42698222398757935,-1.4890929460525513,0.17485502362251282
-0.2431706041097641,3.2745778560638428,11.88724422454834,0.1044548824429512,-1.3553173542022705,0.13392825424671173
-0.35084763169288635,3.183650493621826,10.611270904541016,0.7098045349121094,-1.1659547090530396,0.06245913356542587
-0.3556332588195801,4.600799560546875,7.515556812286377,0.9364288449287415,-0.6375718116760254,0.025197450071573257
-0.4082753658294678,4.6728835105896,7.101598739624023,0.7244648337364197,-0.4146125912666321,-0.020005248486995697
-0.9110672473907471,4.720739841461182,6.546164512634277,0.420873761177063,-0.33764582872390747,-0.012675080448389053
-1.155434250831604,4.785346031188965,6.924230575561523,0.043981000781059265,-0.36696648597717285,0.08322793990373611
-0.12831512093544006,4.754239559173584,8.779864311218262,-0.18081079423427582,-0.7438592314720154,0.08383878320455551
-0.04217349737882614,5.01505708694458,8.94257640838623,-0.08490777015686035,-0.48730340600013733,0.09544488787651062
0.4055834412574768,4.7590250968933105,8.96650505065918,0.15515519678592682,0.19570018351078033,0.1119377613067627
-0.030209386721253395,4.72791862487793,8.542675971984863,0.34451785683631897,0.4217136800289154,-0.0022906772792339325
-0.42023947834968567,4.806881427764893,7.8795647621154785,0.4300364851951599,0.31053948402404785,-0.04504998400807381
-0.5377869009971619,5.245067119598389,7.52512788772583,0.3164188861846924,0.1847049444913864,0.007482878863811493
-0.3412763178348541,5.156233787536621,7.984848976135254,0.16126367449760437,0.0552053228020668,-0.011453386396169662
-0.45134615898132324,4.914558410644531,8.044670104980469,0.1820324808359146,0.2525089979171753,-0.04993676394224167
-0.7387840151786804,5.158626556396484,7.977670669555664,0.2107423096895218,0.48279839754104614,-0.013285927474498749
-0.9158528447151184,5.264209747314453,7.83410120010376,0.10689827054738998,0.48340925574302673,0.001985253533348441
-1.4784653186798096,4.909772872924805,7.762316703796387,0.056808795779943466,0.6648308634757996,0.09300149232149124
-1.6175481081008911,5.062913417816162,8.365607261657715,0.06963659077882767,0.3594072461128235,0.08994726091623306
-1.3420743942260742,5.02223539352417,7.901100158691406,0.021990500390529633,-0.12438376992940903,0.03374931216239929
-1.1410772800445557,4.936093807220459,8.023134231567383,-0.0030542362947016954,-0.004657710436731577,0.03924693539738655
-1.339681625366211,4.991128921508789,9.342476844787598,0.13866232335567474,-0.10605835169553757,-0.03405473381280899
-1.3660026788711548,4.89063024520874,9.069396018981934,0.3781144618988037,0.12545275688171387,0.024586603045463562
-1.466501235961914,5.024628639221191,8.236394882202148,0.47768256068229675,0.21585814654827118,0.06306997686624527
-1.6199408769607544,5.01505708694458,7.910671710968018,0.4575245976448059,0.2531198263168335,0.09605573117733002
-1.9716858863830566,5.19960355758667,8.02791976928711,0.40193748474121094,0.36062896251678467,0.23716144263744354
-0.9110672473907471,5.661418437957764,8.573782920837402,0.5118899941444397,0.5261685848236084,0.45523393154144287
-0.49232324957847595,5.589633464813232,7.984848976135254,0.5430431962013245,0.8358681201934814,0.2939702570438385
-1.1985050439834595,5.467599868774414,7.348059177398682,0.448361873626709,1.0728768110275269,0.11315945535898209
-1.6103696823120117,5.429314613342285,7.099205493927002,0.37567105889320374,1.2182585000991821,0.09544488787651062
-2.6108686923980713,5.410171985626221,6.387938976287842,0.17286977171897888,1.4418286085128784,0.20600824058055878
-2.9940192699432373,5.6590256690979,6.2036919593811035,0.01954711228609085,1.3459255695343018,0.2805316150188446
-2.850450038909912,6.26231575012207,6.981658458709717,-0.28343313932418823,0.8963419795036316,0.358720064163208
-1.4330016374588013,5.860321521759033,7.752745151519775,-0.4868452548980713,0.35207709670066833,0.23288552463054657
-1.3348959684371948,5.939284801483154,7.69531774520874,-0.5528167486190796,0.422324538230896,-0.04321744292974472
-2.1415762901306152,5.4628143310546875,7.29302453994751,-0.6432221531867981,0.13766969740390778,-0.28694549202919006
-3.204587697982788,5.589633464813232,8.135895729064941,-0.7751652002334595,-0.3626905679702759,-0.20631365478038788
-1.674975872039795,5.26181697845459,9.392725944519043,-0.4306473135948181,-1.1836693286895752,-0.1360662281513214
-1.3899308443069458,5.225924491882324,8.803792953491211,-0.13438639044761658,-1.051726222038269,-0.24662958085536957
-1.6773686408996582,5.2977094650268555,8.590532302856445,0.015271181240677834,-0.7169819474220276,-0.24662958085536957
-1.9836499691009521,5.0102715492248535,9.038289070129395,0.12644538283348083,-0.399952232837677,-0.10552386194467545
-2.0482561588287354,5.046164035797119,8.257929801940918,0.3298575282096863,-0.05291464552283287,0.049020491540431976
-2.1655044555664062,5.141876697540283,7.12074089050293,0.32374903559684753,0.018554486334323883,0.1620272397994995
-1.9812572002410889,5.0581278800964355,7.391129970550537,0.2211267054080963,-0.10605835169553757,0.20967331528663635
-1.5598212480545044,5.230710506439209,8.28425121307373,0.09773556143045425,-0.7560762166976929,0.10521844029426575
-0.8201399445533752,5.249852657318115,8.456534385681152,0.2241809368133545,-0.5966450572013855,0.05390727147459984
-0.664606511592865,5.252245903015137,8.229216575622559,0.30664533376693726,-0.3358132839202881,0.016645587980747223
-1.1338988542556763,5.221138954162598,7.479664325714111,0.3903313875198364,0.11445750296115875,-0.032222192734479904
-1.3899308443069458,5.32403039932251,7.163811683654785,0.34451785683631897,0.1859266310930252,0.001374406274408102
-1.3492528200149536,5.424529075622559,7.5708909034729,0.2107423096895218,0.1486649513244629,0.10155335813760757
-0.9876375198364258,5.441278457641602,8.621639251708984,0.22479179501533508,0.03443651273846626,0.09361234307289124
-1.0908280611038208,5.26899528503418,8.961718559265137,0.4862344264984131,0.17615307867527008,0.03924693539738655
-1.7276179790496826,5.592026710510254,7.9728851318359375,0.7049177289009094,0.32642149925231934,0.07101099193096161
-1.5430715084075928,5.7981085777282715,6.7902326583862305,0.5748072862625122,0.25922831892967224,0.14797775447368622
-1.0019944906234741,5.697310924530029,6.8859453201293945,0.2754921019077301,0.37834352254867554,0.13453911244869232
-1.0402796268463135,5.694917678833008,7.522735118865967,0.08246438205242157,0.7582905292510986,0.11621369421482086
-1.394716501235962,5.79571533203125,8.229216575622559,0.006108472589403391,0.9409338235855103,0.10644013434648514
-1.54067862033844,5.872285842895508,8.470890998840332,0.02993151545524597,0.9299386143684387,0.09666658192873001
-1.730010747909546,5.996712684631348,8.40149974822998,0.17531315982341766,0.6996491551399231,0.07589777559041977
-1.521536111831665,6.015855312347412,7.609176158905029,0.291374146938324,0.24456797540187836,-0.011453386396169662
-1.394716501235962,6.0278191566467285,7.273881912231445,0.3151971995830536,0.023441264405846596,-0.09636115282773972
-1.679761528968811,6.123532295227051,7.6737823486328125,0.37078428268432617,0.4992912709712982,-0.10308047384023666
-1.832902193069458,6.03021240234375,7.163811683654785,0.38422292470932007,0.5628194212913513,-0.12690351903438568
-2.1296122074127197,5.97517728805542,6.34726095199585,0.2858765125274658,0.8309813141822815,-0.0975828468799591
-2.7523441314697266,6.293422698974609,6.148656845092773,0.054365407675504684,0.7222505211830139,-0.06581879407167435
-2.429013967514038,6.44686222076416,6.632306098937988,-0.13621893525123596,0.0942995473742485,-0.09269607067108154
-1.9597218036651611,6.03021240234375,7.082456111907959,-0.28160059452056885,-0.17691664397716522,-0.48791423439979553
-2.476870536804199,5.936892032623291,7.802994728088379,-0.34573954343795776,-0.18669019639492035,-0.4133908748626709
-2.139183521270752,6.013462543487549,8.008777618408203,-0.2522799074649811,-0.3608580231666565,-0.3364241421222687
-1.9094724655151367,6.092425346374512,7.5442705154418945,-0.17653486132621765,-0.6491779088973999,-0.35108447074890137
-1.7754744291305542,5.855535984039307,7.046563625335693,-0.2113531529903412,-1.0101886987686157,-0.40483900904655457
-1.892722725868225,5.812465190887451,7.180561542510986,-0.35917818546295166,-1.283237338066101,-0.39506545662879944
-1.5023934841156006,5.757131099700928,7.848458290100098,-0.46546560525894165,-1.2099356651306152,-0.25945737957954407
-1.296610713005066,5.493920803070068,8.023134231567383,-0.39888325333595276,-0.9295567870140076,-0.2435753494501114
-1.0788638591766357,5.391029357910156,7.8317084312438965,-0.41354358196258545,-1.0059127807617188,-0.23258009552955627
-0.7746763229370117,5.434100151062012,7.704888820648193,-0.474017471075058,-1.0230164527893066,-0.24540787935256958
-0.6957131624221802,5.6207404136657715,8.114360809326172,-0.5234960913658142,-0.9142856597900391,-0.24724042415618896
-0.28624141216278076,5.6207404136657715,8.686544418334961,-0.4868452548980713,-0.8568660020828247,-0.2680092453956604
-0.21684955060482025,5.546562671661377,8.760722160339355,-0.3665083646774292,-0.7786775231361389,-0.3474193811416626
-0.7172485589981079,5.568098068237305,8.473283767700195,-0.3127537965774536,-0.7572978734970093,-0.31260108947753906
-0.7603194117546082,5.278566837310791,8.379963874816895,-0.2883199155330658,-0.4769189953804016,-0.10979979485273361
-0.5306084156036377,5.398207664489746,8.720044136047363,-0.23334364593029022,-0.16042375564575195,0.08811471611261368
0.10408778488636017,5.4867424964904785,8.796614646911621,-0.18691925704479218,-0.10911259055137634,0.14064757525920868
0.0849452018737793,5.4628143310546875,8.552247047424316,-0.18142163753509521,-0.1005607321858406,0.08872556686401367
0.03439682722091675,5.249852657318115,8.684151649475098,-0.21746163070201874,-0.07979192584753036,0.07589777559041977
-0.0852443054318428,5.122734069824219,8.882756233215332,-0.13744063675403595,-0.06757497787475586,0.0850604772567749
-0.054137613624334335,5.209175109863281,8.8707914352417,-0.047646086663007736,-0.179360032081604,0.06856760382652283
-0.01585244946181774,5.153841018676758,8.8109712600708,-0.012216945178806782,-0.23800136148929596,0.051463883370161057
-0.07088737189769745,5.0581278800964355,8.808578491210938,0.07330167293548584,-0.20929154753684998,0.04352286830544472
-0.09002995491027832,5.043771266937256,8.868398666381836,0.19363857805728912,-0.0755159929394722,0.09361234307289124
0.17587246000766754,5.2283172607421875,8.293822288513184,0.3658975064754486,0.0130568603053689,0.1516428291797638
0.24526432156562805,5.288137912750244,7.82692289352417,0.32069480419158936,0.05703786388039589,0.11804623156785965
0.03678964823484421,5.3312087059021,7.527521133422852,0.21318569779396057,0.18226155638694763,0.10827267915010452
-0.07806584239006042,5.319244861602783,7.434200763702393,0.10262233763933182,0.20180866122245789,0.1382041871547699
0.13519448041915894,5.388636589050293,7.609176158905029,-0.004275931045413017,0.04909684881567955,0.14675605297088623
0.3888336718082428,5.340780258178711,8.00638484954834,-0.06047387793660164,0.0558161698281765,0.10460758954286575
0.1423729509115219,5.237888813018799,8.257929801940918,-0.021379653364419937,0.056427016854286194,0.01847812905907631
-0.20488543808460236,5.20678186416626,8.19810962677002,0.055587101727724075,0.04909684881567955,0.008093725889921188
0.6714858412742615,5.1442694664001465,8.344071388244629,0.10078980028629303,-0.6516213417053223,-0.08842013776302338
0.3194418251514435,5.1514482498168945,7.9585280418396,0.09590301662683487,-0.17569494247436523,-0.10308047384023666
0.6427719593048096,5.742774486541748,8.590532302856445,0.208298921585083,0.008170082233846188,0.01175880990922451
0.7097710371017456,5.687739372253418,8.475676536560059,0.3836120665073395,0.16637952625751495,-0.05238015204668045
0.3888336718082428,5.810072422027588,6.962515830993652,0.6358919739723206,0.9482640027999878,-0.17149536311626434
0.18783657252788544,5.867500305175781,7.204489707946777,0.5234960913658142,1.083261251449585,-0.21120044589042664
0.2069791555404663,5.508277893066406,7.616354465484619,0.5131117105484009,1.0759310722351074,-0.32787227630615234
-0.47527438402175903,5.565705299377441,7.1494550704956055,0.5131117105484009,1.0319501161575317,-0.5031854510307312
-1.2798609733581543,5.927320957183838,5.880660533905029,0.3005368411540985,0.6483380198478699,-0.6546755433082581
-2.4864418506622314,5.72123908996582,7.072884559631348,-0.24189551174640656,0.7619556188583374,-0.6210789680480957
-2.0267207622528076,5.639883041381836,7.915457248687744,-0.3439069986343384,0.8865684270858765,-0.39567631483078003
-1.887937068939209,5.587240695953369,7.537092208862305,-0.38666632771492004,0.9775846600532532,-0.4121691882610321
-2.8600213527679443,6.013462543487549,7.206882476806641,-0.5241069197654724,1.116857886314392,-0.4372139275074005
-2.546262502670288,5.4867424964904785,8.394320487976074,-0.4569137394428253,1.1492327451705933,-0.38101598620414734
-2.560619354248047,5.1514482498168945,9.842875480651855,-0.13927318155765533,0.8334247469902039,-0.38040512800216675
-2.3356940746307373,5.280959606170654,9.217751502990723,0.3542914092540741,1.162671446800232,-0.24785128235816956
-2.177767753601074,6.1211395263671875,7.558926582336426,0.5607577562332153,1.6757831573486328,-0.28755635023117065
-2.56301212310791,6.3101725578308105,6.167799472808838,0.37689274549484253,1.5010807514190674,-0.525175929069519
-3.8799619674682617,5.841179370880127,6.694519519805908,0.10384403169155121,1.1205229759216309,-0.6436802744865417
-4.655535697937012,5.419743061065674,7.474878787994385,0.004886778071522713,1.2970577478408813,-0.42194274067878723
-4.135993957519531,5.60399055480957,7.3313093185424805,0.009773556143045425,1.901796579360962,-0.1501157134771347
-3.3699915409088135,6.03739070892334,6.92901611328125,0.01954711228609085,2.1485788822174072,-0.20692451298236847
-3.8943188190460205,6.013462543487549,6.356832504272461,0.08796200156211853,1.727094292640686,-0.5129590034484863
-5.237290382385254,5.627918720245361,6.627520561218262,0.15087927877902985,1.4705383777618408,-0.5777087807655334
-6.005685806274414,6.1929240226745605,6.292226314544678,0.31886225938796997,1.6672312021255493,-0.4121691882610321
-6.043971061706543,5.759823322296143,5.059324264526367,0.4068242609500885,1.1412917375564575,-0.4359922409057617
-7.492526054382324,5.737988471984863,3.460021495819092,0.1557660549879074,-0.22578442096710205,-0.40361732244491577
-6.50608491897583,5.304887771606445,6.1103715896606445,-0.24067382514476776,-0.6516213417053223,-0.20570281147956848
-5.97936487197876,5.091627597808838,7.257132053375244,-0.182643324136734,-1.150072693824768,-0.18798823654651642
-5.7185468673706055,5.757131099700928,7.233203887939453,-0.006108472589403391,-2.1445319652557373,-0.21303297579288483
-4.961816787719727,5.759823322296143,7.304988384246826,0.1313321590423584,-3.3852391242980957,-0.35169529914855957
-3.954139471054077,5.443671703338623,6.6107707023620605,-0.045202698558568954,-3.8592567443847656,-0.47203221917152405
-3.475275754928589,5.314459323883057,7.484450340270996,-0.33413344621658325,-2.9093127250671387,-0.4512633979320526
-2.474477767944336,5.1442694664001465,8.681758880615234,-0.3823903799057007,-1.7884080410003662,-0.3749074935913086
-2.2974088191986084,5.115555763244629,8.765507698059082,-0.3023693859577179,-1.0334008932113647,-0.3852919042110443
-2.927020311355591,5.295316696166992,8.348856925964355,-0.20096874237060547,-0.9167290329933167,-0.34314343333244324
-3.032304525375366,5.489135265350342,7.541877746582031,-0.18691925704479218,-1.1909993886947632,-0.21914145350456238
-1.8376877307891846,4.866702079772949,7.89631462097168,-0.1459924876689911,-0.11705360561609268,0.19562382996082306
-1.7132610082626343,5.050949573516846,8.140681266784668,-0.23090025782585144,0.02405211143195629,0.18035265803337097
-2.3380868434906006,4.967200756072998,8.887541770935059,-0.1966928243637085,0.2402920424938202,0.21272756159305573
-2.436192512512207,5.041378021240234,9.330513000488281,0.036039989441633224,0.5622085332870483,0.3599417507648468
-2.381157636642456,5.26181697845459,8.81814956665039,0.3151971995830536,0.579312264919281,0.4253024160861969
-2.093719720840454,5.364708423614502,7.893921852111816,0.6853706240653992,1.144345998764038,0.5010474920272827
-2.6898317337036133,5.350351333618164,7.192525863647461,0.6896465420722961,1.5511702299118042,0.5645755529403687
-3.5207393169403076,5.359922885894775,6.421438694000244,0.6175665855407715,1.6403539180755615,0.6757497787475586
-3.671487331390381,5.4628143310546875,5.042574405670166,0.4556920528411865,1.2396382093429565,0.8083036541938782
-2.788236618041992,6.410970211029053,5.040181636810303,0.046424392610788345,0.16821207106113434,0.6891884207725525
-1.5430715084075928,5.8387861251831055,6.436094760894775,-0.4080459773540497,-0.5099047422409058,0.2408265322446823
-2.529512643814087,5.1514482498168945,8.468498229980469,-0.5375455617904663,-0.9142856597900391,-0.15561333298683167
-3.2452657222747803,4.849952220916748,8.65035343170166,-0.38849884271621704,-1.486649513244629,-0.18004722893238068
-3.6308093070983887,4.921737194061279,8.585746765136719,-0.32130566239356995,-1.7664175033569336,-0.04443913698196411
-2.232802629470825,4.902594566345215,8.353643417358398,-0.2736595869064331,-2.1860697269439697,0.12659808993339539
-1.485643744468689,4.957629203796387,8.02791976928711,-0.3151971995830536,-2.2495977878570557,0.0716218426823616
-1.028315544128418,5.180161952972412,7.51077127456665,-0.4355340898036957,-1.5807199478149414,0.12048961967229843
-1.0211371183395386,5.3216376304626465,7.513164043426514,-0.5870242118835449,-0.5233433842658997,0.20784078538417816
-1.5550355911254883,5.027021408081055,8.226823806762695,-0.7275190949440002,0.06620056927204132,0.2579302489757538
-2.1897318363189697,4.8690948486328125,9.002396583557129,-0.6358919739723206,0.22868594527244568,0.33978378772735596
-1.789831280708313,5.038985252380371,9.102895736694336,-0.21379654109477997,0.2812187969684601,0.5780141949653625
-0.9134600162506104,5.252245903015137,8.873184204101562,0.14660334587097168,0.24823305010795593,0.5841227173805237
-0.6789634227752686,5.125126838684082,8.281858444213867,0.3689517378807068,0.13033953309059143,0.3465031087398529
-0.8273184299468994,5.117948532104492,7.685746192932129,0.3946073353290558,0.0692548081278801,0.21333840489387512
-0.8919246196746826,5.017449855804443,7.228417873382568,0.27060532569885254,-0.06329904496669769,0.1113269105553627
-1.1099705696105957,4.948058128356934,7.204489707946777,0.07452336698770523,-0.1659213900566101,0.04230117425322533
-1.2080763578414917,4.9384870529174805,7.446165084838867,-0.11178504675626755,-0.04497363045811653,0.03924693539738655
-1.5669996738433838,4.940879821777344,7.802994728088379,-0.23823043704032898,0.08758022636175156,0.03008422814309597
-1.9046868085861206,4.926522731781006,8.121539115905762,-0.2742704153060913,0.05154023692011833,0.0587940476834774
-1.8400806188583374,4.950450897216797,8.370392799377441,-0.2357870489358902,-0.0749051421880722,0.12171131372451782
-1.7252250909805298,5.01505708694458,8.643174171447754,-0.15271180868148804,-0.17080816626548767,0.14248012006282806
-1.828116536140442,5.156233787536621,8.734400749206543,-0.017714571207761765,-0.1402658075094223,0.17424418032169342
-1.789831280708313,5.1921257972717285,8.705686569213867,0.08918370306491852,-0.3174878656864166,0.1901262104511261
-1.4880366325378418,5.264209747314453,8.485248565673828,0.16004198789596558,-0.48791423439979553,0.17241163551807404
-1.1530413627624512,5.374279499053955,8.131110191345215,0.1575985997915268,-0.3712424337863922,0.14797775447368622
-1.0621141195297241,5.364708423614502,7.910671710968018,0.056808795779943466,-0.21662171185016632,0.09605573117733002
-1.0139585733413696,5.422136306762695,7.8795647621154785,-0.07635590434074402,-0.059023115783929825,0.06062658876180649
-0.9613165259361267,5.367101192474365,8.253144264221191,-0.1832541823387146,0.1217876747250557,0.012369656935334206
-1.5358930826187134,5.2043890953063965,8.348856925964355,-0.20035789906978607,0.4479801058769226,0.022754060104489326
-1.9046868085861206,4.971986293792725,7.9250288009643555,-0.09834641218185425,0.5707604289054871,0.10644013434648514
-1.3109676837921143,4.871487617492676,8.363214492797852,-0.06291726976633072,-0.0492495596408844,0.030695075169205666
-1.435394525527954,5.1203413009643555,8.6336030960083,-0.051922015845775604,-0.5942016839981079,-0.059710320085287094
-1.3205389976501465,4.969593524932861,8.604888916015625,0.13682979345321655,-0.285647451877594,-0.019394399598240852
-1.6414763927459717,5.182554721832275,8.635995864868164,0.2339545041322708,-0.154926136136055,0.011147962883114815
-1.1961122751235962,5.26181697845459,8.272287368774414,0.37322768568992615,-0.11155597865581512,0.10033166408538818
-0.9014959335327148,5.592026710510254,8.234002113342285,0.4312581717967987,-0.09261971712112427,0.06734590977430344
-0.9230313301086426,5.757131099700928,8.116753578186035,0.4581354558467865,0.08635853230953217,0.009315420873463154
-1.344467282295227,5.618347644805908,7.712067604064941,0.4947862923145294,0.4601970613002777,0.021532366052269936
-1.576570987701416,5.513063430786133,7.068099021911621,0.4709632396697998,0.7576796412467957,0.10033166408538818
-1.5478571653366089,5.5345988273620605,6.155835151672363,0.312142938375473,0.8273162841796875,0.16874656081199646
-1.454537034034729,5.292923450469971,6.050550937652588,0.05375456064939499,0.898174524307251,0.20234315097332
-1.217647671699524,4.914558410644531,6.419045925140381,-0.08124268800020218,1.038669466972351,0.20722992718219757
-1.0668997764587402,4.799703121185303,6.596413612365723,-0.10140064358711243,1.0576056241989136,0.12720894813537598
-0.8943174481391907,4.696811676025391,6.675376892089844,-0.130721315741539,1.0215656757354736,-0.06520794332027435
-0.9445667266845703,4.715954303741455,6.6490559577941895,-0.1832541823387146,0.953761637210846,-0.2026485800743103
-1.2894322872161865,4.385445594787598,6.548557281494141,-0.3023693859577179,0.9177216291427612,-0.45676103234291077
-1.9573289155960083,4.1629133224487305,6.718447685241699,-0.41537612676620483,0.9226084351539612,-0.6699467301368713
-2.7233312129974365,4.928915500640869,7.065706253051758,-0.5265503525733948,0.944598913192749,-0.7481352090835571
-3.4896326065063477,5.367101192474365,8.808578491210938,0.02626643143594265,0.8535826802253723,0.4643966257572174
-4.258028030395508,5.4867424964904785,6.491129398345947,0.49417543411254883,1.5078001022338867,0.598783016204834
-3.4393835067749023,5.651846885681152,5.890232086181641,0.3054236173629761,1.5798801183700562,0.5896202921867371
-3.4345977306365967,5.853143215179443,5.736792087554932,0.010995250195264816,1.7643558979034424,0.36788275837898254
-4.442574501037598,5.999105453491211,5.7272210121154785,-0.17836740612983704,1.8120020627975464,0.125987246632576
-4.672285079956055,5.362315654754639,6.239583969116211,-0.21379654109477997,1.754582405090332,0.04963133856654167
-6.20219612121582,5.8938212394714355,4.4512481689453125,0.11178504675626755,1.5078001022338867,0.08139539510011673
-6.76002311706543,6.437291145324707,3.7833516597747803,-0.022601349279284477,0.5554892420768738,0.11743538826704025
-6.055934906005859,6.178566932678223,4.37228536605835,-0.22601348161697388,-0.17691664397716522,0.1241547018289566
-5.938686847686768,5.881857395172119,4.523033142089844,-0.5051707029342651,-0.737750768661499,-0.05115845799446106
-5.775974750518799,5.484349727630615,6.613163471221924,-0.6933116316795349,-0.7860077023506165,0.10399674624204636
-5.708975791931152,5.493920803070068,7.123134136199951,-0.5265503525733948,-0.8458707332611084,0.17424418032169342
-5.392824172973633,5.484349727630615,7.001100063323975,-0.3029802441596985,-0.9839222431182861,0.22005772590637207
-5.179862976074219,5.544169902801514,6.603592395782471,-0.16126367449760437,-1.0834903717041016,0.22738789021968842
-4.70817756652832,5.527420520782471,6.495915412902832,-0.14660334587097168,-1.1335798501968384,0.2029540091753006
-4.308277130126953,5.465207099914551,6.354439735412598,-0.18936264514923096,-1.1158652305603027,0.13576079905033112
-4.344169616699219,5.493920803070068,6.498308181762695,-0.23823043704032898,-1.03828763961792,0.04963133856654167
-4.293920040130615,5.350351333618164,6.684948444366455,-0.26877278089523315,-0.9955283403396606,0.00259610079228878
-4.073780536651611,5.367101192474365,6.818946361541748,-0.27915719151496887,-1.0211838483810425,-0.01817270554602146
-3.858426570892334,5.376672267913818,6.718447685241699,-0.29320669174194336,-1.1238062381744385,-0.07620319724082947
-3.5350964069366455,5.422136306762695,6.771090030670166,-0.3286358118057251,-1.2526949644088745,-0.17393875122070312
-3.6475589275360107,5.141876697540283,6.61794900894165,-0.3817795515060425,-1.2551383972167969,-0.29794076085090637
-3.923032760620117,5.170590400695801,6.529414653778076,-0.6927008032798767,-1.0999832153320312,-0.2551814317703247
-3.1926236152648926,5.0102715492248535,6.873981475830078,-0.864959716796875,-1.1549594402313232,-0.2435753494501114
-2.7089743614196777,4.904987335205078,7.135097980499268,-1.0330190658569336,-1.2026054859161377,-0.38040512800216675
-2.5725834369659424,4.9384870529174805,7.16859769821167,-1.229711890220642,-1.4182345867156982,-0.6015318632125854
-2.364407777786255,4.545764923095703,7.508378505706787,-1.4031925201416016,-1.7346534729003906,-0.848314106464386
-2.230409860610962,3.5691940784454346,8.573782920837402,-1.414798617362976,-1.848271131515503,-1.084712028503418
-2.4409782886505127,3.5931222438812256,9.419047355651855,-1.465498924255371,-2.143921136856079,-1.1390774250030518
-2.7762725353240967,4.148556232452393,10.082158088684082,-1.5320812463760376,-2.32351016998291,-0.9668185114860535
-4.296313285827637,5.3694939613342285,10.549057960510254,-1.400138258934021,-1.991820216178894,-0.6412369012832642
-4.339384078979492,4.960022449493408,10.484451293945312,-1.1460257768630981,-1.407239317893982,0.06917845457792282
-2.673082113265991,3.1477582454681396,11.279168128967285,-1.0049201250076294,-1.6729578971862793,0.8547280430793762
-0.4465605318546295,1.3043874502182007,12.067004203796387,-0.6077930331230164,-1.8568229675292969,1.5010044574737549
1.339382529258728,-0.012562318705022335,12.177074432373047,-0.024433890357613564,-1.6931158304214478,1.7594691514968872
2.893221616744995,-0.03888336941599846,11.482856750488281,0.6163448691368103,-0.8171609044075012,1.6122549772262573
4.221836566925049,-0.09870393574237823,11.537891387939453,1.1416735649108887,0.18103985488414764,1.0776872634887695
3.30957293510437,1.1437692642211914,11.200204849243164,1.3383663892745972,0.11140327155590057,0.1516428291797638
1.169192910194397,2.7263224124908447,9.433403968811035,1.461146593093872,0.03626905754208565,-0.402395635843277
0.9418748021125793,3.0137600898742676,8.140681266784668,1.3481398820877075,0.3074852526187897,-0.37735089659690857
1.2005987167358398,3.126222848892212,8.51635456085205,1.0243908166885376,0.60741126537323,-0.32970482110977173
1.1859427690505981,3.1405797004699707,8.803792953491211,0.9138274788856506,0.889622688293457,-0.3345915973186493
0.2476571500301361,3.70558500289917,8.705686569213867,0.7598940134048462,1.5371208190917969,-0.32603973150253296
-0.5545366406440735,4.127020835876465,8.2124662399292,0.32191649079322815,1.3007228374481201,-0.30282753705978394
-0.7507480978965759,3.6768710613250732,7.977670669555664,-0.02870982140302658,0.9830822944641113,-0.3174878656864166
-0.0972084179520607,3.5380873680114746,9.055039405822754,-0.27121618390083313,0.3679591119289398,-0.17943638563156128
-0.10677970945835114,3.6936209201812744,9.102895736694336,-0.1459924876689911,0.32214558124542236,-0.2667875289916992
-0.19531415402889252,3.4229328632354736,9.167501449584961,-0.061084724962711334,0.0008399150101467967,-0.4359922409057617
-0.3484548032283783,3.2889347076416016,9.2826566696167,-0.015271181240677834,-0.20073968172073364,-0.5056288242340088
-1.3731811046600342,3.291327476501465,9.36879825592041,0.130721315741539,-0.478751540184021,-0.510515570640564
-1.7682958841323853,3.4947173595428467,8.954540252685547,0.2638860046863556,-1.1091458797454834,-0.3321481943130493
-1.3971092700958252,3.588336706161499,8.628817558288574,0.3298575282096863,-1.8391083478927612,-0.17454960942268372
-0.3197409212589264,3.8659040927886963,9.189037322998047,0.21196399629116058,-1.909355878829956,-0.07925742864608765
0.8676972985267639,3.983152389526367,9.217751502990723,0.18936264514923096,-1.7572548389434814,-0.029778804630041122
1.4757733345031738,3.887439489364624,9.536295890808105,0.22540263831615448,-1.1696197986602783,-0.13362284004688263
1.389631748199463,4.026223182678223,9.457332611083984,0.2651077210903168,-0.7365291118621826,-0.3205420970916748
0.8772686123847961,4.3447675704956055,9.179466247558594,0.2748812735080719,-0.552664041519165,-0.399952232837677
0.5826523303985596,3.818047523498535,9.431011199951172,0.28221142292022705,-0.3578037917613983,-0.41766682267189026
1.2604193687438965,3.533301830291748,9.148359298706055,0.19119518995285034,-1.0138537883758545,-0.4268295168876648
1.1285150051116943,3.6792638301849365,8.937790870666504,0.21318569779396057,-1.2496408224105835,-0.5044071078300476
0.9394819736480713,3.4707891941070557,8.844470977783203,0.2718270421028137,-1.076160192489624,-0.4915793240070343
1.1356934309005737,3.722334623336792,8.195716857910156,0.3023693859577179,-0.5245651006698608,-0.39567631483078003
1.1979068517684937,3.8132619857788086,8.312965393066406,0.2761029601097107,0.24945475161075592,-0.3248180150985718
0.45583271980285645,4.174877166748047,8.808578491210938,0.12583453953266144,0.49745872616767883,-0.24540787935256958
0.3122633695602417,4.275375843048096,8.990432739257812,-0.0012216945178806782,0.3972797989845276,-0.10246963053941727
0.8294121623039246,4.052544116973877,8.743971824645996,-0.005497625097632408,0.4595862030982971,0.012980503961443901
1.0375877618789673,4.0405802726745605,8.669495582580566,0.017714571207761765,0.5890858173370361,-0.013896775431931019
0.5611169338226318,4.1389851570129395,8.84207820892334,0.01588202826678753,0.45653197169303894,-0.062153708189725876
0.39840495586395264,4.074378967285156,8.909076690673828,0.06413896381855011,0.24640052020549774,-0.0462716780602932
0.5300102233886719,4.129413604736328,9.014361381530762,0.208298921585083,0.18898087739944458,-0.029778804630041122
0.6643074154853821,4.354339122772217,8.846863746643066,0.3414636254310608,0.09857547283172607,-0.06459710001945496
0.5419743061065674,4.54337215423584,8.535497665405273,0.3817795515060425,0.04115583375096321,-0.08108997344970703
0.4701896607875824,4.519443988800049,8.327322006225586,0.3304683566093445,-0.0889546349644661,-0.0719272643327713
0.0487537607550621,4.926522731781006,8.0350980758667,0.18936264514923096,0.11629004776477814,-0.004734066314995289
0.14476576447486877,4.660919189453125,7.467700481414795,0.130721315741539,0.35329878330230713,0.05512896552681923
0.1136590763926506,4.538586139678955,7.920242786407471,0.12216944992542267,0.419881135225296,0.00992626789957285
-0.3412763178348541,4.72791862487793,8.308178901672363,-0.0024433890357613564,-0.21662171185016632,-0.019394399598240852
-0.03978067636489868,4.596014022827148,8.210073471069336,0.01954711228609085,-0.32848310470581055,0.036192700266838074
0.14476576447486877,4.61276388168335,8.147860527038574,0.07269082218408585,-0.09628479927778244,0.055739812552928925
0.20458634197711945,4.6271209716796875,8.679366111755371,0.11300674080848694,-0.05230379477143288,0.03374931216239929
0.09690931439399719,4.814060211181641,8.662317276000977,0.1447708010673523,-0.2728196680545807,-0.026724567636847496
0.09930214285850525,4.88345193862915,8.552247047424316,0.20768806338310242,-0.1555369794368744,-0.02733541466295719
-0.11395817995071411,4.9791646003723145,8.490034103393555,0.25533416867256165,0.11323580890893936,0.005650337319821119
-0.2192423790693283,5.036592483520508,8.442177772521973,0.26999449729919434,0.20913882553577423,0.029473381116986275
-0.4345964193344116,5.137091159820557,8.114360809326172,0.21990501880645752,0.20241950452327728,0.06612421572208405
-0.3652045428752899,5.13948392868042,8.059026718139648,0.08979454636573792,0.13644801080226898,0.09483403712511063
-0.3245265781879425,5.161019325256348,8.157431602478027,0.036039989441633224,0.13705885410308838,0.10338589549064636
-0.39870408177375793,5.225924491882324,8.377571105957031,-0.04947862774133682,0.1492757946252823,0.11315945535898209
-0.4178466498851776,5.19451904296875,8.466105461120605,-0.06841489672660828,0.19142426550388336,0.12659808993339539
-0.4585246443748474,5.086842060089111,8.70090103149414,-0.04092676565051079,0.3044309914112091,0.15530791878700256
-0.5760720372200012,5.074877738952637,8.822935104370117,0.03420744836330414,0.31237202882766724,0.16752485930919647
-0.6358926296234131,5.13230562210083,8.712865829467773,0.09956810623407364,0.2256316989660263,0.1772984117269516
-0.2670988142490387,5.247459888458252,8.564210891723633,0.30847787857055664,-0.010155336000025272,0.11254860460758209
-0.22881366312503815,5.283352375030518,8.403892517089844,0.3280249834060669,0.03687990456819534,0.09177979826927185
-0.264706015586853,5.400600910186768,8.312965393066406,0.30847787857055664,0.09124530851840973,0.06490252166986465
-0.10199406743049622,5.532206058502197,8.0350980758667,0.17714570462703705,0.16760121285915375,0.06490252166986465
-0.13070793449878693,5.529813289642334,8.176573753356934,0.15149012207984924,0.2537306845188141,0.05512896552681923
-0.22881366312503815,5.546562671661377,8.023134231567383,0.1447708010673523,0.18898087739944458,0.03680354729294777
-0.24077777564525604,5.556134223937988,7.960920810699463,0.13866232335567474,0.20241950452327728,0.04046862944960594
-0.7770691514015198,5.539384365081787,7.984848976135254,0.1441599577665329,0.211582213640213,0.06612421572208405
-0.4489533603191376,5.501099109649658,8.085348129272461,0.15210096538066864,0.25922831892967224,0.1626380831003189
-0.3723830282688141,5.38624382019043,8.353643417358398,0.1844758689403534,0.33558422327041626,0.1620272397994995
-0.46331027150154114,5.391029357910156,8.324929237365723,0.26755109429359436,0.3978906273841858,0.10949437320232391
-1.2248260974884033,5.670989513397217,7.712067604064941,0.10017894953489304,0.32764318585395813,0.0850604772567749
-1.124327540397644,5.527420520782471,7.657032489776611,0.051922015845775604,0.3025984466075897,0.13209572434425354
-1.2367901802062988,5.647061347961426,7.786244869232178,0.01588202826678753,0.19631104171276093,0.14675605297088623
-1.1147562265396118,5.618347644805908,8.049455642700195,0.007330167107284069,0.07475243508815765,0.1889045089483261
-0.9996016621589661,5.627918720245361,7.987242221832275,0.02748812735080719,-0.049860406666994095,0.1889045089483261
-0.9900303483009338,5.706881999969482,7.82692289352417,0.023823043331503868,-0.14454172551631927,0.1754658818244934
-0.8560323119163513,5.939284801483154,7.755138397216797,-0.020157959312200546,-0.16286714375019073,0.1913478970527649
-0.6598208546638489,5.929713726043701,7.908278942108154,-0.054365407675504684,-0.16469968855381012,0.19806721806526184
-0.47527438402175903,5.793322563171387,8.262715339660645,-0.07757759839296341,-0.1530935913324356,0.16935740411281586
-0.6191428303718567,5.752345561981201,8.377571105957031,-0.006108472589403391,-0.05963396281003952,0.15286453068256378
-0.544965386390686,5.90578556060791,8.104490280151367,0.08490777015686035,0.06620056927204132,0.1901262104511261
-0.3005983531475067,6.032605171203613,7.795815944671631,0.06658235192298889,0.1737096905708313,0.19745637476444244
-0.4250251352787018,5.886642932891846,7.917850017547607,-0.0036650835536420345,0.21463645994663239,0.13942588865756989
-0.9565308690071106,5.7547383308410645,8.044670104980469,0.02076880633831024,0.24945475161075592,0.09239064902067184
-0.966102123260498,5.831607818603516,8.171788215637207,0.12644538283348083,0.4259895980358124,0.24571330845355988
-0.755533754825592,5.7981085777282715,8.155038833618164,0.22784602642059326,0.6135197281837463,0.2939702570438385
-1.3205389976501465,5.879464149475098,7.800601959228516,0.27854636311531067,0.6196281909942627,0.3092414140701294
-1.2846466302871704,5.958427429199219,7.379166126251221,0.28221142292022705,0.685599684715271,0.40514445304870605
-1.1075778007507324,6.068497180938721,6.850052833557129,0.2870981991291046,0.9391012787818909,0.4387410581111908
-1.1721839904785156,6.3631134033203125,7.223632335662842,-0.015271181240677834,-0.17386239767074585,0.21394924819469452
-0.753140926361084,5.848357677459717,7.558926582336426,-0.1948602795600891,-0.2990860939025879,0.10033166408538818
-1.5430715084075928,5.635097503662109,8.073383331298828,-0.19058434665203094,0.422324538230896,0.15530791878700256
-1.4330016374588013,5.79571533203125,8.552247047424316,-0.08185353130102158,0.7204179763793945,0.3739912211894989
-0.9278169870376587,5.85075044631958,8.758329391479492,0.11361759155988693,0.8346464037895203,0.5028799772262573
-0.7507480978965759,6.09960412979126,8.487641334533691,0.342074453830719,0.7992172837257385,0.49982577562332153
-1.052542805671692,5.994319915771484,7.707281589508057,0.6591041684150696,1.018511414527893,0.4894413650035858
-1.1578270196914673,5.98235559463501,7.3624162673950195,0.7012526392936707,1.0765419006347656,0.5022691488265991
-1.2224332094192505,5.944070339202881,6.500700950622559,0.6536065936088562,1.1278531551361084,0.4906630516052246
-2.062613010406494,6.418148517608643,5.629115104675293,0.1423274129629135,0.8004390001296997,0.46928340196609497
-1.892722725868225,6.372684955596924,5.818148136138916,-0.09895725548267365,0.5444939732551575,0.492495596408844
-2.0865414142608643,6.635895252227783,6.668198585510254,-0.19058434665203094,0.2635042369365692,0.43141087889671326
-1.7539390325546265,6.293422698974609,7.216454029083252,-0.2357870489358902,-0.4543176591396332,0.24876753985881805
-1.064507007598877,6.353542327880859,6.897909641265869,-0.21746163070201874,-0.4628695249557495,0.14858859777450562
-1.1267203092575073,6.351149559020996,6.615556240081787,-0.3261924386024475,-0.29236677289009094,-0.026724567636847496
-1.832902193069458,6.269494533538818,6.749554634094238,-0.48806697130203247,-0.346808522939682,-0.1366770714521408
-1.887937068939209,6.135496139526367,7.194918632507324,-0.6432221531867981,-0.3877353072166443,-0.0859767496585846
-1.6199408769607544,6.10678243637085,7.800601959228516,-0.7250757217407227,-0.4695888161659241,-0.0584886260330677
-1.516750454902649,6.159424781799316,8.52592658996582,-0.6548282504081726,-0.3461976945400238,-0.037108972668647766
-1.5382858514785767,5.72123908996582,9.263513565063477,-0.4312581717967987,-0.18607935309410095,0.015423892997205257
-1.545464277267456,5.5728840827941895,9.285049438476562,-0.03420744836330414,-0.09445225447416306,0.07773031294345856
-1.4162518978118896,5.8220367431640625,8.600103378295898,0.3005368411540985,-0.09200886636972427,0.12965233623981476
-1.0402796268463135,6.137889385223389,7.70967435836792,0.4037700295448303,-0.15614783763885498,0.10705098509788513
-0.755533754825592,6.159424781799316,7.1733832359313965,0.33291175961494446,-0.06146650388836861,0.006261184345930815
-1.2798609733581543,6.336792469024658,7.015456676483154,0.19119518995285034,0.05154023692011833,-0.11835165321826935
-1.3540384769439697,6.379863262176514,7.041778087615967,0.03298575058579445,0.07841751724481583,-0.13545538485050201
-1.0426725149154663,6.401398658752441,7.003492832183838,-0.12827792763710022,0.0686439573764801,-0.1525591015815735
-0.3484548032283783,5.702096462249756,7.936992645263672,-0.2363978922367096,-0.1152210608124733,-0.3889569938182831
-0.6478567123413086,5.513063430786133,7.8556365966796875,-0.17470231652259827,-0.2734304964542389,-0.45737189054489136
-0.7674978375434875,5.402993679046631,8.030312538146973,-0.11056335270404816,-0.15126104652881622,-0.3626905679702759
-0.877567708492279,5.565705299377441,8.327322006225586,-0.014049487188458443,0.0686439573764801,-0.2166980654001236
-0.49710890650749207,5.745167255401611,8.02074146270752,0.06169557198882103,0.2799971103668213,-0.11529742181301117
-0.36999019980430603,5.61116886138916,7.867600917816162,0.21318569779396057,0.3148154020309448,-0.10002623498439789
0.9681958556175232,6.341578006744385,7.422236919403076,0.05497625470161438,-1.2508624792099,-0.3339807391166687
1.4973087310791016,5.776573181152344,7.573283672332764,-0.21196399629116058,-1.2661336660385132,-0.7505785822868347
-0.14027923345565796,5.400600910186768,7.822137355804443,-0.5094466209411621,-1.4817627668380737,-1.0407310724258423
0.3122633695602417,4.66570520401001,8.312965393066406,-0.675597071647644,-1.4903146028518677,-0.9863656163215637
0.39601215720176697,4.849952220916748,8.528319358825684,-0.6621584296226501,-1.3363810777664185,-0.9710944294929504
0.12083754688501358,5.685346603393555,8.95693302154541,-0.6438329815864563,-0.7499676942825317,-0.7346965670585632
0.39601215720176697,5.642275810241699,9.342476844787598,-0.5528167486190796,-0.3339807391166687,-0.5489989519119263
0.6762714982032776,5.240281581878662,9.337691307067871,-0.20096874237060547,0.05337277799844742,-0.39323291182518005
0.1902294009923935,5.290530681610107,8.444570541381836,0.1319430023431778,0.06620056927204132,-0.35536038875579834
0.41515472531318665,5.26899528503418,7.333702087402344,0.3249707520008087,-0.009544488042593002,-0.25029465556144714
0.3242274820804596,5.67338228225708,7.343273639678955,0.20096874237060547,-0.9710944294929504,-0.4164451062679291
0.7360920906066895,5.663811206817627,7.767102241516113,0.055587101727724075,-1.2429214715957642,-0.5312843918800354
1.0998010635375977,5.458028316497803,7.568498134613037,-0.004275931045413017,-0.7597413063049316,-0.6009209752082825
0.4749752879142761,5.450850009918213,7.304988384246826,-0.07024743407964706,-0.2569376230239868,-0.6552863717079163
0.11126625537872314,5.520241737365723,7.254739284515381,-0.17897824943065643,-0.19890713691711426,-0.6198572516441345
0.03439682722091675,5.13230562210083,7.9250288009643555,-0.3903313875198364,-0.22517357766628265,-0.5239542126655579
-0.4465605318546295,5.307280540466309,8.542675971984863,-0.469741553068161,-0.3626905679702759,-0.4659237563610077
-0.4345964193344116,5.388636589050293,8.873184204101562,-0.4178195297718048,-0.36635565757751465,-0.31626617908477783
-0.5018945336341858,5.477170944213867,8.995218276977539,-0.22723518311977386,-0.3100813329219818,-0.15561333298683167
-0.5282155871391296,5.422136306762695,8.92821979522705,-0.07696675509214401,-0.3449759781360626,-0.043828289955854416
-0.3317050337791443,5.836393356323242,8.784649848937988,0.1820324808359146,-0.3639122545719147,0.024586603045463562
0.6834499835968018,5.505885124206543,8.217251777648926,0.06963659077882767,-0.18424680829048157,-0.10674555599689484
-0.3077768087387085,5.1514482498168945,8.425427436828613,0.13927318155765533,0.47974416613578796,-0.0847550556063652
-0.3604189157485962,5.4173502922058105,8.612068176269531,0.26755109429359436,0.7118661403656006,0.10888352245092392
0.46061834692955017,5.702096462249756,8.578568458557129,0.32374903559684753,0.6196281909942627,0.2170034945011139
-0.6885347366333008,5.431707382202148,7.001100063323975,0.3304683566093445,1.2530767917633057,0.10094250738620758
-1.2846466302871704,5.376672267913818,7.156633377075195,0.08796200156211853,1.3599750995635986,0.2145601063966751
-1.54067862033844,5.4628143310546875,7.3145599365234375,0.012827792204916477,1.0954781770706177,0.24876753985881805
-1.4736796617507935,5.977570056915283,7.407879829406738,-0.07574506103992462,-0.21662171185016632,0.16874656081199646
0.18065811693668365,5.608776092529297,7.731209754943848,-0.2522799074649811,-0.7591304183006287,0.04046862944960594
0.4247260093688965,5.161019325256348,7.853243827819824,-0.28037887811660767,-0.7151494026184082,-0.10063708573579788
-0.5353940725326538,4.924129962921143,8.068597793579102,-0.288930743932724,-0.5954233407974243,-0.2722851634025574
-0.6933203339576721,5.048556804656982,8.487641334533691,-0.2241809368133545,-0.3859027624130249,-0.10124793648719788
-0.3125624656677246,5.060520648956299,8.64795970916748,-0.1710372269153595,-0.38040512800216675,-0.018783552572131157
0.11844471842050552,5.223531723022461,8.734400749206543,-0.02993151545524597,-0.33031564950942993,-0.0004581354442052543
0.2356930375099182,5.556134223937988,8.71047306060791,0.12522368133068085,-0.09811734408140182,-0.0010689827613532543
0.37926238775253296,5.197210788726807,8.341678619384766,0.2583884000778198,-0.05963396281003952,-0.0584886260330677
0.7576274871826172,5.994319915771484,7.88913631439209,0.3158080279827118,-0.2202867865562439,-0.2307475507259369
0.137587308883667,5.627918720245361,7.719245910644531,0.21807247400283813,-0.027869906276464462,-0.39262208342552185
-0.5808576941490173,5.551348686218262,7.609176158905029,0.1178935244679451,0.24762220680713654,-0.31443363428115845
-0.6526423692703247,5.647061347961426,7.582854747772217,0.07269082218408585,0.4186594486236572,-0.2283041626214981
-0.42741793394088745,6.032605171203613,7.013063907623291,-0.0910162404179573,0.6684959530830383,-0.13056860864162445
-0.6598208546638489,5.623133182525635,7.6474609375,-0.3365768492221832,1.0563839673995972,-0.18554484844207764
-0.542572557926178,5.046164035797119,8.490034103393555,-0.3793361485004425,1.278732419013977,-0.23258009552955627
-1.3492528200149536,5.300102233886719,8.075776100158691,-0.21501824259757996,1.5847668647766113,-0.21242213249206543
-1.9764715433120728,5.8220367431640625,7.460521697998047,-0.19058434665203094,1.370970368385315,-0.35169529914855957
-1.4473586082458496,5.08444881439209,7.410272598266602,-0.25594499707221985,1.297668695449829,-0.3639122545719147
-2.8456642627716064,5.374279499053955,7.295417308807373,-0.3689517378807068,1.9170677661895752,-0.47325390577316284
-3.791128396987915,5.20678186416626,7.16859769821167,-0.4349232614040375,1.6977735757827759,-0.4750864505767822
-4.23649263381958,5.0102715492248535,6.907480716705322,-0.5222744345664978,1.5438400506973267,-0.2832804024219513
-3.882354736328125,5.276174068450928,7.266703128814697,-0.6975875496864319,1.7655776739120483,-0.03405473381280899
-4.543072700500488,5.161019325256348,8.418249130249023,-0.726908266544342,1.6989953517913818,-0.03161134570837021
-5.110470771789551,4.823631286621094,9.011968612670898,-0.5057815313339233,1.5853776931762695,0.06551336497068405
-4.82542610168457,5.1203413009643555,8.511569023132324,-0.020157959312200546,0.6672742962837219,0.10644013434648514
-4.24367094039917,5.515456199645996,7.427022457122803,0.1044548824429512,-0.12377292662858963,0.1626380831003189
-2.974876642227173,5.544169902801514,7.4246296882629395,0.00916270911693573,-0.2996969223022461,0.04169032722711563
-3.3532419204711914,5.580062389373779,7.716853141784668,-0.0647498071193695,-0.25510507822036743,-0.27595025300979614
-3.3484561443328857,5.568098068237305,7.261917591094971,-0.12278030067682266,-0.4921901822090149,-0.46042612195014954
-3.310171127319336,5.410171985626221,7.321738243103027,-0.2486148327589035,-0.9643751382827759,-0.552664041519165
-3.3771700859069824,5.07009220123291,8.229216575622559,-0.32130566239356995,-1.4237322807312012,-0.5312843918800354
-3.1208388805389404,4.785346031188965,8.31535816192627,-0.24250635504722595,-1.7175498008728027,-0.399952232837677
-2.812164783477783,4.794917583465576,8.43739128112793,-0.14660334587097168,-2.027249336242676,-0.19837264716625214
-2.539083957672119,5.0341997146606445,8.324929237365723,-0.12094775587320328,-2.753546714782715,0.1913478970527649
-1.4808580875396729,4.512265205383301,8.18135929107666,-0.0647498071193695,-2.5122621059417725,0.4503471553325653
-1.2391830682754517,4.617549419403076,7.779066562652588,-0.04153761267662048,-2.26792311668396,0.4637857675552368
-0.41545382142066956,4.660919189453125,7.6666035652160645,-0.15332266688346863,-2.0590133666992188,0.4760027229785919
0.6041877269744873,4.392624378204346,9.043074607849121,-0.34818294644355774,-1.1329689025878906,0.3953709006309509
0.8102695941925049,4.3519463539123535,9.596116065979004,-0.2211267054080963,-0.32909396290779114,0.3581092059612274
0.7145566344261169,4.6199421882629395,9.232406616210938,-0.09590301662683487,-0.0364217683672905,0.2170034945011139
1.0806585550308228,5.060520648956299,9.21296501159668,-0.06291726976633072,-0.16286714375019073,0.10644013434648514
1.217348575592041,4.971986293792725,9.457332611083984,-0.004275931045413017,-0.09506310522556305,-0.04199574887752533
0.23808585107326508,4.900201797485352,9.124430656433105,0.12339114397764206,0.23051849007606506,-0.11651911586523056
-0.4537389874458313,4.806881427764893,8.751151084899902,0.19241689145565033,0.19264595210552216,-0.0261137206107378
-0.26949164271354675,4.921737194061279,8.763114929199219,0.2363978922367096,-0.15065020322799683,0.10155335813760757
-0.9278169870376587,5.266602516174316,8.799007415771484,0.24311721324920654,0.20791713893413544,0.18523943424224854
-1.0163514614105225,5.1921257972717285,8.396714210510254,0.2510582208633423,0.30870693922042847,0.2939702570438385
-1.3157533407211304,5.213960647583008,7.934599876403809,0.17653486132621765,0.41804859042167664,0.34283801913261414
-1.490429401397705,5.089234828948975,7.740781307220459,0.10750912129878998,0.4650838375091553,0.36360684037208557
-1.8472590446472168,4.861916542053223,7.613961696624756,-0.05070032179355621,0.47119230031967163,0.40331190824508667
-2.254338026046753,4.881059169769287,7.836493968963623,-0.19424942135810852,0.2378486543893814,0.39170581102371216
-2.4074785709381104,4.833202838897705,8.00638484954834,-0.25777754187583923,0.19020256400108337,0.3843756318092346
-2.8217360973358154,5.134698390960693,8.590532302856445,-0.31092125177383423,0.3551313281059265,0.3978142738342285
-2.80977201461792,5.02223539352417,8.892327308654785,-0.30725616216659546,0.2390703409910202,0.36849361658096313
-2.323729991912842,4.5816569328308105,8.6336030960083,-0.2754921019077301,0.23296187818050385,0.34283801913261414
-1.9310078620910645,4.155734539031982,8.803792953491211,-0.3139754831790924,0.09063446521759033,0.24510246515274048
-2.2184457778930664,3.650550127029419,9.474081993103027,-0.3286358118057251,-0.2740413546562195,0.07711946964263916
-2.4553351402282715,3.434896945953369,9.785149574279785,-0.2376195788383484,-0.21601086854934692,0.09666658192873001
-2.4218356609344482,3.6768710613250732,9.675079345703125,-0.130721315741539,0.023441264405846596,0.2426590770483017
-2.175374984741211,4.035794258117676,9.356833457946777,-0.10201149433851242,0.21463645994663239,0.33978378772735596
-1.612762451171875,4.34955358505249,9.38315486907959,-0.051922015845775604,0.5848098993301392,0.45767730474472046
-1.6534404754638672,4.536193370819092,8.487641334533691,0.4752391576766968,-0.22822780907154083,0.15469707548618317
-0.8895317912101746,4.675276279449463,7.858029365539551,0.4190412163734436,-0.4366030693054199,-0.21120044589042664
-1.3516457080841064,4.478765964508057,7.415058135986328,0.34512871503829956,-0.33031564950942993,-0.2570139765739441
-1.8472590446472168,4.421338081359863,7.616354465484619,0.16065283119678497,-0.14576342701911926,-0.22708246111869812
-1.852044701576233,4.531407833099365,8.224430084228516,0.06658235192298889,-0.08467870205640793,-0.1782146841287613
-1.856830358505249,4.708775997161865,8.377571105957031,0.13316470384597778,0.12667444348335266,-0.12690351903438568
-1.9956140518188477,4.6271209716796875,8.274680137634277,0.2095206081867218,0.1474432498216629,-0.12934690713882446
-2.3309082984924316,4.706383228302002,8.080561637878418,0.32008397579193115,0.06192464008927345,-0.09086353331804276
-2.3979074954986572,4.837988376617432,7.774280548095703,0.3970507085323334,-0.18424680829048157,0.014813045971095562
-1.825723648071289,5.209175109863281,8.308178901672363,0.46363306045532227,-0.30214032530784607,0.04963133856654167
-1.7850457429885864,4.794917583465576,8.308178901672363,0.5882459282875061,-0.23433628678321838,-0.027946261689066887
-2.1296122074127197,4.878666400909424,8.312965393066406,0.13744063675403595,1.1315182447433472,0.32878854870796204
-1.8041882514953613,5.242674350738525,8.43021297454834,0.13560809195041656,1.5114651918411255,0.3990359604358673
-1.7204394340515137,5.627918720245361,8.27707290649414,0.12400199472904205,1.4497696161270142,0.3202366828918457
-2.053041934967041,5.84357213973999,8.540283203125,0.1563768982887268,0.787611186504364,0.14064757525920868
-2.2112672328948975,5.6590256690979,8.480463027954102,0.34818294644355774,0.02405211143195629,0.008093725889921188
-2.192124605178833,5.460421085357666,7.936992645263672,0.555260181427002,-0.5489989519119263,-0.03955236077308655
-2.701795816421509,5.565705299377441,7.092027187347412,0.5436540842056274,-0.7866185307502747,-0.03833066672086716
-2.287837505340576,5.4628143310546875,6.85962438583374,0.25350162386894226,-0.8330429196357727,0.20356485247612
-1.6773686408996582,5.670989513397217,7.302595615386963,0.01588202826678753,-0.5832064151763916,0.3239017724990845
-1.0453643798828125,5.4173502922058105,7.637889862060547,-0.1325538605451584,-0.1152210608124733,0.358720064163208
-1.028315544128418,5.4628143310546875,7.927421569824219,-0.2376195788383484,-0.016874656081199646,0.3067980408668518
-1.6462619304656982,5.551348686218262,8.260322570800781,-0.2363978922367096,-0.18302510678768158,0.3434488773345947
-1.2080763578414917,5.443671703338623,8.001599311828613,-0.24006296694278717,-0.21356746554374695,0.41919392347335815
-1.3564313650131226,5.656632900238037,7.762316703796387,-0.29381752014160156,-0.15187190473079681,0.40697699785232544
-1.1003992557525635,5.544169902801514,8.087740898132324,-0.3133646547794342,0.03871244564652443,0.4869979918003082
-1.1267203092575073,5.422136306762695,8.468498229980469,-0.3170297145843506,0.08269345015287399,0.49616068601608276
-0.8799605369567871,5.230710506439209,8.961718559265137,-0.20646637678146362,0.12606360018253326,0.5309789776802063
-0.48514479398727417,5.319244861602783,8.765507698059082,-0.007330167107284069,0.24640052020549774,0.5560237169265747
-0.22402802109718323,5.553741455078125,8.384749412536621,0.10078980028629303,0.3313082754611969,0.5413633584976196
-0.1785643845796585,5.67338228225708,8.157431602478027,0.11667182296514511,0.35329878330230713,0.4766135811805725
-0.34606197476387024,5.7164530754089355,7.987242221832275,0.07269082218408585,0.22074492275714874,0.37704548239707947
-0.4824528694152832,5.685346603393555,7.755138397216797,0.01588202826678753,0.17981816828250885,0.3214583694934845
-0.6047859191894531,5.749952793121338,7.601997375488281,-0.0922379344701767,0.1340046226978302,0.27320143580436707
-0.6502495408058167,5.714060306549072,7.618747234344482,-0.25411245226860046,-0.04375193640589714,0.21883602440357208
-0.3723830282688141,5.335994720458984,7.592426300048828,-0.4086568057537079,-0.18669019639492035,0.17363333702087402
-0.2192423790693283,5.225924491882324,7.987242221832275,-0.49417543411254883,-0.22761696577072144,0.10155335813760757
-0.3197409212589264,5.431707382202148,8.600103378295898,-0.4966188073158264,-0.30336201190948486,0.049020491540431976
-0.2503490746021271,4.8930230140686035,8.901898384094238,-0.34879377484321594,-0.25082916021347046,0.012980503961443901
-0.5545366406440735,4.677669048309326,9.239585876464844,-0.12155860662460327,0.13644801080226898,0.12048961967229843
-0.8799605369567871,4.66570520401001,9.162715911865234,0.2095206081867218,0.5359421372413635,0.34161633253097534
-0.9278169870376587,4.837988376617432,8.976076126098633,0.5210527181625366,0.551824152469635,0.5682406425476074
0.3840480446815491,5.259424209594727,9.189037322998047,1.1752700805664062,0.8682430386543274,0.5566345453262329
-0.264706015586853,4.936093807220459,8.370392799377441,1.557660460472107,1.1376266479492188,0.5077667832374573
-0.12113664299249649,5.685346603393555,6.620342254638672,1.7293086051940918,1.203598141670227,0.6464291214942932
-0.11156535893678665,6.348756790161133,5.392225742340088,1.410446286201477,1.213371753692627,0.5694623589515686
-0.511465847492218,6.521039962768555,5.0928239822387695,1.2082558870315552,1.195046305656433,0.4534013867378235
-1.2128620147705078,6.853642463684082,4.8559346199035645,0.7751652002334595,0.9641460180282593,0.23288552463054657
-1.1410772800445557,6.109175205230713,5.86630392074585,-0.011606098152697086,1.3618075847625732,0.21883602440357208
-1.9692929983139038,6.516254425048828,6.510272026062012,-0.3549022674560547,2.103986978530884,0.3177932798862457
-2.419442892074585,7.210472106933594,6.665805816650391,-0.4367557764053345,2.087494134902954,0.2176143378019333
-2.6443681716918945,7.289434909820557,6.2204413414001465,-0.4569137394428253,1.5646089315414429,0.037414394319057465
-2.958127021789551,6.897012233734131,7.513164043426514,-0.5332696437835693,0.42843300104141235,-0.1513374149799347
