accX,accY,accZ,gyroX,gyroY,gyroZ
-0.9030000567436218,5.215950012207031,8.407950401306152,0.06187500059604645,0.018287500366568565,-0.018562499433755875
-0.8290500640869141,5.334000110626221,8.080050468444824,0.025162499397993088,-0.002474999986588955,-0.005087499972432852
-0.5629500150680542,5.133000373840332,8.452950477600098,-0.01759999990463257,-0.02447500079870224,0.02667500078678131
-0.703950047492981,5.130000114440918,8.451000213623047,0.0031624999828636646,-0.010999999940395355,0.025437500327825546
-0.7429500222206116,5.118000030517578,8.506050109863281,-0.010312499478459358,-0.035475000739097595,0.022962499409914017
-0.6760500073432922,5.029950141906738,8.532000541687012,-0.011412499472498894,-0.059950001537799835,0.007149999961256981
-0.831000030040741,5.094000339508057,8.431950569152832,0.009349999949336052,-0.05871250107884407,-0.023375000804662704
-1.128000020980835,5.2860002517700195,8.242050170898438,0.03739999979734421,-0.020762499421834946,-0.008799999952316284
-0.9439500570297241,5.305050373077393,8.118000030517578,0.04839999973773956,0.015812499448657036,0.0364375002682209
-0.7260000109672546,5.26200008392334,8.04104995727539,0.03863750025629997,0.032999999821186066,0.04743750020861626
-0.6679500341415405,5.26200008392334,7.9960503578186035,0.004399999976158142,0.04152499884366989,0.04372499883174896
-0.775950014591217,5.2669501304626465,8.142000198364258,-0.040837500244379044,0.0170499999076128,0.0424874983727932
-0.8620500564575195,5.281050205230713,8.281050682067871,-0.089649997651577,-0.020762499421834946,0.05843750014901161
-0.7950000166893005,5.224050045013428,8.271000862121582,-0.10436250269412994,-0.0317624993622303,0.08772499859333038
-0.6780000329017639,5.098950386047363,8.404950141906738,-0.07012499868869781,0.01347499992698431,0.10491249710321426
-0.7330500483512878,5.134950160980225,8.359950065612793,-0.02241249941289425,0.05252499878406525,0.11701250076293945
-0.7279500365257263,5.121000289916992,8.167950630187988,-0.02241249941289425,0.054999999701976776,0.13296249508857727
-0.6040500402450562,5.109000205993652,8.098950386047363,-0.07012499868869781,0.04152499884366989,0.1414874941110611
-0.41895002126693726,4.939050197601318,8.185050010681152,-0.10188750177621841,0.03657500073313713,0.13296249508857727
-0.40005001425743103,4.879050254821777,8.218950271606445,-0.10312499850988388,0.06104999780654907,0.0999625027179718
-0.7620000243186951,5.017950057983398,8.326050758361816,-0.09569999575614929,0.08799999952316284,0.08043749630451202
-0.7549500465393066,5.149050235748291,8.395950317382812,-0.09569999575614929,0.07933750003576279,0.1060125008225441
-0.3949500322341919,4.884000301361084,8.611050605773926,-0.07136250287294388,0.10009999573230743,0.12443749606609344
-0.2350500077009201,4.692000389099121,8.64900016784668,-0.0004124999977648258,0.0952875018119812,0.08043749630451202
-0.37095001339912415,4.788000106811523,8.343000411987305,0.05335000157356262,0.0952875018119812,0.018149999901652336
-0.5850000381469727,4.9170002937316895,8.31195068359375,0.05335000157356262,0.1050499975681305,-0.013612499460577965
-0.6780000329017639,4.939050197601318,8.611050605773926,0.05444999784231186,0.1013374999165535,-0.008799999952316284
-0.5560500025749207,4.860000133514404,8.616000175476074,0.09487500041723251,0.08676250278949738,-0.012374999932944775
-0.7110000252723694,5.034000396728516,8.343000411987305,0.16073749959468842,0.14162500202655792,-0.02956249937415123
-0.8620500564575195,5.140050411224365,8.178000450134277,0.17297500371932983,0.20157499611377716,-0.012374999932944775
-0.7500000596046448,5.086950302124023,8.52495002746582,0.14739999175071716,0.21615000069141388,-0.002612499985843897
-0.6130500435829163,4.986000061035156,8.460000038146973,0.164450004696846,0.1551000028848648,-0.03203750029206276
-0.8050500154495239,5.098950386047363,8.06505012512207,0.16197499632835388,0.09157499670982361,-0.08566249907016754
-1.1329500675201416,5.374050140380859,7.864050388336182,0.11563749611377716,0.08181250095367432,-0.08566249907016754
-1.1500500440597534,5.422050476074219,7.942950248718262,0.0826374962925911,0.09281250089406967,-0.060087498277425766
-0.9169500470161438,5.218950271606445,8.353050231933594,0.04839999973773956,0.0952875018119812,-0.02213750034570694
-0.7210500240325928,5.104050159454346,8.379000663757324,0.08016250282526016,0.07809999585151672,-0.04413750022649765
-0.9820500612258911,5.1660003662109375,7.91895055770874,0.15839999914169312,0.13186250627040863,-0.08332499861717224
-1.5829501152038574,5.5159502029418945,7.845000267028809,0.21449999511241913,0.28462499380111694,-0.06861250102519989
-1.6930500268936157,5.710050106048584,8.104050636291504,0.23292499780654907,0.3651999831199646,0.02914999984204769
-1.2480000257492065,5.488950252532959,8.110950469970703,0.17668749392032623,0.29315000772476196,0.11096250265836716
-0.9169500470161438,5.257050037384033,8.050950050354004,0.043449997901916504,0.10876250267028809,0.07067500054836273
-1.111050009727478,5.383950233459473,8.428950309753418,-0.050599999725818634,-0.037950001657009125,0.007149999961256981
-1.1830500364303589,5.487000465393066,8.407950401306152,-0.02488750033080578,-0.0635249987244606,0.010724999941885471
-1.0200001001358032,5.37000036239624,8.447999954223633,0.07039999961853027,0.04881250113248825,0.04138749837875366
-0.8790000677108765,5.326050281524658,7.261050224304199,0.13516250252723694,0.07452499866485596,0.03272499889135361
-0.9510000348091125,5.338050365447998,7.621950149536133,-0.02736249938607216,0.07933750003576279,0.011962499469518661
-0.8929500579833984,5.209050178527832,8.506050109863281,-0.07012499868869781,0.02928750030696392,-0.0013749999925494194
-1.0780500173568726,5.37000036239624,8.27595043182373,-0.035887498408555984,-0.01952499896287918,-0.023375000804662704
-0.9940500259399414,5.326050281524658,8.31195068359375,-0.02736249938607216,-0.007424999959766865,-0.01732499897480011
-1.2019500732421875,5.355000019073486,8.257050514221191,-0.007837500423192978,-0.01952499896287918,-0.03203750029206276
-1.3579500913619995,5.563050270080566,8.06505012512207,-0.0004124999977648258,-0.02694999985396862,-0.018562499433755875
-1.3819500207901,5.608950138092041,7.98900032043457,-0.026124998927116394,-0.02694999985396862,0.010724999941885471
-1.1880000829696655,5.56095027923584,8.022000312805176,-0.06641250103712082,-0.042762499302625656,0.03396249935030937
-1.0920000076293945,5.386050224304199,8.344950675964355,-0.07493750005960464,-0.03918749839067459,0.0364375002682209
-1.144950032234192,5.323950290679932,8.38800048828125,-0.04441250115633011,-0.06599999964237213,0.021724998950958252
-1.3339500427246094,5.440950393676758,8.022000312805176,-0.04441250115633011,-0.09776250272989273,0.04372499883174896
-1.068000078201294,5.319000244140625,8.05305004119873,-0.07741250097751617,-0.09776250272989273,0.0742499977350235
-0.7590000629425049,5.178000450134277,8.158950805664062,-0.07493750005960464,-0.06847500056028366,0.0719124972820282
-0.7090500593185425,5.062950134277344,8.182950019836426,-0.050599999725818634,-0.05128749832510948,0.03519999980926514
-0.8860500454902649,5.098950386047363,8.056050300598145,-0.038362499326467514,-0.054999999701976776,-0.008799999952316284
-1.1160000562667847,5.233050346374512,7.998000144958496,-0.011412499472498894,-0.0085249999538064,-0.006324999965727329
-0.8809500336647034,5.230950355529785,8.118000030517578,0.011687500402331352,0.04881250113248825,0.022962499409914017
-0.6780000329017639,5.034000396728516,8.308950424194336,0.026399999856948853,0.05376249924302101,0.005912499967962503
-0.8479500412940979,5.188050270080566,8.223000526428223,0.011687500402331352,-0.0147124994546175,-0.038087498396635056
-0.931950032711029,5.293050289154053,8.032050132751465,-0.02488750033080578,-0.05623750016093254,-0.035612501204013824
-0.9079500436782837,5.27400016784668,8.082000732421875,-0.03712499886751175,-0.01952499896287918,-0.01732499897480011
-0.8239500522613525,5.17995023727417,8.416950225830078,-0.015124999918043613,0.0317624993622303,-0.01484999991953373
-0.9130500555038452,5.185050010681152,8.475000381469727,0.023924998939037323,0.025575000792741776,-0.04661250114440918
-1.2529500722885132,5.403000354766846,8.347949981689453,0.03616249933838844,-0.0,-0.06613750010728836
-1.2649500370025635,5.511000156402588,8.13705062866211,0.05087500065565109,-0.007424999959766865,-0.035612501204013824
-1.068000078201294,5.416950225830078,8.142000198364258,0.0789249986410141,0.05004999786615372,-0.011137500405311584
-1.0350000858306885,5.334000110626221,8.110950469970703,0.1046374961733818,0.07699999958276749,-0.023375000804662704
-1.3410000801086426,5.439000129699707,8.038949966430664,0.09721250087022781,0.05128749832510948,-0.03203750029206276
-1.4490001201629639,5.539950370788574,7.840050220489502,0.05087500065565109,0.0085249999538064,-0.002612499985843897
-1.1350500583648682,5.4559502601623535,7.914000511169434,-0.0016499999910593033,0.00976249948143959,0.03272499889135361
-0.9390000700950623,5.290950298309326,8.119950294494629,-0.031075000762939453,0.002474999986588955,0.030387500301003456
-0.9529500603675842,5.263950347900391,8.179950714111328,-0.038362499326467514,-0.01952499896287918,0.005912499967962503
-1.128000020980835,5.2669501304626465,8.25195026397705,-0.020075000822544098,-0.006187499966472387,0.0009624999947845936
-1.2090001106262207,5.359950065612793,8.191950798034668,-0.0004124999977648258,-0.0037124999798834324,0.021724998950958252
-0.9919500350952148,5.331000328063965,8.04900074005127,-0.018837500363588333,-0.02199999988079071,0.0364375002682209
-0.8410500288009644,5.299950122833252,8.07194995880127,-0.060362499207258224,-0.047712501138448715,0.018149999901652336
-0.9049500226974487,5.221050262451172,8.379000663757324,-0.060362499207258224,-0.047712501138448715,-0.012374999932944775
-1.128000020980835,5.3580002784729,8.320950508117676,-0.006599999964237213,-0.047712501138448715,-0.028324998915195465
-1.228950023651123,5.473050117492676,8.02500057220459,0.030112499371170998,-0.0085249999538064,-0.0013749999925494194
-1.114050030708313,5.476950168609619,7.962000370025635,0.008112499490380287,0.014574999921023846,0.03148749843239784
-0.9100500345230103,5.37000036239624,8.12505054473877,-0.02736249938607216,-0.002474999986588955,0.04138749837875366
-0.7230000495910645,5.164050102233887,8.338050842285156,-0.03464999794960022,-0.023237500339746475,0.020624998956918716
-0.9960000514984131,5.281050205230713,8.27400016784668,0.03135000169277191,-0.007424999959766865,-0.007562499959021807
-0.831000030040741,5.17995023727417,8.414999961853027,0.0471624992787838,-0.0012374999932944775,-0.008799999952316284
-0.7950000166893005,5.142000198364258,8.314050674438477,0.08511249721050262,0.0012374999932944775,-0.03203750029206276
-0.9360000491142273,5.197050094604492,8.202000617980957,0.10944999754428864,-0.00494999997317791,-0.06132499873638153
-1.1329500675201416,5.338050365447998,7.957950592041016,0.10216250270605087,-0.032999999821186066,-0.06861250102519989
-0.9270000457763672,5.350050449371338,7.888050556182861,0.011687500402331352,-0.050187498331069946,-0.06132499873638153
-1.1759999990463257,5.44605016708374,7.990950584411621,0.025162499397993088,-0.0317624993622303,-0.08084999769926071
-1.420050024986267,5.608950138092041,8.230050086975098,-0.11893749982118607,0.032999999821186066,0.062150001525878906
-1.2310500144958496,5.578050136566162,8.515049934387207,-0.11659999936819077,0.02928750030696392,0.08415000140666962
-1.0300500392913818,5.377050399780273,8.755050659179688,-0.089649997651577,0.006049999967217445,0.09019999951124191
-1.2190500497817993,5.443950176239014,8.638050079345703,-0.043175000697374344,-0.03918749839067459,0.0681999996304512
-1.2430500984191895,5.587050437927246,8.282999992370605,-0.043175000697374344,-0.08195000141859055,0.1036750003695488
-1.1500500440597534,5.473050117492676,8.0149507522583,-0.12388750165700912,-0.1905750036239624,0.13420000672340393
-0.8410500288009644,5.3359503746032715,7.950000286102295,-0.2546499967575073,-0.31404998898506165,0.13667500019073486
-0.8119500279426575,5.290950298309326,8.247000694274902,-0.3217499852180481,-0.3433375060558319,0.1256749927997589
-0.9199500679969788,5.2260003089904785,8.67300033569336,-0.23622499406337738,-0.2517625093460083,0.15001249313354492
-0.6660000085830688,4.986000061035156,8.676000595092773,-0.08112499862909317,-0.17476250231266022,0.1769624948501587
-0.48600003123283386,5.002950191497803,8.239950180053711,0.008112499490380287,-0.12952500581741333,0.15619999170303345
-0.48405003547668457,5.020050048828125,8.020050048828125,-0.0004124999977648258,-0.08923749625682831,0.13420000672340393
-0.5410500168800354,5.038950443267822,8.41200065612793,-0.02736249938607216,-0.06599999964237213,0.11948750168085098
-0.4819500148296356,4.9960503578186035,8.464950561523438,-0.03959999978542328,-0.12952500581741333,0.10848750174045563
-0.4069500267505646,5.0560503005981445,8.307000160217285,-0.052937500178813934,-0.2003374993801117,0.09019999951124191
-0.27300000190734863,5.044050216674805,8.09595012664795,-0.06283749639987946,-0.2040500044822693,0.09143749624490738
-0.010050000622868538,4.929000377655029,8.209050178527832,-0.040837500244379044,-0.11371249705553055,0.08648750185966492
0.0990000069141388,4.843050003051758,8.27400016784668,0.010587500408291817,-0.04399999976158142,0.04496249929070473
-0.08895000070333481,4.945950031280518,8.10105037689209,0.027637500315904617,-0.010999999940395355,-0.013612499460577965
-0.3360000252723694,5.053950309753418,8.104050636291504,0.020349999889731407,0.0012374999932944775,-0.030799999833106995
-0.4720500111579895,5.134950160980225,8.26395034790039,-0.01759999990463257,-0.0037124999798834324,-0.01484999991953373
-0.5509500503540039,5.104050159454346,8.40000057220459,0.015399999916553497,-0.08181250095367432,-0.07356250286102295
-0.62295001745224,5.212050437927246,8.09595012664795,0.03987500071525574,-0.01952499896287918,-0.04908749833703041
-0.453000009059906,5.15595006942749,8.239950180053711,0.03863750025629997,0.04633750021457672,-0.02956249937415123
-0.5820000171661377,5.1469502449035645,8.3860502243042,0.04963750019669533,0.06599999964237213,-0.030799999833106995
-0.5869500041007996,5.212050437927246,8.343000411987305,0.05816249921917915,0.059812501072883606,-0.02708750031888485
-0.4600500166416168,5.197050094604492,8.173049926757812,0.07163749635219574,0.05128749832510948,-0.01484999991953373
-0.3570000231266022,5.17995023727417,7.942950248718262,0.06311249732971191,0.06228749826550484,-0.01979999989271164
-0.4339500069618225,5.170950412750244,8.23799991607666,0.016637500375509262,0.06599999964237213,-0.033137500286102295
-0.5370000004768372,5.134950160980225,8.518050193786621,-0.018837500363588333,0.0012374999932944775,-0.033137500286102295
-0.5410500168800354,5.122950077056885,8.434050559997559,-0.016362499445676804,-0.04152499884366989,-0.028324998915195465
-0.5680500268936157,5.15595006942749,8.26200008392334,0.006874999962747097,-0.01952499896287918,-0.02213750034570694
-0.6160500049591064,5.202000141143799,8.326050758361816,0.016637500375509262,0.023237500339746475,-0.005087499972432852
-0.5130000114440918,5.110950469970703,8.33595085144043,0.03492499887943268,0.03657500073313713,0.005912499967962503
-0.49800002574920654,5.026950359344482,8.32395076751709,0.028875000774860382,0.01347499992698431,-0.01732499897480011
-0.5920500159263611,5.053950309753418,8.278050422668457,0.023924998939037323,-0.0012374999932944775,-0.033137500286102295
-0.7279500365257263,5.230950355529785,8.08395004272461,0.022687500342726707,-0.0085249999538064,-0.03684999793767929
-0.7429500222206116,5.311950206756592,7.974000453948975,0.006874999962747097,0.01223750039935112,-0.012374999932944775
-0.6010500192642212,5.2759504318237305,8.074950218200684,-0.02241249941289425,0.01347499992698431,0.0193875003606081
-0.4939500093460083,5.182950019836426,8.107950210571289,-0.03712499886751175,0.0035749999806284904,0.02667500078678131
-0.46995002031326294,5.173050403594971,8.226000785827637,-0.050599999725818634,-0.00494999997317791,0.014437500387430191
-0.6180000305175781,5.221050262451172,8.458050727844238,-0.05664999783039093,-0.0085249999538064,0.011962499469518661
-0.6709500551223755,5.257050037384033,8.494050025939941,-0.057887498289346695,-0.03671250119805336,0.02914999984204769
-0.5850000381469727,5.1660003662109375,8.479050636291504,-0.0541750006377697,-0.03671250119805336,0.04743750020861626
-0.5560500025749207,5.154000282287598,8.59695053100586,-0.035887498408555984,-0.02447500079870224,0.04743750020861626
-0.4909500181674957,5.092050075531006,8.680950164794922,0.008112499490380287,-0.020762499421834946,0.04496249929070473
-0.5010000467300415,5.086950302124023,8.379000663757324,0.03368749842047691,-0.05623750016093254,0.030387500301003456
-0.5869500041007996,5.140050411224365,8.094000816345215,0.015399999916553497,-0.06599999964237213,0.02419999986886978
-0.6469500064849854,5.281050205230713,8.046000480651855,-0.020075000822544098,-0.04895000159740448,0.0424874983727932
-0.38100001215934753,5.173050403594971,8.269050598144531,-0.03959999978542328,-0.028187500312924385,0.07067500054836273
-0.15105000138282776,4.975050449371338,8.332950592041016,-0.020075000822544098,-0.023237500339746475,0.049912501126527786
-0.34005001187324524,5.034000396728516,8.218950271606445,0.009349999949336052,-0.020762499421834946,0.007149999961256981
-0.48600003123283386,5.19195032119751,8.082000732421875,0.014162499457597733,-0.006187499966472387,0.011962499469518661
-0.24000000953674316,5.068050384521484,8.074950218200684,-0.009074999950826168,0.010999999940395355,0.037675000727176666
-0.13905000686645508,4.9270501136779785,8.27400016784668,-0.035887498408555984,0.006049999967217445,0.008387500420212746
-0.4620000123977661,5.133000373840332,8.33595085144043,-0.04936249926686287,-0.018424998968839645,-0.021037500351667404
-0.597000002861023,5.2069501876831055,8.359950065612793,-0.05912499874830246,-0.02199999988079071,0.009624999947845936
-0.38805001974105835,5.133000373840332,8.470050811767578,-0.052937500178813934,-0.01347499992698431,0.03891250118613243
-0.2880000174045563,5.062950134277344,8.55405044555664,-0.04441250115633011,-0.0085249999538064,0.03519999980926514
-0.31200000643730164,4.9960503578186035,8.676000595092773,-0.009074999950826168,-0.02199999988079071,0.005912499967962503
-0.51705002784729,5.161050319671631,8.499000549316406,0.019112499430775642,-0.04152499884366989,-0.013612499460577965
-0.40995001792907715,5.133000373840332,8.223000526428223,0.014162499457597733,-0.05128749832510948,-0.0013749999925494194
-0.3360000252723694,5.125050067901611,8.155950546264648,0.009349999949336052,-0.04028749838471413,-0.0013749999925494194
-0.4050000309944153,5.1060004234313965,8.163000106811523,0.011687500402331352,-0.0,-0.002612499985843897
-0.4939500093460083,5.182950019836426,8.27400016784668,0.009349999949336052,0.018287500366568565,0.011962499469518661
-0.3379500210285187,5.086950302124023,8.281050682067871,-0.007837500423192978,0.0012374999932944775,0.02667500078678131
-0.20400001108646393,5.008050441741943,8.32395076751709,-0.03464999794960022,-0.023237500339746475,0.009624999947845936
-0.25905001163482666,4.9960503578186035,8.307000160217285,-0.02488750033080578,-0.018424998968839645,-0.01979999989271164
-0.325950026512146,5.032050132751465,8.307000160217285,-0.0016499999910593033,0.0085249999538064,-0.030799999833106995
-0.4459500312805176,5.06505012512207,8.302050590515137,0.010587500408291817,0.014574999921023846,-0.030799999833106995
-0.4909500181674957,5.121000289916992,8.26200008392334,0.0031624999828636646,0.0035749999806284904,-0.028324998915195465
-0.4819500148296356,5.149050235748291,8.290050506591797,-0.020075000822544098,-0.006187499966472387,-0.018562499433755875
-0.48600003123283386,5.152050018310547,8.359950065612793,-0.023649999871850014,-0.007424999959766865,-0.016087500378489494
-0.48600003123283386,5.17995023727417,8.32395076751709,-0.01759999990463257,-0.007424999959766865,-0.012374999932944775
-0.46995002031326294,5.2069501876831055,8.347949981689453,-0.023649999871850014,-0.0,-0.0002749999985098839
-0.4120500087738037,5.152050018310547,8.467950820922852,-0.02241249941289425,-0.0,0.005912499967962503
-0.47700002789497375,5.130000114440918,8.434050559997559,0.0031624999828636646,-0.0085249999538064,-0.0002749999985098839
-0.5010000467300415,5.16795015335083,8.37405014038086,0.017875000834465027,0.00976249948143959,0.01691249944269657
-0.3139500021934509,5.08905029296875,8.293050765991211,0.019112499430775642,0.00976249948143959,0.030387500301003456
-0.325950026512146,4.98900032043457,8.398050308227539,-0.018837500363588333,-0.0,-0.012374999932944775
-0.5490000247955322,5.133000373840332,8.452950477600098,-0.007837500423192978,-0.0012374999932944775,-0.006324999965727329
-0.37095001339912415,5.032050132751465,8.451000213623047,0.015399999916553497,0.015812499448657036,0.022962499409914017
-0.26805001497268677,5.020050048828125,8.33595085144043,0.027637500315904617,0.004812499973922968,0.004674999974668026
-0.3139500021934509,5.034000396728516,8.191950798034668,0.011687500402331352,-0.01718750037252903,-0.013612499460577965
-0.28995001316070557,5.049000263214111,8.122950553894043,-0.01759999990463257,-0.020762499421834946,-0.02213750034570694
-0.31905001401901245,5.002950191497803,8.290050506591797,-0.02983750030398369,0.007287499960511923,-0.030799999833106995
-0.5850000381469727,5.092050075531006,8.491050720214844,-0.011412499472498894,0.015812499448657036,-0.035612501204013824
-0.673050045967102,5.233050346374512,8.344950675964355,0.008112499490380287,0.0085249999538064,0.002199999988079071
-0.42900002002716064,5.16795015335083,8.33595085144043,-0.009074999950826168,0.00976249948143959,0.03272499889135361
-0.3739500045776367,5.143950462341309,8.347949981689453,-0.03712499886751175,-0.02694999985396862,0.021724998950958252
-0.34995001554489136,5.164050102233887,8.365050315856934,-0.055412501096725464,-0.04399999976158142,0.013199999928474426
-0.4030500054359436,5.110950469970703,8.568000793457031,-0.048124998807907104,-0.032999999821186066,0.004674999974668026
-0.453000009059906,5.086950302124023,8.599050521850586,-0.016362499445676804,-0.01223750039935112,0.004674999974668026
-0.4720500111579895,5.149050235748291,8.500950813293457,0.0471624992787838,0.02433750033378601,0.015675000846385956
-0.3520500063896179,5.074950218200684,8.202000617980957,0.06063750013709068,0.02681249938905239,0.02419999986886978
-0.40995001792907715,5.104050159454346,8.062950134277344,0.006874999962747097,0.002474999986588955,0.009624999947845936
-0.49800002574920654,5.134950160980225,8.36205005645752,-0.060362499207258224,-0.025712499395012856,0.013199999928474426
-0.453000009059906,5.046000003814697,8.467950820922852,-0.060362499207258224,-0.05623750016093254,0.02419999986886978
-0.33105000853538513,5.046000003814697,8.356950759887695,-0.02488750033080578,-0.028187500312924385,0.025437500327825546
-0.40005001425743103,5.029950141906738,8.343000411987305,0.004399999976158142,0.01347499992698431,0.022962499409914017
-0.3160500228404999,5.082000255584717,8.317049980163574,-0.0028874999843537807,0.002474999986588955,0.027912499383091927
-0.14205001294612885,5.00100040435791,8.398050308227539,-0.026124998927116394,-0.018287500366568565,0.020487500354647636
-0.09795000404119492,4.986000061035156,8.416950225830078,-0.02488750033080578,-0.02694999985396862,0.008387500420212746
-0.17805001139640808,5.00100040435791,8.404950141906738,-0.005362499970942736,-0.015949999913573265,-0.01732499897480011
-0.4600500166416168,5.109000205993652,8.398050308227539,0.009349999949336052,-0.00494999997317791,-0.01979999989271164
-0.49800002574920654,5.142000198364258,8.338050842285156,0.008112499490380287,-0.00494999997317791,-0.0038499999791383743
-0.2370000183582306,4.998000144958496,8.37405014038086,-0.0028874999843537807,0.004812499973922968,0.021724998950958252
-0.1270500123500824,4.9270501136779785,8.500950813293457,0.004399999976158142,-0.0037124999798834324,-0.005087499972432852
-0.25905001163482666,5.005950450897217,8.27400016784668,0.022687500342726707,-0.01718750037252903,-0.030799999833106995
-0.4339500069618225,5.118000030517578,8.07194995880127,0.011687500402331352,-0.00976249948143959,-0.03203750029206276
-0.5580000281333923,5.170950412750244,8.05305004119873,-0.02736249938607216,0.0035749999806284904,-0.012374999932944775
-0.4819500148296356,5.178000450134277,8.227950096130371,-0.06888750195503235,0.002337499987334013,0.014437500387430191
-0.3930000066757202,5.15595006942749,8.403000831604004,-0.08112499862909317,0.0035749999806284904,0.0193875003606081
-0.24705001711845398,4.990950107574463,8.752050399780273,-0.05912499874830246,0.0035749999806284904,0.013199999928474426
-0.22800001502037048,4.9270501136779785,8.736000061035156,-0.023649999871850014,0.0012374999932944775,-0.0013749999925494194
-0.25905001163482666,4.939050197601318,8.6089506149292,0.009349999949336052,0.0035749999806284904,-0.01979999989271164
-0.4339500069618225,5.073000431060791,8.464950561523438,0.043449997901916504,0.01952499896287918,-0.030799999833106995
-0.5029500126838684,5.058000087738037,8.317049980163574,0.03616249933838844,0.02199999988079071,-0.008799999952316284
-0.453000009059906,5.049000263214111,8.295000076293945,0.023924998939037323,0.015812499448657036,0.002199999988079071
-0.3910500109195709,5.002950191497803,8.28795051574707,-0.010174999944865704,-0.01347499992698431,0.009624999947845936
-0.35895001888275146,5.074950218200684,8.269050598144531,-0.045649997889995575,-0.035475000739097595,0.011962499469518661
-0.25200000405311584,5.014950275421143,8.503050804138184,-0.0541750006377697,-0.028187500312924385,0.011962499469518661
-0.22800001502037048,4.981950283050537,8.617950439453125,-0.012649999931454659,-0.01223750039935112,-0.006324999965727329
-0.26805001497268677,4.98900032043457,8.467950820922852,0.0411125011742115,0.0012374999932944775,-0.01732499897480011
-0.36705002188682556,4.975050449371338,8.218950271606445,0.05692499876022339,0.0170499999076128,-0.021037500351667404
-0.4549500346183777,5.058000087738037,8.281050682067871,0.027637500315904617,0.03423750028014183,-0.01484999991953373
-0.37905001640319824,5.061000347137451,8.36205005645752,0.0006874999962747097,0.02199999988079071,-0.005087499972432852
-0.5560500025749207,5.245050430297852,8.223000526428223,0.012924999929964542,0.07809999585151672,-0.010037500411272049
-0.36705002188682556,5.010000228881836,8.53695011138916,0.03492499887943268,0.047575000673532486,0.009624999947845936
-0.5010000467300415,5.073000431060791,8.178000450134277,-0.016362499445676804,-0.07452499866485596,-0.018562499433755875
-0.43800002336502075,5.218950271606445,8.167950630187988,-0.08112499862909317,-0.04647500067949295,-0.0038499999791383743
-0.42900002002716064,4.986000061035156,8.756999969482422,-0.050599999725818634,0.02928750030696392,0.018149999901652336
-0.34995001554489136,5.002950191497803,8.743050575256348,0.03368749842047691,0.0170499999076128,0.018149999901652336
-0.3040500283241272,5.008050441741943,8.233050346374512,0.08016250282526016,0.0147124994546175,0.008387500420212746
-0.4050000309944153,5.130000114440918,7.972050189971924,0.04592499881982803,0.02447500079870224,0.008387500420212746
-0.31200000643730164,5.121000289916992,8.092050552368164,-0.045649997889995575,0.0037124999798834324,0.02667500078678131
-0.20595000684261322,4.957950115203857,8.463000297546387,-0.1116499975323677,-0.04399999976158142,0.018149999901652336
-0.34005001187324524,4.948050022125244,8.740050315856934,-0.0859375,-0.047712501138448715,-0.006324999965727329
-0.47895002365112305,4.98900032043457,8.779050827026367,0.016637500375509262,0.007287499960511923,-0.0013749999925494194
-0.44805002212524414,5.049000263214111,8.503050804138184,0.09363749623298645,0.03657500073313713,0.010724999941885471
-0.2779500186443329,5.032050132751465,8.209050178527832,0.07163749635219574,0.00976249948143959,0.011962499469518661
-0.30900001525878906,5.082000255584717,8.07194995880127,-0.0004124999977648258,-0.02447500079870224,-0.008799999952316284
-0.4030500054359436,5.082000255584717,8.259000778198242,-0.05912499874830246,-0.042762499302625656,-0.008799999952316284
-0.32100000977516174,5.068050384521484,8.3860502243042,-0.04688749834895134,-0.02928750030696392,0.002199999988079071
-0.26100000739097595,5.005950450897217,8.332950592041016,-0.0004124999977648258,0.0147124994546175,-0.0013749999925494194
-0.34995001554489136,5.050950050354004,8.391000747680664,0.020349999889731407,0.05376249924302101,-0.007562499959021807
-0.42900002002716064,5.005950450897217,8.452950477600098,0.006874999962747097,0.032999999821186066,-0.007562499959021807
-0.453000009059906,5.053950309753418,8.491050720214844,-0.015124999918043613,-0.006187499966472387,-0.0038499999791383743
-0.39795002341270447,5.017950057983398,8.503050804138184,-0.02983750030398369,-0.030524998903274536,0.007149999961256981
-0.4069500267505646,5.026950359344482,8.520000457763672,-0.023649999871850014,-0.032999999821186066,0.008387500420212746
-0.33105000853538513,5.068050384521484,8.434050559997559,0.004399999976158142,-0.0147124994546175,0.0193875003606081
-0.20595000684261322,4.966950416564941,8.391000747680664,0.022687500342726707,0.002474999986588955,0.020624998956918716
-0.21105000376701355,4.9360504150390625,8.356950759887695,0.026399999856948853,-0.006187499966472387,0.002199999988079071
-0.3450000286102295,5.013000011444092,8.269050598144531,0.019112499430775642,-0.0147124994546175,-0.011137500405311584
-0.34995001554489136,5.008050441741943,8.290050506591797,0.011687500402331352,-0.0012374999932944775,-0.007562499959021807
-0.30000001192092896,4.998000144958496,8.302050590515137,0.015399999916553497,0.006049999967217445,-0.007562499959021807
-0.17505000531673431,4.963050365447998,8.245050430297852,0.017875000834465027,0.0085249999538064,-0.02213750034570694
-0.24900001287460327,4.954950332641602,8.105999946594238,0.016637500375509262,0.01223750039935112,-0.050324998795986176
-0.4050000309944153,5.080050468444824,8.668950080871582,-0.0541750006377697,-0.015949999913573265,-0.011137500405311584
-0.47895002365112305,5.1160502433776855,8.6089506149292,-0.04207500070333481,-0.042762499302625656,-0.02213750034570694
-0.49605002999305725,5.137050151824951,8.544000625610352,-0.018837500363588333,-0.030524998903274536,-0.021037500351667404
-0.39795002341270447,5.143950462341309,8.569950103759766,0.03368749842047691,0.02681249938905239,-0.002612499985843897
-0.2970000207424164,5.046000003814697,8.599050521850586,0.055687498301267624,0.04399999976158142,0.0034374999813735485
-0.22500000894069672,4.942950248718262,8.503050804138184,0.07768750190734863,0.025575000792741776,-0.021037500351667404
-0.41700002551078796,5.086950302124023,8.290050506591797,0.06063750013709068,-0.0147124994546175,-0.038087498396635056
-0.28995001316070557,5.032050132751465,8.368950843811035,0.0006874999962747097,-0.03423750028014183,-0.018562499433755875
-0.13395000994205475,4.8949503898620605,8.439000129699707,0.022687500342726707,-0.02928750030696392,-0.03684999793767929
-0.19395001232624054,4.930950164794922,8.185050010681152,0.0471624992787838,-0.0147124994546175,-0.055137500166893005
-1.0180500745773315,5.467950344085693,7.677000522613525,0.11192499846220016,0.16609999537467957,-0.038087498396635056
-0.5680500268936157,5.050950050354004,8.254050254821777,0.06421250104904175,0.13557499647140503,0.0424874983727932
-0.32805001735687256,4.9270501136779785,8.281050682067871,-0.08470000326633453,-0.05252499878406525,-0.002612499985843897
-0.33105000853538513,5.014950275421143,8.36205005645752,-0.1373624950647354,-0.09171249717473984,-0.02461249940097332
-0.6199500560760498,5.154000282287598,8.756999969482422,-0.1116499975323677,-0.035475000739097595,-0.02956249937415123
-0.49605002999305725,5.038950443267822,8.824049949645996,0.016637500375509262,0.045237500220537186,0.002199999988079071
-0.4069500267505646,5.013000011444092,8.43600082397461,0.10821250081062317,0.09157499670982361,0.0034374999813735485
-0.5509500503540039,5.188050270080566,8.211000442504883,0.0789249986410141,0.07809999585151672,-0.0013749999925494194
-0.41700002551078796,5.182950019836426,8.431950569152832,-0.004124999977648258,0.01952499896287918,0.011962499469518661
-0.29205000400543213,5.049000263214111,8.557950019836426,-0.035887498408555984,-0.04647500067949295,-0.0038499999791383743
-0.3739500045776367,5.094000339508057,8.54699993133545,0.004399999976158142,-0.032999999821186066,-0.02213750034570694
-0.5530500411987305,5.121000289916992,8.527050018310547,0.06668750196695328,0.01347499992698431,-0.008799999952316284
-0.5490000247955322,5.134950160980225,8.458050727844238,0.08621250092983246,0.018287500366568565,0.004674999974668026
-0.4650000333786011,5.074950218200684,8.199000358581543,0.08139999955892563,0.0085249999538064,0.014437500387430191
-0.4050000309944153,5.0970001220703125,8.259000778198242,0.03244999796152115,-0.006187499966472387,0.007149999961256981
-0.5100000500679016,5.1160502433776855,8.36205005645752,-0.0016499999910593033,-0.03671250119805336,-0.006324999965727329
-0.51705002784729,5.11305046081543,8.467950820922852,-0.005362499970942736,-0.05004999786615372,-0.0002749999985098839
-0.37095001339912415,5.073000431060791,8.407950401306152,0.03863750025629997,-0.030524998903274536,0.0009624999947845936
-0.3430500030517578,5.0970001220703125,8.202000617980957,0.0789249986410141,0.010999999940395355,-0.016087500378489494
-0.43800002336502075,5.197050094604492,8.202000617980957,0.07039999961853027,0.02681249938905239,-0.02213750034570694
-0.41505002975463867,5.17995023727417,8.290050506591797,0.03616249933838844,-0.0012374999932944775,-0.013612499460577965
-0.364050030708313,5.1160502433776855,8.319000244140625,0.022687500342726707,-0.02199999988079071,-0.01732499897480011
-0.5080500245094299,5.130000114440918,8.320950508117676,0.04235000163316727,-0.0037124999798834324,-0.021037500351667404
-0.48405003547668457,5.176050186157227,8.319000244140625,0.05321250110864639,0.010999999940395355,-0.006324999965727329
-0.3910500109195709,5.06505012512207,8.356950759887695,0.06311249732971191,0.01952499896287918,-0.002612499985843897
-0.37905001640319824,5.16795015335083,8.367000579833984,0.1289750039577484,0.07699999958276749,-0.02956249937415123
-0.48405003547668457,5.247000217437744,8.377050399780273,0.17297500371932983,0.10752499848604202,-0.033137500286102295
-0.49800002574920654,5.283000469207764,8.142000198364258,0.14492499828338623,0.05252499878406525,-0.038087498396635056
-0.5770500302314758,5.394000053405762,8.029050827026367,0.07644999772310257,-0.0037124999798834324,-0.03437500074505806
-0.5320500135421753,5.314050197601318,8.130000114440918,0.028875000774860382,-0.028049999848008156,-0.02708750031888485
-0.5920500159263611,5.371950149536133,8.143950462341309,0.026399999856948853,-0.023237500339746475,-0.01979999989271164
-0.5629500150680542,5.323950290679932,8.266050338745117,0.05321250110864639,0.010999999940395355,-0.005087499972432852
-0.5130000114440918,5.251950263977051,8.010000228881836,0.0728750005364418,0.0085249999538064,-0.021037500351667404
-0.520050048828125,5.343000411987305,8.029050827026367,0.03135000169277191,0.0012374999932944775,-0.01732499897480011
-0.42195001244544983,5.242950439453125,8.104050636291504,0.0031624999828636646,-0.0085249999538064,-0.01484999991953373
-0.5029500126838684,5.254950046539307,8.128050804138184,-0.018837500363588333,-0.025712499395012856,-0.03203750029206276
-0.5629500150680542,5.322000026702881,8.227950096130371,-0.023649999871850014,-0.02199999988079071,-0.035612501204013824
-0.5920500159263611,5.331000328063965,8.329050064086914,0.0006874999962747097,-0.00976249948143959,-0.02213750034570694
-0.5460000038146973,5.293050289154053,8.233050346374512,0.03739999979734421,0.01223750039935112,-0.016087500378489494
-0.6439500451087952,5.353050231933594,8.105999946594238,0.043449997901916504,0.02681249938905239,-0.016087500378489494
-0.6060000061988831,5.377050399780273,8.211000442504883,0.026399999856948853,0.025575000792741776,-0.0013749999925494194
-0.4620000123977661,5.251950263977051,8.215950012207031,0.020349999889731407,0.0012374999932944775,-0.002612499985843897
-0.520050048828125,5.314050197601318,8.161050796508789,0.012924999929964542,-0.015949999913573265,-0.02956249937415123
-0.5800500512123108,5.347950458526611,8.170949935913086,0.020349999889731407,-0.007287499960511923,-0.028324998915195465
-0.5509500503540039,5.283000469207764,8.09595012664795,0.0411125011742115,0.01223750039935112,-0.01979999989271164
-0.5700000524520874,5.322000026702881,8.08905029296875,0.05211250111460686,0.035475000739097595,-0.01732499897480011
-0.597000002861023,5.377050399780273,8.14905071258545,0.043449997901916504,0.047575000673532486,-0.008799999952316284
-0.6160500049591064,5.431950092315674,8.163000106811523,0.011687500402331352,0.01223750039935112,-0.005087499972432852
-0.5680500268936157,5.4340500831604,8.257050514221191,0.0056374999694526196,0.0085249999538064,0.002199999988079071
-0.39795002341270447,5.254950046539307,8.308950424194336,0.03492499887943268,0.020762499421834946,0.009624999947845936
-0.44805002212524414,5.254950046539307,8.158950805664062,0.06311249732971191,0.028049999848008156,-0.01484999991953373
-0.5580000281333923,5.319000244140625,8.002950668334961,0.05444999784231186,0.02928750030696392,-0.02461249940097332
-0.6679500341415405,5.379000186920166,8.068050384521484,0.023924998939037323,0.030524998903274536,-0.01732499897480011
-0.5850000381469727,5.317050457000732,8.3860502243042,0.05939999967813492,0.08910000324249268,0.004674999974668026
-0.4120500087738037,5.2669501304626465,8.604000091552734,0.1779250055551529,0.15633749961853027,0.005912499967962503
-0.42900002002716064,5.281050205230713,8.0149507522583,0.22068749368190765,0.10381250083446503,-0.028324998915195465
-0.5509500503540039,5.503950119018555,7.636950492858887,0.13392500579357147,0.035475000739097595,-0.05884999781847
-0.7330500483512878,5.551950454711914,7.699050426483154,0.03863750025629997,0.0085249999538064,-0.05156249925494194
-0.7350000143051147,5.494050025939941,7.90500020980835,0.008112499490380287,0.02681249938905239,-0.030799999833106995
-0.8380500674247742,5.496000289916992,8.050950050354004,0.012924999929964542,0.04399999976158142,-0.02708750031888485
-0.9130500555038452,5.599050045013428,8.068050384521484,0.03492499887943268,0.03657500073313713,-0.018562499433755875
-0.8689500689506531,5.63100004196167,7.969950199127197,0.03616249933838844,0.035475000739097595,-0.005087499972432852
-0.7780500650405884,5.554050445556641,8.094000816345215,0.03368749842047691,0.05623750016093254,0.002199999988079071
-0.7110000252723694,5.452950477600098,8.094000816345215,0.05444999784231186,0.0635249987244606,-0.0002749999985098839
-0.8530500531196594,5.491950035095215,7.930950164794922,0.07768750190734863,0.07328750193119049,-0.0038499999791383743
-0.8410500288009644,5.5489501953125,7.8349504470825195,0.07039999961853027,0.07452499866485596,0.005912499967962503
-0.673050045967102,5.512950420379639,8.034000396728516,0.025162499397993088,0.07576250284910202,0.021724998950958252
-0.5989500284194946,5.425050258636475,8.395950317382812,0.020349999889731407,0.04633750021457672,0.007149999961256981
-0.6469500064849854,5.47005033493042,8.221050262451172,0.06063750013709068,0.004812499973922968,-0.02213750034570694
-0.7669500112533569,5.556000232696533,7.9360504150390625,0.07644999772310257,0.020762499421834946,-0.02956249937415123
-0.7710000276565552,5.575050354003906,7.885950565338135,0.08387500047683716,0.05004999786615372,-0.021037500351667404
-0.7570500373840332,5.539950370788574,8.00100040435791,0.08139999955892563,0.09652499854564667,-0.002612499985843897
-0.6919500231742859,5.523000240325928,8.202000617980957,0.09487500041723251,0.08181250095367432,-0.006324999965727329
-0.6949500441551208,5.578050136566162,7.813950538635254,0.0728750005364418,0.00976249948143959,-0.02461249940097332
-0.9289500713348389,5.748000144958496,7.681950569152832,-0.007837500423192978,-0.02928750030696392,-0.030799999833106995
-0.9649500250816345,5.797950267791748,8.034000396728516,-0.06517499685287476,-0.03904999792575836,-0.002612499985843897
-0.7519500255584717,5.580000400543213,8.295000076293945,-0.02983750030398369,-0.03671250119805336,0.014437500387430191
-0.6640500426292419,5.563050270080566,8.09595012664795,0.04468749836087227,-0.01347499992698431,0.0009624999947845936
-0.8809500336647034,5.590050220489502,7.8259501457214355,0.06421250104904175,-0.0085249999538064,-0.002612499985843897
-1.0369499921798706,5.710050106048584,7.708950519561768,-0.007837500423192978,-0.06104999780654907,0.008387500420212746
-0.7690500617027283,5.611050128936768,8.010000228881836,-0.09336250275373459,-0.10147500038146973,0.02667500078678131
-0.5770500302314758,5.4559502601623535,8.182950019836426,-0.0859375,-0.11604999750852585,0.009624999947845936
-0.6559500098228455,5.52495002746582,7.998000144958496,-0.018837500363588333,-0.07947500050067902,-0.016087500378489494
-0.7450500130653381,5.614050388336182,7.833000183105469,0.021587500348687172,-0.006187499966472387,0.002199999988079071
-0.5890500545501709,5.596950054168701,7.900050163269043,0.03368749842047691,0.05128749832510948,0.03162499889731407
-0.4050000309944153,5.419950485229492,8.038949966430664,0.03492499887943268,0.054999999701976776,0.02419999986886978
-0.42195001244544983,5.394000053405762,8.046000480651855,0.03492499887943268,0.035337500274181366,-0.021037500351667404
-0.7780500650405884,5.595000267028809,8.002950668334961,0.03244999796152115,0.004812499973922968,-0.05637500062584877
-0.8719500303268433,5.75700044631958,7.941000461578369,0.0031624999828636646,-0.02199999988079071,-0.038087498396635056
-0.7549500465393066,5.695050239562988,7.981050491333008,-0.010312499478459358,-0.00976249948143959,-0.016087500378489494
-0.7690500617027283,5.595000267028809,8.107950210571289,-0.004124999977648258,-0.002474999986588955,-0.02461249940097332
-0.8809500336647034,5.647050380706787,8.191950798034668,0.006874999962747097,-0.01952499896287918,-0.03437500074505806
-0.8860500454902649,5.662050247192383,8.017050743103027,0.022687500342726707,-0.032999999821186066,-0.02708750031888485
-0.7669500112533569,5.602050304412842,7.921950340270996,0.03863750025629997,-0.006187499966472387,-0.018562499433755875
-0.7399500608444214,5.559000492095947,7.921950340270996,0.04839999973773956,0.0170499999076128,-0.018562499433755875
-0.7210500240325928,5.484000205993652,8.044050216674805,0.07411249727010727,0.04633750021457672,-0.02461249940097332
-0.7159500122070312,5.698050498962402,7.555050373077393,0.08744999766349792,0.018287500366568565,-0.03203750029206276
-0.5509500503540039,5.563050270080566,7.579050540924072,0.016637500375509262,0.01952499896287918,-0.023375000804662704
-0.661050021648407,5.5320000648498535,7.954950332641602,-0.02488750033080578,0.023237500339746475,-0.04413750022649765
-0.8340000510215759,5.568000316619873,8.08395004272461,-0.050599999725818634,-0.025712499395012856,-0.050324998795986176
-0.9289500713348389,5.728950500488281,7.728000164031982,-0.040837500244379044,-0.025712499395012856,-0.03437500074505806
-1.2360000610351562,6.033000469207764,7.360950469970703,-0.07741250097751617,0.16376249492168427,0.03891250118613243
-0.5269500017166138,5.317050457000732,8.60205078125,-0.09569999575614929,0.11233749985694885,0.04743750020861626
-0.364050030708313,5.20395040512085,8.910000801086426,-0.03464999794960022,-0.10147500038146973,-0.07479999959468842
-0.8479500412940979,5.619000434875488,7.9960503578186035,0.04468749836087227,-0.09047500044107437,-0.11508750170469284
-0.9940500259399414,5.712000370025635,7.768050193786621,0.07411249727010727,0.0012374999932944775,-0.09308750182390213
-0.7950000166893005,5.688000202178955,7.945950508117676,-0.038362499326467514,-0.032999999821186066,-0.05156249925494194
-0.9130500555038452,5.800950050354004,7.924050331115723,-0.03464999794960022,-0.02694999985396862,-0.04179999977350235
-0.7810500264167786,5.668950080871582,8.14905071258545,-0.009074999950826168,0.0317624993622303,-0.01484999991953373
-0.7020000219345093,5.520000457763672,8.269050598144531,0.027637500315904617,0.032999999821186066,-0.030799999833106995
-0.8790000677108765,5.5489501953125,8.03700065612793,0.04468749836087227,-0.0037124999798834324,-0.0625625029206276
-1.0900501012802124,5.677950382232666,7.953000545501709,0.028875000774860382,-0.01952499896287918,-0.06132499873638153
-1.068000078201294,5.664000034332275,8.02695083618164,0.023924998939037323,-0.0147124994546175,-0.03684999793767929
-1.450950026512146,5.865000247955322,6.289050102233887,0.012924999929964542,-0.02447500079870224,-0.02708750031888485
-1.446000099182129,5.869950294494629,6.423000335693359,-0.2765125036239624,-0.002474999986588955,0.062150001525878906
-0.28995001316070557,4.942950248718262,8.760000228881836,-0.3339875042438507,-0.06476250290870667,0.040150001645088196
-1.059000015258789,5.527950286865234,9.507000923156738,-0.09693749994039536,-0.05128749832510948,-0.06861250102519989
-1.3699500560760498,5.7430500984191895,8.956050872802734,0.11192499846220016,0.05252499878406525,0.0009624999947845936
-0.7140000462532043,5.665950298309326,7.945950508117676,0.04839999973773956,-0.054999999701976776,-0.012374999932944775
-0.8460000157356262,5.748000144958496,7.840050220489502,-0.02488750033080578,-0.10752499848604202,-0.01484999991953373
-0.7950000166893005,5.724000453948975,7.893000602722168,-0.013887500390410423,-0.057475000619888306,0.01691249944269657
-0.7380000352859497,5.56095027923584,8.134950637817383,0.026399999856948853,0.0085249999538064,0.03519999980926514
-0.7860000133514404,5.476950168609619,8.138999938964844,0.05087500065565109,-0.0085249999538064,0.020624998956918716
-0.9049500226974487,5.506050109863281,7.914000511169434,0.043449997901916504,-0.05252499878406525,0.009624999947845936
-1.0750499963760376,5.725950241088867,7.735050201416016,0.025162499397993088,0.00976249948143959,-0.0013749999925494194
-0.9270000457763672,5.767050266265869,7.740000247955322,0.009349999949336052,0.05128749832510948,0.03396249935030937
-0.687000036239624,5.650050163269043,8.020050048828125,-0.043175000697374344,0.02681249938905239,0.03891250118613243
-0.6420000195503235,5.5849504470825195,8.178000450134277,-0.06159999966621399,-0.0012374999932944775,0.027912499383091927
-0.7690500617027283,5.559000492095947,8.282999992370605,-0.0541750006377697,-0.05623750016093254,-0.0013749999925494194
-0.7999500632286072,5.580000400543213,8.038949966430664,0.006874999962747097,-0.0317624993622303,0.002199999988079071
-0.8380500674247742,5.547000408172607,7.957950592041016,0.030112499371170998,0.007287499960511923,0.011962499469518661
-0.8650500178337097,5.583000183105469,8.04104995727539,0.03368749842047691,0.037812501192092896,0.02914999984204769
-0.7519500255584717,5.53695011138916,7.938000202178955,0.010587500408291817,0.0012374999932944775,0.0424874983727932
-0.6490500569343567,5.484000205993652,7.912050247192383,-0.02983750030398369,-0.032999999821186066,0.03148749843239784
-0.6400500535964966,5.520000457763672,8.017050743103027,-0.04441250115633011,-0.035475000739097595,0.010724999941885471
-0.7069500088691711,5.508000373840332,8.020050048828125,-0.02241249941289425,-0.025712499395012856,-0.005087499972432852
-0.7330500483512878,5.491950035095215,8.02695083618164,0.016637500375509262,0.004812499973922968,-0.016087500378489494
-0.8719500303268433,5.566050052642822,7.849950313568115,0.03863750025629997,0.018287500366568565,-0.025849999859929085
-1.0300500392913818,5.809950351715088,7.740000247955322,0.0056374999694526196,0.014574999921023846,-0.008799999952316284
-0.9079500436782837,5.764950275421143,7.885950565338135,-0.060362499207258224,-0.0147124994546175,0.02419999986886978
-0.8100000619888306,5.653950214385986,8.110950469970703,-0.09941250085830688,-0.05376249924302101,0.020624998956918716
-0.8929500579833984,5.623050212860107,8.32395076751709,-0.07383749634027481,-0.047712501138448715,0.0193875003606081
-0.8809500336647034,5.566050052642822,8.259000778198242,-0.004124999977648258,-0.028187500312924385,0.03396249935030937
-0.8790000677108765,5.712000370025635,7.8349504470825195,-0.0518375001847744,-0.05623750016093254,0.05596249923110008
-0.8190000653266907,5.662050247192383,7.8949503898620605,-0.07383749634027481,-0.05623750016093254,0.06572499871253967
-0.47895002365112305,5.461050033569336,7.998000144958496,-0.09336250275373459,-0.06476250290870667,0.0644875019788742
-0.6010500192642212,5.4150004386901855,8.158950805664062,-0.06641250103712082,-0.04647500067949295,0.021724998950958252
-0.8959500193595886,5.587050437927246,7.948050498962402,-0.03959999978542328,-0.05004999786615372,0.014437500387430191
-0.8809500336647034,5.710050106048584,7.567050457000732,-0.04441250115633011,-0.018287500366568565,0.0681999996304512
-0.6400500535964966,5.599050045013428,7.594050407409668,-0.10917499661445618,0.0170499999076128,0.0999625027179718
-0.5490000247955322,5.559000492095947,7.978950500488281,-0.1629374921321869,0.0012374999932944775,0.09624999761581421
-0.37095001339912415,5.293050289154053,8.338050842285156,-0.15936249494552612,-0.04152499884366989,0.08772499859333038
-0.3520500063896179,5.188050270080566,8.419950485229492,-0.13488750159740448,-0.05252499878406525,0.06696250289678574
-0.4120500087738037,5.251950263977051,8.320950508117676,-0.060362499207258224,-0.04399999976158142,0.018149999901652336
-0.4620000123977661,5.329050064086914,8.230050086975098,-0.023649999871850014,-0.01347499992698431,0.009624999947845936
-0.5749500393867493,5.394000053405762,8.092050552368164,0.0031624999828636646,0.037812501192092896,0.0193875003606081
-0.5530500411987305,5.401050090789795,8.131950378417969,-0.043175000697374344,0.01952499896287918,0.030387500301003456
-0.4819500148296356,5.221050262451172,8.544000625610352,-0.018837500363588333,-0.037950001657009125,-0.025849999859929085
-0.7500000596046448,5.3959503173828125,8.266050338745117,0.021449999883770943,-0.045237500220537186,-0.050324998795986176
-0.8650500178337097,5.451000213623047,8.167950630187988,0.027637500315904617,-0.035475000739097595,-0.04413750022649765
-0.7309500575065613,5.479950428009033,8.116050720214844,0.026399999856948853,-0.0170499999076128,-0.018562499433755875
-0.5680500268936157,5.410050392150879,8.138999938964844,0.03987500071525574,0.007287499960511923,-0.012374999932944775
-0.6319500207901001,5.374050140380859,8.130000114440918,0.06311249732971191,0.015812499448657036,-0.02956249937415123
-0.7570500373840332,5.4370503425598145,8.03700065612793,0.06544999778270721,0.004812499973922968,-0.03684999793767929
-0.7189500331878662,5.508000373840332,8.218950271606445,-0.06641250103712082,0.007287499960511923,0.030387500301003456
-0.6060000061988831,5.367000102996826,8.587050437927246,-0.031075000762939453,-0.006187499966472387,0.03519999980926514
-0.6520500183105469,5.431950092315674,8.034000396728516,0.05211250111460686,-0.015949999913573265,0.013199999928474426
-0.661050021648407,5.413050174713135,7.888050556182861,0.03368749842047691,0.006049999967217445,0.025437500327825546
-0.534000039100647,5.37000036239624,8.010000228881836,-0.009074999950826168,-0.0012374999932944775,0.02914999984204769
-0.5130000114440918,5.3620500564575195,8.04900074005127,-0.020075000822544098,-0.015949999913573265,0.022962499409914017
-0.4939500093460083,5.425050258636475,8.062950134277344,-0.03464999794960022,-0.04028749838471413,0.010724999941885471
-0.4819500148296356,5.367000102996826,8.230050086975098,-0.02241249941289425,-0.01347499992698431,0.004674999974668026
-0.5149500370025635,5.343000411987305,8.326050758361816,0.012924999929964542,-0.0,-0.007562499959021807
-0.6540000438690186,5.379000186920166,8.131950378417969,0.03987500071525574,0.002474999986588955,-0.010037500411272049
-0.673050045967102,5.464950084686279,8.07194995880127,0.03135000169277191,-0.0,0.005912499967962503
-0.49605002999305725,5.45805025100708,8.116050720214844,-0.006599999964237213,-0.03423750028014183,0.011962499469518661
-0.4549500346183777,5.422050476074219,8.227950096130371,-0.021175000816583633,-0.05004999786615372,-0.005087499972432852
-0.46695002913475037,5.431950092315674,8.282999992370605,-0.0028874999843537807,-0.04152499884366989,-0.013612499460577965
-0.5320500135421753,5.419950485229492,8.14905071258545,0.06668750196695328,0.0037124999798834324,-0.01484999991953373
-0.5890500545501709,5.428950309753418,7.990950584411621,0.08992499858140945,0.028049999848008156,-0.012374999932944775
-0.661050021648407,5.443950176239014,7.849950313568115,0.06792499870061874,0.032999999821186066,-0.002612499985843897
-0.5059500336647034,5.416950225830078,7.969950199127197,-0.007837500423192978,-0.020762499421834946,-0.002612499985843897
-0.46695002913475037,5.355000019073486,8.269050598144531,-0.03959999978542328,-0.054999999701976776,-0.02461249940097332
-0.51705002784729,5.403000354766846,8.317049980163574,0.017875000834465027,-0.04399999976158142,-0.043037500232458115
-0.89805006980896,5.784000396728516,7.3060503005981445,0.09721250087022781,0.09033749997615814,-0.03437500074505806
-0.6469500064849854,5.319000244140625,8.068050384521484,0.1046374961733818,0.1551000028848648,0.025437500327825546
-0.3930000066757202,5.224050045013428,8.002950668334961,0.009349999949336052,-0.05004999786615372,-0.018562499433755875
-0.44805002212524414,5.355000019073486,7.849950313568115,-0.09088750183582306,-0.10381250083446503,-0.05637500062584877
-0.7189500331878662,5.3959503173828125,8.271000862121582,-0.050599999725818634,0.015812499448657036,-0.055137500166893005
-0.8260500431060791,5.5159502029418945,8.314050674438477,0.014162499457597733,0.05857500061392784,-0.02213750034570694
-0.7330500483512878,5.539950370788574,8.197050094604492,0.020349999889731407,0.02681249938905239,-0.0038499999791383743
-0.5820000171661377,5.551950454711914,7.954950332641602,0.0031624999828636646,-0.01347499992698431,-0.0038499999791383743
-0.6160500049591064,5.583000183105469,7.8670501708984375,-0.018837500363588333,-0.0037124999798834324,-0.011274999938905239
-0.6370500326156616,5.53695011138916,8.07705020904541,-0.045649997889995575,0.018287500366568565,0.002199999988079071
-0.5770500302314758,5.431950092315674,8.347949981689453,-0.0518375001847744,0.01223750039935112,0.004674999974668026
-0.5269500017166138,5.403000354766846,8.530050277709961,-0.021175000816583633,0.002337499987334013,-0.006324999965727329
-0.6469500064849854,5.386050224304199,8.476950645446777,0.0471624992787838,0.0035749999806284904,-0.01732499897480011
-0.6780000329017639,5.494050025939941,8.158950805664062,0.03863750025629997,-0.01223750039935112,-0.0648999959230423
-0.9559500217437744,5.676000118255615,7.711050510406494,0.06668750196695328,-0.0,-0.055137500166893005
-1.0080000162124634,5.844000339508057,7.507050514221191,0.028875000774860382,0.032999999821186066,-0.007562499959021807
-0.9220500588417053,5.75700044631958,7.603050231933594,-0.016362499445676804,0.02928750030696392,0.015675000846385956
-0.7690500617027283,5.5489501953125,7.953000545501709,-0.09459999948740005,-0.023237500339746475,0.021724998950958252
-0.8239500522613525,5.48205041885376,8.266050338745117,-0.10559999942779541,-0.0611874982714653,0.008387500420212746
-0.8070000410079956,5.4559502601623535,8.23799991607666,-0.03712499886751175,-0.04399999976158142,0.0193875003606081
-0.6349500417709351,5.440950393676758,7.962000370025635,0.021587500348687172,0.002337499987334013,0.03891250118613243
-0.51705002784729,5.413050174713135,7.881000518798828,0.022687500342726707,0.01952499896287918,0.040150001645088196
-0.44805002212524414,5.391000270843506,7.869000434875488,0.0056374999694526196,0.02433750033378601,0.0364375002682209
-0.44805002212524414,5.3959503173828125,8.056050300598145,-0.050599999725818634,-0.007424999959766865,0.015675000846385956
-0.4909500181674957,5.295000076293945,8.221050262451172,-0.07383749634027481,-0.05376249924302101,0.0009624999947845936
-0.5130000114440918,5.311950206756592,8.227950096130371,-0.06283749639987946,-0.059950001537799835,-0.006324999965727329
-0.47895002365112305,5.329050064086914,8.239950180053711,-0.02488750033080578,-0.028187500312924385,-0.01484999991953373
-0.4939500093460083,5.302950382232666,8.230050086975098,0.021587500348687172,0.004812499973922968,-0.028324998915195465
-0.6130500435829163,5.461050033569336,8.098950386047363,0.03739999979734421,0.0035749999806284904,-0.04908749833703041
-0.7159500122070312,5.53695011138916,8.044050216674805,0.025162499397993088,-0.0,-0.040562499314546585
-0.6780000329017639,5.5320000648498535,7.998000144958496,0.019112499430775642,-0.0,-0.03437500074505806
-0.5749500393867493,5.439000129699707,8.044050216674805,0.0056374999694526196,0.0085249999538064,-0.03437500074505806
-0.9340500235557556,5.662050247192383,8.034000396728516,-0.009074999950826168,-0.04399999976158142,-0.02708750031888485
-0.8220000267028809,5.674050331115723,8.0149507522583,-0.031075000762939453,-0.03671250119805336,0.002199999988079071
-0.7620000243186951,5.620950222015381,7.91895055770874,-0.038362499326467514,-0.028187500312924385,0.009624999947845936
-0.6850500106811523,5.596950054168701,8.307000160217285,-0.031075000762939453,0.035475000739097595,0.018149999901652336
-0.6919500231742859,5.401050090789795,8.58495044708252,0.015399999916553497,-0.018287500366568565,0.005912499967962503
-0.7470000386238098,5.443950176239014,7.9360504150390625,0.03863750025629997,-0.05871250107884407,-0.010037500411272049
-0.9220500588417053,5.575050354003906,7.8349504470825195,0.03739999979734421,0.01223750039935112,0.01691249944269657
-0.7189500331878662,5.496000289916992,7.9170002937316895,0.011687500402331352,0.020762499421834946,0.05472499877214432
-0.4459500312805176,5.371950149536133,7.990950584411621,-0.035887498408555984,-0.018287500366568565,0.04743750020861626
-0.5059500336647034,5.383950233459473,8.06505012512207,-0.07012499868869781,-0.057475000619888306,0.014437500387430191
-0.687000036239624,5.523000240325928,8.161050796508789,-0.060362499207258224,-0.042762499302625656,0.022962499409914017
-0.46695002913475037,5.404950141906738,8.185050010681152,-0.02736249938607216,-0.0085249999538064,0.05843750014901161
-0.208950012922287,5.197050094604492,8.281050682067871,-0.0016499999910593033,0.004812499973922968,0.0364375002682209
-0.4050000309944153,5.311950206756592,8.235000610351562,0.006874999962747097,-0.02199999988079071,-0.021037500351667404
-0.7429500222206116,5.488950252532959,8.190000534057617,0.008112499490380287,-0.035475000739097595,-0.02708750031888485
-0.5650500059127808,5.506050109863281,7.91895055770874,-0.01759999990463257,-0.025712499395012856,-0.013612499460577965
-0.6760500073432922,5.590050220489502,8.062950134277344,-0.02736249938607216,-0.006049999967217445,-0.006324999965727329
-0.661050021648407,5.563050270080566,8.161050796508789,-0.018837500363588333,0.006049999967217445,0.01691249944269657
-0.5770500302314758,5.475000381469727,8.226000785827637,0.004399999976158142,0.007287499960511923,0.02914999984204769
-0.5509500503540039,5.461050033569336,8.197050094604492,0.016637500375509262,0.0037124999798834324,0.02914999984204769
-0.5010000467300415,5.4150004386901855,7.984050273895264,0.019112499430775642,-0.01952499896287918,0.020487500354647636
-0.5749500393867493,5.449050426483154,7.855050563812256,-0.009074999950826168,-0.025712499395012856,0.008387500420212746
-0.5869500041007996,5.464950084686279,7.870950222015381,-0.026124998927116394,-0.02199999988079071,0.009624999947845936
-0.5560500025749207,5.407950401306152,8.020050048828125,-0.045649997889995575,-0.007287499960511923,0.0193875003606081
-0.4909500181674957,5.353050231933594,8.14905071258545,-0.043175000697374344,-0.007287499960511923,0.013199999928474426
-0.4939500093460083,5.311950206756592,8.307000160217285,-0.02736249938607216,0.0012374999932944775,0.0009624999947845936
-0.5370000004768372,5.350050449371338,8.211000442504883,0.0019249999895691872,-0.007287499960511923,-0.013612499460577965
-0.6199500560760498,5.443950176239014,8.062950134277344,0.0031624999828636646,-0.015949999913573265,-0.012374999932944775
-0.4909500181674957,5.439000129699707,7.950000286102295,-0.007837500423192978,-0.006049999967217445,-0.0038499999791383743
-0.4909500181674957,5.431950092315674,8.094000816345215,-0.015124999918043613,0.01347499992698431,-0.007562499959021807
-0.5509500503540039,5.427000045776367,8.143950462341309,-0.020075000822544098,-0.00494999997317791,-0.010037500411272049
-0.597000002861023,5.449050426483154,8.12505054473877,-0.026124998927116394,-0.023237500339746475,-0.010037500411272049
-0.6349500417709351,5.467950344085693,8.070000648498535,-0.02488750033080578,-0.018287500366568565,-0.005087499972432852
-0.6010500192642212,5.473050117492676,8.12505054473877,-0.020075000822544098,0.0085249999538064,0.008387500420212746
-0.45795002579689026,5.355000019073486,8.158950805664062,-0.009074999950826168,0.0170499999076128,0.009624999947845936
-0.4429500102996826,5.27400016784668,8.23799991607666,-0.013887500390410423,0.0085249999538064,-0.016087500378489494
-0.5560500025749207,5.290950298309326,8.27400016784668,0.0019249999895691872,-0.00494999997317791,-0.033137500286102295
-0.6420000195503235,5.326050281524658,8.098950386047363,0.03492499887943268,0.0085249999538064,-0.033137500286102295
-0.6400500535964966,5.45805025100708,8.034000396728516,0.04468749836087227,0.03657500073313713,-0.01484999991953373
-0.5059500336647034,5.398050308227539,7.974000453948975,0.023924998939037323,0.02928750030696392,-0.0002749999985098839
-0.37605002522468567,5.3460001945495605,7.924050331115723,0.0019249999895691872,0.010999999940395355,-0.01732499897480011
-0.37605002522468567,5.326050281524658,7.861950397491455,-0.0016499999910593033,0.010999999940395355,-0.02956249937415123
-0.47700002789497375,5.323950290679932,7.800000190734863,-0.011412499472498894,0.04399999976158142,-0.050324998795986176
-0.7189500331878662,5.422050476074219,8.02500057220459,-0.035887498408555984,0.07081250101327896,-0.055137500166893005
-0.8239500522613525,5.494050025939941,8.25,-0.057887498289346695,0.06104999780654907,-0.047849997878074646
-0.999000072479248,5.638050079345703,8.487000465393066,-0.08236250281333923,0.007287499960511923,-0.012374999932944775
-0.7090500593185425,5.578050136566162,8.52495002746582,-0.053075000643730164,0.002474999986588955,0.03891250118613243
-0.43095001578330994,5.307000160217285,8.470050811767578,0.030112499371170998,0.04881250113248825,0.037675000727176666
-0.43800002336502075,5.307000160217285,8.341050148010254,0.09363749623298645,0.07081250101327896,-0.01484999991953373
-0.9270000457763672,5.5159502029418945,8.130000114440918,0.0826374962925911,0.020762499421834946,-0.052799999713897705
-0.987000048160553,5.704950332641602,7.840050220489502,0.03616249933838844,-0.02928750030696392,-0.01732499897480011
-0.6439500451087952,5.500950336456299,7.849950313568115,0.011687500402331352,0.004812499973922968,0.0193875003606081
-0.5560500025749207,5.404950141906738,7.938000202178955,0.020349999889731407,0.042762499302625656,0.005912499967962503
-0.6640500426292419,5.401050090789795,8.022000312805176,0.03244999796152115,0.05857500061392784,-0.006324999965727329
-0.6760500073432922,5.425050258636475,7.98900032043457,0.03135000169277191,0.057475000619888306,-0.0038499999791383743
-0.5149500370025635,5.331000328063965,8.050950050354004,0.03987500071525574,0.08676250278949738,0.0034374999813735485
-0.49605002999305725,5.239950180053711,8.116050720214844,0.06421250104904175,0.11357499659061432,-0.011274999938905239
-0.7230000495910645,5.374050140380859,8.08905029296875,0.05444999784231186,0.0952875018119812,-0.02956249937415123
-0.6990000605583191,5.413050174713135,8.03700065612793,0.016637500375509262,0.054999999701976776,-0.02461249940097332
-0.6780000329017639,5.4340500831604,8.118000030517578,0.004399999976158142,0.05376249924302101,-0.02461249940097332
-0.5989500284194946,5.379000186920166,8.281050682067871,0.027637500315904617,0.059812501072883606,-0.03932499885559082
-0.5869500041007996,5.401050090789795,8.227950096130371,0.05939999967813492,0.07204999774694443,-0.05156249925494194
-0.7069500088691711,5.518050193786621,8.022000312805176,0.1069749966263771,0.10381250083446503,-0.07713750004768372
-0.7980000376701355,5.596950054168701,7.870950222015381,0.1143999993801117,0.12333749979734421,-0.07713750004768372
-1.0660500526428223,5.688000202178955,7.846950531005859,0.1069749966263771,0.1722874939441681,-0.055137500166893005
-1.141950011253357,5.731050491333008,7.921950340270996,0.0849749967455864,0.16733749210834503,-0.038087498396635056
-0.9390000700950623,5.563050270080566,8.307000160217285,0.03244999796152115,0.13928750157356262,-0.005087499972432852
-0.8650500178337097,5.439000129699707,8.353050231933594,0.021449999883770943,0.07947500050067902,-0.012374999932944775
-0.9289500713348389,5.539950370788574,8.233050346374512,0.006874999962747097,-0.0147124994546175,-0.05403750017285347
-1.1830500364303589,5.785950183868408,8.182950019836426,0.014162499457597733,-0.018287500366568565,-0.04661250114440918
-1.0630500316619873,5.676000118255615,8.07705020904541,0.04963750019669533,0.007287499960511923,0.005912499967962503
-1.0489500761032104,5.671050071716309,6.187950134277344,-0.09583749622106552,-0.12457499653100967,0.013199999928474426
-0.6679500341415405,5.307000160217285,7.627050399780273,-0.30469998717308044,-0.11604999750852585,0.013199999928474426
-0.9289500713348389,5.4559502601623535,8.962950706481934,-0.20817500352859497,-0.015949999913573265,-0.002612499985843897
-1.1539500951766968,5.628000259399414,8.695050239562988,-0.009074999950826168,0.025712499395012856,0.05348749831318855
-0.6469500064849854,5.365050315856934,8.371950149536133,0.05211250111460686,0.057475000619888306,0.06943749636411667
-0.8290500640869141,5.452950477600098,8.175000190734863,0.0471624992787838,0.035475000739097595,0.04619999974966049
-1.114050030708313,5.676000118255615,7.900050163269043,-0.02241249941289425,-0.020762499421834946,0.027912499383091927
-1.1059499979019165,5.659050464630127,7.914000511169434,-0.12388750165700912,-0.09047500044107437,0.0719124972820282
-0.7090500593185425,5.511000156402588,8.058000564575195,-0.15812499821186066,-0.1013374999165535,0.09019999951124191
-0.6280500292778015,5.47005033493042,8.122950553894043,-0.14093749225139618,-0.07699999958276749,0.08167500048875809
-0.6490500569343567,5.439000129699707,8.37405014038086,-0.0798875018954277,-0.0085249999538064,0.06572499871253967
-0.7549500465393066,5.401050090789795,8.371950149536133,-0.04441250115633011,-0.023237500339746475,0.0681999996304512
-0.520050048828125,5.299950122833252,8.179950714111328,-0.045649997889995575,-0.07204999774694443,0.06572499871253967
-0.4050000309944153,5.214000225067139,7.941000461578369,-0.052937500178813934,-0.06599999964237213,0.040150001645088196
-0.5730000138282776,5.2759504318237305,7.974000453948975,-0.05912499874830246,-0.02199999988079071,0.011962499469518661
-0.7429500222206116,5.386050224304199,8.08905029296875,-0.07383749634027481,-0.006187499966472387,0.007149999961256981
-0.7519500255584717,5.391000270843506,8.460000038146973,-0.06888750195503235,-0.0012374999932944775,0.025437500327825546
-0.5010000467300415,5.2069501876831055,8.530050277709961,-0.013887500390410423,-0.0085249999538064,0.02667500078678131
-0.5100000500679016,5.221050262451172,8.28795051574707,0.04592499881982803,-0.00976249948143959,-0.007562499959021807
-0.7710000276565552,5.350050449371338,8.008049964904785,0.04839999973773956,-0.01223750039935112,-0.023375000804662704
-0.7330500483512878,5.407950401306152,7.965000152587891,0.0019249999895691872,-0.018287500366568565,-0.007562499959021807
-0.5869500041007996,5.259000301361084,8.281050682067871,-0.02736249938607216,-0.006187499966472387,-0.0038499999791383743
-0.6280500292778015,5.20395040512085,8.434050559997559,-0.013887500390410423,-0.002474999986588955,-0.01732499897480011
-0.7810500264167786,5.271000385284424,8.428950309753418,0.04839999973773956,-0.007287499960511923,-0.040562499314546585
-0.9220500588417053,5.394000053405762,8.07194995880127,0.09116250276565552,-0.00494999997317791,-0.035612501204013824
-0.8770500421524048,5.451000213623047,7.890000343322754,0.08621250092983246,-0.00494999997317791,-0.025849999859929085
-0.814050018787384,5.467950344085693,7.768050193786621,0.03863750025629997,0.004812499973922968,-0.007562499959021807
-0.7780500650405884,5.451000213623047,7.792050361633301,0.014162499457597733,0.018287500366568565,-0.0002749999985098839
-0.6780000329017639,5.353050231933594,7.9960503578186035,-0.0028874999843537807,0.045237500220537186,0.004674999974668026
-0.6780000329017639,5.359950065612793,8.058000564575195,-0.0004124999977648258,0.04881250113248825,-0.0013749999925494194
-0.8460000157356262,5.464950084686279,8.230050086975098,-0.02488750033080578,-0.0012374999932944775,0.011962499469518661
-0.6640500426292419,5.4370503425598145,8.254050254821777,0.022687500342726707,-0.02928750030696392,0.013199999928474426
-0.6829500198364258,5.353050231933594,8.092050552368164,0.06187500059604645,0.01952499896287918,0.015675000846385956
-0.8650500178337097,5.407950401306152,8.161050796508789,0.06311249732971191,0.04028749838471413,0.013199999928474426
-0.7879500389099121,5.422050476074219,8.154000282287598,0.0471624992787838,0.0170499999076128,0.040150001645088196
-0.5059500336647034,5.311950206756592,8.05305004119873,0.03492499887943268,-0.0012374999932944775,0.04867500066757202
-0.4120500087738037,5.2860002517700195,8.038949966430664,0.028875000774860382,0.0012374999932944775,0.0193875003606081
-0.5700000524520874,5.2759504318237305,8.038949966430664,0.020349999889731407,-0.0147124994546175,-0.018562499433755875
-0.7470000386238098,5.398050308227539,8.05305004119873,0.03739999979734421,0.0085249999538064,-0.025849999859929085
-0.7690500617027283,5.416950225830078,8.092050552368164,0.06792499870061874,0.045237500220537186,-0.006324999965727329
-0.7309500575065613,5.45805025100708,8.008049964904785,0.04963750019669533,0.023237500339746475,-0.0002749999985098839
-0.7590000629425049,5.511000156402588,7.972050189971924,-0.016362499445676804,-0.035475000739097595,-0.0038499999791383743
-0.7399500608444214,5.452950477600098,8.09595012664795,-0.052937500178813934,-0.04399999976158142,-0.006324999965727329
-0.8929500579833984,5.353050231933594,8.440950393676758,0.025162499397993088,0.010999999940395355,-0.021037500351667404
-0.9030000567436218,5.401050090789795,8.214000701904297,0.08992499858140945,0.00976249948143959,-0.010037500411272049
-0.7690500617027283,5.461050033569336,7.708950519561768,0.09721250087022781,0.01223750039935112,0.0009624999947845936
-0.6589500308036804,5.5489501953125,7.579050540924072,0.05335000157356262,0.04152499884366989,0.002199999988079071
-0.6400500535964966,5.491950035095215,7.8160505294799805,-0.01759999990463257,0.04028749838471413,-0.005087499972432852
-0.6919500231742859,5.431950092315674,8.118000030517578,-0.04441250115633011,0.010999999940395355,-0.01484999991953373
-0.7090500593185425,5.443950176239014,8.11305046081543,-0.035887498408555984,0.0012374999932944775,-0.01484999991953373
-0.831000030040741,5.503950119018555,7.929000377655029,-0.011412499472498894,0.023237500339746475,-0.005087499972432852
-0.8070000410079956,5.520000457763672,8.175000190734863,-0.02736249938607216,0.05857500061392784,0.020624998956918716
-0.7189500331878662,5.452950477600098,8.371950149536133,-0.038362499326467514,0.047575000673532486,0.027912499383091927
-0.6420000195503235,5.391000270843506,8.494050025939941,-0.04207500070333481,0.025575000792741776,0.022962499409914017
-0.5940000414848328,5.314050197601318,8.617950439453125,-0.007837500423192978,-0.0037124999798834324,-0.007562499959021807
-0.5989500284194946,5.323950290679932,8.569950103759766,0.028875000774860382,-0.00494999997317791,-0.021037500351667404
-0.7020000219345093,5.3460001945495605,8.14905071258545,0.10944999754428864,0.018287500366568565,-0.03203750029206276
-0.7590000629425049,5.404950141906738,7.864050388336182,0.1266375035047531,0.03423750028014183,-0.033137500286102295
-0.89805006980896,5.518050193786621,7.630050182342529,0.0789249986410141,0.04881250113248825,-0.021037500351667404
-0.9289500713348389,5.583000183105469,7.728000164031982,0.026399999856948853,0.0317624993622303,-0.012374999932944775
-0.8380500674247742,5.56095027923584,8.154000282287598,-0.05912499874830246,-0.01952499896287918,0.0009624999947845936
-0.7780500650405884,5.488950252532959,8.355000495910645,-0.06283749639987946,-0.03904999792575836,0.0009624999947845936
-0.6520500183105469,5.440950393676758,8.302050590515137,0.009349999949336052,-0.03671250119805336,-0.011137500405311584
-0.7090500593185425,5.431950092315674,7.846950531005859,0.09597499668598175,0.023237500339746475,-0.021037500351667404
-0.8340000510215759,5.451000213623047,7.699050426483154,0.10216250270605087,0.04881250113248825,-0.02213750034570694
-0.9360000491142273,5.530050277709961,7.639050483703613,0.0826374962925911,0.059812501072883606,-0.01732499897480011
-0.8910000324249268,5.566050052642822,7.873950481414795,0.006874999962747097,0.04647500067949295,0.013199999928474426
-0.6780000329017639,5.404950141906738,8.197050094604492,-0.038362499326467514,-0.0012374999932944775,0.020624998956918716
-0.5650500059127808,5.359950065612793,8.203949928283691,-0.018837500363588333,-0.025712499395012856,-0.007562499959021807
-0.7879500389099121,5.428950309753418,7.998000144958496,0.03135000169277191,0.002474999986588955,-0.030799999833106995
-0.9049500226974487,5.580000400543213,7.9069504737854,0.04468749836087227,0.04399999976158142,-0.012374999932944775
-0.7950000166893005,5.499000072479248,8.020050048828125,0.0031624999828636646,0.02928750030696392,0.013199999928474426
-0.7090500593185425,5.45805025100708,8.050950050354004,-0.02488750033080578,-0.002474999986588955,0.009624999947845936
-0.6370500326156616,5.407950401306152,8.151000022888184,-0.0518375001847744,-0.04028749838471413,-0.01732499897480011
-0.8119500279426575,5.45805025100708,8.218950271606445,-0.026124998927116394,-0.028187500312924385,-0.038087498396635056
-0.9199500679969788,5.506050109863281,8.215950012207031,-0.006599999964237213,-0.01718750037252903,-0.033137500286102295
-1.0420500040054321,5.563050270080566,8.119950294494629,0.017875000834465027,0.0012374999932944775,-0.007562499959021807
-0.9270000457763672,5.595000267028809,8.0149507522583,0.017875000834465027,-0.0037124999798834324,0.02419999986886978
-0.661050021648407,5.506050109863281,7.819050312042236,-0.013887500390410423,-0.023237500339746475,0.027912499383091927
-0.7260000109672546,5.4340500831604,7.930950164794922,-0.05664999783039093,-0.032999999821186066,-0.0002749999985098839
-0.970050036907196,5.559000492095947,8.07194995880127,-0.06764999777078629,-0.04895000159740448,-0.011137500405311584
-0.9889500737190247,5.575050354003906,8.082000732421875,-0.048124998807907104,-0.04028749838471413,0.01691249944269657
-0.8929500579833984,5.580000400543213,8.0149507522583,-0.031075000762939453,-0.025712499395012856,0.03162499889731407
-0.7159500122070312,5.520000457763672,7.873950481414795,-0.009074999950826168,0.018287500366568565,0.04619999974966049
-0.703950047492981,5.488950252532959,7.929000377655029,-0.03217500075697899,0.023237500339746475,0.040150001645088196
-0.7399500608444214,5.484000205993652,8.07705020904541,-0.060362499207258224,0.007287499960511923,0.037675000727176666
-0.6589500308036804,5.329050064086914,8.367000579833984,-0.0835999995470047,-0.037950001657009125,0.03162499889731407
-0.6180000305175781,5.305050373077393,8.359950065612793,-0.06641250103712082,-0.04647500067949295,0.022962499409914017
-0.6199500560760498,5.290950298309326,8.269050598144531,-0.013887500390410423,-0.025712499395012856,0.004674999974668026
-0.6760500073432922,5.310000419616699,8.146950721740723,0.012924999929964542,-0.007287499960511923,0.0009624999947845936
-0.6919500231742859,5.419950485229492,8.017050743103027,0.023924998939037323,0.02199999988079071,0.004674999974668026
-0.5920500159263611,5.38200044631958,8.173049926757812,-0.006599999964237213,0.015812499448657036,0.007149999961256981
-0.6760500073432922,5.377050399780273,8.347949981689453,-0.02983750030398369,-0.0317624993622303,-0.01732499897480011
-0.7429500222206116,5.440950393676758,8.28600025177002,-0.009074999950826168,-0.05623750016093254,-0.023375000804662704
-0.6709500551223755,5.383950233459473,8.06505012512207,0.03616249933838844,-0.02199999988079071,-0.016087500378489494
-0.7930500507354736,5.440950393676758,7.969950199127197,0.05087500065565109,0.007287499960511923,-0.023375000804662704
-0.831000030040741,5.56095027923584,7.945950508117676,0.016637500375509262,-0.00494999997317791,-0.016087500378489494
-0.7210500240325928,5.5159502029418945,8.038949966430664,-0.012649999931454659,-0.015949999913573265,-0.006324999965727329
-0.673050045967102,5.419950485229492,8.074950218200684,0.0006874999962747097,0.00976249948143959,-0.011274999938905239
-0.7470000386238098,5.3620500564575195,8.146950721740723,0.03492499887943268,0.045237500220537186,-0.02213750034570694
-0.9360000491142273,5.556000232696533,7.492950439453125,0.06187500059604645,0.020762499421834946,-0.02213750034570694
-0.7140000462532043,5.419950485229492,7.948050498962402,-0.011412499472498894,0.06476250290870667,0.0034374999813735485
-0.8260500431060791,5.3359503746032715,8.050950050354004,-0.045649997889995575,0.0037124999798834324,-0.01979999989271164
-0.9940500259399414,5.602050304412842,8.059950828552246,-0.055412501096725464,-0.007287499960511923,-0.012374999932944775
-0.8650500178337097,5.3959503173828125,8.295000076293945,-0.03217500075697899,0.04028749838471413,0.0193875003606081
-0.6280500292778015,5.3620500564575195,8.282999992370605,0.017875000834465027,0.05128749832510948,0.0193875003606081
-0.5560500025749207,5.3580002784729,8.002950668334961,0.04963750019669533,0.06228749826550484,-0.0038499999791383743
-0.7309500575065613,5.496000289916992,7.909950256347656,0.03244999796152115,0.08057499676942825,-0.01979999989271164
-0.6010500192642212,5.343000411987305,8.245050430297852,-0.04207500070333481,-0.01347499992698431,-0.010037500411272049
-0.7570500373840332,5.353050231933594,8.242050170898438,-0.011412499472498894,-0.0,-0.03932499885559082
-0.6799500584602356,5.355000019073486,8.130000114440918,0.008112499490380287,-0.02928750030696392,-0.0013749999925494194
-0.7330500483512878,5.353050231933594,7.858950138092041,0.019112499430775642,-0.02447500079870224,-0.040562499314546585
-1.3650000095367432,5.571000099182129,8.086950302124023,0.004399999976158142,-0.02928750030696392,-0.050324998795986176
-1.2480000257492065,5.94195032119751,7.051950454711914,-0.12993749976158142,-0.0672374963760376,0.008387500420212746
-0.6420000195503235,5.329050064086914,8.532000541687012,-0.15936249494552612,0.04152499884366989,0.0644875019788742
-0.9679500460624695,5.334000110626221,9.065999984741211,-0.0028874999843537807,0.03423750028014183,-0.0002749999985098839
-0.9100500345230103,5.523000240325928,8.383950233459473,0.10587500035762787,0.03423750028014183,0.01691249944269657
-1.0200001001358032,5.439000129699707,8.166000366210938,0.11687500029802322,0.04028749838471413,0.02419999986886978
-0.8380500674247742,5.494050025939941,8.00100040435791,0.07039999961853027,0.015812499448657036,0.0424874983727932
-0.5509500503540039,5.391000270843506,8.002950668334961,0.0006874999962747097,-0.03423750028014183,0.04619999974966049
-0.3930000066757202,5.299950122833252,7.978950500488281,-0.026124998927116394,-0.05376249924302101,0.018149999901652336
-0.5920500159263611,5.329050064086914,8.070000648498535,-0.015124999918043613,-0.02447500079870224,-0.005087499972432852
-0.7690500617027283,5.338050365447998,8.185050010681152,0.010587500408291817,0.0037124999798834324,0.002199999988079071
-0.6540000438690186,5.269050121307373,8.27595043182373,0.028875000774860382,0.0085249999538064,0.010724999941885471
-0.6250500082969666,5.27400016784668,8.206950187683105,0.04235000163316727,-0.0147124994546175,-0.01484999991953373
-0.7860000133514404,5.427000045776367,8.06505012512207,0.04235000163316727,-0.01223750039935112,-0.03684999793767929
-0.8719500303268433,5.500950336456299,8.105999946594238,0.03368749842047691,-0.0085249999538064,-0.033137500286102295
-0.8050500154495239,5.44605016708374,8.118000030517578,0.028875000774860382,-0.01952499896287918,-0.02956249937415123
-0.8670000433921814,5.427000045776367,7.993050575256348,0.03987500071525574,-0.020762499421834946,-0.043037500232458115
-0.9600000381469727,5.554050445556641,7.929000377655029,0.04963750019669533,-0.00494999997317791,-0.03932499885559082
-0.843000054359436,5.583000183105469,7.804050445556641,0.03492499887943268,0.0037124999798834324,-0.018562499433755875
-0.7399500608444214,5.512950420379639,7.893000602722168,0.0031624999828636646,0.006049999967217445,-0.016087500378489494
-0.7620000243186951,5.488950252532959,8.06505012512207,-0.004124999977648258,0.006049999967217445,-0.025849999859929085
-0.7330500483512878,5.463000297546387,8.005050659179688,0.004399999976158142,-0.0085249999538064,-0.023375000804662704
-0.7710000276565552,5.4340500831604,7.912050247192383,0.004399999976158142,-0.0085249999538064,-0.023375000804662704
-0.9360000491142273,5.551950454711914,7.938000202178955,-0.01759999990463257,0.0012374999932944775,-0.013612499460577965
-0.6949500441551208,5.394000053405762,8.30505084991455,-0.005362499970942736,-0.018287500366568565,0.005912499967962503
-0.6829500198364258,5.383950233459473,8.163000106811523,0.010587500408291817,-0.025712499395012856,-0.013612499460577965
-0.9049500226974487,5.520000457763672,7.902000427246094,0.05087500065565109,0.018287500366568565,-0.038087498396635056
-0.9679500460624695,5.583000183105469,7.8349504470825195,0.03492499887943268,0.04647500067949295,-0.013612499460577965
-0.9580500721931458,5.571000099182129,7.9360504150390625,0.0056374999694526196,0.03671250119805336,-0.005087499972432852
-0.831000030040741,5.52495002746582,8.13705062866211,-0.03341250121593475,-0.010999999940395355,0.004674999974668026
-0.7669500112533569,5.508000373840332,8.12505054473877,-0.03712499886751175,-0.04028749838471413,-0.0038499999791383743
-0.7740000486373901,5.476950168609619,8.017050743103027,-0.009074999950826168,-0.01952499896287918,-0.006324999965727329
-0.690000057220459,5.394000053405762,8.020050048828125,0.0006874999962747097,0.02447500079870224,-0.007562499959021807
-0.661050021648407,5.334000110626221,8.32395076751709,-0.0016499999910593033,0.015812499448657036,-0.01979999989271164
-0.6970500349998474,5.326050281524658,8.347949981689453,0.008112499490380287,-0.002474999986588955,-0.030799999833106995
-0.8670000433921814,5.48205041885376,8.10105037689209,0.03244999796152115,-0.023237500339746475,-0.043037500232458115
-0.8809500336647034,5.511000156402588,8.05305004119873,0.028875000774860382,-0.006187499966472387,-0.02708750031888485
-0.7140000462532043,5.4340500831604,8.04900074005127,0.023924998939037323,-0.0037124999798834324,-0.023375000804662704
-0.6540000438690186,5.440950393676758,7.953000545501709,0.03244999796152115,0.0037124999798834324,-0.045375000685453415
-0.8550000190734863,5.484000205993652,7.846950531005859,0.027637500315904617,0.00976249948143959,-0.0648999959230423
-1.114050030708313,5.607000350952148,7.984050273895264,0.0006874999962747097,0.015812499448657036,-0.060087498277425766
-1.0300500392913818,5.608950138092041,8.295000076293945,-0.016362499445676804,0.010999999940395355,-0.01979999989271164
-0.7950000166893005,5.394000053405762,8.344950675964355,0.0019249999895691872,-0.02199999988079071,-0.01732499897480011
-1.2480000257492065,5.749950408935547,5.9730000495910645,-0.006599999964237213,-0.023237500339746475,-0.025849999859929085
-1.1950500011444092,5.479950428009033,7.653000354766846,-0.20941250026226044,-0.030524998903274536,0.03396249935030937
-0.4650000333786011,5.137050151824951,8.743050575256348,-0.15812499821186066,-0.047712501138448715,0.009624999947845936
