accX,accY,accZ,gyroX,gyroY,gyroZ
0.02898048236966133,3.3789784908294678,9.064055442810059,-0.011692194268107414,-0.047790851444005966,0.03956103324890137
0.06251160055398941,3.398139238357544,9.219735145568848,-0.06123087555170059,-0.014232384040951729,0.008665941655635834
-0.030896522104740143,3.3286819458007812,9.437687873840332,-0.08200516551733017,0.018260732293128967,-0.009977650828659534
-0.04766207933425903,3.237668991088867,9.51432991027832,-0.07081901282072067,0.007074579130858183,-0.017435088753700256
-0.059637486934661865,3.2161130905151367,9.52630615234375,-0.06336157023906708,-0.005176926497370005,-0.02329450100660324
-0.0356866791844368,3.1706063747406006,9.581392288208008,-0.05750215798616409,-0.02382051572203636,-0.04087274521589279
-0.14586035907268524,3.031691789627075,9.765813827514648,-0.05324076861143112,0.060341980308294296,-0.0536569245159626
-0.2201078236103058,2.9981608390808105,9.825691223144531,-0.0351298525929451,0.05075385048985481,-0.05259157344698906
-0.29675036668777466,3.08198881149292,9.662825584411621,0.04743462800979614,0.027316195890307426,-0.03501332923769951
-0.21771275997161865,3.1251003742218018,9.47840404510498,0.052228689193725586,0.0693974494934082,-0.02382717654109001
-0.26082417368888855,3.1801869869232178,9.660429954528809,0.10070203989744186,0.02039143070578575,-0.06377772986888885
-0.31351596117019653,3.120309829711914,9.593368530273438,0.14331595599651337,0.07206081598997116,-0.05152622237801552
-0.2775897681713104,3.208927869796753,9.440083503723145,0.1704823225736618,0.07046280056238174,-0.03288263455033302
-0.2656143605709076,3.299940824508667,9.27242660522461,0.16089420020580292,0.04702512547373772,-0.04300343990325928
-0.20573735237121582,3.3143112659454346,9.186203956604004,0.1390545517206192,0.04063304141163826,-0.054722268134355545
-0.26082417368888855,3.3574225902557373,9.114351272583008,0.06288217008113861,0.039035018533468246,-0.07922528684139252
-0.32549136877059937,3.3430521488189697,9.315539360046387,-0.006898125633597374,0.017195388674736023,-0.07496389001607895
-0.25363895297050476,3.309521198272705,9.47840404510498,-0.015420915558934212,0.026783516630530357,-0.06058168411254883
-0.2823799252510071,3.220902919769287,9.53588581085205,0.017604878172278404,0.02838153950870037,-0.0536569245159626
-0.3973437547683716,3.2041378021240234,9.461638450622559,-0.027672411873936653,0.013999342918395996,-0.06058168411254883
-0.4596158564090729,3.1586313247680664,9.574207305908203,-0.046316005289554596,0.03157758340239525,-0.026490546762943268
-0.3733929693698883,3.1610262393951416,9.636479377746582,-0.03193380683660507,0.02838153950870037,-0.004650910384953022
-0.38297325372695923,3.156235933303833,9.559837341308594,0.006418723613023758,0.007074579130858183,-0.009444977156817913
-0.41171422600746155,3.137075424194336,9.485589981079102,0.021866271272301674,-0.012634361162781715,-0.015304391272366047
-0.46440598368644714,3.189767360687256,9.303563117980957,0.03251975029706955,-0.04992154613137245,-0.01903311163187027
-0.27040454745292664,3.3502376079559326,9.224526405334473,0.00961476843804121,-0.05098689720034599,-0.029686588793992996
-0.28717008233070374,3.3334720134735107,9.392181396484375,-0.004234759137034416,-0.026483887806534767,-0.06590843200683594
-0.35662737488746643,3.225693464279175,9.49038028717041,0.03411777317523956,-0.028614582493901253,-0.042470768094062805
-0.2033422887325287,3.307126045227051,9.210155487060547,-0.003169408068060875,-0.04619282856583595,-0.0019875401630997658
-0.23447832465171814,3.3143112659454346,9.607738494873047,0.0053533753380179405,-0.012101687490940094,0.074184849858284
-0.04047684371471405,3.4484360218048096,9.344279289245605,0.03358510136604309,-0.02701655961573124,0.02890755608677864
-0.232083261013031,3.3478424549102783,9.418527603149414,0.018670227378606796,-0.042464111000299454,-0.058450985699892044
-0.49075189232826233,3.3238916397094727,9.37302017211914,-0.012224866077303886,-0.034474000334739685,-0.05418959632515907
-0.6009255647659302,3.4675962924957275,9.473614692687988,-0.0388585701584816,-0.04619282856583595,-0.013706369325518608
-0.07400794327259064,3.05564284324646,9.157463073730469,-0.12515176832675934,-0.2214425802230835,0.09655715525150299
-0.023711279034614563,2.9358887672424316,9.315539360046387,-0.16510231792926788,-0.15539099276065826,0.04968184232711792
-0.2751946747303009,3.0963592529296875,9.602948188781738,-0.16403697431087494,0.028914211317896843,0.004404548555612564
-0.1865767240524292,3.1155197620391846,9.59815788269043,-0.11982502043247223,0.0528845451772213,0.03423429653048515
-0.06921778619289398,2.8736166954040527,9.538281440734863,-0.054838791489601135,-0.06430374085903168,0.06406404078006744
-0.15783575177192688,3.2688047885894775,9.90233325958252,0.02879103273153305,-0.12023451924324036,0.048083823174238205
-0.20813244581222534,3.299940824508667,9.547861099243164,0.10283272713422775,-0.11597313731908798,0.013992682099342346
-0.2201078236103058,3.2137179374694824,9.298773765563965,0.11135551333427429,-0.09040477126836777,0.009731288999319077
-0.07640305161476135,3.2616195678710938,9.155068397521973,0.0815257653594017,-0.04139875993132591,0.017721399664878845
0.00742475688457489,3.3143112659454346,9.097586631774902,0.014408834278583527,-0.030212605372071266,0.026244185864925385
0.012214921414852142,3.3334720134735107,9.2484769821167,-0.05324076861143112,-0.01050366647541523,0.018254071474075317
-0.06442764401435852,3.307126045227051,9.411341667175293,-0.0702863335609436,0.0012151631526648998,0.011861983686685562
-0.08358827233314514,3.220902919769287,9.521515846252441,-0.04311995953321457,0.018260732293128967,0.008133266121149063
-0.054847314953804016,3.208927869796753,9.507145881652832,-0.002104060724377632,-0.025418538600206375,-0.006781606934964657
-0.038081757724285126,3.108334541320801,9.658035278320312,0.044238582253456116,-0.07921861857175827,-0.03448065370321274
-0.07879813015460968,3.0532474517822266,9.722702026367188,0.09803865849971771,-0.14100879430770874,-0.05898366495966911
-0.08358827233314514,3.0771985054016113,9.670010566711426,0.13639119267463684,-0.1474008858203888,-0.05632029101252556
-0.059637486934661865,3.1514461040496826,9.499959945678711,0.1369238644838333,-0.07442454993724823,-0.042470768094062805
0.012214921414852142,3.1945574283599854,9.653244972229004,0.11828027665615082,0.0033458578400313854,-0.01264102105051279
-0.11951448023319244,3.2783849239349365,9.780184745788574,0.1481100171804428,0.025718167424201965,0.021982792764902115
0.04095587879419327,3.4508309364318848,9.564626693725586,0.26050424575805664,-0.04193143546581268,0.034766968339681625
0.10083287954330444,3.4675962924957275,9.028128623962402,0.2764844596385956,-0.015830406919121742,-0.006248932331800461
0.20861148834228516,3.5993258953094482,7.619822978973389,0.22374972701072693,-0.06483641266822815,-0.01264102105051279
0.050536200404167175,3.5825603008270264,8.807781219482422,0.0005593085661530495,-0.1601850688457489,-0.038742050528526306
0.07688207924365997,3.6089062690734863,9.052080154418945,-0.06016553193330765,-0.03127795457839966,-0.022229153662919998
0.26848846673965454,3.70470929145813,9.406551361083984,-0.14912210404872894,0.1769976019859314,0.008133266121149063
0.5103915929794312,3.838834047317505,9.22213077545166,-0.16510231792926788,0.09070441126823425,-0.021696478128433228
0.09604272246360779,3.5993258953094482,9.12872314453125,-0.35633230209350586,0.13757972419261932,-0.09360747784376144
-0.2751946747303009,3.247249126434326,9.780184745788574,-0.4037402868270874,0.22387291491031647,-0.004118236247450113
-0.3039356768131256,3.0053458213806152,9.823295593261719,-0.3707145154476166,0.23292838037014008,0.15781468152999878
1.1331123113632202,3.613696336746216,9.404157638549805,-0.38030263781547546,0.208425372838974,0.08856704831123352
0.5990095138549805,3.587350606918335,9.727492332458496,-0.38669469952583313,0.22334024310112,-0.27471667528152466
-0.5075173377990723,2.658059597015381,9.976581573486328,-0.16936370730400085,0.16847482323646545,-0.3945682942867279
-0.5937403440475464,2.569441556930542,9.892752647399902,-0.08839724957942963,0.0917697548866272,-0.3034810423851013
-0.6823583841323853,2.4927990436553955,9.590972900390625,-0.01914963312447071,0.04489443078637123,-0.23956015706062317
-0.5051224231719971,2.418551445007324,9.289193153381348,-0.006898125633597374,0.10455393046140671,-0.2075997292995453
-0.7542107105255127,2.4664530754089355,9.028128623962402,-0.06495960056781769,0.1807263195514679,-0.17457392811775208
-0.9721629619598389,2.5311200618743896,9.286797523498535,-0.15498152375221252,0.23292838037014008,-0.10532630980014801
-1.1709545850753784,2.6029725074768066,9.607738494873047,-0.2146410048007965,0.1956411898136139,-0.0611143596470356
-1.149398922920227,2.478428363800049,9.859221458435059,-0.1981281191110611,0.1359817087650299,0.0017411783337593079
-0.7350499629974365,2.406576156616211,9.684380531311035,-0.1315438598394394,0.06300535798072815,0.03316894918680191
-1.2116708755493164,2.408971071243286,9.51432991027832,-0.0814724937081337,-0.013699708506464958,0.0006758300587534904
-0.9194711446762085,2.344303846359253,9.435293197631836,-0.07294970750808716,-0.022222494706511497,-0.021696478128433228
-0.8955203294754028,2.5814168453216553,9.370626449584961,-0.16137360036373138,-0.029679929837584496,-0.02382717654109001
-0.7015188932418823,2.5574660301208496,9.432897567749023,-0.20452019572257996,-0.10425429791212082,-0.020098458975553513
-0.5147026777267456,2.559860944747925,9.61971378326416,-0.2375459522008896,-0.09679686278104782,-0.01796776056289673
-0.4596158564090729,2.5095643997192383,10.03885269165039,-0.23807866871356964,-0.01902645081281662,-0.003052888438105583
-0.6009255647659302,2.5119597911834717,10.170581817626953,-0.1869419664144516,0.05341721698641777,0.020917445421218872
-0.6512222290039062,2.516749620437622,10.20650863647461,-0.09372399747371674,0.042763736099004745,0.04222440719604492
-0.608110785484314,2.4999840259552,10.005322456359863,0.006951398216187954,0.009737949818372726,0.055541254580020905
-0.5554190874099731,2.4688479900360107,9.873591423034668,0.04477125406265259,0.01080329716205597,0.051812537014484406
-0.6296665668487549,2.4377121925354004,9.590972900390625,0.08205843716859818,0.025185495615005493,0.03210359811782837
-0.7542107105255127,2.6484789848327637,9.835271835327148,0.07193763554096222,0.12905694544315338,0.01559070497751236
-0.5841600894927979,2.6796152591705322,9.260452270507812,0.32495778799057007,-0.008372969925403595,-0.006781606934964657
-0.6655926704406738,2.579021692276001,9.174229621887207,0.22161902487277985,0.16687680780887604,-0.006781606934964657
-0.766185998916626,2.6796152591705322,9.60534381866455,0.13798922300338745,0.15622331202030182,0.020917445421218872
-0.725469708442688,2.7826037406921387,9.828085899353027,0.2093675285577774,0.0843123197555542,0.04488777741789818
-0.612900972366333,2.758652687072754,9.737071990966797,0.31963106989860535,0.16794215142726898,0.07205414772033691
-0.4883567988872528,2.7275168895721436,9.648455619812012,0.3388073146343231,0.22174222767353058,0.07844623178243637
-0.5865551233291626,2.765838146209717,9.701146125793457,0.3489281237125397,0.3586394488811493,0.08963239192962646
-1.216461181640625,2.9981608390808105,9.480798721313477,0.3143043518066406,0.36290085315704346,0.13863840699195862
-1.2452020645141602,3.029296875,9.47840404510498,0.29725873470306396,0.29631656408309937,0.15248793363571167
-1.1589791774749756,3.0771985054016113,8.992202758789062,0.24878540635108948,0.3138948082923889,0.13490968942642212
-0.90989089012146,3.1346802711486816,9.313143730163574,0.1763417273759842,0.311764121055603,0.10987400263547897
-1.2356218099594116,3.165816307067871,9.298773765563965,0.1726130247116089,0.2627581059932709,0.07098879665136337
-1.3625609874725342,3.264014720916748,9.40894603729248,0.1390545517206192,0.1897817850112915,0.0629986897110939
-1.257177472114563,3.271199941635132,9.540677070617676,0.12307434529066086,0.13331833481788635,0.057139284908771515
-1.194905400276184,3.388558864593506,9.437687873840332,0.13372783362865448,0.22067688405513763,0.03796301409602165
-1.2931036949157715,3.1059393882751465,9.262846946716309,0.1299991011619568,0.13172030448913574,0.03743034228682518
-1.3170543909072876,3.3310768604278564,9.255661964416504,0.11508423089981079,0.12799160182476044,0.06459671258926392
-1.702662467956543,3.462806463241577,9.660429954528809,-0.03619519621133804,-0.016895754262804985,-0.029686588793992996
-1.563747763633728,3.4484360218048096,9.46882438659668,0.015474182553589344,-0.12023451924324036,-0.02808856964111328
-1.1230530738830566,3.297545909881592,8.884425163269043,-0.020214976742863655,-0.32371601462364197,-0.05205889791250229
-1.0200645923614502,3.1873719692230225,8.711978912353516,-0.18374592065811157,-0.4142706096172333,-0.07336586713790894
-0.9290515184402466,3.2304835319519043,8.889214515686035,-0.339286744594574,-0.510684609413147,-0.09733619540929794
-0.9530023336410522,3.290360450744629,9.049684524536133,-0.4921642243862152,-0.5564945340156555,-0.1298293173313141
-0.7997171878814697,3.110729694366455,9.499959945678711,-0.6034930348396301,-0.5335895419120789,-0.127698615193367
-0.6967287063598633,2.9694199562072754,9.950235366821289,-0.5662059187889099,-0.4318488538265228,-0.1261005997657776
-0.8212729692459106,2.8688266277313232,10.050827980041504,-0.46553048491477966,-0.37218934297561646,-0.13089466094970703
-0.8116925954818726,2.849665880203247,10.201719284057617,-0.3909561038017273,-0.3210526406764984,-0.12183920294046402
-0.6991238594055176,2.7203314304351807,10.098730087280273,-0.21197764575481415,-0.2491416335105896,-0.10106491297483444
-0.7087041139602661,2.670034646987915,9.828085899353027,-0.040989264845848083,-0.20439700782299042,-0.10213026404380798
-0.5578141212463379,2.6891956329345703,9.691566467285156,0.003222680650651455,-0.2193118929862976,-0.0813559740781784
-0.4620109498500824,2.696380853652954,9.602948188781738,0.002690003253519535,-0.2289000302553177,-0.07975795120000839
-0.35662737488746643,2.768233060836792,9.528700828552246,-0.007430804893374443,-0.1937435269355774,-0.08828073740005493
-0.4093191623687744,2.749072790145874,9.624504089355469,-0.004234759137034416,-0.12076719105243683,-0.09786886721849442
-0.2823799252510071,3.0436675548553467,9.296378135681152,0.25837352871894836,-0.40894386172294617,-0.14900556206703186
-0.27040454745292664,2.885592222213745,8.88202953338623,0.21096554398536682,-0.22783468663692474,-0.13622140884399414
-0.3805782198905945,2.8065545558929443,8.987412452697754,0.027725685387849808,-0.05098689720034599,-0.07123516499996185
-0.33986184000968933,2.885592222213745,9.368230819702148,-0.10757351666688919,0.013466671109199524,-0.014239043928682804
-0.344651997089386,2.7969741821289062,9.46882438659668,-0.14113199710845947,0.028914211317896843,0.0022738520056009293
-0.33986184000968933,2.7706284523010254,9.511935234069824,-0.15072013437747955,0.021989449858665466,0.02464616298675537
-0.14825543761253357,2.928703546524048,9.387391090393066,-0.11236760020256042,-0.04885619506239891,0.04169173166155815
-0.21531769633293152,2.8544559478759766,9.37302017211914,-0.10011608898639679,-0.0014482070691883564,0.02837488055229187
-0.2943553030490875,2.7299118041992188,9.732283592224121,-0.04684867709875107,0.007074579130858183,0.012394659221172333
-0.2512438893318176,2.631713628768921,9.734678268432617,-0.037260547280311584,0.04223106428980827,0.021982792764902115
-0.3015405535697937,2.6484789848327637,9.681985855102539,-0.029270438477396965,0.05181919410824776,0.025178834795951843
-0.33028149604797363,2.6724298000335693,9.677196502685547,-0.014355560764670372,0.0454271025955677,0.013992682099342346
-0.3638126254081726,2.7011709213256836,9.689170837402344,0.0010919822379946709,0.02412014827132225,-0.0019875401630997658
-0.33267658948898315,2.6939854621887207,9.653244972229004,-0.0037020836025476456,0.012401316314935684,-0.0078469542786479
-0.34944212436676025,2.7107512950897217,9.681985855102539,0.0010919822379946709,0.02039143070578575,-0.0019875401630997658
-0.3709978759288788,2.739492177963257,9.547861099243164,0.04050986468791962,0.028914211317896843,0.013460006564855576
-0.5338633060455322,2.9143331050872803,9.169438362121582,0.09058122336864471,0.05980930104851723,0.008665941655635834
-0.39494866132736206,2.80415940284729,9.358650207519531,0.056490086019039154,-0.05684630945324898,-0.003052888438105583
-0.43087485432624817,2.7299118041992188,9.370626449584961,-0.061763547360897064,-0.05098689720034599,-0.01264102105051279
-0.32309624552726746,2.6796152591705322,9.521515846252441,-0.10277945548295975,-0.026483887806534767,-0.003052888438105583
-0.442850261926651,2.739492177963257,9.842455863952637,-0.0777437686920166,0.030512234196066856,-0.01903311163187027
-0.46440598368644714,2.6820101737976074,9.978975296020508,-0.003169408068060875,-0.02328784205019474,-0.04353611543774605
-0.3638126254081726,2.703566074371338,9.753838539123535,0.025594988837838173,-0.0749572217464447,-0.06431040167808533
-0.2680094242095947,2.705960988998413,9.571812629699707,-0.003169408068060875,-0.07016316056251526,-0.04726483300328255
-0.27040454745292664,2.6796152591705322,9.552651405334473,-0.01914963312447071,-0.04885619506239891,-0.029686588793992996
-0.33267658948898315,2.6915905475616455,9.547861099243164,-0.03566253185272217,-0.016895754262804985,-0.002520214766263962
-0.3542323410511017,2.7347021102905273,9.509540557861328,-0.03459717333316803,-0.0014482070691883564,0.004404548555612564
-0.33986184000968933,2.7203314304351807,9.411341667175293,-0.03086845763027668,0.008672598749399185,0.012927332893013954
-0.2560340464115143,2.677219867706299,9.590972900390625,-0.03672787547111511,-0.015297731384634972,0.020917445421218872
-0.3470470905303955,2.631713628768921,9.322723388671875,-0.0702863335609436,-0.018493777140975,0.015058029443025589
-0.3997388482093811,2.6748251914978027,9.684380531311035,0.0010919822379946709,-0.06217304989695549,-0.020098458975553513
-0.41410931944847107,2.605367660522461,9.626899719238281,-0.03459717333316803,0.03317560628056526,-0.015837065875530243
-0.2560340464115143,2.64129376411438,9.885567665100098,-0.06123087555170059,0.04809047654271126,0.01132931187748909
-0.2584291100502014,2.6197381019592285,9.940655708312988,-0.037260547280311584,-0.00730762118473649,0.04169173166155815
-0.22250288724899292,2.6125526428222656,9.87598705291748,0.017604878172278404,0.023054800927639008,0.03689767047762871
-0.29914548993110657,2.6724298000335693,9.531095504760742,0.08951587975025177,0.0006824894808232784,-0.005183584522455931
-0.3709978759288788,2.6748251914978027,9.111957550048828,0.04956532269716263,-0.04459480568766594,-0.03181728720664978
-0.23687338829040527,2.8089494705200195,9.291587829589844,0.052761368453502655,-0.21505048871040344,-0.0185004360973835
-0.30633071064949036,2.7969741821289062,9.444872856140137,0.022931618615984917,-0.033941324800252914,-0.021163806319236755
-0.2296881377696991,2.7083561420440674,9.744257926940918,-0.0777437686920166,0.12639357149600983,0.027842208743095398
-0.3159109950065613,2.595787286758423,9.871197700500488,-0.09425666928291321,0.07738755643367767,0.04435510188341141
-0.26321929693222046,2.605367660522461,9.868803024291992,-0.06336157023906708,0.005476558115333319,0.03743034228682518
-0.24405863881111145,2.6269233226776123,9.74665355682373,0.0037553543224930763,-0.03500667214393616,0.0022738520056009293
-0.21771275997161865,2.607762575149536,9.497565269470215,0.013876160606741905,0.04010036215186119,-0.01903311163187027
-0.2680094242095947,2.6388988494873047,9.449663162231445,0.00961476843804121,0.04755779728293419,-0.02382717654109001
-0.3159109950065613,2.6796152591705322,9.38499641418457,-0.005832778289914131,0.010270621627569199,-0.03128461167216301
-0.32549136877059937,2.6891956329345703,9.37302017211914,-0.020747652277350426,-0.016363080590963364,-0.02808856964111328
-0.3183061182498932,2.6939854621887207,9.428107261657715,-0.023943694308400154,-0.02808190882205963,-0.022229153662919998
-0.2129225730895996,2.6388988494873047,9.466428756713867,-0.02660706825554371,-0.016363080590963364,-0.0185004360973835
-0.2847749888896942,2.722726583480835,9.540677070617676,-0.003169408068060875,-0.005709600169211626,-0.02329450100660324
-0.3015405535697937,2.6628496646881104,9.662825584411621,-0.02181299962103367,-0.02808190882205963,-0.01903311163187027
-0.28956514596939087,2.6388988494873047,9.705936431884766,-0.0425872877240181,-0.03767004236578941,-0.013173694722354412
-0.3039356768131256,2.5933923721313477,9.823295593261719,-0.06495960056781769,-0.021689821034669876,-0.006248932331800461
-0.35183724761009216,2.6628496646881104,9.931074142456055,-0.0010387133806943893,0.00014981580898165703,-0.005183584522455931
-0.2680094242095947,2.614948034286499,9.672405242919922,0.06288217008113861,0.011335968971252441,-0.006781606934964657
-0.36860278248786926,2.6939854621887207,9.444872856140137,0.0463692769408226,-0.0062422738410532475,0.0033392002806067467
-0.2751946747303009,2.6891956329345703,9.502354621887207,0.01334348600357771,-0.025418538600206375,0.0049372222274541855
-0.2727995812892914,2.7011709213256836,9.502354621887207,0.022398944944143295,-0.025418538600206375,-0.0014548655599355698
-0.2919602394104004,2.69877552986145,9.404157638549805,0.03358510136604309,-0.018493777140975,-0.011575672775506973
-0.2680094242095947,2.677219867706299,9.380206108093262,-0.0053001027554273605,-0.024353191256523132,0.00014315638691186905
-0.2847749888896942,2.7802083492279053,9.3275146484375,-0.010626843199133873,0.050221171230077744,0.00706791877746582
-0.22250288724899292,2.713146209716797,9.806529998779297,-0.028205087408423424,-0.047258175909519196,-0.002520214766263962
-0.2656143605709076,2.6796152591705322,9.883172988891602,0.06075148284435272,-0.013699708506464958,-0.016902413219213486
-0.33986184000968933,2.7538628578186035,9.593368530273438,0.07566635310649872,-0.04406213387846947,-0.022229153662919998
-0.18418163061141968,2.713146209716797,9.516725540161133,0.04956532269716263,-0.001980880741029978,-0.00038951821625232697
-0.1602308303117752,2.7299118041992188,9.655640602111816,0.05862078070640564,0.05821128562092781,0.010263962671160698
-0.2296881377696991,2.7921841144561768,9.44726848602295,0.08738518506288528,0.06620139628648758,0.011861983686685562
-0.2392684519290924,2.8520607948303223,8.994598388671875,0.12573769688606262,-0.03287597745656967,0.0060025714337825775
-0.46440598368644714,2.713146209716797,9.308353424072266,0.16462291777133942,0.021989449858665466,-0.02276182919740677
-0.27998483180999756,2.761047840118408,9.495169639587402,0.09164657443761826,0.14503717422485352,0.021450117230415344
-0.2943553030490875,2.761047840118408,9.780184745788574,0.05702276527881622,0.19777189195156097,0.031038250774145126
-0.23447832465171814,2.7203314304351807,10.019692420959473,0.030921729281544685,0.23399372398853302,0.06140066683292389
-0.2680094242095947,2.7275168895721436,10.06519889831543,0.04743462800979614,0.22547094523906708,0.06619473546743393
-0.36860278248786926,2.80415940284729,9.931074142456055,0.13585852086544037,0.15302728116512299,0.06353136152029037
-0.5697895288467407,3.0412721633911133,9.214945793151855,0.17687441408634186,0.1082826480269432,0.03849568963050842
-0.6009255647659302,3.038877010345459,9.270031929016113,0.11242086440324783,0.1194688007235527,0.03210359811782837
-0.5362584590911865,2.993370771408081,9.442477226257324,0.06767623871564865,0.0528845451772213,0.029440227895975113
-0.4524305760860443,2.8544559478759766,9.593368530273438,-0.10118144005537033,-0.08401267975568771,0.009731288999319077
-0.5170978307723999,3.010136127471924,9.775394439697266,-0.0702863335609436,-0.05311759188771248,-0.01264102105051279
-0.6105058193206787,2.9909756183624268,9.777789115905762,-0.0138228889554739,-0.03713737055659294,-0.029686588793992996
-0.4715912640094757,2.9981608390808105,9.586182594299316,0.029856383800506592,-0.1601850688457489,-0.07016982138156891
-0.5099124908447266,3.0173213481903076,9.284402847290039,-0.09478934109210968,-0.23955349624156952,-0.10106491297483444
-0.3614175617694855,2.993370771408081,9.344279289245605,-0.22529448568820953,-0.19800491631031036,-0.08668271452188492
-0.2823799252510071,2.921518325805664,9.792160034179688,-0.2093142718076706,-0.14420484006404877,-0.07549656182527542
-0.37578803300857544,2.784998655319214,9.749049186706543,0.013876160606741905,-0.17243656516075134,-0.09786886721849442
-0.1865767240524292,2.9550492763519287,9.150278091430664,0.07566635310649872,-0.14793355762958527,-0.09520550072193146
-0.17220623791217804,2.89277720451355,9.20057487487793,0.027725685387849808,-0.08081664144992828,-0.0760292336344719
-0.21531769633293152,2.8808016777038574,9.471219062805176,-0.010626843199133873,-0.055780958384275436,-0.05791831761598587
-0.25363895297050476,2.820924997329712,9.732283592224121,0.0016246577724814415,-0.020624471828341484,-0.028621245175600052
-0.1506505161523819,2.8736166954040527,9.576602935791016,0.06714356690645218,-0.025951212272047997,-0.013706369325518608
-0.2584291100502014,3.0532474517822266,9.70354175567627,0.13852187991142273,-0.09200279414653778,-0.024892523884773254
-0.26321929693222046,2.976605176925659,9.44726848602295,0.11401889473199844,-0.15059693157672882,-0.03980739787220955
-0.34225690364837646,2.9430739879608154,9.365835189819336,0.03411777317523956,-0.09573151171207428,0.0060025714337825775
-0.3901585042476654,3.0795934200286865,9.521515846252441,-0.008496152237057686,-0.04992154613137245,0.04542044922709465
-0.3039356768131256,3.0771985054016113,9.49038028717041,-0.023411022499203682,-0.05471561476588249,0.056606605648994446
-0.10753907263278961,3.065223217010498,9.545465469360352,0.006951398216187954,-0.04033341258764267,0.05447591096162796
-0.0356866791844368,3.0340869426727295,9.545465469360352,0.05329404026269913,-0.04406213387846947,0.03263627365231514
-0.038081757724285126,2.976605176925659,9.454453468322754,0.0703396126627922,-0.04512747749686241,0.025178834795951843
-0.023711279034614563,2.9526543617248535,9.339489936828613,0.07886239886283875,-0.052052244544029236,0.020917445421218872
-0.06203256547451019,3.010136127471924,9.313143730163574,0.07566635310649872,-0.051519569009542465,0.0033392002806067467
-0.04766207933425903,3.048457384109497,9.27961254119873,0.05435939133167267,-0.0323433019220829,-0.014239043928682804
-0.06921778619289398,3.0987541675567627,9.368230819702148,0.015474182553589344,-0.03500667214393616,-0.021163806319236755
-0.11951448023319244,3.1155197620391846,9.449663162231445,-0.002104060724377632,-0.024885864928364754,-0.015304391272366047
-0.1243046224117279,3.0700130462646484,9.569416999816895,-0.016486259177327156,-0.0030462280847132206,0.013460006564855576
-0.04287191480398178,3.0915687084198,9.629294395446777,-0.007963476702570915,-0.004644249100238085,0.042757079005241394
-0.021316200494766235,3.019716501235962,9.622109413146973,0.019202901050448418,-0.004111577291041613,0.01985209435224533
-0.054847314953804016,3.0245065689086914,9.638874053955078,0.03784649074077606,0.00014981580898165703,-0.004118236247450113
-0.030896522104740143,3.0412721633911133,9.61013412475586,0.04743462800979614,0.0033458578400313854,-0.008912302553653717
-0.02610635757446289,3.084383726119995,9.49038028717041,0.05489206314086914,0.018260732293128967,-0.016369737684726715
-0.045267000794410706,3.093964099884033,9.483194351196289,0.052228689193725586,0.02838153950870037,-0.020098458975553513
-0.15304560959339142,3.1227049827575684,9.353860855102539,0.0389118418097496,0.050221171230077744,-0.011042999103665352
0.002634607255458832,3.2855703830718994,8.704792976379395,0.01334348600357771,-0.04459480568766594,-0.004118236247450113
-0.15783575177192688,3.1322853565216064,9.396971702575684,-0.014888236299157143,-0.04992154613137245,-0.026490546762943268
-0.12909479439258575,3.0604329109191895,9.550256729125977,-0.0175516065210104,0.08963904529809952,0.011861983686685562
-0.059637486934661865,3.08198881149292,9.72509765625,-0.0138228889554739,0.12426288425922394,0.021450117230415344
0.1774754375219345,3.225693464279175,9.56223201751709,0.025594988837838173,0.04223106428980827,-0.013173694722354412
-0.07879813015460968,3.189767360687256,9.14309310913086,0.03251975029706955,-0.011569013819098473,-0.050993550568819046
-0.24405863881111145,3.0771985054016113,9.028128623962402,-0.07135169208049774,0.0454271025955677,-0.042470768094062805
-0.29675036668777466,3.036482095718384,9.01136302947998,-0.21517369151115417,0.10455393046140671,-0.059516340494155884
-0.35902249813079834,3.08198881149292,9.085611343383789,-0.33609071373939514,0.10082521289587021,-0.041938092559576035
0.024190321564674377,3.117914915084839,9.339489936828613,-0.3930867910385132,0.06353802978992462,-0.017435088753700256
-0.14825543761253357,2.634108543395996,9.567021369934082,-0.31158769130706787,-0.047258175909519196,-0.046732161194086075
-0.34944212436676025,2.8089494705200195,9.926283836364746,-0.3105223476886749,-0.055248286575078964,-0.06058168411254883
-0.3087258040904999,2.650874137878418,9.847247123718262,-0.26950645446777344,-0.029679929837584496,-0.00837962981313467
-0.23447832465171814,2.6293184757232666,9.90233325958252,-0.23221924901008606,0.04489443078637123,0.07152147591114044
-0.24405863881111145,2.5478856563568115,9.945444107055664,-0.20611824095249176,0.12373019754886627,0.13277900218963623
-0.3087258040904999,2.461662769317627,10.168187141418457,-0.1405993103981018,0.18285702168941498,0.1833830177783966
-0.3015405535697937,2.3946006298065186,9.98137092590332,-0.03086845763027668,0.23825512826442719,0.20628800988197327
-0.33986184000968933,2.361069440841675,9.734678268432617,0.011745463125407696,0.24411453306674957,0.1961672306060791
-0.36620771884918213,2.373044967651367,9.59815788269043,0.034650444984436035,0.24677789211273193,0.18231767416000366
-0.3638126254081726,2.3946006298065186,9.27961254119873,0.02879103273153305,0.24091850221157074,0.15674933791160583
-0.34944212436676025,2.533515453338623,9.454453468322754,-0.029270438477396965,0.2212095707654953,0.10135121643543243
-0.44045522809028625,2.5933923721313477,9.749049186706543,-0.04418531060218811,0.20682735741138458,0.0241134874522686
-0.4979371130466461,2.5311200618743896,9.555047035217285,-0.012757541611790657,0.09975986182689667,-0.06058168411254883
-0.43806013464927673,2.5119597911834717,9.761024475097656,-0.012224866077303886,0.030512234196066856,-0.11225108057260513
-0.4715912640094757,2.55267596244812,9.911913871765137,-0.015953587368130684,0.025718167424201965,-0.11331641674041748
-0.5027272701263428,2.6556642055511475,9.998136520385742,-0.007963476702570915,0.07951825112104416,-0.0723005086183548
-0.5266780853271484,2.64129376411438,10.01729679107666,0.006951398216187954,0.1194688007235527,-0.04087274521589279
-0.653617262840271,2.6484789848327637,9.820900917053223,0.061816826462745667,0.1359817087650299,0.00706791877746582
-0.6440370082855225,2.686800241470337,9.37781047821045,0.08046042174100876,0.11094602197408676,0.04222440719604492
-0.6248763799667358,2.6388988494873047,9.234106063842773,0.05116334557533264,0.10615194588899612,0.05127986520528793
-0.6105058193206787,2.550281047821045,9.27242660522461,-0.054306112229824066,0.10668463259935379,0.06885810196399689
-0.6655926704406738,2.6005775928497314,9.660429954528809,-0.10650817304849625,0.07578952610492706,0.09229576587677002
-0.5721845626831055,2.5933923721313477,9.674800872802734,-0.07667842507362366,0.12745891511440277,0.09282844513654709
0.01460999995470047,3.012531280517578,9.547861099243164,-0.03619519621133804,0.12958961725234985,-0.005183584522455931
-0.3015405535697937,2.9957656860351562,9.799345016479492,-0.01861695758998394,0.1194688007235527,-0.19960960745811462
-0.34944212436676025,2.820924997329712,9.909518241882324,0.01653953082859516,0.03317560628056526,-0.3002850115299225
-0.7398401498794556,2.4904041290283203,9.677196502685547,0.04477125406265259,0.018260732293128967,-0.2986869812011719
-0.481171578168869,1.7814602851867676,9.796950340270996,-0.09638737142086029,-0.06803245842456818,0.00014315638691186905
-0.8571990728378296,2.0257585048675537,9.772998809814453,0.07992774248123169,0.10988066345453262,-0.014239043928682804
-0.7542107105255127,2.018573045730591,9.741863250732422,0.17847244441509247,-0.029147258028388023,0.03583231568336487
-0.8188778162002563,2.3922054767608643,9.425712585449219,0.2557101845741272,-0.1340840458869934,0.018786750733852386
-0.7685811519622803,2.540700674057007,9.183809280395508,0.2541121542453766,-0.1266266107559204,0.0049372222274541855
-0.6105058193206787,2.6556642055511475,8.88202953338623,0.16728627681732178,-0.012101687490940094,-0.01796776056289673
-0.5458387136459351,2.6748251914978027,8.999387741088867,0.026660338044166565,0.10135788470506668,-0.0078469542786479
-0.9553974866867065,2.741887331008911,9.756233215332031,-0.07188436388969421,-0.052052244544029236,-0.011575672775506973
-0.8116925954818726,2.775418519973755,9.796950340270996,-0.05537146329879761,-0.029679929837584496,-0.025957871228456497
-0.6152961254119873,2.660454511642456,10.153816223144531,-0.011159518733620644,-0.03553934767842293,-0.029686588793992996
-0.6751730442047119,2.595787286758423,9.938260078430176,0.13852187991142273,-0.06643443554639816,-0.025957871228456497
-0.7182844877243042,2.713146209716797,9.444872856140137,0.18060314655303955,-0.038735393434762955,-0.024892523884773254
-0.6631976366043091,2.7370970249176025,9.23650074005127,0.12946642935276031,0.0278488676995039,-0.017435088753700256
-0.6440370082855225,2.7275168895721436,9.329909324645996,0.061284154653549194,0.08164893835783005,-0.0014548655599355698
-0.65840744972229,2.6844053268432617,9.387391090393066,0.03305242583155632,0.060341980308294296,0.0033392002806067467
-0.6847532987594604,2.761047840118408,9.310749053955078,0.02026824839413166,0.026783516630530357,-0.0035855621099472046
-0.6943336725234985,2.732307195663452,9.317934036254883,0.0053533753380179405,0.013999342918395996,-0.009977650828659534
-0.730259895324707,2.703566074371338,9.406551361083984,-0.03193380683660507,0.011868644505739212,-0.008912302553653717
-0.6823583841323853,2.622133255004883,9.581392288208008,-0.07721109688282013,0.002280512358993292,-0.002520214766263962
-0.6775680780410767,2.607762575149536,9.955025672912598,-0.07880912721157074,0.023054800927639008,-0.005716258659958839
-0.8356434106826782,2.732307195663452,9.590972900390625,0.18113580346107483,-0.10958104580640793,-0.004650910384953022
-0.6895434856414795,2.631713628768921,9.102376937866211,0.10549609363079071,-0.12183254212141037,-0.011575672775506973
-0.7158894538879395,2.631713628768921,9.056870460510254,-0.08413585275411606,-0.029679929837584496,-0.0078469542786479
-0.7446303367614746,2.703566074371338,9.581392288208008,-0.2199677675962448,0.07472418248653412,0.007600592449307442
-0.8260630369186401,2.7251217365264893,9.811320304870605,-0.21037961542606354,0.08537766337394714,0.016123376786708832
-0.797322154045105,2.6939854621887207,9.782580375671387,-0.02713974006474018,-0.022222494706511497,0.010263962671160698
-0.8500138521194458,2.6556642055511475,9.567021369934082,-0.0037020836025476456,-0.08081664144992828,-0.01903311163187027
-0.7613959312438965,2.670034646987915,9.60534381866455,-0.0138228889554739,-0.08933942764997482,-0.024359852075576782
-0.8188778162002563,2.6269233226776123,9.61013412475586,-0.020214976742863655,0.013466671109199524,-0.015837065875530243
-0.7949270009994507,2.658059597015381,9.691566467285156,-0.023411022499203682,0.03157758340239525,-0.011575672775506973
-0.7230746746063232,2.6915905475616455,9.298773765563965,-0.03459717333316803,0.009205274283885956,-0.021696478128433228
-0.5841600894927979,2.6293184757232666,9.34188461303711,0.010147442109882832,-0.2214425802230835,-0.03448065370321274
-0.5841600894927979,2.6460840702056885,9.370626449584961,0.08365646004676819,-0.27364465594291687,-0.06963713467121124
-0.3638126254081726,2.5838119983673096,9.396971702575684,0.07513368129730225,-0.0824146643280983,-0.11597979068756104
-0.4188994765281677,2.5718367099761963,9.320328712463379,0.006951398216187954,0.004411208909004927,-0.13675406575202942
-0.7374451160430908,2.5191450119018555,9.258056640625,-0.17362511157989502,0.1231975257396698,-0.13462337851524353
-0.8571990728378296,2.3323285579681396,9.523910522460938,-0.3573976755142212,0.19830457866191864,-0.11065305024385452
-0.7110992670059204,2.2413153648376465,9.835271835327148,-0.42504727840423584,0.09283509850502014,-0.127698615193367
-0.4979371130466461,2.2844269275665283,10.134655952453613,-0.2977381646633148,-0.06803245842456818,-0.19960960745811462
-0.5745795965194702,2.279636859893799,10.10112476348877,-0.16243895888328552,-0.06643443554639816,-0.22517797350883484
-0.5937403440475464,2.2772417068481445,10.072383880615234,-0.09319131821393967,-0.06430374085903168,-0.24222353100776672
-0.8811500072479248,2.210179328918457,9.988555908203125,0.06234949827194214,-0.06696711480617523,-0.27152061462402344
-0.653617262840271,2.4760334491729736,9.847247123718262,0.20137743651866913,-0.033941324800252914,-0.16232243180274963
-0.5721845626831055,2.5646512508392334,9.626899719238281,0.23759925365447998,0.06193999573588371,-0.07443121075630188
-0.5626043081283569,2.562256336212158,9.578997611999512,0.23866459727287292,0.13544903695583344,-0.046199485659599304
-0.7685811519622803,2.5718367099761963,9.262846946716309,0.3164350390434265,0.2249382883310318,-0.014239043928682804
-0.8021122217178345,2.677219867706299,9.329909324645996,0.27861514687538147,0.18179167807102203,0.04115905985236168
-0.7829517126083374,2.6915905475616455,9.325119018554688,0.20510615408420563,0.05501523241400719,0.08004426211118698
-0.8212729692459106,2.514354705810547,9.296378135681152,0.08046042174100876,0.02412014827132225,0.11040668189525604
-0.6847532987594604,2.696380853652954,9.681985855102539,0.010147442109882832,0.10988066345453262,0.18604642152786255
-0.6919386386871338,2.6101579666137695,9.792160034179688,0.04104253649711609,0.08218161016702652,0.17539292573928833
-0.7590007781982422,2.6652445793151855,9.950235366821289,0.026660338044166565,0.0731261596083641,0.17912164330482483
-0.8092974424362183,2.5981826782226562,9.986161231994629,0.09004855155944824,0.14397181570529938,0.1705988645553589
-0.9362367391586304,2.622133255004883,9.744257926940918,0.2280111163854599,0.23452641069889069,0.15621665120124817
-0.9745581150054932,2.6556642055511475,9.00178337097168,0.2631675899028778,0.3772830069065094,0.14130178093910217
-1.1661643981933594,2.7203314304351807,8.843708038330078,0.13798922300338745,0.3900672197341919,0.13863840699195862
-1.2284365892410278,2.7921841144561768,8.929930686950684,0.06874158978462219,0.32081958651542664,0.1556839942932129
-1.0967071056365967,2.85685133934021,9.217340469360352,0.022398944944143295,-0.11277708411216736,0.03636499121785164
-1.0488054752349854,2.6939854621887207,9.411341667175293,-0.195997416973114,-0.03926806524395943,0.026244185864925385
-1.0080891847610474,2.794579029083252,9.87598705291748,-0.29507479071617126,-0.04566015675663948,0.021450117230415344
-1.0751513242721558,2.749072790145874,10.031667709350586,-0.25991830229759216,-0.09626419097185135,0.01559070497751236
-1.027249813079834,2.6388988494873047,10.031667709350586,-0.10810618847608566,-0.36686262488365173,-0.02808856964111328
-0.8811500072479248,2.7107512950897217,9.473614692687988,-0.061763547360897064,-0.4025517702102661,-0.03234995901584625
-0.8524090051651001,2.6724298000335693,9.52630615234375,-0.1368706077337265,-0.27790603041648865,-0.026490546762943268
-0.7398401498794556,2.739492177963257,9.868803024291992,-0.12142305076122284,-0.14580287039279938,-0.00837962981313467
-0.679963231086731,2.7466773986816406,9.892752647399902,-0.07241704314947128,-0.09946022927761078,-0.007314280606806278
-0.7590007781982422,2.6652445793151855,9.588577270507812,0.0538267120718956,-0.030212605372071266,-0.029153916984796524
-0.8164827823638916,2.7370970249176025,9.02333927154541,0.07460100203752518,-0.09306813776493073,-0.03554600849747658
-0.7997171878814697,2.7706284523010254,8.925140380859375,0.02506231516599655,-0.08933942764997482,-0.03288263455033302
-0.7925319671630859,2.660454511642456,9.780184745788574,0.0037553543224930763,-0.09040477126836777,-0.025957871228456497
-0.5194927453994751,2.7011709213256836,9.950235366821289,0.14544664323329926,-0.1623157560825348,-0.029686588793992996
-0.6895434856414795,2.7275168895721436,9.370626449584961,0.27115771174430847,-0.1266266107559204,-0.06910446286201477
-0.7901369333267212,2.7370970249176025,9.092796325683594,0.16089420020580292,0.003878533374518156,-0.09094411134719849
-0.8284581899642944,2.777813673019409,9.150278091430664,-0.031401127576828,0.026783516630530357,-0.07975795120000839
-0.7637909650802612,2.7179365158081055,9.313143730163574,-0.24180738627910614,0.06993012130260468,-0.046732161194086075
-0.6919386386871338,2.6388988494873047,10.117890357971191,-0.31584906578063965,0.11307672411203384,0.018786750733852386
-0.6368517875671387,2.643688917160034,10.172977447509766,-0.23914401233196259,0.10508660227060318,0.03316894918680191
-0.7015188932418823,2.624528408050537,9.962210655212402,-0.051642753183841705,0.042763736099004745,0.01931942254304886
-0.8356434106826782,2.576626777648926,9.567021369934082,0.14704467356204987,-0.030745279043912888,-0.013173694722354412
-0.7350499629974365,2.605367660522461,9.186203956604004,0.12573769688606262,-0.10052557289600372,-0.016369737684726715
-0.7230746746063232,2.6125526428222656,9.097586631774902,-0.02713974006474018,-0.12343055754899979,0.0049372222274541855
-0.7470254898071289,2.634108543395996,9.440083503723145,-0.18747463822364807,-0.05098689720034599,0.029972903430461884
-0.6751730442047119,2.6556642055511475,9.792160034179688,-0.2093142718076706,-0.04938887432217598,0.022515464574098587
-0.6631976366043091,2.514354705810547,9.945444107055664,-0.1166289895772934,-0.12236522138118744,-0.00038951821625232697
-0.5961353778839111,2.52632999420166,9.962210655212402,-0.037260547280311584,-0.23316141963005066,-0.050993550568819046
-0.6200861930847168,2.523935079574585,9.658035278320312,-0.04844669997692108,-0.20173363387584686,-0.06164702773094177
-0.5865551233291626,2.5191450119018555,9.722702026367188,-0.11609631776809692,-0.004644249100238085,-0.006248932331800461
-0.6152961254119873,2.4688479900360107,9.859221458435059,-0.09425666928291321,0.027316195890307426,0.011861983686685562
-0.6009255647659302,2.4137613773345947,9.871197700500488,-0.06016553193330765,0.041698385030031204,0.017188724130392075
-0.5721845626831055,2.3419089317321777,9.727492332458496,0.04157520830631256,0.05341721698641777,0.008665941655635834
-0.6631976366043091,2.4951939582824707,9.356254577636719,0.1704823225736618,0.025718167424201965,-0.009444977156817913
-0.5386534929275513,2.579021692276001,9.229315757751465,0.15716546773910522,-0.05098689720034599,-0.02382717654109001
-0.5913451910018921,2.5670464038848877,9.078425407409668,0.03784649074077606,-0.08134931325912476,-0.04886285588145256
-0.617691159248352,2.5909972190856934,9.480798721313477,-0.06762296706438065,-0.060042355209589005,-0.04886285588145256
-0.5649993419647217,2.622133255004883,9.70354175567627,-0.08733190596103668,-0.016895754262804985,-0.03181728720664978
-0.6703828573226929,2.5311200618743896,9.830480575561523,-0.061763547360897064,0.05394988879561424,-0.0035855621099472046
-0.7542107105255127,2.4568727016448975,9.943049430847168,-0.0175516065210104,0.0006824894808232784,-0.014239043928682804
-0.6296665668487549,2.432921886444092,9.749049186706543,-0.014355560764670372,-0.047790851444005966,-0.03554600849747658
-0.5769747495651245,2.370649814605713,9.727492332458496,-0.031401127576828,-0.04566015675663948,-0.06963713467121124
-0.5554190874099731,2.382625102996826,9.73946762084961,-0.03406450152397156,-0.03926806524395943,-0.11544711887836456
-0.5697895288467407,2.3754398822784424,9.667614936828613,-0.027672411873936653,-0.002513554412871599,-0.15699568390846252
-0.6224813461303711,2.461662769317627,9.667614936828613,-0.014888236299157143,-0.05684630945324898,-0.1814986765384674
-0.5578141212463379,2.523935079574585,9.607738494873047,0.014941507950425148,-0.16870784759521484,-0.16818183660507202
-0.481171578168869,2.579021692276001,9.38499641418457,-0.003169408068060875,-0.1026562824845314,-0.12876397371292114
-0.5841600894927979,2.461662769317627,9.612529754638672,-0.03939124941825867,-0.047790851444005966,-0.09360747784376144
-0.5578141212463379,2.514354705810547,9.47840404510498,-0.03566253185272217,0.0454271025955677,-0.06004900857806206
-0.5530239343643188,2.461662769317627,9.487984657287598,-0.033531829714775085,0.10455393046140671,-0.016902413219213486
-0.5003321170806885,2.435317039489746,9.58378791809082,-0.025009045377373695,0.04382908716797829,-0.009444977156817913
-0.5673943758010864,2.432921886444092,9.756233215332031,-0.006898125633597374,-0.012101687490940094,-0.019565783441066742
-0.766185998916626,2.478428363800049,9.557441711425781,0.12200900167226791,0.03743700310587883,-0.05791831761598587
-0.6655926704406738,2.416156530380249,9.511935234069824,0.13053177297115326,0.04010036215186119,-0.05152622237801552
-0.6368517875671387,2.4951939582824707,9.567021369934082,0.0815257653594017,-0.008905643597245216,-0.02755589783191681
-0.6224813461303711,2.461662769317627,9.607738494873047,0.02399696782231331,-0.07389187812805176,-0.016902413219213486
-0.47638139128685,2.5215399265289307,9.516725540161133,-0.04471798241138458,-0.1362147480249405,0.010263962671160698
-0.5338633060455322,2.6365036964416504,9.502354621887207,-0.12248840928077698,-0.07762059569358826,0.04968184232711792
-0.4787764847278595,2.4041807651519775,9.753838539123535,-0.13473989069461823,-0.025951212272047997,0.051812537014484406
-0.5338633060455322,2.435317039489746,9.84485149383545,-0.10277945548295975,-0.05418293550610542,0.03583231568336487
-0.5003321170806885,2.4305267333984375,9.92388916015625,-0.051642753183841705,-0.03553934767842293,0.027309533208608627
-0.5434436798095703,2.3850204944610596,9.72509765625,0.026660338044166565,0.01985875517129898,0.010263962671160698
-0.5242830514907837,2.4017858505249023,9.58378791809082,0.04743462800979614,0.031044913455843925,0.007600592449307442
-0.48356667160987854,2.416156530380249,9.53588581085205,0.025594988837838173,0.031044913455843925,-0.0019875401630997658
-0.5649993419647217,2.406576156616211,9.830480575561523,-0.0053001027554273605,0.03956769034266472,-0.015304391272366047
-0.6608024835586548,2.478428363800049,9.708332061767578,0.18273383378982544,-0.02754923515021801,-0.02702321857213974
-0.5386534929275513,2.533515453338623,9.559837341308594,0.15237140655517578,0.07632220536470413,-0.019565783441066742
-0.6847532987594604,2.478428363800049,9.59815788269043,0.057555437088012695,0.10029253363609314,-0.011575672775506973
-0.7015188932418823,2.5095643997192383,9.658035278320312,0.002690003253519535,0.08324696868658066,0.0033392002806067467
-0.6560124158859253,2.4856138229370117,9.818506240844727,-0.07454773038625717,0.10721730440855026,0.02464616298675537
-0.6416418552398682,2.480823516845703,10.014902114868164,-0.0777437686920166,0.17113818228244781,0.035299643874168396
-0.6512222290039062,2.4951939582824707,10.00771713256836,-0.0351298525929451,0.18498772382736206,0.03743034228682518
-0.6009255647659302,2.4472923278808594,10.079569816589355,0.10443075001239777,0.17593225836753845,0.05127986520528793
-0.7925319671630859,2.6029725074768066,9.586182594299316,0.3372093141078949,0.09443312883377075,0.03796301409602165
-0.6200861930847168,2.6939854621887207,9.284402847290039,0.3995321989059448,0.0017478368245065212,0.043822430074214935
-0.5769747495651245,2.7107512950897217,9.054475784301758,0.3036508560180664,-0.06963048130273819,0.015058029443025589
-0.7063089609146118,2.6460840702056885,9.13830280303955,0.0815257653594017,-0.006774947512894869,0.007600592449307442
-0.9194711446762085,2.7897887229919434,9.440083503723145,-0.05057739466428757,0.021456778049468994,0.074184849858284
-0.617691159248352,2.69877552986145,9.926283836364746,-0.04311995953321457,0.015597362071275711,0.12212551385164261
-0.5841600894927979,2.8281102180480957,9.811320304870605,0.07726437598466873,-0.09679686278104782,0.10880865901708603
-0.3781830966472626,2.957444429397583,9.588577270507812,0.07460100203752518,-0.055248286575078964,0.15408596396446228
-0.679963231086731,2.6724298000335693,9.899938583374023,0.05702276527881622,0.17646494507789612,0.18231767416000366
-0.797322154045105,2.7179365158081055,9.775394439697266,0.23280519247055054,0.28513044118881226,0.21214744448661804
-0.6224813461303711,2.813739776611328,9.255661964416504,0.33028456568717957,0.3309403955936432,0.23665043711662292
-0.6943336725234985,2.85685133934021,9.054475784301758,0.2871379554271698,0.2989799380302429,0.20522266626358032
-0.9242613315582275,3.101149320602417,9.270031929016113,0.22641310095787048,-0.1138424277305603,-0.02808856964111328
-0.9458171129226685,3.1298904418945312,9.3275146484375,-0.01329021342098713,-0.0323433019220829,0.01931942254304886
-0.9362367391586304,3.0963592529296875,9.571812629699707,-0.09052795171737671,0.06833209097385406,0.05074719339609146
-1.1206579208374023,3.0628278255462646,10.266386032104492,-0.05217541754245758,0.28566309809684753,0.10880865901708603
-0.9889285564422607,3.074803113937378,10.00292682647705,0.18379917740821838,0.17380157113075256,0.1908404529094696
-0.5889501571655273,3.165816307067871,9.344279289245605,0.29512807726860046,-0.0360720194876194,0.26062077283859253
-0.5985304117202759,3.1777915954589844,9.102376937866211,0.29033398628234863,-0.08720872551202774,0.2627514600753784
-0.5961353778839111,3.2304835319519043,8.889214515686035,0.2541121542453766,-0.08028396219015121,0.2515653073787689
-0.6416418552398682,3.3741884231567383,8.800597190856934,0.11934562027454376,0.06886477023363113,0.22120288014411926
-0.7613959312438965,3.3861634731292725,9.085611343383789,-0.030335785821080208,0.26542147994041443,0.2446405589580536
-0.8021122217178345,3.299940824508667,9.631689071655273,-0.06602495163679123,0.3533126711845398,0.31015947461128235
-0.8236680030822754,3.1849770545959473,9.878382682800293,-0.023943694308400154,0.33893051743507385,0.33412978053092957
-0.9506072998046875,3.189767360687256,9.864011764526367,0.16355755925178528,0.19297781586647034,0.3186822235584259
-1.022459626197815,3.309521198272705,8.752695083618164,0.26636365056037903,0.1993699073791504,0.21427813172340393
-0.9889285564422607,3.4125096797943115,9.076031684875488,0.07460100203752518,0.15995202958583832,0.14236712455749512
-0.9051007032394409,3.5442392826080322,9.449663162231445,0.008016745559871197,0.11360938102006912,0.09176308661699295
-0.9649777412414551,3.534658670425415,9.485589981079102,-0.007963476702570915,0.10881531983613968,0.06459671258926392
-1.0919169187545776,3.4843621253967285,9.59815788269043,-0.01329021342098713,0.1082826480269432,0.0315709263086319
-1.1230530738830566,3.4508309364318848,9.64126968383789,0.004288027994334698,0.1231975257396698,0.03210359811782837
-1.2547824382781982,3.462806463241577,9.753838539123535,0.05862078070640564,0.14450448751449585,0.05127986520528793
-1.1709545850753784,3.4196951389312744,9.516725540161133,0.1502407193183899,0.10988066345453262,0.06459671258926392
-1.278733253479004,3.5657949447631836,9.006573677062988,0.20137743651866913,0.09656382352113724,0.06832543015480042
-1.022459626197815,3.56339955329895,8.908374786376953,0.2114982306957245,-0.07655524462461472,0.06832543015480042
-0.9482121467590332,3.5466339588165283,8.678447723388672,0.07619902491569519,-0.11863649636507034,0.02890755608677864
-0.9338417053222656,3.5322635173797607,9.020943641662598,-0.07348237931728363,-0.0674997866153717,-0.005183584522455931
-1.0871268510818481,3.580165147781372,9.375415802001953,-0.13473989069461823,0.0917697548866272,-0.03448065370321274
