accX,accY,accZ,gyroX,gyroY,gyroZ
0.5092562437057495,6.274369239807129,7.278937816619873,-0.3069685101509094,-0.26567402482032776,-0.0013264502631500363
0.2589664161205292,6.8329362869262695,7.774336338043213,-0.1981297731399536,0.18645352125167847,0.2068215161561966
0.5399594902992249,6.6200056076049805,7.700240612030029,-0.050335295498371124,0.12850859761238098,0.12692034244537354
0.501824676990509,6.589704513549805,7.400046348571777,0.024242622777819633,0.09030333161354065,0.06255260109901428
0.37619611620903015,6.718349933624268,7.087057113647461,0.060301125049591064,0.07888887822628021,0.035726889967918396
0.36546051502227783,6.708246231079102,7.148070812225342,0.10192722827196121,0.06297148019075394,0.055571284145116806
0.5136711597442627,6.700221061706543,7.194269180297852,0.14069099724292755,0.08946557343006134,0.07016223669052124
0.27304431796073914,6.764251708984375,7.180373191833496,0.15707963705062866,0.10852457582950592,0.10480701923370361
0.2535363733768463,6.778798580169678,7.159275531768799,0.1802925169467926,0.1183856800198555,0.12707741558551788
0.5613636374473572,6.696630001068115,6.9189934730529785,0.24923302233219147,0.13142329454421997,0.12053243815898895
0.3277566134929657,7.089077949523926,5.647136211395264,0.22277382016181946,-0.2209237813949585,-0.04525638744235039
-0.3801704943180084,7.15433406829834,6.499845504760742,-0.15762068331241608,-0.03389429301023483,-0.06707300245761871
-0.08606676012277603,7.421775817871094,7.0898919105529785,-0.29965558648109436,-0.1665218621492386,0.021013764664530754
0.27744966745376587,7.361710071563721,7.109840393066406,-0.28009045124053955,-0.26595327258110046,-0.013561207801103592
0.6191980242729187,6.949419021606445,6.699550628662109,-0.33536502718925476,-0.3194301724433899,-0.23198916018009186
0.15239572525024414,7.005702018737793,6.387480735778809,-0.6131690740585327,-0.48174577951431274,-0.3707428276538849
0.2372175008058548,6.845137119293213,6.752041339874268,-0.7611730098724365,-0.627201497554779,-0.37718310952186584
1.0093666315078735,6.083878040313721,8.053521156311035,-0.5857325196266174,-0.9155648350715637,-0.16521286964416504
0.8842648267745972,5.923867702484131,8.17776107788086,-0.23715533316135406,-0.6444104909896851,-0.09529497474431992
1.2228145599365234,5.942906379699707,8.09678840637207,-0.06440264731645584,-0.4692841172218323,-0.1037074625492096
1.319348692893982,5.881586074829102,7.530635356903076,0.0947713777422905,-0.13699088990688324,-0.1503775715827942
1.1360007524490356,6.046920299530029,7.438142776489258,-0.05262167751789093,0.040683623403310776,0.008918632753193378
1.1013997793197632,5.99839448928833,7.537118911743164,-0.04239404574036598,0.022165682166814804,0.015358896926045418
1.0424928665161133,5.958258152008057,7.694647789001465,-0.013753194361925125,0.011309733614325523,0.01572541706264019
1.1018307209014893,6.007368087768555,7.798182964324951,0.03822271153330803,0.026651177555322647,0.013247049413621426
1.0536307096481323,6.0186591148376465,7.702855110168457,0.05274384841322899,0.07408922910690308,0.02094395086169243
0.9733387231826782,6.058239936828613,7.6793060302734375,0.0103672556579113,0.05084143951535225,0.03834488242864609
1.1805903911590576,5.985896587371826,7.440968036651611,0.03982841223478317,0.053843408823013306,0.037227872759103775
1.2169822454452515,6.080122947692871,7.2564239501953125,-0.07367035001516342,-0.07986626774072647,0.041573744267225266
1.0654963254928589,6.2299041748046875,7.552997589111328,-0.09897761791944504,-0.03405137360095978,-0.005427973810583353
1.1334916353225708,6.130171298980713,7.809224605560303,-0.07744026184082031,-0.04026474431157112,-0.02595304511487484
1.2246628999710083,6.004025459289551,7.72478723526001,-0.01705186627805233,0.01417207345366478,-0.04239404574036598
1.1572517156600952,6.11872673034668,7.551915168762207,0.14238396286964417,0.08908160775899887,-0.010821041651070118
1.1680256128311157,6.053958892822266,7.357066631317139,0.1491732895374298,0.10836749523878098,0.0044156829826533794
1.1289043426513672,6.121800899505615,7.339108943939209,0.10325367748737335,0.10522589832544327,0.004485496319830418
1.1124417781829834,6.183552265167236,7.455294609069824,0.035011306405067444,0.09513789415359497,0.0013962633674964309
1.072200059890747,6.15699577331543,7.522993087768555,0.02015855349600315,0.10901326686143875,0.004380776546895504
1.0602003335952759,6.158623695373535,7.688403606414795,0.032445669174194336,0.15224507451057434,0.010384708642959595
0.9787496328353882,6.141969680786133,7.783703804016113,0.1269901543855667,0.17392206192016602,0.04354596510529518
0.8736633062362671,6.241559028625488,7.7936530113220215,0.19165460765361786,0.09107127785682678,0.03810053691267967
0.924860954284668,6.244661808013916,7.443831443786621,0.20095720887184143,0.03644247353076935,0.033999014645814896
0.9401167631149292,6.173075199127197,7.109945774078369,0.13555972278118134,0.03825761750340462,0.029600784182548523
0.924774706363678,6.282088279724121,7.2591328620910645,0.07127925008535385,0.036425020545721054,0.03419100120663643
0.8915719389915466,6.336848258972168,7.397144317626953,0.04951499029994011,0.04064871743321419,0.029129544273018837
0.728498101234436,6.547978401184082,6.983857154846191,0.018500490114092827,0.16371189057826996,0.06155776232481003
1.165947437286377,6.165298938751221,7.968870162963867,-0.0018675023457035422,-0.17324137687683105,0.04530874639749527
0.8483805656433105,6.517093181610107,8.216392517089844,0.08501498401165009,-0.3114016354084015,0.010227628983557224
0.9527102708816528,6.453828811645508,7.456233501434326,0.07812093943357468,-0.26221826672554016,-0.00188495556358248
1.1440452337265015,6.2812933921813965,7.071916103363037,-0.022602014243602753,-0.1529432088136673,-0.008377579972147942
1.0991971492767334,6.324934959411621,7.366709232330322,-0.09154251962900162,-0.022846359759569168,0.0037000980228185654
1.163122296333313,6.215989112854004,7.58933162689209,-0.04162610322237015,-0.011850785464048386,-0.0050090947188436985
1.1538710594177246,6.138225555419922,7.224302291870117,0.04886921867728233,-0.04288274049758911,-0.0224623866379261
1.101744532585144,6.24418306350708,6.907961368560791,0.07094763219356537,-0.07906341552734375,-0.024068091064691544
1.1301398277282715,6.334607124328613,6.876989841461182,0.048345621675252914,-0.08772024512290955,-0.01966986060142517
1.126768708229065,6.267923831939697,6.872823715209961,-0.05319763720035553,-0.06977826356887817,-0.012723450548946857
1.1130834817886353,6.316296577453613,7.503504276275635,-0.16662658751010895,-0.041119955480098724,-0.011798425577580929
1.1128441095352173,6.241769790649414,7.728023052215576,-0.12487830966711044,0.0008377580670639873,-0.006579891312867403
1.0393325090408325,6.286886215209961,7.876971244812012,-0.008360126987099648,-0.009442231617867947,0.006457718089222908
1.0616464614868164,6.355293273925781,7.8602118492126465,0.12969541549682617,-0.05909684672951698,0.030264008790254593
1.2368062734603882,6.268968105316162,7.268834590911865,0.1428377479314804,-0.03719296678900719,0.022218041121959686
1.1353687047958374,6.303339004516602,7.023199081420898,0.04403465613722801,0.0077841682359576225,0.019285887479782104
1.156322717666626,6.410264015197754,7.275806427001953,-0.0013613568153232336,0.024731315672397614,0.022846359759569168
1.1231870651245117,6.308309555053711,7.50102424621582,0.005218534264713526,0.030106930062174797,0.011222466826438904
1.105422019958496,6.273717880249023,7.525243759155273,0.01120501384139061,0.0302465558052063,0.009337511844933033
1.0568772554397583,6.3271660804748535,7.484877586364746,0.0007504915702156723,0.03871140256524086,0.013456488028168678
1.1200937032699585,6.3033294677734375,7.405581474304199,0.026825711131095886,-0.032532937824726105,0.0322536826133728
1.1691365242004395,6.276265621185303,7.428134918212891,0.05429719388484955,-0.026912976056337357,0.04757767543196678
1.2675381898880005,6.392681121826172,7.424983978271484,0.09719738364219666,0.00045378561480902135,0.04543092101812363
1.2356282472610474,6.232480049133301,7.195103645324707,0.10431832820177078,0.04820599406957626,0.03361504152417183
1.2135154008865356,6.273286819458008,7.140907287597656,0.0875806212425232,0.05173156037926674,0.023666664958000183
1.0995993614196777,6.482501983642578,7.2221760749816895,0.04858996719121933,0.04921828582882881,0.021293016150593758
1.1206587553024292,6.426621437072754,7.276285171508789,0.02860594540834427,0.07897614687681198,0.03384193405508995
1.097176432609558,6.4132819175720215,7.367753028869629,0.02188642881810665,0.08173377066850662,0.040369465947151184
1.1297279596328735,6.42041540145874,7.343725204467773,0.028763025999069214,0.12610003352165222,0.053616516292095184
1.1211376190185547,6.315577983856201,7.372848033905029,0.21331414580345154,0.2211855798959732,0.08040732145309448
0.9631010890007019,6.466499328613281,7.153128623962402,0.14037683606147766,0.18629644811153412,0.08567821234464645
1.0551533699035645,6.444232940673828,7.0908684730529785,0.050649452954530716,0.17872171103954315,0.08096582442522049
1.01621413230896,6.4179253578186035,7.2440876960754395,-0.0016231562476605177,0.17786650359630585,0.07325147092342377
0.9224379658699036,6.447240352630615,7.476900100708008,0.0034208453726023436,0.1668011099100113,0.08464846760034561
0.9650068879127502,6.461806297302246,7.542443752288818,0.07063347101211548,0.14105750620365143,0.09499827027320862
0.9760585427284241,6.479437351226807,7.3188347816467285,0.10911798477172852,0.08349654823541641,0.07325147092342377
0.9721990823745728,6.510427951812744,7.036655426025391,0.07482226192951202,0.04482005536556244,0.045605454593896866
0.9026044011116028,6.567467212677002,7.006592750549316,0.04274311289191246,0.024661501869559288,0.03883357718586922
0.9881253242492676,6.527513027191162,7.076972484588623,-0.02050761878490448,-0.02197369560599327,0.023177972063422203
0.9901460409164429,6.485777378082275,7.230661392211914,-0.057648226618766785,-0.027296949177980423,0.016423547640442848
0.9917932152748108,6.47983980178833,7.309459209442139,-0.053703781217336655,-0.02802998758852482,0.014433872886002064
1.0115406513214111,6.478029727935791,7.372828960418701,-0.0362853966653347,-0.02981022372841835,0.005305801052600145
0.995011031627655,6.438094139099121,7.3705973625183105,0.008709193207323551,-0.005759586580097675,-0.009197885170578957
1.0274285078048706,6.503044128417969,7.21671724319458,0.019285887479782104,0.01748819835484028,-0.025900686159729958
0.8876646161079407,6.54271125793457,7.076781272888184,-0.02572615258395672,-0.03609341010451317,-0.024731315672397614
0.9150159955024719,6.570608615875244,7.115701198577881,-0.08119271695613861,-0.08161159604787827,-0.02661627158522606
0.9675160050392151,6.5334792137146,7.1629533767700195,-0.1428551971912384,-0.149208202958107,-0.07695156335830688
1.0192116498947144,6.516509056091309,7.156775951385498,-0.18528415262699127,-0.18196803331375122,-0.11093312501907349
0.9743443131446838,6.520732402801514,7.154621601104736,-0.2933025658130646,-0.26228809356689453,-0.18500490486621857
1.0793826580047607,6.472043991088867,7.109074115753174,-0.4510279893875122,-0.3675488829612732,-0.2678905725479126
0.9676788449287415,6.459335803985596,7.153424263000488,-0.5625720024108887,-0.45610690116882324,-0.3000744581222534
0.8717671036720276,6.403234958648682,7.453341007232666,-0.7402290105819702,-0.6694210171699524,-0.33688345551490784
1.147722840309143,6.21144962310791,7.912692546844482,-0.7579964995384216,-0.8520697355270386,-0.3978303372859955
1.5191017389297485,5.950366497039795,8.1072359085083,-0.7002609968185425,-0.9423556327819824,-0.5163730978965759
1.520116925239563,5.6389384269714355,7.900089740753174,-0.6488261222839355,-0.9117251038551331,-0.5968676805496216
1.378322720527649,5.785626411437988,8.025325775146484,-0.5237383842468262,-0.7663391828536987,-0.5689074993133545
1.270066499710083,5.804100036621094,7.942629814147949,-0.3808482885360718,-0.5574930906295776,-0.4841368794441223
1.4358888864517212,5.674776077270508,7.777565002441406,-0.24232150614261627,-0.398703008890152,-0.3678455948829651
1.3817033767700195,5.811139106750488,7.6759443283081055,-0.10297442227602005,-0.1362229436635971,-0.22423990070819855
1.3091015815734863,5.848412036895752,7.734075546264648,-0.02347467839717865,-0.037629298865795135,-0.1359436959028244
1.4017571210861206,5.820074081420898,7.91187858581543,0.12451178580522537,0.018081611022353172,-0.01432915311306715
1.4366645812988281,5.576785087585449,7.345946788787842,0.25502750277519226,0.24530602991580963,0.03064798191189766
1.4595531225204468,5.9054131507873535,7.201022148132324,0.25619688630104065,0.39587557315826416,0.01736602559685707
1.2671359777450562,5.781700134277344,8.15540885925293,-0.15435691177845,-0.33283427357673645,0.053354714065790176
1.4481568336486816,5.738824844360352,7.911198616027832,-0.08604472875595093,-0.2402271181344986,0.008011061698198318
1.554535984992981,5.765802383422852,7.778933525085449,0.008866272866725922,-0.09407324343919754,-0.0022165682166814804
1.5129821300506592,5.789983749389648,7.7535834312438965,0.11121238023042679,0.09238027781248093,0.006265731994062662
1.3624444007873535,6.005136489868164,7.434417247772217,0.07986626774072647,0.024155355989933014,0.0694291964173317
1.5062209367752075,5.950443267822266,7.526335716247559,0.07080800831317902,0.06532767415046692,0.09857619553804398
1.49946928024292,5.833089351654053,7.563464641571045,0.10218902677297592,0.16570155322551727,0.08138470351696014
1.3832355737686157,5.9337029457092285,7.761245250701904,0.14161601662635803,0.25649359822273254,0.07023204863071442
1.419550895690918,5.903469085693359,7.831730365753174,0.20155061781406403,0.336935818195343,0.10379473119974136
1.3561524152755737,5.902894496917725,7.743136405944824,0.25593507289886475,0.38351863622665405,0.14823080599308014
1.3310036659240723,5.986547946929932,7.749274253845215,0.29099875688552856,0.3237411081790924,0.1676388680934906
1.3593510389328003,6.045234680175781,7.53953218460083,0.2765648663043976,0.3096213936805725,0.14510667324066162
1.2014774084091187,6.136693000793457,7.399184226989746,0.2007303237915039,0.31204742193222046,0.14299482107162476
1.095241904258728,6.246673107147217,7.565351486206055,0.12451178580522537,0.21291270852088928,0.13857914507389069
1.1156500577926636,6.206211090087891,7.659644603729248,0.07757988572120667,0.053441982716321945,0.08976228535175323
1.2483941316604614,6.080419540405273,7.408990859985352,0.029600784182548523,-0.015219271183013916,0.01012290921062231
1.2188210487365723,6.112846851348877,7.2560014724731445,-0.04202752932906151,-0.029199358075857162,-0.036477379500865936
1.1287606954574585,6.2236504554748535,7.484610557556152,-0.090425506234169,-0.10204940289258957,-0.0481012724339962
1.1603641510009766,6.142429351806641,7.605459213256836,-0.11889182776212692,-0.1981821358203888,-0.06033603101968765
1.2640714645385742,6.045368671417236,7.326563358306885,-0.1508837193250656,-0.1581442803144455,-0.06161012127995491
1.3299311399459839,5.994429588317871,7.386676788330078,-0.14280283451080322,-0.07787659019231796,-0.05832890421152115
1.2969772815704346,6.004312992095947,7.635578155517578,-0.0829380452632904,-0.07176794111728668,-0.05368632823228836
1.2600395679473877,6.063363552093506,7.556532382965088,-0.004241149872541428,-0.04646066576242447,-0.008848818950355053
1.2518322467803955,6.101555824279785,7.43675422668457,-0.021135937422513962,-0.05614724010229111,-0.0031590459402650595
1.1469087600708008,6.085198402404785,7.54893684387207,-0.09672614932060242,-0.11372565478086472,-0.008883725851774216
1.2658047676086426,6.057320594787598,7.785685062408447,-0.10751228034496307,-0.12295844405889511,-0.0024085543118417263
1.4441823959350586,5.9847092628479,7.7913737297058105,-0.04335397854447365,-0.016929693520069122,-0.00296705961227417
1.3656812906265259,6.040264129638672,7.824097633361816,0.04251622036099434,0.07384487986564636,0.01754055917263031
1.4158254861831665,5.988731384277344,7.676365852355957,0.1183682307600975,0.12637929618358612,0.021903881803154945
1.3578474521636963,5.910900592803955,7.248138904571533,0.13554227352142334,0.20580922067165375,0.014067353680729866
1.162231683731079,6.069923400878906,7.37627649307251,0.11410962790250778,0.11941542476415634,0.013526301831007004
1.2345844507217407,6.127968788146973,7.429475784301758,0.08799950033426285,0.059149209409952164,0.02373647689819336
1.262366771697998,6.073294639587402,7.445804119110107,0.049183379858732224,0.0570373609662056,0.055833082646131516
1.2489209175109863,6.10908317565918,7.715812683105469,0.07571238279342651,0.10531316697597504,0.08403760194778442
1.2475897073745728,6.075344085693359,7.788491249084473,0.10904817283153534,0.13514083623886108,0.08782497048377991
1.2779386043548584,6.040551662445068,7.6977314949035645,0.16516050696372986,0.17364279925823212,0.08513715863227844
1.2119640111923218,6.176723957061768,7.442404270172119,0.1731366664171219,0.19509290158748627,0.08244935423135757
1.174691081047058,6.204094409942627,7.161890029907227,0.12435470521450043,0.23411846160888672,0.09077457338571548
1.1308484077453613,6.218929290771484,7.23664665222168,0.03827507048845291,0.24288001656532288,0.09004153311252594
1.082782506942749,6.24677848815918,7.49690580368042,-0.013840461149811745,0.20800833404064178,0.10145598649978638
1.0140305757522583,6.226466178894043,7.688011169433594,-0.018936822190880775,0.1653699427843094,0.11452850699424744
1.0424736738204956,6.224675178527832,7.926914215087891,0.030316369608044624,0.10812314599752426,0.1322261393070221
1.1851394176483154,6.155980587005615,7.754790306091309,0.1437627673149109,0.09604547172784805,0.046792276203632355
1.1320264339447021,6.212771415710449,7.448188781738281,0.1350710242986679,0.0881391242146492,0.02687807008624077
1.0778217315673828,6.244489669799805,7.239567756652832,0.07791149616241455,0.06490879505872726,0.021868975833058357
1.060937762260437,6.257619380950928,7.283017635345459,0.031520646065473557,0.0354301854968071,0.02480112947523594
1.11167573928833,6.23965311050415,7.475348472595215,0.04239404574036598,0.037716563791036606,0.027785642072558403
1.1233785152435303,6.258854866027832,7.461672782897949,0.10355038195848465,0.11178833991289139,0.03511602431535721
1.056369662284851,6.285277366638184,7.352067470550537,0.10492919385433197,0.1675865203142166,0.05209807679057121
0.9814311265945435,6.320931434631348,7.529495716094971,0.12006119638681412,0.15029029548168182,0.05982988700270653
1.0467257499694824,6.39120626449585,7.609318733215332,0.15458381175994873,0.16406095027923584,0.05614724010229111
1.0210216045379639,6.393983364105225,7.532732963562012,0.1791405975818634,0.1788613349199295,0.06541494280099869
0.7943865060806274,6.512257099151611,7.689466953277588,0.1973269283771515,0.033597588539123535,0.07771950960159302
0.7680694460868835,6.3209123611450195,6.4906229972839355,0.2134014070034027,0.16175711154937744,0.041085049510002136
0.8739697933197021,6.5459771156311035,6.472667694091797,0.1538158655166626,0.23005184531211853,0.011379546485841274
1.050336241722107,6.491274356842041,6.932640552520752,-0.05677555873990059,-0.06531021744012833,-0.04906120523810387
0.8669978380203247,6.4518561363220215,7.521719455718994,-0.15776030719280243,-0.17650514841079712,-0.0205948855727911
0.776784360408783,6.612028121948242,7.721482276916504,-0.056409042328596115,-0.23209388554096222,0.006352998316287994
1.0898022651672363,6.419591903686523,6.981060981750488,0.028012534603476524,-0.09889035671949387,-0.023230332881212234
1.0555076599121094,6.440814018249512,6.872277736663818,-0.05110324174165726,-0.09443976730108261,-0.0024958208668977022
1.0572794675827026,6.192334175109863,7.545135021209717,0.0028972465079277754,-0.16976816952228546,0.0685390830039978
1.256754755973816,6.2940497398376465,7.884747505187988,0.22106340527534485,-0.18659314513206482,0.08271115273237228
1.1972156763076782,6.3878254890441895,7.895511627197266,0.3373023271560669,-0.175737202167511,0.08731882274150848
1.271818995475769,6.598056793212891,7.4496636390686035,0.471727579832077,-0.030490901321172714,0.09457939118146896
1.1812511682510376,6.523797035217285,7.022202968597412,0.4602258801460266,0.17151349782943726,0.12233012914657593
1.1712816953659058,6.57517671585083,6.909426212310791,0.39358919858932495,0.30890581011772156,0.17558012902736664
1.3925442695617676,6.617027282714844,6.856562614440918,0.3352777361869812,0.32857567071914673,0.18736109137535095
1.4133163690567017,6.584676742553711,6.565609455108643,0.17524850368499756,0.32473596930503845,0.133657306432724
1.0031417608261108,6.745002269744873,6.601235389709473,-0.11412707716226578,0.4162784814834595,0.16882570087909698
1.0044058561325073,6.825236797332764,7.413712501525879,-0.12880529463291168,0.35149186849594116,0.22169172763824463
0.9258952140808105,6.728252410888672,7.747607707977295,-0.066828653216362,0.31328660249710083,0.2502453029155731
1.120582103729248,6.577714443206787,7.706178188323975,0.09901253134012222,0.2373473197221756,0.27747243642807007
1.1926380395889282,6.479015827178955,7.123852252960205,0.16919220983982086,0.2209412306547165,0.2094220519065857
0.9428174495697021,6.498744010925293,6.1833415031433105,0.2753256857395172,-0.16842427849769592,0.13875368237495422
1.169730305671692,7.2362060546875,6.773665428161621,0.10580185800790787,-0.1823170930147171,-0.02254965342581272
0.3039774000644684,6.7913923263549805,6.519114017486572,-0.3608991801738739,-0.10932742059230804,0.03494149073958397
0.8939374089241028,6.986145973205566,6.7147297859191895,-0.46764352917671204,-0.12150982022285461,0.031817350536584854
1.3782460689544678,6.586697578430176,7.144968032836914,-0.46010369062423706,-0.10438814014196396,-0.12018337100744247
1.1103445291519165,6.441379070281982,7.128256320953369,-0.39152970910072327,-0.023282691836357117,-0.2076941728591919
0.9992823004722595,6.590030193328857,7.286168575286865,-0.3883183002471924,-0.06398376822471619,-0.20785126090049744
0.9588873386383057,6.607747554779053,7.4318413734436035,-0.383029967546463,-0.2431243658065796,-0.14163346588611603
1.2303801774978638,6.375030994415283,7.3739399909973145,-0.30578169226646423,-0.3078411817550659,-0.09388125687837601
1.3507702350616455,6.296443939208984,7.3539719581604,-0.14789919555187225,-0.1912531852722168,-0.0821002870798111
1.0921581983566284,6.315483570098877,7.552116394042969,-0.09829694032669067,0.015620696358382702,-0.05941100791096687
1.1136293411254883,6.351529598236084,7.737168788909912,0.018901916220784187,0.050998520106077194,-0.004607669077813625
1.262721061706543,6.418816089630127,7.784210205078125,0.16987289488315582,-0.051888637244701385,-0.013124875724315643
1.3251714706420898,6.218814373016357,7.079558372497559,0.18573793768882751,-0.00799360778182745,-0.04141666367650032
0.9464374780654907,6.760373115539551,7.0472941398620605,-0.03015928901731968,-0.06517059355974197,-0.04689699783921242
0.7731260061264038,6.535088062286377,7.364832401275635,-0.20474457740783691,-0.13344787061214447,0.029740409925580025
1.1508352756500244,6.463118553161621,7.651293754577637,-0.16526523232460022,-0.20985838770866394,0.035150930285453796
1.2779769897460938,6.333957195281982,7.678070545196533,0.017907077446579933,-0.1293638050556183,-0.06548475474119186
1.27946138381958,6.402200222015381,7.1867899894714355,0.01160643994808197,-0.15994197130203247,-0.039444439113140106
1.3166863918304443,6.308615684509277,7.087277412414551,-0.014835298992693424,-0.08127998560667038,-0.037664204835891724
1.2862130403518677,6.372742176055908,7.328919410705566,-0.04101523756980896,-0.05160938575863838,-0.030176742002367973
1.2783408164978027,6.338850021362305,7.369295120239258,-0.007679448463022709,-0.04539601504802704,-0.029199358075857162
1.2440941333770752,6.325317859649658,7.349844455718994,0.006981316953897476,-0.08075638115406036,-0.026895523071289062
1.2656803131103516,6.280862331390381,7.328220367431641,-0.023143066093325615,-0.05712462589144707,-0.007976154796779156
1.347590684890747,6.3417134284973145,7.37891960144043,-0.036163222044706345,-0.017331119626760483,-0.001117010717280209
1.2876782417297363,6.3506293296813965,7.418874263763428,-0.017994344234466553,-0.016458455473184586,-0.009320057928562164
1.2637362480163574,6.440737724304199,7.41388463973999,0.004398229531943798,-0.015620696358382702,-0.009756390936672688
1.2426097393035889,6.413952350616455,7.352287769317627,-0.016859879717230797,-0.06405358016490936,-0.004694935865700245
1.3129897117614746,6.377051830291748,7.256087779998779,-0.02612757869064808,-0.03436553105711937,0.003979350905865431
1.3315112590789795,6.383285999298096,7.301453113555908,-0.004782202187925577,-0.03274237737059593,-0.0007504915702156723
1.3763211965560913,6.348800182342529,7.37794303894043,-0.05110324174165726,-0.05031784251332283,-0.01286307629197836
1.3762445449829102,6.3121018409729,7.35700798034668,-0.030141836032271385,-0.02045525796711445,-0.014206980355083942
1.3679797649383545,6.3496623039245605,7.273996353149414,0.008045967668294907,0.0006981316837482154,-0.007033676840364933
1.3381288051605225,6.339980125427246,7.1661529541015625,0.00954695139080286,-0.02387610450387001,-0.019565140828490257
1.329097867012024,6.363682746887207,7.156967639923096,-0.020350538194179535,-0.03972369432449341,-0.009616764262318611
1.3791463375091553,6.340056419372559,7.180133819580078,-0.05248204991221428,-0.049637164920568466,-0.006946410518139601
1.3621761798858643,6.3715643882751465,7.420607566833496,-0.06581636518239975,-0.04548327997326851,0.0024260077625513077
1.273667335510254,6.394385814666748,7.5807318687438965,-0.02200860157608986,-0.016528267413377762,-0.0019024088978767395
1.382967472076416,6.3488383293151855,7.489589214324951,0.013892821036279202,-0.01851794309914112,-0.00769690191373229
1.3545721769332886,6.382070064544678,7.219437122344971,0.008918632753193378,-0.009407324716448784,-0.012636183761060238
1.302330732345581,6.391933917999268,7.222204685211182,-0.016929693520069122,-0.022252947092056274,0.0010471974965184927
1.3738216161727905,6.37756872177124,7.337768077850342,-0.015097098425030708,-0.0018675023457035422,0.01342158205807209
1.3942489624023438,6.342048645019531,7.392634868621826,0.004956734832376242,0.023020893335342407,0.007365289609879255
1.3460392951965332,6.382175445556641,7.315741539001465,0.013910274021327496,0.018064158037304878,0.0013613568153232336
1.3428022861480713,6.341263294219971,7.290927886962891,-0.004049163777381182,0.026808258146047592,-0.0021293016616255045
1.396087646484375,6.304382801055908,7.2758636474609375,-0.03148574009537697,0.06445500999689102,-0.009197885170578957
1.2606525421142578,6.278391361236572,7.445947647094727,-0.03516838327050209,0.07250097393989563,0.0031590459402650595
1.292141079902649,6.337471008300781,7.539073944091797,0.019320795312523842,0.055867988616228104,0.02295107953250408
1.3419691324234009,6.248425483703613,7.420109748840332,0.07771950960159302,0.06356488913297653,0.03556980937719345
1.3733906745910645,6.303856372833252,7.067951202392578,0.05878268927335739,0.0884358361363411,0.02905973233282566
1.3401591777801514,6.246184825897217,6.878818988800049,0.04588470607995987,0.11791444569826126,0.012601276859641075
1.3018615245819092,6.398590087890625,6.972882270812988,0.01912880875170231,0.05420992523431778,-0.02197369560599327
1.1604599952697754,6.318355560302734,7.193857669830322,-0.06586872786283493,-0.05768313258886337,0.011222466826438904
1.0345919132232666,6.763782501220703,7.443371772766113,-0.1912880837917328,-0.1860520988702774,0.05124286562204361
1.1183507442474365,6.446933746337891,7.7533345222473145,-0.22183135151863098,-0.22341959178447723,0.03363249450922012
1.5760453939437866,6.262494087219238,7.884929656982422,-0.11904890835285187,-0.17638297379016876,-0.045553091913461685
1.5217832326889038,6.207427501678467,7.543736457824707,-0.0342782661318779,0.008726646192371845,-0.06574655324220657
1.3134206533432007,6.347449779510498,7.503810882568359,-0.0625176951289177,0.006370451766997576,-0.0032114058267325163
1.546309471130371,6.115489959716797,7.462525367736816,0.04516912251710892,-0.03488913178443909,0.003089232835918665
1.618202567100525,6.127709865570068,7.07295036315918,0.1722814440727234,0.013631021603941917,-0.06398376822471619
1.4166778326034546,6.239232063293457,6.72562837600708,0.1048419252038002,0.0783652812242508,-0.049724429845809937
1.3579145669937134,6.18113899230957,6.873992443084717,0.02612757869064808,0.17959438264369965,-0.006946410518139601
1.352647304534912,6.357352256774902,7.317340850830078,0.02241002768278122,0.10592403262853622,-0.013840461149811745
1.172766089439392,6.416576385498047,7.568233966827393,-0.009634217247366905,-0.046879544854164124,0.00970403105020523
1.319885015487671,6.320328235626221,7.444999694824219,-0.01696459949016571,-0.03251548483967781,0.03454006463289261
1.424664855003357,6.257102012634277,7.671682834625244,0.011309733614325523,0.011746065691113472,-0.007557275705039501
1.3640437126159668,6.297842025756836,7.756830215454102,0.02670353837311268,0.043214350938797,-0.031206486746668816
1.2752091884613037,6.3159613609313965,7.578433513641357,0.02640683203935623,0.0982271283864975,-0.052726395428180695
1.3305919170379639,6.289577007293701,7.358588218688965,0.012775810435414314,0.09688322991132736,-0.06963863968849182
1.2986245155334473,6.347095489501953,7.201413631439209,-0.003281218931078911,0.080058254301548,-0.05199335888028145
1.3287148475646973,6.367388725280762,7.211143493652344,-0.0003665191470645368,0.04698426276445389,-0.02640683203935623
1.3421319723129272,6.3228759765625,7.277031898498535,0.03303908184170723,0.022706734016537666,-0.012775810435414314
1.159032940864563,6.455026149749756,7.477809906005859,0.08892452716827393,0.10403907299041748,-0.014067353680729866
1.2137069702148438,6.36309814453125,7.156163215637207,0.06921976059675217,0.02436479553580284,-0.003298672381788492
1.1379544734954834,6.35759162902832,7.192133903503418,0.03663446009159088,0.020141098648309708,0.001745329238474369
1.1470428705215454,6.317943572998047,6.375002384185791,0.03420845419168472,0.16543975472450256,-0.010227628983557224
1.0691642761230469,6.554260730743408,7.61078405380249,-0.07326892018318176,-0.1802750527858734,-0.018308503553271294
1.0818535089492798,6.5652360916137695,7.205866813659668,-0.07412413507699966,-0.21071359515190125,0.012042772024869919
1.3405039310455322,6.406769752502441,7.1597065925598145,-0.06951646506786346,-0.1783202886581421,-0.0207345113158226
1.3726149797439575,6.341129302978516,7.207149982452393,-0.08337438106536865,-0.08136724680662155,-0.04246386140584946
1.3321529626846313,6.313999176025391,7.350141525268555,-0.08621926605701447,-0.02802998758852482,-0.03897320106625557
1.3314346075057983,6.397785663604736,7.48990535736084,0.001029744278639555,-0.07246606796979904,-0.010733774863183498
1.3418350219726562,6.377856254577637,7.361451625823975,0.047944195568561554,-0.07566002011299133,-0.0028448866214603186
1.3939424753189087,6.364429473876953,7.1747517585754395,0.08662068843841553,-0.0748920813202858,0.015114551410079002
1.381109595298767,6.313663005828857,7.167492389678955,0.06311110407114029,0.011222466826438904,0.0362853966653347
1.398682951927185,6.365569114685059,7.3746867179870605,0.0679805725812912,0.07773696631193161,0.03759439289569855
1.4240902662277222,6.298282623291016,7.378000259399414,0.08220500499010086,0.1751263439655304,0.03511602431535721
1.4438376426696777,6.288293838500977,7.355743885040283,0.09487609565258026,0.27860692143440247,0.03396410867571831
1.2433758974075317,6.513080596923828,7.53855562210083,0.1517738252878189,0.25329962372779846,0.03850196301937103
1.2124906778335571,6.5960540771484375,7.560591697692871,0.2747148275375366,0.2027897983789444,0.04495968297123909
1.2005101442337036,6.476956844329834,7.362141132354736,0.4055097997188568,0.21692697703838348,0.05412266030907631
1.2689363956451416,6.530213832855225,7.065930366516113,0.46795767545700073,0.254591166973114,0.05279621109366417
1.2087270021438599,6.56092643737793,6.810622692108154,0.37807321548461914,0.32045990228652954,0.03810053691267967
1.110718011856079,6.514363765716553,6.778818130493164,0.24757495522499084,0.40160027146339417,0.042760565876960754
1.0653622150421143,6.562056541442871,6.924969673156738,0.17790141701698303,0.45354124903678894,0.05071926862001419
0.8720065355300903,6.757538318634033,7.121792316436768,0.19395844638347626,0.4103792607784271,0.057875119149684906
0.775050938129425,6.7292962074279785,7.143110275268555,0.18048450350761414,0.2451489418745041,0.10234610736370087
0.8317839503288269,6.71987247467041,7.144020080566406,0.1344776153564453,0.2217615395784378,0.09901253134012222
0.6880552172660828,6.818620204925537,7.108816623687744,0.0921882912516594,0.24898867309093475,0.056094881147146225
0.604669988155365,6.903469562530518,7.147409915924072,0.07901105284690857,0.23408356308937073,0.04080579802393913
0.511478066444397,6.92298698425293,7.007962226867676,0.040858156979084015,0.21387264132499695,0.02122320421040058
0.4422377645969391,6.930083751678467,6.715400218963623,0.012828170321881771,0.14988887310028076,0.022357666864991188
0.5189575552940369,6.914731979370117,6.53188943862915,-0.02275909297168255,0.023928463459014893,0.004869468510150909
0.6036356687545776,6.916810035705566,6.496886253356934,-0.09320057928562164,-0.07464773207902908,-0.021380282938480377
0.6496235132217407,6.868887901306152,6.779852390289307,-0.13789846003055573,-0.08763298392295837,-0.019477874040603638
0.6660764813423157,6.895606994628906,7.006899356842041,-0.10159561783075333,-0.04225442185997963,-0.006841690745204687
0.6877008676528931,6.887303829193115,7.083915710449219,-0.06414084881544113,-0.016528267413377762,-0.00855211354792118
0.7260081171989441,6.932019233703613,7.124722480773926,-0.01120501384139061,0.020926497876644135,-0.011588986031711102
0.7943673729896545,6.968811988830566,6.945004463195801,-0.018483037129044533,0.04331907257437706,-0.01705186627805233
0.8834604024887085,6.927028656005859,6.826845645904541,-0.06494370102882385,0.00027925267932005227,-0.016598081216216087
0.8493191003799438,6.930476188659668,6.884660720825195,-0.11192796379327774,-0.04380776360630989,-0.009983283467590809
0.8898577094078064,6.85061502456665,7.058948993682861,-0.13227850198745728,-0.04064871743321419,-0.014294246211647987
0.9271976947784424,6.8234076499938965,7.252735614776611,-0.09238027781248093,-0.019652407616376877,-0.02263692021369934
0.8678310513496399,6.798574924468994,7.184548854827881,-0.041521381586790085,0.002827433403581381,-0.018483037129044533
0.9185881018638611,6.752089023590088,7.020794868469238,-0.024696409702301025,0.013613567687571049,-0.018483037129044533
0.9180326461791992,6.6499152183532715,6.888002872467041,-0.05085889250040054,0.015132004395127296,-0.02909463830292225
0.9115970730781555,6.592433929443359,7.152073860168457,-0.058259088546037674,-0.016266468912363052,-0.021013764664530754
0.9745741486549377,6.616567611694336,7.240228652954102,-0.01473057921975851,0.037891097366809845,-0.028588492423295975
0.910476565361023,6.632953643798828,7.246664047241211,0.010890854522585869,0.048083819448947906,-0.030630528926849365
0.8125824332237244,6.652001857757568,7.2774152755737305,0.05496041849255562,0.03419100120663643,-0.02410299703478813
0.8350304961204529,6.644771575927734,7.06533670425415,0.06333799660205841,0.04303981736302376,-0.024783674627542496
0.8255590200424194,6.61344575881958,6.96512508392334,0.04110250249505043,0.05103342607617378,-0.027977628633379936
0.7962539792060852,6.605353355407715,7.057828426361084,0.0391651876270771,0.04270820692181587,-0.025150194764137268
0.8101020455360413,6.601637363433838,7.12086296081543,0.041294489055871964,0.022113321349024773,-0.022287854924798012
0.7734516263008118,6.621921062469482,7.114599704742432,0.03176499158143997,0.06777113676071167,-0.0003665191470645368
0.7007541060447693,6.733883380889893,7.169906139373779,0.04703662171959877,0.07309439033269882,-0.0031415927223861217
0.6746285557746887,6.780177593231201,7.181397914886475,0.057875119149684906,0.08262388408184052,-0.01012290921062231
0.6302304863929749,6.874528408050537,7.155684471130371,0.06560692936182022,0.05417501926422119,-0.020577432587742805
0.5891076922416687,6.874490261077881,7.064398288726807,0.049759335815906525,0.048258353024721146,-0.013980086892843246
0.5683738589286804,6.979988098144531,7.0080389976501465,0.04368559271097183,0.06171484291553497,-0.003455751808360219
0.5749723315238953,6.952952861785889,6.942322731018066,0.04691445082426071,0.05578072369098663,-0.00038397242315113544
0.6380930542945862,6.881682395935059,6.878177165985107,0.05599016323685646,0.05239478498697281,0.004049163777381182
0.6528317332267761,6.863985538482666,6.856351852416992,0.06218608096241951,0.06058037653565407,0.010157816112041473
0.6684132218360901,6.873887062072754,6.832066059112549,0.0659385398030281,0.03335324302315712,0.004607669077813625
0.6858429908752441,6.882440090179443,6.827525615692139,0.05688028037548065,0.033335790038108826,0.0009773843921720982
0.6884957551956177,6.843509197235107,7.01901388168335,0.048607420176267624,0.06461209058761597,0.007749261800199747
0.7521049380302429,6.81352424621582,7.179425239562988,0.06693337857723236,0.0944746732711792,0.0019198621157556772
0.7178486585617065,6.8585638999938965,7.285354137420654,0.1048419252038002,0.07885397225618362,0.0025830871891230345
0.6553313136100769,6.879039287567139,7.384819030761719,0.14301228523254395,-0.0029321531765162945,0.018849555402994156
0.8667680025100708,6.73094367980957,7.267512798309326,0.19004890322685242,0.13152800500392914,0.016947146505117416
0.7318308353424072,6.682810306549072,7.200714588165283,0.24932028353214264,0.22334977984428406,0.016598081216216087
0.680441677570343,6.727361679077148,6.969243049621582,0.2891836166381836,0.29771825671195984,0.03988077491521835
0.7117961645126343,6.721069812774658,6.557221412658691,0.2862688899040222,0.24548055231571198,0.0269304309040308
0.17998650670051575,7.142487525939941,3.8155434131622314,-0.041922807693481445,0.29255208373069763,-0.00823795422911644
0.01518881507217884,7.151461124420166,7.758180618286133,-0.374390572309494,-0.3026575446128845,0.061540309339761734
