accX,accY,accZ,gyroX,gyroY,gyroZ
-1.5978072881698608,6.966702938079834,6.729215621948242,-0.1844237744808197,-0.262986958026886,0.017576850950717926
-1.6648063659667969,6.870391845703125,6.834499835968018,-0.24940484762191772,-0.29707539081573486,0.004793686326593161
-1.7126628160476685,6.966702938079834,7.007380962371826,-0.26218801736831665,-0.29814067482948303,0.022903168573975563
-1.3537393808364868,6.674180507659912,7.160521984100342,-0.17909744381904602,-0.19800588488578796,0.13475584983825684
-1.4829518795013428,6.784250259399414,7.423732280731201,-0.2174469381570816,-0.22783325612545013,0.1272990107536316
-1.6408780813217163,6.942774772644043,7.141379356384277,-0.28029748797416687,-0.3556649088859558,0.15606112778186798
-1.205384373664856,6.588038921356201,7.179664134979248,-0.2877543270587921,-0.3364901542663574,0.26458486914634705
-0.966102123260498,6.56411075592041,7.304090976715088,-0.17803218960762024,-0.23209431767463684,0.26884591579437256
-0.9278169870376587,6.573681831359863,7.131807804107666,-0.08535424619913101,-0.19267955422401428,0.2613890767097473
-0.9373882412910461,6.602396011352539,6.958926677703857,-0.06617950648069382,-0.1820269227027893,0.2656501233577728
-0.7980063557624817,6.549753665924072,6.710072994232178,-0.1045289933681488,-0.15646059811115265,0.28802067041397095
-0.6161518096923828,6.430112838745117,6.734001159667969,-0.19081534445285797,-0.0703074038028717,0.2848248779773712
-0.5635097622871399,6.1812591552734375,7.313662528991699,-0.23555642366409302,0.05113265663385391,0.24967116117477417
-0.5826523303985596,5.970690727233887,7.304090976715088,-0.23768694698810577,-0.029827382415533066,0.20493009686470032
-0.47258245944976807,6.032904148101807,7.447660446166992,-0.24407853186130524,-0.06391581892967224,0.18149429559707642
-0.15672987699508667,6.123831272125244,7.6630144119262695,-0.21851220726966858,-0.06711161136627197,0.17616797983646393
-0.05144568532705307,6.066403388977051,7.452445983886719,-0.16951008141040802,-0.08096003532409668,0.14327795803546906
-0.04666004329919815,6.0711894035339355,7.605587005615234,-0.12689952552318573,0.046871598809957504,0.11558110266923904
-0.1663011759519577,6.095117568969727,7.820940971374512,-0.08748477697372437,0.09800425171852112,0.09534109383821487
-1.0618150234222412,6.2913289070129395,9.061020851135254,-0.035286858677864075,0.03728422895073891,0.07723161578178406
-1.057029366493225,6.568896293640137,8.735597610473633,0.1213068962097168,-0.16711322963237762,0.1964079886674881
-0.6065805554389954,6.492326259613037,7.99800968170166,0.24048326909542084,-0.15539532899856567,0.2347574681043625
-0.5970092415809631,6.353542327880859,7.706085205078125,0.23835274577140808,-0.10972215235233307,0.1454084813594818
-0.5682953596115112,6.348756790161133,7.581658363342285,0.21598219871520996,-0.1363537460565567,0.0942758321762085
-0.4821537733078003,6.358327865600586,7.280162811279297,0.13728585839271545,-0.25979116559028625,0.038882121443748474
-0.39122650027275085,6.382256031036377,7.0887370109558105,0.0786963477730751,-0.3247722387313843,0.013315795920789242
-0.1950150430202484,6.334399700164795,7.27537727355957,0.06271740049123764,-0.2853575050830841,0.002663159044459462
-0.1136590763926506,6.214758396148682,7.347161769866943,0.10000162571668625,-0.23955115675926208,-0.009054740890860558
-0.4055834412574768,6.430112838745117,6.4803619384765625,0.16911059617996216,-0.40040597319602966,-0.04314317926764488
-0.008374879136681557,6.353542327880859,6.399005889892578,0.07123950868844986,-0.2906838059425354,0.021837905049324036
0.13998012244701385,6.343971252441406,6.824928283691406,-0.02996053919196129,-0.02450106292963028,0.04527370631694794
0.06819544732570648,6.454041004180908,7.797012805938721,-0.07576687633991241,0.32703593373298645,0.046338967978954315
-0.2955136001110077,6.190830230712891,7.672585964202881,-0.019307903945446014,0.2300969511270523,0.09001477807760239
-0.1663011759519577,6.391827583312988,7.8113694190979,-0.011851058341562748,0.1459411233663559,-0.009054740890860558
-0.09451649338006973,6.305685997009277,7.380661487579346,-0.022503694519400597,0.03728422895073891,-0.15286533534526825
-0.875174880027771,6.7794647216796875,7.0169525146484375,0.03075948730111122,0.22264009714126587,-0.21465063095092773
-1.210170030593872,6.712465763092041,8.35274600982666,0.130894273519516,0.15659375488758087,-0.08681898564100266
-1.2005987167358398,6.745965003967285,8.501100540161133,0.17017586529254913,-0.022370535880327225,-0.03249054029583931
-0.7884350419044495,6.674180507659912,8.002795219421387,0.18295903503894806,-0.2725743353366852,0.06764423847198486
-0.6305087804794312,6.635895252227783,7.964509963989258,0.1712411344051361,-0.31731539964675903,0.08042740821838379
-0.28594231605529785,6.367899417877197,8.127820014953613,0.1669800728559494,-0.4504733681678772,0.03249054029583931
-0.17108681797981262,6.458826541900635,7.710870742797852,0.23409168422222137,-0.627307116985321,-0.07297056168317795
-0.33858439326286316,6.75075101852417,7.380661487579346,0.3416832983493805,-0.6550039649009705,-0.13901691138744354
-0.1902294009923935,6.784250259399414,6.815357208251953,0.3747064769268036,-0.6060018539428711,-0.11877689510583878
0.20757736265659332,6.592824459075928,6.82014274597168,0.30546435713768005,-0.5708481669425964,-0.08894951641559601
0.3415754437446594,6.540182590484619,6.767500877380371,0.2692453861236572,-0.5740439295768738,-0.12197268754243851
0.4468596279621124,6.583253383636475,6.470790863037109,0.20106850564479828,-0.6017407774925232,-0.21358536183834076
0.4707878530025482,6.793821811676025,6.169294834136963,0.130894273519516,-0.45686495304107666,-0.2253032624721527
0.5186443328857422,6.798607349395752,6.164509296417236,0.0786963477730751,-0.3524691164493561,-0.19973693788051605
0.7004988193511963,6.860820770263672,5.8719868659973145,0.0009321057004854083,-0.22783325612545013,-0.11558110266923904
0.4899304509162903,6.726822853088379,6.887141704559326,-0.1428784877061844,0.09800425171852112,-0.025033695623278618
0.37028929591178894,6.659823417663574,7.58644437789917,-0.22490379214286804,0.16085481643676758,-0.002663159044459462
0.29850462079048157,6.769893646240234,7.830512046813965,-0.2781669795513153,-0.017044218257069588,-0.011185267940163612
0.6909275650978088,6.7794647216796875,7.490731239318848,-0.22916483879089355,-0.058589499443769455,0.059122130274772644
0.5904290080070496,6.856035232543945,7.830512046813965,-0.06511423736810684,0.21837905049324036,0.14221268892288208
-0.10408778488636017,7.014559745788574,7.782655715942383,0.12343742698431015,0.28975170850753784,0.07723161578178406
-0.13280165195465088,6.87517786026001,7.41416072845459,0.011584741994738579,0.021305272355675697,-0.06444845348596573
-0.1902294009923935,6.736393928527832,7.265805721282959,-0.0011984215816482902,-0.10652636736631393,-0.11451584100723267
0.05383851006627083,6.655037879943848,7.001997470855713,0.21065588295459747,0.0074568456038832664,0.01651158556342125
-0.08015955984592438,6.6693949699401855,6.939784049987793,0.18189376592636108,-0.006391582079231739,-0.017576850950717926
0.015553346835076809,7.004988193511963,6.09751033782959,0.05419528856873512,-0.23315958678722382,0.022903168573975563
0.31764721870422363,6.568896293640137,6.6143598556518555,-0.06191844865679741,-0.0894821435213089,0.04101264849305153
0.17347964644432068,6.836892604827881,7.39980411529541,-0.06298371404409409,-0.13954953849315643,-0.0005326318205334246
0.08733802288770676,7.014559745788574,7.194021224975586,0.07017423957586288,-0.019174745306372643,-0.050600022077560425
-0.07058826833963394,6.822535514831543,7.227520942687988,0.03821633383631706,-0.1129179447889328,-0.027164222672581673
-0.05623133108019829,6.798607349395752,6.901498794555664,0.05099949613213539,-0.23102904856204987,-0.010120004415512085
0.32721850275993347,6.8997039794921875,6.604788780212402,0.07017423957586288,-0.18309219181537628,-0.01651158556342125
0.40378883481025696,6.894918441772461,6.906284332275391,0.08615319430828094,-0.03195790946483612,-0.03142527863383293
0.50907301902771,6.769893646240234,7.0887370109558105,-0.01717737689614296,0.05539371073246002,-0.0015978955198079348
0.1543370634317398,6.784250259399414,7.41416072845459,-0.09920267760753632,0.06711161136627197,-0.01438105944544077
0.24586252868175507,6.76510763168335,6.930212497711182,-0.09707214683294296,-0.042610544711351395,0.03994738683104515
0.5712863802909851,6.525825500488281,7.093522548675537,-0.055526867508888245,0.14700637757778168,0.07297056168317795
0.24586252868175507,6.832107067108154,7.141379356384277,-0.0033289489801973104,0.24288010597229004,0.03994738683104515
0.14476576447486877,6.793821811676025,7.060023307800293,-0.011851058341562748,0.23329274356365204,0.029294749721884727
-0.10887342691421509,6.8512492179870605,7.27537727355957,-0.043808966875076294,0.15126743912696838,0.006924213841557503
-0.137587308883667,6.860820770263672,7.241877555847168,-0.04913528636097908,0.08522108942270279,0.004793686326593161
-0.07058826833963394,6.860820770263672,7.184450149536133,-0.02996053919196129,0.07456845790147781,0.01651158556342125
-0.037088751792907715,6.8512492179870605,7.179664134979248,-0.01504684891551733,0.0894821435213089,0.030360013246536255
0.16390834748744965,6.597609996795654,6.28415060043335,-0.0715058222413063,-0.012783164158463478,-0.01225053146481514
0.09690931439399719,6.698108673095703,7.667799949645996,0.0062584239058196545,0.2215748429298401,-0.006924213841557503
-0.137587308883667,6.793821811676025,7.835297584533691,0.03608580678701401,-0.08309056609869003,-0.006924213841557503
-0.061016976833343506,6.808178424835205,7.485945701599121,-0.0011984215816482902,-0.1777658760547638,0.005858949851244688
0.28893333673477173,6.81296443939209,7.418946743011475,0.02756369672715664,-0.1628521829843521,0.03249054029583931
0.4995017349720001,6.942774772644043,7.079165935516357,0.08402267098426819,-0.058589499443769455,-0.022903168573975563
0.29371899366378784,7.048058986663818,6.911069869995117,0.05632581561803818,0.07350318878889084,-0.058056868612766266
0.12083754688501358,6.841678142547607,6.982854843139648,-0.0011984215816482902,0.03621896356344223,-0.050600022077560425
0.13519448041915894,6.8273210525512695,6.858428001403809,-0.039547912776470184,-0.01597895473241806,-0.018642114475369453
0.17347964644432068,6.784250259399414,6.748358249664307,-0.039547912776470184,0.04900212585926056,-0.0037284228019416332
0.28893333673477173,6.607181549072266,5.680561065673828,-0.06511423736810684,0.15339796245098114,-0.0037284228019416332
-0.19980068504810333,6.722036838531494,7.744370460510254,-0.008655266836285591,0.38242965936660767,-0.0037284228019416332
-0.7884350419044495,6.879963397979736,8.056035995483398,0.04460791498422623,-0.07669898122549057,0.034621067345142365
-0.21415762603282928,6.774679183959961,7.356733322143555,0.008388951420783997,-0.17883113026618958,0.11664637178182602
0.5234299302101135,6.75075101852417,6.872784614562988,0.01904158666729927,-0.1447426974773407,0.09214530140161514
0.34636107087135315,6.914061069488525,6.934998035430908,0.024367906153202057,0.05113265663385391,-0.013315795920789242
-0.12801600992679596,7.033702373504639,7.323233604431152,0.01584579609334469,0.12570111453533173,-0.01651158556342125
-0.02273181453347206,6.774679183959961,7.227520942687988,-0.0022636852227151394,0.023435799404978752,0.013315795920789242
0.0729810893535614,6.7076802253723145,7.036095142364502,-0.022503694519400597,-0.045806337147951126,0.015446322970092297
0.08255238085985184,6.798607349395752,6.791429042816162,-0.0342215932905674,-0.023435799404978752,0.0037284228019416332
0.10169496387243271,6.650252342224121,7.409375190734863,-0.03741738572716713,0.2162485122680664,-0.018642114475369453
-0.017946170642971992,6.477969169616699,8.328817367553711,0.008388951420783997,0.030892645940184593,-0.01651158556342125
-0.04666004329919815,6.683752059936523,7.509873867034912,0.0318247526884079,-0.15219953656196594,-0.053795814514160156
0.5042873620986938,6.7794647216796875,6.714858531951904,-0.008655266836285591,-0.1033305749297142,-0.06657897680997849
0.42293140292167664,6.904489517211914,6.772286415100098,-0.10772478580474854,0.041545283049345016,-0.14434322714805603
0.2027917206287384,6.909275531768799,6.958926677703857,0.08082687854766846,-0.9584709405899048,-0.01970737800002098
0.9014959335327148,6.793821811676025,6.365506649017334,0.028628960251808167,-0.8860330581665039,-0.038882121443748474
1.5242279767990112,7.019345283508301,5.101497650146484,-0.008655266836285591,-0.5719134211540222,-0.17630113661289215
0.7722834944725037,6.693323135375977,7.442874908447266,-0.1418132185935974,0.3302317261695862,-0.17630113661289215
0.6574280261993408,7.086344242095947,7.868797302246094,-0.06937529146671295,0.2822948694229126,-0.09108003973960876
0.6526423692703247,6.602396011352539,6.748358249664307,0.06591318547725677,0.2950780391693115,0.025033695623278618
0.494716078042984,6.420541286468506,4.42612361907959,0.13835111260414124,0.5016059875488281,0.12516847252845764
-0.11844471842050552,6.808178424835205,7.1270222663879395,-0.0011984215816482902,0.05752423778176308,0.14753901958465576
0.45643091201782227,6.415755748748779,6.867999076843262,-0.06085318699479103,0.038349490612745285,0.03568633273243904
-0.2476571500301361,6.846463680267334,7.624729156494141,-0.0033289489801973104,0.06498108059167862,-0.0655137151479721
-0.23330020904541016,7.129415035247803,7.533802032470703,0.17443692684173584,0.10759162902832031,-0.006924213841557503
-0.5826523303985596,6.937989234924316,7.237092018127441,0.02756369672715664,0.30360013246536255,-0.01225053146481514
-0.7310073375701904,7.043273448944092,6.8967132568359375,0.15100112557411194,0.4163849353790283,0.00798947736620903
-0.8458628058433533,7.134200572967529,6.939784049987793,0.12982900440692902,0.3483411967754364,0.01438105944544077
-0.7549355626106262,7.148557662963867,6.743572235107422,0.1117195263504982,0.30253487825393677,0.020772641524672508
-0.6687939167022705,7.143772125244141,6.734001159667969,0.0552605502307415,0.2812296152114868,0.01651158556342125
-0.5491527915000916,7.004988193511963,6.973283290863037,-0.0043942127376794815,0.24181485176086426,0.0037284228019416332
-0.5204389095306396,6.971488952636719,7.131807804107666,-0.018242640420794487,0.2119874656200409,-0.005858949851244688
-0.5300102233886719,6.981060028076172,7.265805721282959,-0.006524739786982536,0.13954953849315643,-0.022903168573975563
-0.5682953596115112,7.024130821228027,7.155735969543457,0.03821633383631706,0.12037479132413864,-0.038882121443748474
-0.9373882412910461,7.138986587524414,5.968297958374023,0.04993423447012901,0.11398320645093918,-0.04101264849305153
-1.057029366493225,7.2059855461120605,6.963712215423584,-0.05020054802298546,0.11930952966213226,0.029294749721884727
-0.8506484627723694,6.8997039794921875,7.371089935302734,-0.0715058222413063,-0.05219791829586029,0.07829687744379044
-0.7310073375701904,6.99541711807251,7.117451190948486,-0.01717737689614296,-0.029827382415533066,0.059122130274772644
-0.8315058946609497,6.990631580352783,6.719644069671631,0.005193160381168127,-0.06285055726766586,0.0005326318205334246
-0.9852447509765625,7.086344242095947,6.403791427612305,-0.03315633162856102,-0.03515370190143585,-0.03249054029583931
-0.7357929348945618,7.062416076660156,6.657430648803711,-0.10133320093154907,-0.06285055726766586,-0.04953476041555405
-0.8847461938858032,7.162914752960205,6.877570629119873,-0.1375521719455719,-0.10865689069032669,-0.05592634156346321
-1.1240284442901611,7.359126091003418,6.930212497711182,-0.1514005959033966,-0.122505322098732,0.01225053146481514
-0.41994038224220276,7.038487911224365,6.63350248336792,-0.21957746148109436,-0.15965639054775238,0.16231954097747803
-0.36729827523231506,6.76510763168335,6.719644069671631,-0.2739059031009674,-0.10439583659172058,0.1272990107536316
-0.5539384484291077,6.774679183959961,7.083951473236084,-0.31438592076301575,-0.09800425171852112,0.09108003973960876
-0.4821537733078003,6.75075101852417,7.366304397583008,-0.31971225142478943,-0.13528847694396973,0.0942758321762085
-0.4342973232269287,6.784250259399414,7.471588611602783,-0.28562381863594055,-0.11824426054954529,0.10279794037342072
-0.17108681797981262,6.549753665924072,7.107879638671875,-0.2174469381570816,-0.14580796658992767,0.09321057051420212
-0.09451649338006973,6.525825500488281,7.079165935516357,-0.20572903752326965,-0.11824426054954529,0.07616634666919708
-0.02273181453347206,6.540182590484619,7.179664134979248,-0.1897500902414322,-0.06285055726766586,0.033555805683135986
-0.2476571500301361,6.741179466247559,7.083951473236084,-0.17696692049503326,0.004261054564267397,0.005858949851244688
-0.5587241053581238,6.726822853088379,7.021738052368164,-0.19081534445285797,0.0798947736620903,0.046338967978954315
-0.4055834412574768,6.583253383636475,7.194021224975586,-0.246209055185318,0.08202529698610306,0.09534109383821487
-0.15672987699508667,6.401398658752441,7.734799385070801,-0.2834932804107666,-0.011717899702489376,0.0846884623169899
-0.14715859293937683,6.296114444732666,7.682157039642334,-0.23555642366409302,-0.046871598809957504,0.04740423336625099
-0.13280165195465088,6.391827583312988,7.744370460510254,-0.15246586501598358,0.034088436514139175,0.046338967978954315
-0.15672987699508667,6.430112838745117,7.548159122467041,-0.05339634045958519,0.06924213469028473,0.0655137151479721
-0.2189432680606842,6.171687602996826,7.409375190734863,0.009454214945435524,0.07776424288749695,0.08255793154239655
-0.12801600992679596,6.1812591552734375,7.428517818450928,0.04460791498422623,0.04900212585926056,0.03568633273243904
-0.4821537733078003,6.760322093963623,7.495516777038574,0.048868969082832336,0.05752423778176308,0.011185267940163612
-0.5539384484291077,6.760322093963623,7.485945701599121,0.03821633383631706,0.07563371956348419,0.04740423336625099
-0.381655216217041,6.454041004180908,7.4572319984436035,0.014780532568693161,-0.050067391246557236,0.061252661049366
-0.2667997181415558,6.473183631896973,7.33759069442749,0.01584579609334469,-0.04367581009864807,0.026098959147930145
-0.3194418251514435,6.434898376464844,7.447660446166992,0.03821633383631706,-0.021305272355675697,0.00798947736620903
-0.2907279431819916,6.425326824188232,7.46201753616333,0.06378266215324402,-0.02769685536623001,0.010120004415512085
-0.2955136001110077,6.449255466461182,7.418946743011475,0.06378266215324402,-0.03515370190143585,0.006924213841557503
-0.33379876613616943,6.477969169616699,7.347161769866943,0.04993423447012901,-0.06924213469028473,-0.004793686326593161
-0.2715853750705719,6.463612079620361,7.409375190734863,0.041412122547626495,-0.13209268450737,0.0015978955198079348
-0.15194423496723175,6.511468410491943,7.395018577575684,0.04673844203352928,-0.1681784987449646,0.0005326318205334246
-0.1663011759519577,6.583253383636475,7.41416072845459,0.05206476151943207,-0.1628521829843521,0.0005326318205334246
-0.18065811693668365,6.554539203643799,7.318448066711426,0.06804371625185013,-0.15006901323795319,0.011185267940163612
-0.23330020904541016,6.683752059936523,6.9206414222717285,0.09041424840688705,-0.23635536432266235,0.037816859781742096
-0.04187439754605293,6.6215386390686035,6.5521464347839355,0.08721846342086792,-0.308793306350708,0.08042740821838379
0.4468596279621124,6.70289421081543,7.433303356170654,-0.0022636852227151394,0.09054741263389587,0.08255793154239655
0.06340979784727097,6.817749977111816,7.7730841636657715,-0.047004759311676025,0.14807164669036865,-0.020772641524672508
-0.28115665912628174,6.348756790161133,7.418946743011475,-0.027830012142658234,0.03195790946483612,0.021837905049324036
-0.31465616822242737,6.655037879943848,7.146164894104004,0.10319741815328598,0.320644348859787,0.021837905049324036
-0.1902294009923935,6.482754707336426,5.891129493713379,0.048868969082832336,0.2812296152114868,-0.018642114475369453
-0.23330020904541016,6.3152570724487305,7.232306480407715,0.11704584211111069,0.4792354702949524,-0.01651158556342125
0.08733802288770676,6.535397052764893,7.53858757019043,-0.1002679392695427,-0.7582014203071594,0.005858949851244688
0.4325026869773865,6.860820770263672,7.777870178222656,0.11917637288570404,-0.4398207366466522,-0.033555805683135986
0.7004988193511963,6.7316083908081055,6.4325056076049805,0.26818013191223145,-0.26405221223831177,0.010120004415512085
0.5569294691085815,6.712465763092041,7.083951473236084,0.14261217415332794,0.2727074921131134,-0.03249054029583931
-0.04187439754605293,6.683752059936523,6.738786697387695,-0.08322372287511826,0.14913691580295563,-0.08681898564100266
-0.25244277715682983,6.616752624511719,6.901498794555664,-0.21425114572048187,0.18216007947921753,-0.03994738683104515
-0.1663011759519577,6.449255466461182,6.6382880210876465,-0.15779218077659607,0.13848426938056946,0.005858949851244688
-0.0323031060397625,6.272186279296875,5.862415313720703,-0.07576687633991241,0.41425439715385437,-0.015446322970092297
0.09690931439399719,6.650252342224121,7.27537727355957,0.04993423447012901,-0.066046342253685,-0.0516652874648571
0.11126625537872314,6.588038921356201,7.007380962371826,0.048868969082832336,-0.06072002649307251,-0.027164222672581673
0.06819544732570648,6.631109714508057,6.834499835968018,0.04993423447012901,0.03195790946483612,-0.030360013246536255
-0.17108681797981262,6.760322093963623,6.805785655975342,0.013715269044041634,0.13741901516914368,-0.004793686326593161
-0.23808585107326508,6.717251300811768,6.887141704559326,-0.020373167470097542,0.21837905049324036,0.03142527863383293
-0.07058826833963394,6.415755748748779,6.906284332275391,-0.06617950648069382,0.31318750977516174,0.02396843209862709
-0.7262216806411743,6.664609432220459,7.418946743011475,0.025433169677853584,0.49947547912597656,-0.01651158556342125
-0.7405785918235779,6.305685997009277,7.892725467681885,0.061652131378650665,0.3302317261695862,0.06444845348596573
-0.4007977843284607,6.468397617340088,7.787441253662109,-0.10559425503015518,-0.021305272355675697,0.015446322970092297
-0.7357929348945618,6.497111797332764,8.170890808105469,-0.2547311782836914,-0.37270912528038025,-0.050600022077560425
0.0011964113218709826,6.650252342224121,7.629515171051025,0.05632581561803818,-0.6230461001396179,0.06444845348596573
0.14476576447486877,6.650252342224121,7.519444942474365,0.14154690504074097,-0.5037365555763245,0.03994738683104515
0.24107688665390015,6.602396011352539,6.22193717956543,-0.06085318699479103,0.5612607598304749,-0.12942953407764435
-0.41515472531318665,6.76510763168335,7.0408806800842285,0.102132149040699,0.6390250325202942,-0.11984215676784515
-0.44386860728263855,6.2913289070129395,7.706085205078125,0.05419528856873512,0.21092219650745392,0.026098959147930145
-0.6161518096923828,6.430112838745117,7.768298625946045,-0.2930806577205658,-0.20865851640701294,-0.059122130274772644
-0.12801600992679596,6.530611038208008,8.13260555267334,-0.27710169553756714,-0.16604797542095184,-0.01225053146481514
0.09212367236614227,6.68853759765625,8.161319732666016,0.005193160381168127,-0.058589499443769455,0.00798947736620903
0.02512463741004467,6.722036838531494,7.5912299156188965,0.15632744133472443,-0.014913691207766533,0.03142527863383293
0.20757736265659332,6.68853759765625,6.671787738800049,0.07337003201246262,0.21411798894405365,0.0015978955198079348
-0.09451649338006973,6.640681266784668,6.762714862823486,0.07230477035045624,0.35153698921203613,-0.006924213841557503
-0.1136590763926506,6.420541286468506,7.055237770080566,0.074435293674469,0.4067975580692291,0.021837905049324036
-0.7597211599349976,6.789036273956299,7.280162811279297,0.10958899557590485,0.253532737493515,0.04314317926764488
-0.6544370055198669,6.693323135375977,7.050451755523682,0.05845634266734123,0.16618113219738007,0.05273054912686348
-0.47258245944976807,6.659823417663574,7.155735969543457,-0.027830012142658234,0.10439583659172058,0.03568633273243904
-0.4055834412574768,6.68853759765625,7.485945701599121,-0.04487423226237297,0.0074568456038832664,-0.03568633273243904
-0.2715853750705719,6.7076802253723145,7.323233604431152,0.028628960251808167,0.0564589723944664,-0.03142527863383293
-0.2763710021972656,6.698108673095703,7.107879638671875,0.07976161688566208,0.11611373722553253,-0.038882121443748474
-0.22372891008853912,6.592824459075928,7.026523590087891,0.08615319430828094,0.1406148076057434,-0.037816859781742096
-0.13280165195465088,6.511468410491943,7.160521984100342,0.07976161688566208,0.2066611498594284,-0.062317922711372375
-0.4055834412574768,6.631109714508057,7.466803073883057,0.09361004084348679,0.23755379021167755,-0.09214530140161514
-0.9278169870376587,6.8997039794921875,7.160521984100342,0.10106688737869263,0.07243792712688446,0.004793686326593161
-0.9756734371185303,6.990631580352783,6.973283290863037,0.074435293674469,0.012783164158463478,-0.004793686326593161
-0.8554341197013855,6.93320369720459,6.997211456298828,-0.005459476262331009,-0.04474107176065445,0.010120004415512085
-0.778863787651062,6.7794647216796875,7.060023307800293,-0.03848264738917351,-0.054328445345163345,0.009054740890860558
-0.6352944374084473,6.678966045379639,7.1748785972595215,-0.02996053919196129,-0.010652636177837849,-0.015446322970092297
-0.6735795736312866,6.736393928527832,7.079165935516357,0.005193160381168127,0.009587372653186321,-0.038882121443748474
-0.711864709854126,6.717251300811768,6.982854843139648,0.021172115579247475,0.0010652636410668492,-0.021837905049324036
-0.6113662123680115,6.736393928527832,6.939784049987793,0.009454214945435524,-0.0021305272821336985,-0.015446322970092297
-0.6400800347328186,6.793821811676025,7.0887370109558105,-0.012916321866214275,0.0010652636410668492,-0.027164222672581673
-0.6831508874893188,6.81296443939209,7.103094100952148,-0.018242640420794487,-0.006391582079231739,-0.017576850950717926
-0.6783652305603027,6.8512492179870605,7.074379920959473,-0.023568958044052124,0.0,-0.0015978955198079348
-0.6879364848136902,6.836892604827881,7.060023307800293,-0.02143843099474907,0.013848427683115005,0.0015978955198079348
-0.6687939167022705,6.81296443939209,7.261020183563232,-0.018242640420794487,0.02024000883102417,-0.004793686326593161
-0.6400800347328186,6.822535514831543,7.284948348999023,-0.009720530360937119,-0.02024000883102417,-0.01651158556342125
-0.6448656916618347,6.836892604827881,7.208378314971924,-0.00013315795513335615,-0.014913691207766533,-0.021837905049324036
-0.7405785918235779,6.836892604827881,7.179664134979248,0.017976323142647743,0.050067391246557236,-0.01970737800002098
-0.8027920126914978,6.846463680267334,7.136593341827393,0.017976323142647743,0.04900212585926056,-0.010120004415512085
-0.6735795736312866,6.793821811676025,7.165307521820068,0.005193160381168127,-0.014913691207766533,0.011185267940163612
-0.5491527915000916,6.774679183959961,7.079165935516357,-0.005459476262331009,-0.05113265663385391,-0.0015978955198079348
-0.6113662123680115,6.76510763168335,6.628716945648193,-0.00013315795513335615,-0.012783164158463478,-0.020772641524672508
-0.7214360237121582,6.856035232543945,6.202794551849365,-0.012916321866214275,0.09374319761991501,-0.018642114475369453
-0.8267202377319336,6.497111797332764,7.280162811279297,-0.0342215932905674,0.07350318878889084,-0.033555805683135986
-1.0235298871994019,6.726822853088379,7.643871784210205,-0.031025802716612816,-0.018109481781721115,-0.04527370631694794
-0.9373882412910461,6.76510763168335,7.371089935302734,-0.02889527566730976,-0.12783163785934448,-0.021837905049324036
