accX,accY,accZ,gyroX,gyroY,gyroZ
1.5081651210784912,5.820035934448242,7.12111234664917,-0.1437278687953949,-0.20228366553783417,-0.018099064007401466
1.4526482820510864,5.964330196380615,8.009897232055664,-0.26190412044525146,0.20228366553783417,-0.0841074138879776
1.2912791967391968,5.854397773742676,8.243485450744629,-0.19057250022888184,0.16395622491836548,-0.10327113419771194
1.404505729675293,5.7794976234436035,8.060491561889648,-0.14905111491680145,0.16927948594093323,-0.13201670348644257
1.213975191116333,5.730378150939941,7.670524597167969,-0.21505947411060333,0.27467992901802063,-0.1511804163455963
1.1242021322250366,5.640509128570557,7.876665115356445,-0.3364296555519104,0.328977108001709,-0.13733996450901031
0.9912665486335754,5.594358921051025,8.015490531921387,-0.34175291657447815,0.33536502718925476,-0.1682148277759552
0.8842840790748596,5.481323719024658,8.23959732055664,-0.3119426965713501,0.34494686126708984,-0.16608552634716034
0.9246790409088135,5.531209468841553,8.216507911682129,-0.3055547773838043,0.40882593393325806,-0.1650208830833435
0.9804639220237732,5.673989772796631,8.216153144836426,-0.32471850514411926,0.45354124903678894,-0.17247343063354492
1.0844680070877075,5.677312850952148,8.205695152282715,-0.32152456045150757,0.4450240433216095,-0.19376645982265472
0.9812108874320984,5.641342639923096,8.426048278808594,-0.2693566679954529,0.40776127576828003,-0.25125759840011597
0.9228785634040833,5.4631757736206055,8.721177101135254,-0.19163715839385986,0.3896622061729431,-0.2938436269760132
0.44329121708869934,5.197821140289307,8.762969970703125,-0.08091346174478531,0.47909286618232727,-0.28958502411842346
0.06742072105407715,5.271074295043945,8.240756034851074,-0.018099064007401466,0.44395941495895386,-0.23954643309116364
0.05279693752527237,5.3297038078308105,7.877871513366699,-0.02661627158522606,0.3758217394351959,-0.23315852880477905
0.41512584686279297,5.719125270843506,8.048224449157715,-0.07878416031599045,0.24486969411373138,-0.28958502411842346
0.15196476876735687,5.212972164154053,7.845617294311523,-0.15011577308177948,0.22996458411216736,-0.3992440700531006
-0.4411556124687195,4.982017517089844,8.007933616638184,-0.17460273206233978,0.10433578491210938,-0.36198127269744873
-0.4265318214893341,4.870476722717285,8.320961952209473,-0.13733996450901031,0.03406882658600807,-0.28852036595344543
-0.37977784872055054,4.910402297973633,8.416893005371094,-0.11391764134168625,0.006387905217707157,-0.26403340697288513
-0.6293015480041504,4.877228736877441,8.731260299682617,-0.038327429443597794,-0.04684463515877724,-0.2108008712530136
-0.672320544719696,4.741908073425293,8.793107986450195,0.040456730872392654,0.02768092229962349,-0.14479251205921173
-0.6922211647033691,4.758772850036621,8.621941566467285,0.041521381586790085,0.06813765317201614,-0.0947539210319519
-0.2944197654724121,4.979920387268066,8.707606315612793,0.021293016150593758,0.1852492392063141,-0.0596204474568367
-0.30103734135627747,5.23406982421875,8.614509582519531,-0.043650683015584946,0.32471850514411926,-0.09901253134012222
-0.38082170486450195,5.232996940612793,8.653401374816895,-0.08730136603116989,0.36623987555503845,-0.08197811245918274
-0.2890567481517792,5.126876354217529,8.631345748901367,-0.040456730872392654,0.35665804147720337,-0.09262461960315704
-0.3389231860637665,5.163440704345703,8.612911224365234,-0.0010646508308127522,0.3364296555519104,-0.11285299062728882
-0.5757384896278381,4.985973358154297,8.367132186889648,0.05536184459924698,0.3225892186164856,-0.10965903848409653
-0.6915987133979797,4.968820571899414,8.24450969696045,0.06281439960002899,0.24806363880634308,-0.05642649531364441
-0.6212091445922852,4.984508037567139,8.324562072753906,0.0734609067440033,0.23954643309116364,-0.03300417587161064
-0.4917498826980591,5.010077476501465,8.215693473815918,0.07984881103038788,0.25125759840011597,-0.02342231757938862
-0.531158447265625,5.084652423858643,8.087297439575195,0.038327429443597794,0.26083946228027344,-0.013840461149811745
-0.6501694321632385,4.958334445953369,7.907808780670166,-0.03406882658600807,0.3162012994289398,0.01171115878969431
-0.8508322834968567,4.914280891418457,7.931080341339111,0.02874557301402092,0.3960501253604889,0.03087487444281578
-1.1174983978271484,5.317282676696777,7.049602508544922,0.12456414848566055,0.05536184459924698,0.015969762578606606
0.043421242386102676,5.43336296081543,8.87215518951416,-0.010646508075296879,0.02768092229962349,-0.05855579674243927
-0.5478029251098633,5.536409854888916,8.61005687713623,-0.06920230388641357,0.3044901490211487,-0.15011577308177948
-1.3859267234802246,5.031434059143066,7.548803329467773,-0.0021293016616255045,-0.07559020817279816,-0.041521381586790085
-0.6369726061820984,5.083819389343262,8.232921600341797,0.017034413293004036,-0.23741713166236877,0.03087487444281578
-0.3629514276981354,5.124711990356445,8.579172134399414,0.02874557301402092,-0.16182692348957062,0.01171115878969431
-0.354284405708313,4.965602874755859,8.400602340698242,0.02661627158522606,0.09155996888875961,-0.0351334773004055
-0.8913325667381287,4.94394063949585,7.90583610534668,-0.02981022372841835,0.1575683206319809,0.008517206646502018
-0.7374237179756165,5.053345680236816,8.363263130187988,-0.05216789245605469,0.1788613349199295,0.05429719388484955
-0.9370235204696655,4.883932113647461,8.011611938476562,0.1575683206319809,0.22889992594718933,0.06387905031442642
0.15898457169532776,5.494089126586914,8.985936164855957,0.040456730872392654,-0.020228365436196327,0.010646508075296879
-0.6772526502609253,5.604098320007324,8.293313026428223,-0.13095206022262573,0.2938436269760132,-0.12349949777126312
-1.2192519903182983,5.2515950202941895,8.008556365966797,-0.13095206022262573,0.09049531817436218,-0.08943066745996475
-1.0004507303237915,5.1603474617004395,8.260733604431152,-0.02874557301402092,-0.17353808879852295,0.02768092229962349
-0.32122525572776794,5.148395538330078,8.752971649169922,0.05855579674243927,0.006387905217707157,-0.013840461149811745
-0.8268710970878601,4.984508037567139,8.376506805419922,0.043650683015584946,0.19483110308647156,-0.02555162087082863
-0.9224476218223572,4.920716762542725,8.167139053344727,0.009581857360899448,0.2725506126880646,0.009581857360899448
-1.0531518459320068,4.952693462371826,7.9568705558776855,-0.06387905031442642,0.31087803840637207,0.0734609067440033
-1.0478367805480957,4.780186653137207,7.811016082763672,-0.042586032301187515,0.20547761023044586,0.13946926593780518
-1.126835823059082,5.3788042068481445,7.378345012664795,0.09262461960315704,-0.2203827202320099,0.11178833991289139
-0.8222358822822571,5.286981582641602,7.8254289627075195,0.05216789245605469,-0.3055547773838043,0.11498229205608368
-0.2423027902841568,5.380345821380615,8.323336601257324,-0.03726277872920036,-0.13521066308021545,0.06387905031442642
-0.8535903692245483,5.510571479797363,7.831376552581787,-0.16927948594093323,-0.009581857360899448,-0.05003859102725983
-1.0713573694229126,5.312321662902832,7.716923713684082,-0.20228366553783417,-0.1054004356265068,-0.047909289598464966
-1.0863163471221924,5.170192241668701,8.278996467590332,-0.2001543641090393,-0.3534640669822693,0.043650683015584946
-0.9289311170578003,5.11199426651001,8.863621711730957,-0.12456414848566055,-0.34601151943206787,0.041521381586790085
-0.5473719239234924,4.996794700622559,8.339310646057129,-0.18844319880008698,-0.19589576125144958,0.08517206460237503
-0.052547939121723175,5.208077907562256,9.243841171264648,-0.1820552945137024,-0.0734609067440033,0.06494370102882385
-0.08540596067905426,4.710716247558594,9.147468566894531,0.03726277872920036,-0.05003859102725983,0.008517206646502018
-0.4123581647872925,5.224186420440674,9.024435997009277,0.2139948159456253,0.11711159348487854,-0.008517206646502018
-1.031814694404602,5.198242664337158,7.613187789916992,0.5685235261917114,0.039392080157995224,-0.0734609067440033
-1.2060073614120483,5.271179676055908,6.968113422393799,0.4982565939426422,-0.36623987555503845,-0.03087487444281578
-0.004003105219453573,5.499289512634277,8.240459442138672,0.25019294023513794,-0.30981338024139404,0.05110324174165726
0.27738264203071594,5.631315231323242,8.298830032348633,-0.03619812801480293,0.15330971777439117,-0.11391764134168625
-0.5867230892181396,5.37440824508667,7.800060272216797,-0.23209388554096222,0.26509806513786316,-0.11178833991289139
-0.9273988008499146,5.001075744628906,7.884786128997803,-0.2171887755393982,0.015969762578606606,0.047909289598464966
-0.7205110192298889,5.0742998123168945,8.183582305908203,-0.10114183276891708,-0.070266954600811,0.06920230388641357
-0.38402992486953735,5.288867950439453,9.062713623046875,0.09794788062572479,-0.22357667982578278,0.0351334773004055
0.03919786959886551,5.03399133682251,8.836893081665039,0.17779669165611267,0.15224507451057434,-0.038327429443597794
-0.7677247524261475,4.882687091827393,7.884709358215332,0.10752973705530167,0.33855897188186646,-0.02768092229962349
-1.1197010278701782,5.055309295654297,7.669978618621826,-0.020228365436196327,0.3119426965713501,0.07771950960159302
-0.7637407779693604,5.089316368103027,8.12606430053711,-0.06068509817123413,0.23315852880477905,0.140533909201622
-0.7747445106506348,5.199928283691406,8.288993835449219,-0.022357666864991188,0.21505947411060333,0.1511804163455963
-0.8334599137306213,5.315194606781006,8.30478572845459,-0.014905111864209175,0.2108008712530136,0.17353808879852295
-0.6752893924713135,5.259936332702637,8.476680755615234,0.04684463515877724,0.2661627233028412,0.13521066308021545
-0.6317532062530518,5.444337844848633,8.538154602050781,0.06707300245761871,0.2906496822834015,0.11072368919849396
-0.6052350401878357,5.386321544647217,8.470953941345215,0.06920230388641357,0.34601151943206787,0.08730136603116989
-0.7862749695777893,5.392881870269775,8.171792984008789,0.039392080157995224,0.377951055765152,0.06281439960002899
-0.9121812582015991,5.35729455947876,7.9278340339660645,0.03726277872920036,0.31087803840637207,0.05855579674243927
-0.9148340225219727,5.355867862701416,7.809512138366699,0.048973940312862396,0.2565808594226837,0.05323254317045212
-0.8653793931007385,5.347018718719482,7.724824905395508,0.03406882658600807,0.19483110308647156,0.06068509817123413
-0.8295047283172607,5.352525234222412,8.052016258239746,0.022357666864991188,0.1756673902273178,0.070266954600811
-0.8640673756599426,5.370596885681152,8.174110412597656,0.03193952515721321,0.18311993777751923,0.06281439960002899
-1.0337587594985962,5.223813056945801,8.288946151733398,0.05003859102725983,0.22570598125457764,0.0596204474568367
-1.1977903842926025,5.094631195068359,8.212342262268066,0.11498229205608368,0.2587101459503174,0.11072368919849396
-1.5064318180084229,5.288733959197998,6.35512113571167,0.11178833991289139,0.30981338024139404,0.16289158165454865
-0.7543076276779175,5.790396213531494,6.7858381271362305,-0.13733996450901031,-0.26509806513786316,0.1511804163455963
-0.18456421792507172,5.739121437072754,8.175490379333496,-0.17460273206233978,-0.30342549085617065,0.040456730872392654
-0.672761082649231,5.650784969329834,9.06495475769043,-0.10965903848409653,-0.04684463515877724,-0.13201670348644257
-1.0182061195373535,5.522494316101074,8.937151908874512,-0.07133160531520844,0.008517206646502018,-0.1330813616514206
-1.2230061292648315,5.482109069824219,8.174531936645508,-0.03087487444281578,0.05429719388484955,-0.09581857919692993
-1.2030000686645508,5.452602863311768,8.473090171813965,0.0010646508308127522,-0.070266954600811,-0.06387905031442642
-0.8582638502120972,5.32429313659668,7.935897350311279,0.01171115878969431,0.010646508075296879,-0.10220648348331451
-1.1347845792770386,5.160624980926514,7.70289421081543,-0.03619812801480293,-0.013840461149811745,-0.1054004356265068
-1.2418341636657715,5.054370403289795,7.811983585357666,-0.0596204474568367,-0.02342231757938862,-0.07133160531520844
-1.022180438041687,5.132833480834961,8.214812278747559,0.0021293016616255045,-0.08730136603116989,-0.02342231757938862
-1.220238447189331,5.193981170654297,7.932373523712158,-0.010646508075296879,-0.11711159348487854,-0.0074525559321045876
-1.0676319599151611,5.240390300750732,8.301310539245605,-0.022357666864991188,-0.11285299062728882,0.019163714721798897
-0.9994068145751953,5.3437910079956055,8.373404502868652,-0.013840461149811745,-0.047909289598464966,0.0010646508308127522
-1.0364594459533691,5.359669208526611,8.404192924499512,-0.021293016150593758,-0.02874557301402092,0.0021293016616255045
-0.8929031491279602,5.466489315032959,8.505976676940918,0.006387905217707157,-0.01171115878969431,-0.009581857360899448
-0.8768523931503296,5.448542594909668,8.24897289276123,-0.008517206646502018,0.03726277872920036,-0.05429719388484955
-0.946408748626709,5.312695503234863,8.08096694946289,-0.02342231757938862,-0.017034413293004036,-0.06281439960002899
-0.8518474102020264,5.29285192489624,7.849878787994385,-0.06600835174322128,-0.048973940312862396,-0.06281439960002899
-0.9110032916069031,5.27573823928833,8.077384948730469,-0.08730136603116989,-0.07771950960159302,-0.09368927031755447
-0.9042133688926697,5.185180187225342,8.254058837890625,-0.08197811245918274,-0.047909289598464966,-0.10114183276891708
-0.9559184908866882,5.2641215324401855,8.080497741699219,-0.08197811245918274,-0.05216789245605469,-0.0841074138879776
-1.257252812385559,4.988415241241455,7.887333393096924,-0.17779669165611267,-0.20973621308803558,-0.070266954600811
-1.1974360942840576,4.882936000823975,8.206643104553223,-0.2629687488079071,-0.12775810062885284,-0.05855579674243927
-1.2782642841339111,4.858639717102051,8.254345893859863,-0.330041766166687,-0.08943066745996475,-0.020228365436196327
-0.5234012603759766,5.277538776397705,8.24282455444336,-0.2981022298336029,-0.22677062451839447,-0.048973940312862396
-0.10975020378828049,5.466498851776123,8.777335166931152,-0.2310292273759842,-0.3332357108592987,-0.2139948159456253
-0.6682025194168091,5.153509616851807,9.089960098266602,-0.1895078420639038,-0.22570598125457764,-0.32791244983673096
-1.003639817237854,4.877391338348389,9.13483715057373,-0.1714087873697281,-0.1682148277759552,-0.3130073547363281
-1.194486379623413,4.66112756729126,9.00539779663086,-0.1575683206319809,-0.11072368919849396,-0.2629687488079071
-0.7807491421699524,4.813379764556885,8.861323356628418,-0.16076228022575378,0.0031939526088535786,-0.1437278687953949
-0.16377298533916473,5.221342086791992,8.64756965637207,-0.15330971777439117,0.02981022372841835,-0.19908970594406128
-0.5411565899848938,4.9440460205078125,8.535588264465332,-0.15224507451057434,0.03300417587161064,-0.30981338024139404
-1.0595874786376953,4.507381439208984,8.492932319641113,-0.17034412920475006,0.06281439960002899,-0.26190412044525146
-0.9962847828865051,4.435220241546631,8.627870559692383,-0.16182692348957062,0.05642649531364441,-0.2001543641090393
-0.8121898174285889,4.56341552734375,9.003079414367676,-0.05216789245605469,0.08197811245918274,-0.14159856736660004
-0.8443008661270142,4.59646463394165,8.924856185913086,0.0010646508308127522,0.126693457365036,-0.15330971777439117
-1.2845946550369263,4.400839805603027,8.278565406799316,-0.022357666864991188,0.1788613349199295,-0.11072368919849396
-1.152817726135254,4.468672275543213,8.394338607788086,-0.08836601674556732,0.19483110308647156,-0.024486970156431198
-1.0527304410934448,4.516029357910156,8.515122413635254,-0.16395622491836548,0.3257831633090973,0.021293016150593758
-0.9640780091285706,4.559660911560059,8.919177055358887,0.19057250022888184,0.03087487444281578,0.11498229205608368
-0.9680619239807129,4.7319865226745605,7.9024457931518555,0.10965903848409653,0.15011577308177948,0.03300417587161064
-1.3450433015823364,4.603762626647949,8.193360328674316,-0.14266321063041687,0.16608552634716034,-0.038327429443597794
-1.645467758178711,4.401883125305176,9.009199142456055,-0.07559020817279816,0.22996458411216736,0.05003859102725983
-1.366945505142212,4.495803356170654,8.156508445739746,0.044715333729982376,0.048973940312862396,0.08943066745996475
-0.7589236497879028,4.932994365692139,8.668264389038086,0.039392080157995224,0.040456730872392654,0.07452555745840073
-0.7572764158248901,4.955356121063232,9.012359619140625,0.03193952515721321,0.12030554562807083,0.02555162087082863
-1.3117352724075317,4.528670787811279,8.967597961425781,0.12882275879383087,0.2246413230895996,0.013840461149811745
-1.4486547708511353,4.639857292175293,8.33794116973877,0.19057250022888184,0.18099063634872437,0.10007718205451965
-0.9076131582260132,5.136826515197754,8.283794403076172,0.18311993777751923,0.17460273206233978,0.08943066745996475
-1.1596651077270508,5.0872955322265625,7.700212478637695,0.22677062451839447,-0.14266321063041687,-0.08091346174478531
-1.486847162246704,4.748295783996582,7.978198051452637,0.17992599308490753,-0.17673203349113464,-0.06920230388641357
-1.4661996364593506,4.751695156097412,8.306051254272461,0.07239625602960587,-0.05749114602804184,-0.044715333729982376
-1.5024956464767456,4.775302410125732,8.278210639953613,0.005323254037648439,0.005323254037648439,-0.0351334773004055
-1.2677106857299805,4.9052019119262695,8.337692260742188,-0.08623671531677246,0.08836601674556732,-0.06068509817123413
-1.691877007484436,4.699166297912598,8.051595687866211,-0.048973940312862396,-0.048973940312862396,-0.08623671531677246
-1.7708185911178589,4.556166172027588,8.180259704589844,-0.0021293016616255045,-0.25445154309272766,-0.012775810435414314
-1.277000069618225,4.657804489135742,8.701438903808594,-0.005323254037648439,-0.15224507451057434,0.020228365436196327
-1.2567931413650513,4.7151408195495605,8.644705772399902,-0.020228365436196327,0.019163714721798897,0.019163714721798897
-1.3639957904815674,4.753026962280273,8.393439292907715,-0.03406882658600807,0.039392080157995224,0.021293016150593758
-1.338358759880066,4.8033528327941895,8.13314151763916,-0.017034413293004036,-0.02555162087082863,-0.0031939526088535786
-1.507887363433838,4.788058757781982,8.363569259643555,0.06813765317201614,-0.15650367736816406,0.020228365436196327
-1.2679308652877808,4.915755748748779,8.444933891296387,0.05216789245605469,-0.1543743759393692,0.024486970156431198
-0.780998170375824,5.090800762176514,8.314641952514648,-0.045779984444379807,-0.02555162087082863,-0.038327429443597794
-0.9272838830947876,5.076416492462158,8.12606430053711,-0.1714087873697281,-0.06707300245761871,-0.11498229205608368
-1.3223367929458618,4.826624393463135,8.343888282775879,-0.11604694277048111,-0.12456414848566055,-0.1575683206319809
-1.1845264434814453,4.872554779052734,8.393343925476074,-0.11391764134168625,-0.27467992901802063,-0.15543901920318604
-1.3982808589935303,4.528297424316406,8.59835433959961,-0.06707300245761871,-0.15330971777439117,-0.19589576125144958
-1.4371147155761719,4.464831829071045,8.637465476989746,-0.13946926593780518,-0.05429719388484955,-0.1192408949136734
-1.2071470022201538,4.603772163391113,8.716100692749023,-0.10433578491210938,-0.06920230388641357,-0.07239625602960587
-1.2451764345169067,4.550275802612305,8.77364730834961,-0.09581857919692993,-0.042586032301187515,-0.070266954600811
-1.7654938697814941,4.02495002746582,8.693835258483887,-0.20760691165924072,0.17673203349113464,0.03300417587161064
-1.946485996246338,4.3380255699157715,8.471548080444336,0.044715333729982376,0.09901253134012222,0.08836601674556732
-1.649145245552063,4.376725196838379,8.32604694366455,0.07452555745840073,-0.11072368919849396,0.16182692348957062
-0.4496981203556061,4.883079528808594,8.629440307617188,0.06387905031442642,0.0351334773004055,0.07878416031599045
-0.64839768409729,4.950490951538086,7.83757209777832,-0.12775810062885284,0.1714087873697281,-0.06281439960002899
-1.4005504846572876,4.58366060256958,8.522428512573242,-0.24274039268493652,0.03087487444281578,-0.10007718205451965
-1.099637746810913,4.724698066711426,9.081360816955566,-0.13521066308021545,0.012775810435414314,-0.08091346174478531
-0.9156959652900696,4.628077983856201,9.10421085357666,-0.03406882658600807,0.021293016150593758,-0.07984881103038788
-1.1720287799835205,4.511585712432861,8.809579849243164,0.10007718205451965,0.024486970156431198,-0.11285299062728882
-1.3891541957855225,4.3361005783081055,8.510438919067383,0.11711159348487854,0.03726277872920036,-0.05749114602804184
-1.3643693923950195,4.355915069580078,8.024435043334961,0.06387905031442642,0.05642649531364441,-0.02342231757938862
-1.4715242385864258,4.308136463165283,8.07945442199707,-0.03193952515721321,0.05536184459924698,0.015969762578606606
-1.539778232574463,4.286750793457031,8.342145919799805,-0.05642649531364441,0.06707300245761871,0.042586032301187515
-1.4570441246032715,4.339433193206787,8.818227767944336,-0.020228365436196327,0.09155996888875961,0.09794788062572479
-1.095902681350708,4.593246936798096,9.085277557373047,0.09262461960315704,0.11072368919849396,0.09688322991132736
-1.1244033575057983,4.633220672607422,9.157295227050781,0.14266321063041687,0.1511804163455963,0.06920230388641357
-1.5523428916931152,4.729831695556641,8.580761909484863,0.2661627233028412,0.06174974888563156,0.012775810435414314
-1.3017657995224,4.811426162719727,8.30709457397461,0.22570598125457764,0.010646508075296879,0.01171115878969431
-0.9173910617828369,5.073361396789551,8.44430160522461,0.048973940312862396,0.1192408949136734,-0.08623671531677246
-1.7313812971115112,4.689226150512695,8.60134220123291,-0.015969762578606606,0.1788613349199295,-0.12456414848566055
-1.8436789512634277,4.5034260749816895,8.697837829589844,0.07239625602960587,-0.0031939526088535786,-0.047909289598464966
-1.6113743782043457,4.370203495025635,8.782841682434082,0.24274039268493652,0.0074525559321045876,0.009581857360899448
-1.6235944032669067,4.362187385559082,7.891786575317383,0.2352878302335739,0.03406882658600807,0.05003859102725983
-1.379347562789917,4.564353942871094,7.7492265701293945,0.10646508634090424,0.05003859102725983,0.06813765317201614
-1.3945075273513794,4.6265549659729,8.290372848510742,0.02874557301402092,0.0596204474568367,0.06068509817123413
-1.623623013496399,4.525002956390381,8.469316482543945,0.06920230388641357,0.0841074138879776,0.07984881103038788
-1.6928633451461792,4.653006553649902,8.242671966552734,0.09262461960315704,0.05003859102725983,0.1511804163455963
-1.1908376216888428,4.90549898147583,8.518455505371094,0.06813765317201614,0.041521381586790085,0.17034412920475006
-1.158123254776001,5.042016506195068,8.512727737426758,0.0734609067440033,0.09262461960315704,0.10965903848409653
-1.6217268705368042,4.802443027496338,8.56525707244873,0.08304276317358017,0.06174974888563156,0.11391764134168625
-1.6084916591644287,4.6465229988098145,8.9146089553833,0.1682148277759552,0.10220648348331451,0.18418459594249725
-1.4246745109558105,4.851313591003418,8.385758399963379,0.16076228022575378,0.26190412044525146,0.17673203349113464
-1.498444676399231,4.950787544250488,7.979922294616699,0.070266954600811,0.2672273516654968,0.19483110308647156
-1.4737077951431274,4.948451042175293,8.289856910705566,0.11498229205608368,0.10433578491210938,0.16076228022575378
-1.5161712169647217,4.861953258514404,8.348294258117676,0.18099063634872437,0.06813765317201614,0.14266321063041687
-1.6613940000534058,4.910277843475342,8.102725982666016,0.19483110308647156,0.06707300245761871,0.14905111491680145
-1.6331712007522583,4.962586402893066,7.9971795082092285,0.17460273206233978,0.05429719388484955,0.16395622491836548
-1.4705665111541748,5.018141746520996,8.100752830505371,0.13414600491523743,0.012775810435414314,0.19696040451526642
-1.2792794704437256,5.178524494171143,8.362678527832031,0.13733996450901031,0.022357666864991188,0.1788613349199295
-1.199035406112671,5.224349021911621,8.195219039916992,0.14266321063041687,0.09049531817436218,0.1330813616514206
-1.3638235330581665,5.278927326202393,7.820037364959717,0.09155996888875961,0.06707300245761871,0.09049531817436218
-1.2477238178253174,5.3081464767456055,8.00464916229248,0.042586032301187515,0.047909289598464966,0.06813765317201614
-1.243529200553894,5.356393814086914,8.10953426361084,0.03619812801480293,0.014905111864209175,0.03726277872920036
-1.292466640472412,5.33758544921875,8.234071731567383,0.06174974888563156,-0.005323254037648439,-0.0010646508308127522
-1.4803731441497803,5.174731731414795,8.064169883728027,0.06813765317201614,-0.01171115878969431,0.005323254037648439
-1.59382963180542,5.130592346191406,8.230920791625977,0.0841074138879776,-0.03300417587161064,0.03726277872920036
-1.5159032344818115,5.118870258331299,8.30696964263916,0.10327113419771194,-0.03726277872920036,0.05429719388484955
-1.331204891204834,5.218650817871094,8.186866760253906,0.140533909201622,-0.05003859102725983,0.06494370102882385
-1.2560077905654907,5.291032791137695,8.022261619567871,0.1469218134880066,-0.018099064007401466,0.038327429443597794
-1.3832836151123047,5.270882606506348,7.847359657287598,0.07559020817279816,-0.004258603323251009,0.02342231757938862
-1.3495252132415771,5.2844343185424805,7.978878498077393,0.05110324174165726,0.018099064007401466,0.019163714721798897
-1.4338970184326172,5.318594932556152,8.019522666931152,0.019163714721798897,0.03087487444281578,0.004258603323251009
-1.4622634649276733,5.27977991104126,8.004439353942871,-0.010646508075296879,0.048973940312862396,0.0021293016616255045
-1.408365249633789,5.253271102905273,8.169513702392578,-0.017034413293004036,0.03087487444281578,0.012775810435414314
-1.3639863729476929,5.268134117126465,8.53266716003418,0.04684463515877724,0.044715333729982376,0.019163714721798897
-1.553453803062439,5.264245986938477,8.079654693603516,0.12882275879383087,0.03726277872920036,0.022357666864991188
-1.5677615404129028,5.24398136138916,7.909398555755615,0.11072368919849396,0.02874557301402092,0.039392080157995224
-1.4340598583221436,5.31444787979126,7.8562188148498535,0.06281439960002899,0.012775810435414314,0.06387905031442642
-1.327776312828064,5.377760410308838,8.039939880371094,0.05536184459924698,0.01171115878969431,0.05110324174165726
-1.345895767211914,5.2841081619262695,7.897456169128418,0.05003859102725983,0.0947539210319519,0.019163714721798897
-1.608577847480774,5.310377597808838,7.6825337409973145,-0.005323254037648439,0.09368927031755447,0.03726277872920036
-1.53839910030365,5.345457553863525,7.906094551086426,-0.019163714721798897,0.018099064007401466,0.05855579674243927
-1.3366061449050903,5.4139509201049805,8.085314750671387,-0.0074525559321045876,0.008517206646502018,0.044715333729982376
-1.3785812854766846,5.363701343536377,8.210550308227539,0.0074525559321045876,0.05216789245605469,0.02555162087082863
-1.5708836317062378,5.329502582550049,8.006037712097168,0.004258603323251009,0.07771950960159302,0.03406882658600807
-1.5137195587158203,5.420549392700195,8.164170265197754,0.014905111864209175,0.06920230388641357,0.022357666864991188
-1.5090941190719604,5.357850074768066,8.063374519348145,0.03726277872920036,0.044715333729982376,0.040456730872392654
-1.383388876914978,5.4011945724487305,8.041864395141602,0.02768092229962349,0.08517206460237503,0.03406882658600807
-1.3363476991653442,5.37484884262085,8.012444496154785,0.013840461149811745,0.11178833991289139,0.02981022372841835
-1.3868365287780762,5.468213081359863,8.047342300415039,0.005323254037648439,0.12456414848566055,0.009581857360899448
-1.5313122272491455,5.434780120849609,8.02100658416748,0.02768092229962349,0.09581857919692993,-0.0010646508308127522
-1.6008973121643066,5.39421272277832,8.024176597595215,0.02768092229962349,0.08730136603116989,0.005323254037648439
-1.5451315641403198,5.396396636962891,8.300668716430664,0.019163714721798897,0.11391764134168625,0.022357666864991188
-1.4426692724227905,5.428679943084717,8.453829765319824,0.06600835174322128,0.20547761023044586,0.013840461149811745
-1.6239008903503418,5.222931861877441,8.009963989257812,0.126693457365036,0.24806363880634308,0.02661627158522606
-2.0241730213165283,5.534618854522705,6.67604923248291,0.10433578491210938,-0.10433578491210938,0.04684463515877724
-1.1589181423187256,5.462131977081299,7.767843723297119,0.0021293016616255045,-0.11072368919849396,-0.005323254037648439
-1.430449366569519,5.518855094909668,7.830341815948486,-0.07452555745840073,0.06068509817123413,-0.0734609067440033
-1.8545007705688477,5.3711042404174805,7.68125057220459,-0.1362753063440323,0.07559020817279816,-0.06494370102882385
-1.704805612564087,5.478431701660156,8.15739917755127,-0.043650683015584946,-0.06813765317201614,-0.017034413293004036
-1.6896839141845703,5.397411823272705,8.07286548614502,0.0351334773004055,-0.15650367736816406,-0.02981022372841835
