accX,accY,accZ,gyroX,gyroY,gyroZ
-1.5282763242721558,6.982267379760742,7.28745174407959,-0.3235491216182709,-0.013596114702522755,0.27056095004081726
-1.9481523036956787,6.955423831939697,6.767009735107422,-0.4823741018772125,-0.0783478319644928,0.3841818869113922
-1.6613843441009521,7.072347164154053,6.575243949890137,-0.5715429782867432,-0.1589994877576828,0.4452683925628662
-1.2424182891845703,6.466575622558594,6.9702677726745605,-0.6646737456321716,-0.36531487107276917,0.5123588442802429
0.05118802934885025,6.410188674926758,7.648353576660156,-0.661444902420044,-0.1221206858754158,0.5283809900283813
0.08595183491706848,6.154534816741943,7.791871547698975,-0.6194871664047241,0.023055799305438995,0.44923028349876404
-0.38156870007514954,5.577273368835449,7.810708999633789,-0.5130569934844971,0.15676547586917877,0.31122711300849915
-0.37625357508659363,5.596522808074951,7.717450141906738,-0.3046821355819702,-0.010890854522585869,0.30117401480674744
-0.28442156314849854,5.642223358154297,7.800557613372803,-0.25558602809906006,-0.003298672381788492,0.3128153681755066
0.13983094692230225,5.722936630249023,7.592999458312988,-0.27371999621391296,0.1345125287771225,0.2198067605495453
0.13941915333271027,5.569698333740234,7.501522064208984,-0.3044901490211487,0.05204571783542633,0.12346459180116653
-0.1740393042564392,5.50961446762085,7.788281440734863,-0.27897343039512634,-0.0895702987909317,0.10421361029148102
-0.43112868070602417,5.893815517425537,8.018516540527344,-0.19687314331531525,0.04647811874747276,0.18875735998153687
-0.5598026514053345,6.091825485229492,8.012578964233398,-0.17430603504180908,0.15072663128376007,0.2376614809036255
-0.6919817328453064,6.131042957305908,7.929538249969482,-0.19003145396709442,0.2915048897266388,0.3050137460231781
-0.6708840131759644,6.1735639572143555,8.05992603302002,-0.2617470324039459,0.3885626494884491,0.3768165707588196
-0.6611635684967041,6.215395450592041,8.33718490600586,-0.25270622968673706,0.42322489619255066,0.3968704044818878
-0.6214964389801025,6.1822404861450195,9.00510025024414,-0.1566781997680664,0.4887270927429199,0.4086339473724365
-0.3496204614639282,5.791966438293457,7.754427433013916,0.1414414793252945,0.4357912540435791,0.38041195273399353
-0.8787485957145691,5.628040313720703,7.201193332672119,0.30230847001075745,-0.04541346803307533,0.43912485241889954
-0.5434933304786682,6.658341884613037,7.648698329925537,0.18626153469085693,-0.010594148188829422,0.5194798111915588
-0.4814739525318146,6.630377292633057,7.797234535217285,0.022741639986634254,0.26567402482032776,0.531225860118866
-0.5065364241600037,6.263413429260254,8.978553771972656,-0.17470745742321014,0.7461457252502441,0.660013735294342
-0.31945353746414185,5.60383939743042,8.354413986206055,-0.007225662935525179,0.4392121136188507,0.7177143096923828
-0.5216199159622192,4.990100383758545,8.404682159423828,0.20959658920764923,0.18675023317337036,0.7314500212669373
-0.4741381108760834,5.730473518371582,8.183783531188965,0.41629594564437866,0.24270547926425934,0.7623772621154785
-0.1037934273481369,7.012319564819336,8.14087963104248,0.2535265386104584,0.5878094434738159,0.7255159020423889
-0.1554507166147232,6.669441223144531,8.113692283630371,0.22230258584022522,0.7150788307189941,0.717190682888031
-0.3164847195148468,6.0026750564575195,8.040112495422363,0.30609583854675293,0.9333671927452087,0.7730587124824524
-0.23562774062156677,6.164264678955078,7.867183685302734,0.36822956800460815,0.9715026021003723,0.7976852655410767
-0.48046836256980896,6.334301948547363,7.2502360343933105,0.33567917346954346,0.9836152195930481,0.7583630084991455
-0.5733442306518555,6.319619655609131,7.160204887390137,0.2914699912071228,0.9921324253082275,0.7418522238731384
-1.0866706371307373,6.475549221038818,7.245553016662598,0.021031217649579048,0.9609782695770264,0.7122339606285095
-1.2657760381698608,6.382951259613037,7.42805814743042,-0.03047344833612442,0.953839898109436,0.7334571480751038
-1.6707887649536133,6.43674373626709,6.238025188446045,0.0455007329583168,0.8229750990867615,0.784752368927002
-1.5172151327133179,5.975764274597168,6.351328372955322,-0.16180947422981262,0.5223944783210754,0.7394261956214905
-1.3510288000106812,5.815161228179932,6.937428951263428,-0.3151366412639618,0.32129767537117004,0.7073295712471008
-1.2942191362380981,6.135736465454102,8.29129409790039,-0.40194931626319885,0.20120155811309814,0.7215191125869751
-1.7010036706924438,5.684811592102051,8.605766296386719,-0.3108431398868561,0.3917565941810608,0.7054446339607239
-1.8439757823944092,5.612640857696533,8.666837692260742,-0.2857802212238312,0.7001039385795593,0.7354119420051575
-1.8818328380584717,5.585959434509277,8.626089096069336,-0.2782927453517914,0.8028339743614197,0.7564606070518494
-2.132103681564331,5.428516864776611,8.506119728088379,-0.17352063953876495,0.7331081032752991,0.7564955353736877
-2.186518907546997,5.405407905578613,8.40897274017334,-0.10407398641109467,0.6296798586845398,0.7664962410926819
-2.171339750289917,5.491206645965576,8.105435371398926,0.017086774110794067,0.5390100479125977,0.8038462996482849
-1.95927095413208,5.370089054107666,7.332127571105957,0.07997098565101624,0.6076712608337402,0.8391543030738831
-1.8252723217010498,5.715917110443115,7.524142265319824,-0.19917696714401245,0.7537727952003479,0.7924492955207825
-2.0077965259552,5.494893550872803,7.451732158660889,-0.20284216105937958,0.807494044303894,0.8034099340438843
-2.011359214782715,5.859109401702881,7.334177017211914,-0.24474751949310303,0.7507184743881226,0.8049632906913757
-2.0605742931365967,5.861206531524658,7.457756042480469,-0.26944392919540405,0.638266921043396,0.7963588237762451
-1.7735670804977417,5.625234127044678,7.820889472961426,-0.2502278685569763,0.5645442008972168,0.8088379502296448
-1.3765031099319458,5.71147346496582,7.433316230773926,-0.11302752047777176,0.4683765470981598,0.7711737155914307
-1.089093565940857,5.85472297668457,6.839285850524902,-0.176819309592247,0.448741614818573,0.6744824647903442
-0.9073449373245239,5.991413116455078,7.755336284637451,-0.40016910433769226,0.34688419103622437,0.5679999589920044
-0.9788166284561157,6.437788009643555,8.352105140686035,-0.4230503439903259,0.2777167856693268,0.5426054000854492
-1.6124851703643799,5.861781120300293,8.7441987991333,-0.24298474192619324,0.3185923993587494,0.5759586691856384
-1.480823278427124,5.524035930633545,8.570188522338867,-0.11939797550439835,0.42125266790390015,0.6189635396003723
-0.7829805612564087,5.952511787414551,7.953642845153809,-0.03223622962832451,0.550773561000824,0.6412688493728638
-1.5894625186920166,5.837379455566406,7.964004993438721,-0.11093312501907349,0.48380526900291443,0.6358059644699097
-1.269874930381775,6.0203537940979,7.735406875610352,0.026720991358160973,0.5409124493598938,0.791960597038269
-0.744960606098175,6.1723856925964355,7.114619255065918,0.025394540280103683,0.775973379611969,0.7819424271583557
-1.0043293237686157,5.942810535430908,5.835990905761719,0.01005309633910656,0.9057211875915527,0.7555704712867737
-0.8352603316307068,6.540795803070068,6.386264801025391,-0.40395644307136536,0.36676350235939026,0.5907590389251709
-1.020485281944275,6.18474006652832,8.281534194946289,-0.5581737756729126,-0.01705186627805233,0.5671272873878479
-0.7180880904197693,5.860507488250732,8.855395317077637,-0.2572091817855835,0.12747885286808014,0.5396034717559814
-0.26854321360588074,6.079835414886475,8.334474563598633,-0.1328020989894867,0.35985198616981506,0.4542742967605591
-0.42739370465278625,6.073840618133545,8.152352333068848,-0.2445729821920395,-0.1886700987815857,0.28269097208976746
-0.7571327090263367,5.967336654663086,8.73738956451416,-0.1615825742483139,-0.3240378201007843,0.2897246479988098
-0.4340687394142151,6.0772786140441895,8.817432403564453,-0.014817845076322556,-0.18552850186824799,0.3303035497665405
-0.32695215940475464,6.114656925201416,8.641047477722168,0.06400122493505478,-0.07878416031599045,0.32875022292137146
-0.3429454267024994,6.027336597442627,8.165281295776367,0.19662879407405853,0.0809483677148819,0.331891804933548
-0.3290111720561981,6.083072662353516,7.969655513763428,0.242548406124115,0.13098695874214172,0.33630749583244324
-0.29328012466430664,6.197754859924316,7.8598480224609375,0.2747671902179718,0.12034045159816742,0.33197906613349915
-0.38273707032203674,6.555802822113037,7.704971790313721,0.28850293159484863,0.019198622554540634,0.3168296217918396
-0.45640185475349426,6.6900410652160645,7.626173973083496,0.27984610199928284,-0.01473057921975851,0.30773645639419556
-0.6897886395454407,6.843624114990234,7.450525760650635,0.2522698938846588,-0.11421434581279755,0.2969852387905121
-0.6373172998428345,6.923983097076416,7.493324279785156,0.21389010548591614,-0.15547393262386322,0.2961125671863556
-0.23800279200077057,7.0368266105651855,7.6202168464660645,0.13486158847808838,-0.19137534499168396,0.26914721727371216
-0.13867215812206268,6.98703670501709,7.741459369659424,0.09430013597011566,-0.17612117528915405,0.23949408531188965
-0.24706244468688965,6.768810272216797,8.179953575134277,0.06527531147003174,-0.06668902933597565,0.2145533263683319
-0.45144107937812805,6.545229911804199,8.252670288085938,0.1402721107006073,0.030682887881994247,0.24733060598373413
-0.4590833783149719,6.514019012451172,8.209277153015137,0.18383553624153137,0.04447098821401596,0.26682594418525696
-0.3564774692058563,6.515206813812256,8.03197193145752,0.2376440316438675,0.09206611663103104,0.2781705856323242
-0.45829805731773376,6.504241466522217,7.777400970458984,0.2477145791053772,0.1368512660264969,0.27371999621391296
-0.531493604183197,6.4878363609313965,7.739984512329102,0.24949482083320618,0.1111774742603302,0.27199211716651917
-0.47548842430114746,6.460456371307373,7.690673351287842,0.23773129284381866,0.10848966240882874,0.2580294609069824
-0.3082486689090729,6.329177379608154,7.747645854949951,0.196471706032753,0.11402235925197601,0.2110975682735443
-0.2843737006187439,6.187833309173584,7.825323581695557,0.18961256742477417,0.11360348016023636,0.18483036756515503
-0.29632553458213806,5.924930572509766,7.779699325561523,0.189542755484581,0.13297663629055023,0.16207127273082733
-0.22914424538612366,5.859195709228516,7.639954566955566,0.1601688712835312,0.15201817452907562,0.15317009389400482
-0.19156485795974731,5.7626519203186035,7.574181079864502,0.14390239119529724,0.1675865203142166,0.14447835087776184
-0.2061694860458374,5.6608500480651855,7.747406482696533,0.1811302751302719,0.4803844094276428,0.13603095710277557
-0.20626525580883026,5.63510799407959,7.205885887145996,0.15563100576400757,0.28532642126083374,0.09978047013282776
-0.3440946638584137,5.666165351867676,7.578356742858887,0.07382743060588837,-0.02860594540834427,0.024993114173412323
-0.6847129464149475,5.8774871826171875,8.443909645080566,0.0725882425904274,-0.25684264302253723,0.054105207324028015
0.06981492042541504,5.7511115074157715,8.458646774291992,0.23176227509975433,0.17903587222099304,0.0783478319644928
0.302560031414032,5.776078224182129,8.010787963867188,0.2733883857727051,0.42701226472854614,0.05071926862001419
-0.25058671832084656,5.8491973876953125,7.157992362976074,0.22486822307109833,0.28187066316604614,0.00890117883682251
-0.5987036228179932,5.926759719848633,7.436485767364502,0.16139060258865356,-0.059864792972803116,0.09866346418857574
0.09705135971307755,5.9477715492248535,7.805643081665039,0.1803448647260666,0.18730872869491577,0.17317156493663788
-0.7594119906425476,5.827094078063965,8.153482437133789,-0.1976236253976822,0.34236377477645874,0.2833716571331024
-1.0770171880722046,5.837752819061279,8.57129955291748,-0.11716394871473312,0.05740387737751007,0.3680375814437866
-0.34796369075775146,6.013219356536865,8.360543251037598,0.058887407183647156,0.16076228022575378,0.4277802109718323
-0.12401006370782852,6.1038923263549805,7.65333366394043,0.17552776634693146,0.3764675259590149,0.41865211725234985
-0.27509376406669617,6.192353248596191,7.247621536254883,0.20053833723068237,0.4246385991573334,0.4009195864200592
-0.30391037464141846,6.274503231048584,7.060912132263184,0.14206980168819427,0.43387138843536377,0.4205545485019684
-0.08313625305891037,6.281398773193359,6.963803291320801,0.058625608682632446,0.48719120025634766,0.4266457259654999
-0.13024456799030304,6.24871301651001,6.9696455001831055,-0.030229102820158005,0.5209458470344543,0.41376519203186035
-0.5017767548561096,6.142353057861328,7.200580596923828,-0.1134987622499466,0.49846604466438293,0.4299967586994171
-0.49076345562934875,6.045703887939453,7.616750240325928,-0.11299261450767517,0.3744952976703644,0.49090877175331116
-0.31022149324417114,6.0018134117126465,7.82394552230835,-0.046216320246458054,0.2875255346298218,0.515483021736145
-0.11382991820573807,6.171734809875488,7.85292387008667,-0.003926991019397974,0.3032858669757843,0.5052030086517334
-0.02492842637002468,6.050846576690674,7.678932189941406,0.033335790038108826,0.4162784814834595,0.5359905958175659
-0.03291548416018486,6.172079563140869,7.397144317626953,0.05958554148674011,0.45181336998939514,0.5170537829399109
-0.6477464437484741,6.923849105834961,7.620580673217773,-0.055431656539440155,0.3677408695220947,0.44230133295059204
-0.326741486787796,6.10771369934082,8.348620414733887,-0.10307914763689041,0.03104940801858902,0.49410271644592285
-0.11023861914873123,6.238705158233643,8.177778244018555,-0.00617846567183733,0.14753268659114838,0.4775046408176422
0.017353173345327377,6.585615634918213,7.312676906585693,0.06689847260713577,0.27115434408187866,0.45581018924713135
-0.10600566864013672,6.671576976776123,6.928953647613525,-0.010489428415894508,0.11965977400541306,0.46478116512298584
-0.10429142415523529,6.637148380279541,7.0023884773254395,-0.06042329967021942,0.03799581900238991,0.47200682759284973
-0.14355632662773132,6.544339179992676,7.299307823181152,-0.09845402091741562,-0.01665044017136097,0.4898964762687683
0.07606857270002365,6.494597434997559,7.363874435424805,-0.08332201838493347,0.03296926990151405,0.5305801033973694
0.11115799099206924,6.450965404510498,7.3785176277160645,-0.058887407183647156,0.07740534842014313,0.5509480834007263
0.23860612511634827,6.514499187469482,7.497969150543213,-0.01762782596051693,0.13069024682044983,0.5694311261177063
0.456267774105072,6.522063732147217,8.054802894592285,0.02782054804265499,0.2859896421432495,0.5809153914451599
0.531282901763916,6.50126314163208,8.05295467376709,0.08618436008691788,0.42783254384994507,0.5798681974411011
0.31939607858657837,6.461385250091553,6.967662811279297,0.19228293001651764,0.5301437377929688,0.567965030670166
0.42066121101379395,6.625234603881836,6.822545528411865,0.07358308136463165,0.588193416595459,0.6192253828048706
0.4893556535243988,6.705421447753906,6.906409740447998,-0.026110125705599785,0.6765768527984619,0.6287723183631897
0.47265371680259705,6.686822891235352,7.6067328453063965,-0.12231267243623734,0.8033226728439331,0.6509031057357788
0.4815218150615692,6.954178810119629,7.529361724853516,-0.09566149860620499,0.7759384512901306,0.6626666188240051
0.14247414469718933,6.682312488555908,7.4671125411987305,0.003543018363416195,0.6205518245697021,0.6817604899406433
0.3089190423488617,7.170451641082764,8.076619148254395,0.05965535342693329,0.8279667496681213,0.6618462800979614
0.30518409609794617,7.42105770111084,8.055866241455078,0.045692719519138336,0.9889384508132935,0.6498384475708008
0.22866541147232056,7.285114765167236,7.825323581695557,0.051138147711753845,1.093361496925354,0.6064320802688599
0.035577837377786636,6.86160945892334,7.789716720581055,0.07319910824298859,1.0250493288040161,0.5850692987442017
-0.007230489049106836,6.789821624755859,7.882678985595703,0.10957176983356476,0.9682388305664062,0.5854358077049255
-0.23204602301120758,6.772487640380859,7.94804048538208,0.23565435409545898,0.8599411845207214,0.6316346526145935
0.11477802693843842,6.716731548309326,7.629143714904785,0.35297539830207825,0.9797754883766174,0.6961594820022583
0.033662475645542145,6.745461940765381,6.763523578643799,0.4502774775028229,1.0988417863845825,0.6965957880020142
0.01936430297791958,6.925295352935791,6.245887756347656,0.22513002157211304,0.8121191263198853,0.5842140316963196
-0.5695614218711853,6.677303791046143,7.388563632965088,-0.05291838198900223,0.4504345655441284,0.5116606950759888
-0.40507975220680237,6.449423789978027,8.449884414672852,0.18476055562496185,0.5939006209373474,0.5771105885505676
0.20818062126636505,6.719662189483643,7.626010894775391,0.32815679907798767,1.1131186485290527,0.5107356905937195
-0.26910826563835144,6.970861434936523,6.63530969619751,0.24651029706001282,1.0791195631027222,0.4623377025127411
-0.6630406379699707,6.98848295211792,6.685606956481934,0.10649999231100082,0.6532243490219116,0.40683624148368835
-0.6692367792129517,6.6837968826293945,7.8451666831970215,0.0033335788175463676,0.10840240120887756,0.5984559655189514
-0.38447046279907227,6.697989463806152,8.819568634033203,-0.025307273492217064,0.4887619912624359,0.6547079086303711
-0.5391646027565002,6.151948928833008,8.287088394165039,0.09395107626914978,0.6583207249641418,0.6834011077880859
-0.6588651537895203,6.959254741668701,7.477627754211426,0.4617443084716797,0.7048861384391785,0.8163602948188782
-0.3171072006225586,7.0424580574035645,6.9297194480896,0.23207643628120422,1.0057809352874756,0.6814114451408386
-0.7102159857749939,6.622859477996826,6.598476886749268,0.07419394701719284,0.9950820207595825,0.5687329769134521
-0.9749476313591003,6.687713623046875,6.799906253814697,-0.0016057029133662581,0.8309686779975891,0.5695881843566895
-1.1836166381835938,6.454738616943359,7.182968616485596,0.011309733614325523,0.7812792062759399,0.6096609830856323
-1.2733417749404907,6.247085094451904,7.2777228355407715,0.0907396674156189,0.914674699306488,0.6702238917350769
-1.3123384714126587,6.246098518371582,7.326936721801758,0.13638003170490265,0.9948551058769226,0.6877644658088684
-1.3312718868255615,6.616490840911865,7.014866828918457,0.16228070855140686,1.0742501020431519,0.7155151963233948
-1.4792814254760742,6.650728225708008,6.956266403198242,0.09927432984113693,1.1080397367477417,0.705758810043335
-1.7257883548736572,6.67891263961792,6.944841384887695,0.059376101940870285,1.1240618228912354,0.6908711194992065
-1.7152347564697266,6.761569976806641,6.862337112426758,-0.00938987173140049,1.1262434720993042,0.6722135543823242
-1.8490610122680664,6.835320949554443,6.637578964233398,-0.10164797306060791,1.0647904872894287,0.6581112742424011
-1.7266119718551636,6.698075771331787,6.779449939727783,-0.19891516864299774,0.8913047313690186,0.6324549317359924
-1.502907395362854,6.601876735687256,7.087374210357666,-0.2001543641090393,0.7901454567909241,0.5931501388549805
-1.0707156658172607,6.525904178619385,7.320357799530029,-0.1180715262889862,0.8887041807174683,0.5112767219543457
-0.9067511558532715,6.730818748474121,6.383305549621582,-0.12859585881233215,1.3371142148971558,0.4834038317203522
-2.370757579803467,6.880285263061523,5.987199306488037,-0.17062339186668396,1.295924425125122,0.5275781154632568
-2.164262533187866,7.059849262237549,6.334607124328613,-0.2869146764278412,0.6572211980819702,0.6184050440788269
-1.6760847568511963,7.19837760925293,6.7096266746521,-0.3614751398563385,0.5460960865020752,0.6122266054153442
-1.2422746419906616,6.980362892150879,7.075133800506592,-0.4455127418041229,0.8139691948890686,0.5478588342666626
-1.4416732788085938,6.887380599975586,7.1464152336120605,-0.38468801975250244,1.0740407705307007,0.5124635696411133
-1.7480640411376953,6.841967582702637,7.037899494171143,-0.3414038419723511,1.0854028463363647,0.5338089466094971
-1.9970992803573608,6.869472026824951,6.7874755859375,-0.2945766746997833,0.9139067530632019,0.5854358077049255
-1.9367846250534058,6.917126178741455,6.550229072570801,-0.31344369053840637,0.6469586491584778,0.6155776381492615
-1.845211148262024,6.972221374511719,6.526612758636475,-0.34088024497032166,0.565626323223114,0.6193475127220154
-1.6082522869110107,6.691544532775879,7.356423854827881,-0.4210432171821594,0.6524040699005127,0.5782450437545776
-1.6813902854919434,6.6783857345581055,7.440690040588379,-0.30976104736328125,0.7753101587295532,0.5821371078491211
-1.7404122352600098,6.653802394866943,7.245782852172852,-0.2634749114513397,0.8214566707611084,0.6011961102485657
-1.7150911092758179,6.6053242683410645,6.923821449279785,-0.25675538182258606,0.8221548199653625,0.6173578500747681
-1.5717742443084717,6.591917037963867,6.709232807159424,-0.3434109687805176,0.6411117911338806,0.5808455944061279
-1.4850178956985474,6.565896987915039,6.813821315765381,-0.3737797141075134,0.5213647484779358,0.5534613728523254
-1.2528090476989746,6.66879940032959,7.164973735809326,-0.35908403992652893,0.34632569551467896,0.5027769804000854
-1.1464011669158936,6.7343430519104,7.3178486824035645,-0.26804766058921814,0.27808329463005066,0.4645368456840515
-1.1577496528625488,6.713666915893555,7.396407127380371,-0.21697932481765747,0.2408030778169632,0.44828781485557556
-0.9018670320510864,6.774738311767578,7.447891712188721,-0.1644798219203949,0.13014920055866241,0.4086513817310333
-0.604133665561676,6.711129188537598,7.277214050292969,-0.17030923068523407,0.15079644322395325,0.35006070137023926
-0.5153279304504395,6.736919403076172,7.184213638305664,-0.18416714668273926,0.22509510815143585,0.29742154479026794
-0.7167569398880005,6.786316394805908,7.26022481918335,0.05935864895582199,0.43364450335502625,0.3559598922729492
-0.8692579865455627,6.659213066101074,6.451722145080566,0.05483824387192726,0.4449716806411743,0.30056315660476685
-1.0959888696670532,6.7510833740234375,6.210635662078857,0.016109388321638107,0.3569547235965729,0.2745228409767151
-1.247206687927246,7.019703388214111,6.373958587646484,-0.012095131911337376,0.15604989230632782,0.2606649100780487
-1.3685256242752075,7.130851745605469,6.828119277954102,-0.027454029768705368,-0.15776030719280243,0.2903006076812744
-0.9772077202796936,7.1296067237854,7.3851637840271,0.0037873645778745413,-0.1077042669057846,0.317388117313385
-0.7781059145927429,7.109380722045898,7.327320098876953,0.038728855550289154,0.09060004353523254,0.29222047328948975
-0.8507651686668396,7.316229820251465,7.103797435760498,0.02888519875705242,0.022689281031489372,0.220016211271286
-0.9894852042198181,7.525262832641602,7.175862789154053,-0.077178455889225,-0.18617427349090576,0.03787364438176155
-0.9859896898269653,7.496656894683838,7.290707588195801,-0.06934192776679993,-0.1952499896287918,0.02480112947523594
-0.9492817521095276,7.357381343841553,7.567678451538086,-0.016423547640442848,-0.20896826684474945,-0.008325220085680485
-0.9508427977561951,7.2123026847839355,7.68625020980835,0.0142593402415514,-0.18961256742477417,-0.029269171878695488
-1.1319880485534668,6.980763912200928,7.5422234535217285,0.03968878835439682,-0.14608405530452728,-0.049183379858732224
-1.2505489587783813,6.935398578643799,7.329838752746582,0.00125663704238832,-0.1547059863805771,-0.03459242731332779
-1.2256971597671509,6.908784866333008,7.310541152954102,-0.019233528524637222,-0.18563321232795715,-0.022113321349024773
-1.132074236869812,6.799465656280518,7.5293426513671875,-0.03481931984424591,-0.20744983851909637,0.01127482671290636
-0.9160789847373962,6.802616119384766,7.672515869140625,0.0027052604127675295,-0.18880972266197205,0.02028072625398636
-0.9079482555389404,6.780158519744873,7.658016681671143,0.034836772829294205,-0.18854792416095734,0.016423547640442848
-1.0746804475784302,6.740443706512451,7.495689868927002,0.09819222241640091,-0.1874832659959793,0.027785642072558403
-1.0818630456924438,6.835292339324951,7.266698837280273,0.10033898055553436,-0.15517722070217133,0.059201568365097046
-0.9689334034919739,6.892092227935791,7.098309516906738,0.07532840967178345,-0.14500194787979126,0.06325073540210724
-0.8185966610908508,6.8260698318481445,6.990101337432861,0.010908307507634163,-0.16428783535957336,0.029862582683563232
-0.7493946552276611,6.805987358093262,6.9664177894592285,-0.04194026067852974,-0.113481305539608,-0.02923426404595375
-0.8086367845535278,6.797320365905762,6.931893825531006,-0.0809309184551239,-0.05696754530072212,-0.05677555873990059
-0.6202897429466248,6.944113731384277,6.844227313995361,-0.1701870560646057,-0.011780972592532635,-0.11965977400541306
-1.4055687189102173,6.412868976593018,6.908018589019775,-0.2649758756160736,0.07428121566772461,-0.11355111747980118
-1.541674256324768,6.510437488555908,6.920037269592285,-0.31670743227005005,0.10906562209129333,-0.049986228346824646
-1.574149250984192,6.567199230194092,7.217656135559082,-0.3438822329044342,0.07377506792545319,0.05337216705083847
-1.5593243837356567,6.222740650177002,7.250418186187744,-0.2756398618221283,-0.027436574921011925,0.08592256158590317
-1.4872971773147583,6.1550612449646,7.313061237335205,-0.23811526596546173,-0.05297074094414711,0.09930923581123352
-1.0952801704406738,6.00662088394165,7.461242198944092,-0.13749703764915466,-0.1152266338467598,0.10932742059230804
-1.30937922000885,6.057550430297852,7.556042671203613,-0.02834414690732956,-0.15531684458255768,0.14039428532123566
-1.4875462055206299,6.271371841430664,7.370118618011475,-0.01719149388372898,0.0006806784076616168,0.2744704782962799
-1.2440654039382935,5.885502815246582,7.203261852264404,-0.006510077975690365,0.024504423141479492,0.422264963388443
-0.4098106920719147,5.72055196762085,7.290976047515869,-0.06120869517326355,-0.09883799403905869,0.45032984018325806
0.27646324038505554,5.461690902709961,7.3439836502075195,-0.16095426678657532,-0.23232077062129974,0.29942867159843445
-0.45321279764175415,5.908525466918945,7.696122646331787,-0.36564648151397705,-0.2540850341320038,-0.030054569244384766
-0.4731612801551819,5.601991176605225,8.513235092163086,-0.3407231867313385,-0.11370819807052612,0.022078415378928185
-0.20256860554218292,5.203270435333252,8.735330581665039,-0.007260569836944342,0.06440264731645584,0.0921882912516594
-0.3577607572078705,5.2470173835754395,8.749532699584961,0.26426029205322266,0.012007865123450756,0.21163862943649292
0.14523227512836456,6.418059825897217,8.08985424041748,0.19224801659584045,0.1952499896287918,0.2966885268688202
0.13141293823719025,6.430653095245361,7.941231727600098,0.03125884756445885,0.3023957312107086,0.22518238425254822
-0.24080879986286163,5.852463245391846,7.670389652252197,-0.2091078907251358,0.3011914789676666,0.2658660113811493
-0.2150663435459137,5.729352951049805,7.731690883636475,-0.16112878918647766,0.19034560024738312,0.33225831389427185
0.02123177982866764,5.932735919952393,7.824154853820801,-0.019949113950133324,0.05661848187446594,0.37404149770736694
0.04447468742728233,6.288734436035156,8.085793495178223,-0.0371580608189106,0.1788264364004135,0.3435855209827423
-0.4935024082660675,6.250638008117676,8.264400482177734,-0.22345450520515442,0.40481165051460266,0.33854150772094727
-0.5456480979919434,5.92861795425415,8.628731727600098,-0.1949707269668579,0.35590752959251404,0.36543703079223633
-0.6144670248031616,5.547575950622559,8.894813537597656,-0.09136798232793808,0.29162704944610596,0.4219333529472351
-0.3146459758281708,5.614459991455078,8.688989639282227,0.12976522743701935,0.20977112650871277,0.5148895978927612
0.13668975234031677,6.019473075866699,8.194127082824707,0.30634018778800964,0.7073295712471008,0.5483126640319824
0.10338162630796432,5.76704740524292,7.141836166381836,0.33634239435195923,0.9453401565551758,0.5814215540885925
0.3358681797981262,5.8844685554504395,6.739380836486816,0.03504621237516403,0.5122366547584534,0.3897494673728943
-0.4761683940887451,6.186147689819336,7.55924129486084,-0.22474604845046997,0.02085668407380581,0.31895890831947327
-0.5902090072631836,6.202447414398193,7.880648612976074,-0.2349911332130432,-0.026825711131095886,0.3545461893081665
-0.06879019737243652,5.774986743927002,8.429447174072266,-0.12032299488782883,0.3087836503982544,0.3441614806652069
0.519158661365509,5.689570903778076,7.730790615081787,-0.04021238535642624,0.6784269213676453,0.2045176774263382
0.1920820027589798,5.439884662628174,6.648985385894775,0.08452629297971725,0.3747570812702179,0.1705012172460556
-0.7204439640045166,5.522340774536133,7.612949371337891,0.010175269097089767,0.011082841083407402,0.31438615918159485
-0.25796085596084595,6.328698635101318,7.979701519012451,-0.31438615918159485,0.09613273292779922,0.29913198947906494
-0.2695104777812958,6.202380180358887,7.925382137298584,-0.423399418592453,0.11541862040758133,0.2869146764278412
-0.38404908776283264,5.367474555969238,8.120155334472656,-0.3314380347728729,-0.05204571783542633,0.3415434658527374
-0.39757153391838074,5.029547214508057,8.538029670715332,-0.1540951132774353,-0.030002210289239883,0.4063999056816101
0.05070919170975685,5.889132499694824,8.42945671081543,0.024155355989933014,0.3931703269481659,0.5046095848083496
0.03753150254487991,6.2426605224609375,7.92203950881958,0.08361872285604477,0.8318413496017456,0.4888667166233063
-0.3154408633708954,6.2566328048706055,7.25454568862915,-0.1687558889389038,0.4760909080505371,0.4380776286125183
-0.4143596887588501,6.039938449859619,8.079424858093262,-0.4061904847621918,-0.11890928447246552,0.3884928226470947
0.18941007554531097,5.865027904510498,9.159095764160156,-0.2742435932159424,-0.045779984444379807,0.42273619771003723
0.4557602107524872,5.9660162925720215,9.331860542297363,-0.1451590359210968,0.22364649176597595,0.43333035707473755
0.43875181674957275,6.107100486755371,8.574048042297363,-0.009354964829981327,0.6548126339912415,0.40919244289398193
0.12383768707513809,6.283409595489502,8.107542037963867,-0.0907222107052803,0.5801474452018738,0.3741811513900757
-0.4763695001602173,5.946076393127441,8.430980682373047,0.06436774134635925,0.41065850853919983,0.5309640765190125
-0.3973608613014221,6.163057804107666,6.9231977462768555,-0.27033403515815735,-0.025481807067990303,0.3140021860599518
-0.473429411649704,6.7425312995910645,8.654197692871094,-0.37976619601249695,-0.2387959510087967,0.40882593393325806
0.7201566696166992,5.612008571624756,8.573473930358887,-0.13290682435035706,0.43420299887657166,0.46411794424057007
0.7490499019622803,5.843346118927002,8.173785209655762,-0.00017453292093705386,0.5481380820274353,0.32676053047180176
-0.090644471347332,6.161985397338867,8.092325210571289,-0.04663519561290741,0.34177038073539734,0.2702293395996094
-0.33028489351272583,6.201479911804199,8.171342849731445,-0.039269909262657166,0.30695104598999023,0.2883109450340271
-0.32661697268486023,6.155425071716309,8.258070945739746,0.049096111208200455,0.37262779474258423,0.3336022198200226
-0.033643320202827454,6.223315238952637,8.601505279541016,0.25794219970703125,0.5430068373680115,0.4116359055042267
0.12964123487472534,6.069148063659668,6.741947174072266,0.508047878742218,0.7448541522026062,0.4220031499862671
0.1541195511817932,6.4412641525268555,6.244565963745117,0.29188886284828186,0.5718920230865479,0.32019808888435364
-0.4910890460014343,6.635290145874023,6.849628925323486,-0.20167279243469238,0.08887216448783875,0.3136880397796631
-0.17532259225845337,6.396224498748779,7.924098491668701,-0.37400659918785095,-0.09515535086393356,0.3110874891281128
0.027839776128530502,5.962452411651611,8.299501419067383,-0.2779611349105835,-0.02816961333155632,0.23396138846874237
-0.26187777519226074,5.556778907775879,7.265501499176025,0.028710665181279182,0.07792895287275314,0.33489376306533813
0.14902468025684357,6.457353115081787,7.507612705230713,-0.17004743218421936,0.11730358004570007,0.37887606024742126
0.25469517707824707,6.599444389343262,7.973457336425781,-0.37599629163742065,0.17734290659427643,0.2902657091617584
-0.7605612277984619,5.8100762367248535,9.274036407470703,-0.48141416907310486,0.15072663128376007,0.2848551869392395
-0.8363233208656311,5.588382720947266,9.387425422668457,-0.3376339375972748,0.07682939618825912,0.3370230793952942
-0.3965180814266205,5.644810199737549,9.5523099899292,0.03640756756067276,0.06677629798650742,0.3853512406349182
-0.007489062380045652,6.237919807434082,9.193313598632812,0.16739453375339508,0.36309829354286194,0.31958723068237305
-0.14722424745559692,6.196433067321777,8.627945899963379,0.18870499730110168,0.46249479055404663,0.27007225155830383
-0.608883798122406,5.803975582122803,7.640711307525635,0.23486895859241486,0.47284460067749023,0.3074222803115845
-0.006339845713227987,5.568634986877441,7.235353946685791,0.28961992263793945,0.5690646171569824,0.3194476068019867
-0.03619075194001198,5.806552886962891,6.887428283691406,0.25558602809906006,0.4732809364795685,0.284017413854599
-0.539825439453125,5.807193279266357,6.704291343688965,0.026773350313305855,0.11758282780647278,0.2569822669029236
-0.6179146766662598,5.592960357666016,7.813754558563232,-0.030490901321172714,-0.05567600205540657,0.34574973583221436
-0.37952885031700134,5.7080159187316895,8.233975410461426,0.029251718893647194,0.14467033743858337,0.37433820962905884
-0.052241478115320206,5.850643634796143,7.788414478302002,0.11527899652719498,0.5608964562416077,0.3575306832790375
-0.36006876826286316,5.852434158325195,7.270223140716553,0.12130038440227509,0.39531707763671875,0.3468492925167084
-0.40384435653686523,6.011351585388184,7.3445868492126465,0.1094495952129364,0.23970352113246918,0.3504795730113983
-0.28576233983039856,6.299441337585449,7.529333114624023,0.08735372871160507,0.09243264049291611,0.3499559760093689
-0.2778327167034149,6.321286201477051,7.675369739532471,0.08023278415203094,0.14611896872520447,0.3608468174934387
-0.11388738453388214,6.083465099334717,7.718628406524658,0.0774926170706749,0.3897320330142975,0.3956661522388458
-0.04631343483924866,5.947474479675293,7.716358661651611,0.09089674800634384,0.49158942699432373,0.3824540078639984
0.08623914420604706,5.818484306335449,7.667776584625244,0.09635962545871735,0.5831494331359863,0.2917667031288147
-0.006521805189549923,6.00270414352417,7.682035446166992,0.09306095540523529,0.6266255378723145,0.2526538670063019
-0.426388144493103,6.017452239990234,7.736996650695801,0.13381439447402954,0.6633821725845337,0.28382542729377747
-0.544278621673584,6.155396461486816,7.7462477684021,0.1900663524866104,0.6724055409431458,0.33824479579925537
-0.7231829762458801,6.3272905349731445,8.073575019836426,0.19711747765541077,0.7288320660591125,0.3266907334327698
-1.0181485414505005,6.173678874969482,8.252410888671875,0.29249972105026245,0.9214989542961121,0.3352428376674652
-1.063533067703247,6.305551528930664,7.779595375061035,0.3744778335094452,1.1017041206359863,0.38028979301452637
-1.070562481880188,6.395324230194092,7.099640846252441,0.31442105770111084,0.9343271255493164,0.36767107248306274
-1.0043293237686157,6.502172946929932,6.493879318237305,0.09470156580209732,0.6963165402412415,0.292691707611084
-1.2532017230987549,6.435508728027344,6.103557109832764,-0.11006046086549759,0.539114773273468,0.23626522719860077
-2.225630760192871,7.011505603790283,6.827458381652832,-0.3563613295555115,-0.025237461552023888,0.27785640954971313
-2.113467216491699,7.026512622833252,7.676183700561523,-0.43537238240242004,-0.17238616943359375,0.28646087646484375
