accX,accY,accZ,gyroX,gyroY,gyroZ
-2.7610182762145996,4.78175687789917,7.930412292480469,-0.027562905102968216,0.7443315982818604,0.2848166823387146
-3.5300116539001465,4.791328430175781,5.0943193435668945,-0.1894783228635788,0.7826799750328064,0.2762948274612427
-3.3670005798339844,5.016552448272705,7.372286796569824,-0.5090482234954834,-0.00226362026296556,0.3412740230560303
-3.6783666610717773,5.320740222930908,8.577371597290039,-0.24060951173305511,-0.22582940757274628,0.2933385372161865
-3.9131622314453125,4.96630334854126,7.418049335479736,-0.2640446424484253,-0.006524552125483751,0.19746756553649902
-4.318147659301758,4.333701133728027,6.845267295837402,-0.7326140403747559,0.06804175674915314,0.24753352999687195
-4.54337215423584,4.501497745513916,7.997710704803467,-1.252314567565918,-0.20772044360637665,0.389209508895874
-4.131208419799805,4.506283283233643,9.542576789855957,-1.444056510925293,-0.5475297570228577,0.5840139985084534
-3.28564453125,4.448855400085449,9.806086540222168,-1.3236851692199707,-0.8680317401885986,0.5243609547615051
-2.6748766899108887,4.2092742919921875,9.509077072143555,-1.169359564781189,-1.4037108421325684,0.23688119649887085
-1.2086745500564575,3.4139597415924072,9.090034484863281,-1.148054838180542,-1.636996865272522,-0.09653674066066742
-0.11874382197856903,2.0533409118652344,7.925626754760742,-1.7167562246322632,-0.8733579516410828,-0.4021254777908325
-0.6337988972663879,1.705783486366272,9.758230209350586,-1.9158215522766113,-0.8605751395225525,-0.5193011164665222
-3.628117322921753,1.856830358505249,12.134601593017578,-1.796648621559143,-0.7445979118347168,-0.6300853490829468
-4.552943229675293,1.8711873292922974,11.68175983428955,-1.1001193523406982,-0.7605763673782349,-0.10186290740966797
-2.367997169494629,1.7033905982971191,10.936994552612305,-0.2981320917606354,-0.7222279906272888,0.43927547335624695
-0.20488543808460236,0.37866419553756714,10.836196899414062,0.32276561856269836,-0.8243572115898132,0.578687846660614
0.5518447160720825,0.5751747488975525,10.211071968078613,0.5869433879852295,-0.872292697429657,0.6191666722297668
0.44416770339012146,1.0208379030227661,9.894919395446777,0.7892045378684998,0.010519175790250301,0.6340799331665039
-0.794417142868042,1.6818552017211914,9.312865257263184,0.8552489876747131,0.27043604850769043,0.27096864581108093
-1.7979071140289307,2.3336002826690674,8.924630165100098,0.6549851298332214,0.14793424308300018,0.13248835504055023
-1.374078392982483,2.153839588165283,8.646763801574707,0.31530898809432983,0.30026257038116455,0.3199693560600281
-0.9667003750801086,2.2184457778930664,8.723334312438965,0.0031956990715116262,0.7102441191673279,0.4041227698326111
-1.3764712810516357,2.6856443881988525,8.903095245361328,-0.09041165560483932,0.7571143507957458,0.33488261699676514
-1.6710875034332275,2.77657151222229,9.358329772949219,-0.06378082931041718,0.5440677404403687,0.26883819699287415
-1.7069798707962036,2.541775941848755,9.75105094909668,0.05539211630821228,0.5472634434700012,0.22409839928150177
-2.2770698070526123,2.386242389678955,8.658727645874023,0.22795987129211426,0.8796161413192749,0.17509767413139343
-2.624328136444092,2.601895570755005,9.27428150177002,-0.033954303711652756,-0.23861220479011536,0.1367492824792862
-2.20528507232666,2.556432008743286,10.838589668273926,0.13528458774089813,-0.5155727863311768,0.007856093347072601
-2.1598215103149414,1.8424733877182007,8.752346992492676,0.39839714765548706,0.08721595257520676,-0.06031882017850876
-3.503690481185913,1.5047863721847534,7.571189880371094,0.21091613173484802,0.400394469499588,0.015312724746763706
-4.085744857788086,2.448455810546875,8.761918067932129,-0.08082455396652222,0.06484606117010117,0.33488261699676514
-3.2401809692382812,3.0954151153564453,10.543972969055176,-0.14154283702373505,-0.051264338195323944,0.47855594754219055
-3.067598581314087,2.331207513809204,8.6874418258667,0.22156846523284912,1.0138355493545532,0.370035320520401
-3.9586260318756104,3.0906295776367188,8.65633487701416,0.28441721200942993,0.7091788649559021,0.49240395426750183
-4.033102512359619,3.7181472778320312,8.84805965423584,0.5038552284240723,-0.006524552125483751,0.5243609547615051
-3.19232439994812,3.4570305347442627,9.015856742858887,0.7231600880622864,-0.3611139953136444,0.5073172450065613
-2.1358933448791504,2.9874391555786133,8.658727645874023,0.8350095152854919,-0.09493889659643173,0.5211652517318726
-1.6040884256362915,3.4953157901763916,8.189136505126953,0.6475285291671753,0.5430025458335876,0.4625774323940277
-2.0374884605407715,3.9912281036376953,7.990531921386719,0.24926452338695526,1.2959891557693481,0.26031631231307983
-3.3693933486938477,4.218845367431641,7.731808185577393,0.0532616525888443,1.5250142812728882,0.013182258233428001
-3.726522207260132,3.75643253326416,8.373682975769043,0.07563154399394989,0.5387415885925293,0.2720338702201843
-3.0029923915863037,4.295415878295898,8.373682975769043,0.09374050796031952,0.39719876646995544,0.1900109350681305
-2.811267614364624,4.410271167755127,8.129315376281738,0.03941362351179123,0.39613354206085205,-0.06244928762316704
-3.503690481185913,4.192524433135986,8.297112464904785,-0.03288906812667847,0.34287187457084656,-0.2252967804670334
-4.265505313873291,3.6894333362579346,8.883952140808105,0.17789392173290253,-0.09706936031579971,-0.07310161739587784
-4.342075824737549,3.670290946960449,8.529515266418457,0.5475297570228577,-0.5507254600524902,0.23901166021823883
-3.9828531742095947,4.314558506011963,7.882555961608887,0.5816172361373901,-0.5656387209892273,0.39453569054603577
-3.3382866382598877,4.5924248695373535,8.06231689453125,0.2961347699165344,-0.19387240707874298,0.30292564630508423
-3.604189157485962,4.4584269523620605,8.45743179321289,0.15658925473690033,0.25658801198005676,0.18148908019065857
-3.692723512649536,5.030909538269043,6.608377933502197,0.28335198760032654,-0.20558997988700867,0.1356840580701828
-3.1728827953338623,4.637888431549072,7.540083408355713,0.19493764638900757,-0.9244890809059143,0.04300878196954727
-3.1202406883239746,4.887041091918945,8.843274116516113,0.13528458774089813,-0.7892045378684998,-0.11890663951635361
-3.690330743789673,4.546961307525635,8.97966480255127,0.14274121820926666,-0.26311254501342773,-0.2892107665538788
-4.183850288391113,4.664209365844727,8.519944190979004,0.21837277710437775,0.0030625448562204838,-0.28388461470603943
-4.411467552185059,4.381557464599609,7.497012615203857,0.37922295928001404,-0.6263570189476013,-0.19014409184455872
-4.116851329803467,4.5924248695373535,7.669295787811279,0.28441721200942993,-1.4175587892532349,-0.06884068250656128
-3.5682966709136963,4.690829753875732,9.32722282409668,0.02876129187643528,-1.4559072256088257,-0.02623136341571808
-3.1034910678863525,4.645066738128662,10.352546691894531,0.0063913981430232525,-1.0331429243087769,-0.015579032711684704
-2.763411045074463,4.139583110809326,10.168001174926758,0.1288931965827942,-0.5858781337738037,0.009986559860408306
-2.1670000553131104,4.12761926651001,8.496015548706055,0.06178351491689682,-0.5933347940444946,0.13994498550891876
-1.7931214570999146,3.9625144004821777,8.771489143371582,0.11824086308479309,-0.4165061116218567,0.27736005187034607
-1.4386845827102661,4.036691665649414,8.708976745605469,0.2236989289522171,-0.1608501821756363,0.3828181326389313
-1.3381860256195068,4.1853461265563965,8.565407752990723,0.2556559145450592,-0.03848154470324516,0.4041227698326111
-1.1392827033996582,4.484747886657715,8.24686336517334,0.23967742919921875,0.11810771375894547,0.3412740230560303
-0.9834501147270203,4.487140655517578,8.091031074523926,0.2130466103553772,0.16284750401973724,0.2762948274612427
-0.7992027401924133,4.484747886657715,7.949853897094727,0.1384802907705307,0.20865251123905182,0.11544463038444519
-0.8566305041313171,4.333701133728027,7.940282821655273,0.10013190656900406,0.1692388951778412,-0.02942706272006035
-1.2852448225021362,4.151846408843994,7.705487251281738,0.1693720519542694,0.016910573467612267,-0.13275466859340668
-1.776371717453003,4.0079779624938965,7.5448689460754395,0.19919857382774353,-0.0768299326300621,-0.14873315393924713
-1.2852448225021362,3.7516467571258545,7.010671138763428,-0.13302096724510193,0.043541401624679565,-0.12849372625350952
-0.19292132556438446,3.0424740314483643,7.973782539367676,-0.503722071647644,0.7379401922225952,0.014247491955757141
-0.41096729040145874,3.7205400466918945,7.925626754760742,-0.57296222448349,0.6921351552009583,-0.2860150635242462
-0.885344386100769,4.146761417388916,8.565407752990723,-0.7059831619262695,0.9232907295227051,-0.36484232544898987
-1.031306505203247,4.204488277435303,9.042177200317383,-0.7603100538253784,1.1639002561569214,-0.32329821586608887
-1.6447664499282837,4.012763500213623,9.566803932189941,-0.7347444891929626,1.6432551145553589,-0.11677616834640503
-2.3632113933563232,4.336093902587891,8.781061172485352,-0.6049191951751709,1.8902560472488403,0.11118369549512863
-3.644867181777954,4.800899505615234,7.8418779373168945,-0.574027419090271,1.5846673250198364,0.16231487691402435
-4.126422882080078,4.523033142089844,9.034998893737793,-0.5175700783729553,0.884942352771759,0.27842527627944946
-3.472583770751953,3.3418760299682617,10.879267692565918,-0.016910573467612267,0.13728190958499908,0.5957315564155579
-3.4893336296081543,4.889433860778809,7.489833831787109,-0.12023817747831345,1.4089038372039795,0.22835932672023773
-4.052245140075684,4.709972381591797,6.359225273132324,-0.09147688746452332,1.3620336055755615,0.2315550297498703
-3.7384862899780273,4.8176493644714355,7.430013179779053,-0.23847904801368713,0.30239301919937134,0.23475073277950287
-2.9312076568603516,5.356632709503174,8.66351318359375,0.0852186381816864,-0.20026381313800812,0.1367492824792862
-3.3119657039642334,5.198407173156738,6.332605361938477,0.20665520429611206,0.029693370684981346,-0.1402112990617752
-4.931308269500732,4.407878398895264,10.40758228302002,-0.6985265612602234,-0.23754696547985077,-0.14447222650051117
-4.492823600769043,4.132404804229736,10.398011207580566,-0.17456506192684174,-0.061916667968034744,0.1250317245721817
-4.109673023223877,4.029513359069824,9.03978443145752,0.03728315606713295,0.2960016131401062,0.3284912407398224
-4.100101470947266,4.59721040725708,8.172386169433594,-0.06804175674915314,0.3908073604106903,0.35192635655403137
-3.946661949157715,4.647459983825684,8.181958198547363,-0.14473854005336761,0.32476291060447693,0.33381739258766174
-3.752843141555786,4.429712772369385,8.37129020690918,-0.20226112008094788,0.12449911236763,0.2326202541589737
-3.8509490489959717,4.355236530303955,8.67069149017334,-0.19480448961257935,-0.0011983871227130294,0.15166255831718445
-4.016352653503418,4.166203498840332,8.905488014221191,-0.1468690037727356,0.17456506192684174,0.1580539494752884
-4.349254131317139,4.015156269073486,8.773882865905762,-0.06910699605941772,0.50252366065979,0.26883819699287415
-4.270291328430176,4.1036906242370605,8.131709098815918,0.04047885537147522,0.6537867784500122,0.3806876540184021
-4.212564468383789,4.151846408843994,7.348358154296875,0.05965305119752884,0.6111774444580078,0.3604482114315033
-4.514358997344971,3.8784663677215576,7.084848880767822,-0.06910699605941772,0.25871846079826355,0.2209026962518692
-4.615156650543213,3.684647798538208,7.441977500915527,-0.14047759771347046,0.1149120107293129,0.20811989903450012
-4.703691005706787,3.4642090797424316,8.220541954040527,-0.1138467788696289,-0.015046416781842709,0.24966399371623993
-4.600799560546875,3.531208038330078,7.930412292480469,0.009587096981704235,0.09893351793289185,0.3370130956172943
-4.545764923095703,3.6583266258239746,7.525726318359375,-0.0053261648863554,0.07017222791910172,0.37749195098876953
-3.2736804485321045,4.563711166381836,7.789236068725586,-0.23954427242279053,-1.264298439025879,0.03448691964149475
-2.4113669395446777,4.139583110809326,8.086244583129883,-0.3929378390312195,-1.286668300628662,-0.2764279842376709
-2.3201406002044678,3.5192439556121826,8.2157564163208,-0.447264701128006,-0.9511199593544006,-0.42236489057540894
-3.300001621246338,3.6894333362579346,8.397610664367676,-0.40785109996795654,-0.7710955739021301,-0.4159734845161438
-4.030709743499756,4.058227062225342,8.577371597290039,-0.3045234978199005,-0.9820116758346558,-0.37869033217430115
-3.8174493312835693,3.5192439556121826,8.718548774719238,-0.3173062801361084,-0.9958597421646118,-0.3967992961406708
-3.4654054641723633,2.8654050827026367,7.765307903289795,-0.4781564772129059,-0.8456618785858154,-0.32649391889572144
-3.4917263984680176,2.946761131286621,7.755736351013184,-0.7539186477661133,-0.9074453711509705,-0.10825430601835251
-3.791128396987915,3.6343984603881836,8.309076309204102,-0.9286168813705444,-0.8414009213447571,-0.07416684925556183
-4.047459602355957,3.8162529468536377,8.100602149963379,-1.0117050409317017,-0.7531197667121887,-0.1912093311548233
-1.7859430313110352,3.0305099487304688,9.370293617248535,-1.827540397644043,-0.8733579516410828,-0.8536511063575745
-2.157428741455078,0.6469594240188599,10.718948364257812,-2.024475336074829,-1.0171643495559692,-1.0635020732879639
-4.356432914733887,1.588535189628601,11.885449409484863,-1.8444509506225586,-2.5975706577301025,-0.44260433316230774
-2.763411045074463,2.300100803375244,11.440085411071777,-1.3119676113128662,-2.689180850982666,0.6063839197158813
-2.4233310222625732,2.3359930515289307,10.108180046081543,1.8733453750610352,0.7922670841217041,0.3721657991409302
-2.042274236679077,2.711965322494507,7.065706253051758,1.4324721097946167,0.08508548885583878,0.36257869005203247
-1.7261223793029785,3.3227334022521973,6.122036933898926,0.2854824364185333,-0.3515268862247467,0.07390054315328598
-1.4003994464874268,2.4747767448425293,7.731808185577393,-0.5324833393096924,-0.00226362026296556,-0.17842653393745422
-1.7691932916641235,2.1634106636047363,9.547661781311035,-0.7496577501296997,0.0030625448562204838,-0.19333979487419128
-1.6088740825653076,2.882154941558838,8.22293472290039,0.02876129187643528,-0.061916667968034744,-0.06564498692750931
-1.934597134590149,2.711965322494507,9.42772102355957,-0.1894783228635788,0.048867564648389816,-0.02516612969338894
-2.2292134761810303,2.882154941558838,9.961918830871582,-0.0106523297727108,0.17456506192684174,0.06857437640428543
-2.1933209896087646,3.1983065605163574,9.399007797241211,0.25991687178611755,0.15432563424110413,0.10798799991607666
-1.8771693706512451,3.155235767364502,8.536693572998047,0.31211328506469727,0.031823836266994476,0.03342168778181076
-2.116750717163086,3.210270643234253,8.26839828491211,0.24180789291858673,-0.28228676319122314,-0.04007939249277115
-2.617149829864502,3.0448668003082275,8.766703605651855,0.19919857382774353,-0.467637300491333,-0.05286218971014023
-2.353640079498291,3.2844481468200684,9.6433744430542,0.15339355170726776,-0.7945306897163391,-0.02942706272006035
-1.6016956567764282,2.915654420852661,10.929815292358398,0.02343512699007988,-0.5805519819259644,-0.11890663951635361
-1.9298114776611328,2.410170555114746,10.503294944763184,0.03728315606713295,-0.09067796170711517,-0.1912093311548233
-2.5022943019866943,2.4149563312530518,10.31635570526123,0.0159784946590662,0.024367205798625946,-0.09227581322193146
-2.0853450298309326,2.441277265548706,10.328319549560547,-0.01171756349503994,-0.12796111404895782,0.10905323177576065
-1.596909999847412,3.0137600898742676,11.11884880065918,0.07776200771331787,-0.20985090732574463,0.21238084137439728
-1.191924810409546,3.0113673210144043,10.680663108825684,0.2684387266635895,0.07869409024715424,0.21557652950286865
-1.0217353105545044,2.580360174179077,10.050453186035156,0.34726595878601074,0.4950670599937439,0.20279373228549957
-0.12831512093544006,2.7071797847747803,7.75334358215332,0.15552401542663574,1.0276836156845093,0.3476654291152954
-0.38225340843200684,2.884547710418701,7.422834873199463,-0.01384802907705307,1.1724220514297485,0.30079516768455505
-0.9332008361816406,2.946761131286621,8.512765884399414,-0.255522757768631,1.0532491207122803,0.24007689952850342
-1.5056836605072021,2.8175487518310547,9.633803367614746,-0.10532491654157639,0.4557865858078003,0.21664176881313324
-1.3214362859725952,2.8462624549865723,9.640981674194336,0.21091613173484802,0.06804175674915314,0.21664176881313324
-0.9954141974449158,2.3575284481048584,9.087641716003418,0.1501978635787964,0.12449911236763,0.2113156020641327
-1.3043874502182007,2.659323215484619,9.887741088867188,-0.2640446424484253,0.8593767285346985,0.3593829870223999
-1.5343974828720093,3.5048868656158447,10.20628547668457,-0.19800019264221191,1.1734873056411743,0.44034069776535034
-1.9154545068740845,3.9984066486358643,8.37129020690918,0.09800143539905548,1.0319445133209229,0.3913399875164032
-1.6998014450073242,4.0797624588012695,8.512765884399414,0.1384802907705307,0.14473854005336761,0.3593829870223999
-0.7175477147102356,3.85693097114563,9.367900848388672,0.13634982705116272,-0.5762910842895508,0.3487306535243988
-0.4372883439064026,4.206881523132324,9.609874725341797,0.32276561856269836,-0.3291569948196411,0.24007689952850342
-0.9332008361816406,4.2810587882995605,8.788239479064941,0.34726595878601074,-0.037416309118270874,0.02809552103281021
-1.2972090244293213,4.029513359069824,7.87059211730957,0.14700216054916382,-0.034220609813928604,-0.04860125854611397
-1.536790370941162,3.76361083984375,7.899305820465088,-0.16178226470947266,-0.10985215753316879,0.03661738336086273
-1.6686947345733643,3.849752426147461,8.970093727111816,-0.3087844252586365,-0.3334179222583771,0.10266183316707611
-1.5200406312942505,3.7109687328338623,8.831310272216797,-0.19160878658294678,-0.048068638890981674,0.2006632685661316
-1.374078392982483,3.835395574569702,8.711369514465332,-0.19480448961257935,-0.040612008422613144,0.27842527627944946
-1.184746265411377,4.027120590209961,8.692227363586426,-0.21397867798805237,-0.11517832428216934,0.3146432042121887
-1.184746265411377,4.0797624588012695,8.852845191955566,-0.21610915660858154,-0.1608501821756363,0.3189041316509247
-1.1321041584014893,4.070191383361816,9.298508644104004,-0.1351514458656311,-0.32383084297180176,0.3572525382041931
-1.0890333652496338,3.809074640274048,9.12592601776123,0.04900071769952774,-0.3856143653392792,0.4424711763858795
-0.8685946464538574,3.950550079345703,9.073284149169922,0.15232832729816437,-0.2961347699165344,0.47749069333076477
-0.9619147181510925,4.063013076782227,8.783453941345215,0.12250179797410965,-0.031024912372231483,0.4934692084789276
-0.8590233325958252,4.118047714233398,8.404789924621582,0.009587096981704235,0.1777607649564743,0.516904354095459
-0.6481558084487915,4.290630340576172,8.527122497558594,-0.15112993121147156,0.0712374597787857,0.5019910335540771
-0.8183453679084778,4.115654945373535,9.835099220275879,-0.255522757768631,0.1671084314584732,0.3913399875164032
-1.0890333652496338,3.866502285003662,9.993025779724121,-0.21397867798805237,0.4419385492801666,0.3402087986469269
-1.6328023672103882,3.2844481468200684,9.8207426071167,-0.13089050352573395,0.524893581867218,0.4201012849807739
-1.6088740825653076,3.124129056930542,9.60508918762207,-0.11278154700994492,0.40785109996795654,0.5722964406013489
-1.2326027154922485,3.3251261711120605,9.923633575439453,-0.16284750401973724,0.2960016131401062,0.6383408904075623
-1.1464611291885376,3.2365918159484863,10.194321632385254,-0.19480448961257935,0.2746969759464264,0.5616441369056702
-1.43389892578125,3.0233314037323,9.959526062011719,-0.14793424308300018,0.3886769115924835,0.5126433968544006
-1.695015788078308,3.3394830226898193,8.63479995727539,0.0532616525888443,0.255522757768631,0.6415365934371948
-1.6304094791412354,3.3227334022521973,9.214461326599121,0.0319569893181324,0.4121120274066925,0.5925358533859253
-1.4386845827102661,3.2557342052459717,9.219246864318848,0.007456631399691105,0.7411358952522278,0.5062519907951355
-1.4051851034164429,2.659323215484619,9.171390533447266,-0.06591129302978516,1.001052737236023,0.37749195098876953
-2.109572172164917,2.4915266036987305,9.506684303283691,-0.2001306563615799,0.9531172513961792,0.26670771837234497
-2.974278450012207,2.503490686416626,10.086645126342773,-0.21717438101768494,0.9637695550918579,0.2954690158367157
-3.0245277881622314,2.321636199951172,9.947562217712402,-0.035019535571336746,1.0042483806610107,0.4456668794155121
-2.54536509513855,2.239981174468994,9.11874771118164,0.191741943359375,1.336467981338501,0.5158390998840332
-2.8543384075164795,2.5612175464630127,8.294719696044922,0.29080861806869507,1.5867977142333984,0.5861444473266602
-3.2497522830963135,3.016152858734131,7.8658061027526855,0.2790910601615906,1.5271446704864502,0.6287537813186646
-3.8318064212799072,3.893122434616089,7.108777046203613,0.17363297939300537,1.1628350019454956,0.6500584483146667
-3.7480576038360596,4.132404804229736,6.996314525604248,0.07137060910463333,0.9413996934890747,0.6042534112930298
-3.5994033813476562,3.8210387229919434,7.41326379776001,-0.18308693170547485,0.4971975088119507,0.42968836426734924
-3.9900317192077637,3.5192439556121826,8.426324844360352,-0.29174068570137024,0.2874797582626343,0.3359478712081909
-4.124029636383057,3.466601848602295,8.632407188415527,-0.23954427242279053,0.255522757768631,0.3689700961112976
-4.133601188659668,3.6029927730560303,8.606085777282715,-0.06484606117010117,0.3684374690055847,0.4732297658920288
-3.7022948265075684,3.739682674407959,8.23968505859375,0.0053261648863554,0.35565468668937683,0.4955996572971344
-3.340679407119751,3.9744784832000732,8.218149185180664,-0.026497671380639076,0.3599156141281128,0.3583177626132965
-3.728914976119995,3.715754508972168,8.160422325134277,-0.048867564648389816,0.4227643609046936,0.15911918878555298
-4.349254131317139,3.6415770053863525,8.114958763122559,-0.025432437658309937,0.43767762184143066,0.10692276805639267
-4.6510491371154785,3.6487553119659424,8.002495765686035,0.02343512699007988,0.404655396938324,0.16124965250492096
-4.461717128753662,3.583850145339966,7.957032680511475,0.02450035884976387,0.4312862157821655,0.18361954391002655
-4.2607197761535645,3.7612180709838867,7.853842258453369,-0.20545682311058044,1.189465880393982,0.4328840672969818
-4.011567115783691,4.197309970855713,7.556832790374756,-0.06591129302978516,0.8987903594970703,0.3913399875164032
-4.569693088531494,4.300201416015625,5.923133373260498,0.06497921794652939,0.09893351793289185,0.2741643488407135
-4.596014022827148,3.5910286903381348,6.651448726654053,-0.1255643367767334,-0.659379243850708,0.33168694376945496
-3.8916268348693848,4.024727821350098,8.47178840637207,-0.30984964966773987,-0.551790714263916,0.4636426866054535
-3.153740167617798,4.736293315887451,8.553443908691406,-0.2736317217350006,0.007323476951569319,0.24007689952850342
-3.3454651832580566,4.240380764007568,7.288537979125977,-0.34287187457084656,0.09147688746452332,-0.1603175699710846
-4.413860321044922,4.266701698303223,7.108777046203613,-0.4153077304363251,-0.7977263927459717,-0.353124737739563
-5.0341997146606445,4.633102893829346,8.625227928161621,-0.38441595435142517,-1.973610520362854,-0.35738566517829895
-3.036491870880127,3.162414312362671,9.446864128112793,-0.06271559745073318,-1.6380621194839478,-0.1720351278781891
-2.5501506328582764,3.1528429985046387,8.500801086425781,-0.09573781490325928,-0.6817491054534912,-0.06138405203819275
-3.31675124168396,4.159024715423584,8.522336959838867,-0.3279586136341095,-0.34726595878601074,0.0014646954368799925
-3.395714521408081,4.338486671447754,9.16421127319336,-0.2949363887310028,-0.5528559684753418,0.03661738336086273
-2.7610182762145996,3.988835334777832,9.674481391906738,0.0159784946590662,-0.8584446907043457,0.05153064802289009
-2.257927179336548,3.9625144004821777,9.854242324829102,0.31317850947380066,-0.8445966243743896,0.08135717362165451
-2.4807589054107666,4.06540584564209,9.562018394470215,0.48468104004859924,-0.61250901222229,0.02170412242412567
-2.9718856811523438,4.091726779937744,9.159425735473633,0.46124589443206787,-0.5347470045089722,-0.07310161739587784
-2.749054193496704,3.629612922668457,9.092427253723145,0.252460241317749,-0.51344233751297,-0.08908011019229889
-2.116750717163086,3.61017107963562,8.409575462341309,0.24926452338695526,-0.1693720519542694,0.02703028731048107
-1.9369899034500122,3.576671600341797,8.292326927185059,0.2013290375471115,-0.35791829228401184,-0.03794892504811287
-2.23639178276062,3.3948171138763428,8.682656288146973,0.11078423261642456,-0.3291569948196411,-0.08588441461324692
-2.694019079208374,3.3996028900146484,8.828917503356934,0.1597849577665329,-0.23009033501148224,-0.02836182899773121
-2.6988048553466797,3.4713873863220215,8.773882865905762,0.2663082480430603,-0.21837277710437775,0.09946613013744354
-2.5764718055725098,2.8558337688446045,8.440681457519531,0.28335198760032654,-0.34620073437690735,0.18575000762939453
-2.0159530639648438,3.298804998397827,8.754739761352539,0.04580501839518547,0.12130340933799744,0.22409839928150177
-1.551147222518921,3.4546377658843994,9.252745628356934,-0.14793424308300018,0.5824161767959595,0.23688119649887085
-1.3453645706176758,3.691826343536377,9.070891380310059,-0.13834713399410248,0.6612433791160583,0.2656424939632416
-1.8146568536758423,3.9840497970581055,8.423932075500488,-0.11278154700994492,-0.07150376588106155,0.3796224296092987
-1.4865410327911377,3.988835334777832,8.723334312438965,-0.16604319214820862,-0.3930709958076477,0.46683835983276367
-0.8087740540504456,4.376771926879883,9.61944580078125,-0.21610915660858154,-0.551790714263916,0.5744268894195557
-0.25304099917411804,4.340879440307617,9.777372360229492,-0.09147688746452332,-0.27056917548179626,0.6159709692001343
-0.15702898800373077,4.345664978027344,9.087641716003418,0.05539211630821228,0.004127778112888336,0.6149057745933533
-0.37507495284080505,4.570889472961426,8.373682975769043,0.07882724702358246,0.05632419511675835,0.6053186655044556
-0.4372883439064026,4.724328994750977,8.19392204284668,-0.0021304660476744175,-0.066177599132061,0.5872097015380859
-0.37507495284080505,4.7386860847473145,8.270791053771973,-0.044606633484363556,-0.09706936031579971,0.563774585723877
-0.3966103494167328,4.657031059265137,8.287541389465332,-0.10532491654157639,-0.019307348877191544,0.47855594754219055
-0.8063812255859375,4.374378681182861,8.287541389465332,-0.16178226470947266,0.07869409024715424,0.3604482114315033
-0.8327022790908813,4.46560525894165,8.002495765686035,-0.19054356217384338,0.22356578707695007,0.33381739258766174
-1.7380865812301636,4.4751763343811035,8.131709098815918,-0.22782671451568604,0.1138467788696289,0.3157084286212921
-1.683051586151123,4.340879440307617,8.064709663391113,-0.22356578707695007,0.12236864119768143,0.3679048418998718
-1.5248262882232666,4.340879440307617,8.08385181427002,-0.2938711643218994,0.23528334498405457,0.4657731354236603
-1.2780663967132568,4.4054856300354,7.887341499328613,-0.3620460629463196,0.31304535269737244,0.5147738456726074
-1.5343974828720093,4.441677093505859,8.23250675201416,-0.42915576696395874,0.06271559745073318,0.49986058473587036
-1.5128620862960815,4.309772491455078,9.130712509155273,-0.42915576696395874,-0.32383084297180176,0.5573831796646118
-0.9810572862625122,3.964907169342041,9.878170013427734,-0.3055887222290039,-0.2748301327228546,0.6308842301368713
-0.7848458290100098,3.7444684505462646,10.03848934173584,-0.20332635939121246,0.25658801198005676,0.6500584483146667
-1.227817177772522,3.864109516143799,9.43489933013916,-0.10639014840126038,0.6623086333274841,0.6692326664924622
-1.5801602602005005,3.9074792861938477,9.15703296661377,-0.1149120107293129,0.670830488204956,0.6798849701881409
-1.7380865812301636,4.192524433135986,9.161818504333496,-0.19586972892284393,0.8146369457244873,0.7406032681465149
-1.812264084815979,3.9912281036376953,9.875777244567871,-0.297066867351532,0.8071803450584412,0.7629731297492981
-1.6663018465042114,3.6272199153900146,10.36929702758789,-0.25658801198005676,0.7049179673194885,0.755516529083252
-2.171785593032837,3.5168511867523193,8.764310836791992,0.13634982705116272,0.6399387121200562,1.1548457145690918
-1.9250258207321167,3.3996028900146484,9.489934921264648,-0.044606633484363556,0.335415244102478,1.0058462619781494
-1.7907286882400513,2.9276185035705566,10.175179481506348,-0.14899946749210358,0.2736317217350006,0.8790835738182068
-1.7787644863128662,2.5827529430389404,10.117751121520996,-0.14260807633399963,0.38548120856285095,0.8769530653953552
-1.831406593322754,2.4508485794067383,9.650552749633789,-0.07762885838747025,0.6388735175132751,0.9877372980117798
-1.7045869827270508,3.0185458660125732,9.293723106384277,-0.050998032093048096,0.6133078932762146,1.054847002029419
-1.7644076347351074,3.227020502090454,8.74756145477295,-0.020106272771954536,0.5387415885925293,1.00052011013031
-1.8843477964401245,3.1025936603546143,7.9713897705078125,0.03621792420744896,0.38761165738105774,0.9110405445098877
-2.186142683029175,2.994617462158203,7.3292155265808105,-0.028628136962652206,0.3695026934146881,0.8929315805435181
-2.586043119430542,3.195913791656494,7.7222371101379395,-0.2757622003555298,0.39932921528816223,0.878018319606781
-3.050848960876465,2.8677978515625,8.426324844360352,-0.35352420806884766,0.525958776473999,0.9451280236244202
-3.0939197540283203,2.7574288845062256,8.543871879577637,-0.19693495333194733,0.5632419586181641,1.0845403671264648
-3.005385160446167,3.1456644535064697,8.304290771484375,-0.12130340933799744,0.6655043363571167,1.1505848169326782
-3.0340991020202637,3.3179476261138916,8.613264083862305,-0.25871846079826355,0.7006570100784302,1.083475112915039
-3.9900317192077637,2.7550361156463623,9.058927536010742,-0.31091487407684326,0.6687000393867493,1.1260844469070435
-3.4411780834198,2.4125633239746094,9.332008361816406,-0.3290238380432129,0.4142425060272217,1.2581733465194702
-2.694019079208374,3.0376882553100586,9.075676918029785,-0.40572062134742737,0.34180665016174316,1.2070422172546387
-3.077169895172119,2.6138596534729004,8.915059089660645,-0.400394469499588,0.4609795808792114,0.6841459274291992
-2.835195779800415,2.6306095123291016,8.177172660827637,-0.4983958899974823,0.23847904801368713,0.8812140226364136
-2.1068804264068604,3.492922782897949,8.606085777282715,-0.7038527131080627,0.20439158380031586,1.0143681764602661
-1.721336841583252,3.4953157901763916,9.152247428894043,-0.8199630975723267,0.3567199110984802,0.9227581024169922
-1.7859430313110352,3.390031576156616,9.844670295715332,-0.7262226343154907,0.28002312779426575,0.7896040081977844
-1.80508553981781,3.1217362880706787,9.509077072143555,-0.4110468029975891,0.3790898025035858,0.7661688327789307
-1.80508553981781,3.162414312362671,8.893523216247559,-0.3066539466381073,0.3258281648159027,0.7544512748718262
-1.5873386859893799,3.2222347259521484,9.209674835205078,-0.41956865787506104,-0.011850717477500439,0.7427337169647217
-1.3286148309707642,3.3107693195343018,9.504291534423828,-0.297066867351532,-0.13861344754695892,0.6734935641288757
-1.3549357652664185,3.3251261711120605,9.34875774383545,-0.1585865616798401,-0.12689588963985443,0.531817615032196
-1.500898003578186,3.272484064102173,9.430113792419434,-0.14154283702373505,-0.09706936031579971,0.4647079110145569
-1.8218353986740112,3.2078778743743896,9.650552749633789,-0.12449911236763,-0.08215609937906265,0.430753618478775
-1.6064813137054443,3.0978081226348877,9.53061294555664,-0.016910573467612267,0.052063263952732086,0.5147738456726074
-1.4506487846374512,3.3083763122558594,9.085248947143555,0.0106523297727108,0.15965180099010468,0.5446003675460815
-1.5104693174362183,3.583850145339966,8.883952140808105,-0.06271559745073318,0.16604319214820862,0.45725128054618835
-1.7404793500900269,3.643969774246216,8.948558807373047,-0.13408620655536652,0.1585865616798401,0.3679048418998718
-2.0446670055389404,3.468994617462158,9.432506561279297,-0.12876003980636597,0.1575213372707367,0.2933385372161865
-2.4233310222625732,3.148057222366333,9.003593444824219,-0.0053261648863554,0.22782671451568604,0.2432725876569748
-2.7753751277923584,3.349353551864624,9.281759262084961,0.2343512624502182,-0.043807707726955414,0.24753352999687195
-2.1382861137390137,3.6798620223999023,9.061320304870605,0.2790910601615906,-0.63700932264328,0.37642672657966614
-1.2613166570663452,3.8473596572875977,9.880562782287598,0.16617634892463684,-0.8935973644256592,0.27096864581108093
-2.212463617324829,2.7813572883605957,10.433902740478516,-0.14793424308300018,0.09680305421352386,-0.03794892504811287
-2.7275187969207764,2.5540390014648438,10.04566764831543,-0.04993279650807381,-0.14607007801532745,0.22942456603050232
-2.397010087966919,3.296412229537964,10.53918743133545,0.0,-0.5464645624160767,0.38494858145713806
-0.6768696904182434,3.337090253829956,10.797911643981934,0.21730753779411316,-0.644465982913971,0.4955996572971344
-0.243469700217247,3.1456644535064697,10.3621187210083,0.3099828064441681,-0.3717663288116455,0.454188734292984
-0.516550600528717,3.212663412094116,9.430113792419434,0.35578784346580505,0.057389430701732635,0.3039908707141876
-1.1009975671768188,3.2318060398101807,8.84088134765625,0.35791829228401184,0.1894783228635788,0.23475073277950287
-1.5343974828720093,2.8103702068328857,8.567800521850586,0.3920057415962219,0.2203700840473175,0.31251272559165955
-1.6974085569381714,2.8414769172668457,8.757132530212402,0.467637300491333,0.11278154700994492,0.4615122079849243
-1.5801602602005005,2.89172625541687,8.776275634765625,0.5741605758666992,0.06271559745073318,0.6553846001625061
-1.1440683603286743,2.8462624549865723,8.874381065368652,0.6635070443153381,0.11278154700994492,0.8236914277076721
-0.6936194896697998,2.9276185035705566,9.001200675964355,0.7284862399101257,0.4035901725292206,0.9419323205947876
-0.4899304509162903,3.809074640274048,9.195318222045898,0.6709636449813843,0.7698971629142761,0.9568455815315247
-0.6649056077003479,4.276273250579834,9.75344467163086,0.5720301270484924,1.030879259109497,0.9035838842391968
-1.0483554601669312,3.9314076900482178,9.648159980773926,0.5720301270484924,1.2033138275146484,0.854583203792572
-1.5200406312942505,3.7181472778320312,9.25992488861084,0.6485937833786011,1.1223561763763428,0.915301501750946
-1.3214362859725952,3.7181472778320312,8.718548774719238,0.6975944638252258,1.0575101375579834,1.1431281566619873
-0.8327022790908813,4.594817638397217,7.80837869644165,0.5027899742126465,1.406773328781128,1.3540443181991577
-0.7295117974281311,5.107480049133301,7.082456111907959,0.2588516175746918,1.5878629684448242,1.2911956310272217
-1.1871391534805298,5.2752766609191895,7.29810905456543,-0.01171756349503994,1.481339693069458,1.1697590351104736
-1.3142578601837158,4.77457857131958,8.421539306640625,-0.11065108329057693,1.2544450759887695,1.1718894243240356
-1.3214362859725952,4.525425910949707,8.96530818939209,0.04154408723115921,1.2810758352279663,1.273086667060852
-0.7510471940040588,4.808077812194824,9.43489933013916,0.21730753779411316,1.55803644657135,1.382805585861206
-0.6337988972663879,5.3231329917907715,6.248856544494629,0.26098209619522095,1.9467133283615112,1.3306092023849487
-0.2961117923259735,5.4403815269470215,6.876673221588135,0.07563154399394989,1.681470274925232,1.228346824645996
-0.9068797826766968,5.2680983543396,6.483652114868164,-0.20652204751968384,1.0234225988388062,0.8098434209823608
-2.250748872756958,4.506283283233643,8.713762283325195,-0.16604319214820862,0.4525908827781677,0.7693645358085632
-2.104487419128418,4.659423828125,9.200103759765625,-0.01384802907705307,0.5355458855628967,0.831148087978363
-1.5777673721313477,4.784149646759033,7.283751964569092,0.11078423261642456,1.0447273254394531,0.8194305300712585
-1.6471593379974365,4.5828537940979,5.585446357727051,-0.28002312779426575,1.0585752725601196,0.7161028981208801
-2.1020946502685547,5.0811591148376465,6.083751678466797,-0.7496577501296997,0.5728290677070618,0.6905373334884644
-2.178964138031006,4.939683437347412,7.556832790374756,-0.9168993234634399,0.4131772518157959,0.724624752998352
-2.0135602951049805,4.7004008293151855,9.109176635742188,-0.7741581201553345,0.5280892848968506,0.8077129125595093
-1.7979071140289307,4.6402812004089355,8.596514701843262,-0.3886769115924835,0.8519201278686523,0.8876054286956787
-1.8508483171463013,4.930111885070801,7.583154201507568,-0.2821536064147949,0.870029091835022,0.878018319606781
-1.8170497417449951,5.1218366622924805,8.244470596313477,-0.3567199110984802,0.8423330187797546,0.7661688327789307
-1.800299882888794,4.990231513977051,8.266005516052246,-0.34500235319137573,0.9009208083152771,0.7714950442314148
-1.7907286882400513,5.026124000549316,8.25404167175293,-0.3375457227230072,0.9818785190582275,0.7810820937156677
-1.7380865812301636,5.272883892059326,8.330612182617188,-0.335415244102478,0.9009208083152771,0.74699467420578
-1.7404793500900269,5.258526802062988,8.459824562072754,-0.3077192008495331,0.8284850120544434,0.6543194055557251
-1.9800606966018677,5.186442852020264,8.304290771484375,-0.26830556988716125,0.8252893090248108,0.5850792527198792
-2.2698912620544434,5.1218366622924805,8.407182693481445,-0.24060951173305511,0.8540505766868591,0.5797531008720398
-2.3321046829223633,5.050052165985107,8.64915657043457,-0.15326039493083954,0.9009208083152771,0.6223623752593994
-2.1933209896087646,5.3303117752075195,8.438288688659668,-0.09147688746452332,1.215031385421753,0.6415365934371948
-2.1430718898773193,5.742176055908203,8.174779891967773,-0.13408620655536652,1.4163604974746704,0.5712311863899231
-2.593221426010132,5.672784328460693,7.437191963195801,-0.15432563424110413,1.3567074537277222,0.4009270668029785
-3.558725595474243,5.514857769012451,7.396214962005615,-0.4153077304363251,0.8668333888053894,0.3039908707141876
-3.3909287452697754,5.2680983543396,8.793025016784668,-0.4898740351200104,0.32156720757484436,0.3604482114315033
-3.189931631088257,5.584249973297119,9.882955551147461,-0.4131772518157959,0.3513937294483185,0.4105141758918762
-2.4735803604125977,6.281159400939941,9.585947036743164,-0.1138467788696289,0.5675029158592224,0.3178389072418213
