accX,accY,accZ,gyroX,gyroY,gyroZ
0.545877993106842,0.7469909191131592,9.672574996948242,-0.03825761750340462,-0.030770154669880867,-0.0047996556386351585
0.5650315880775452,0.7374141216278076,9.682151794433594,-0.03825761750340462,-0.030770154669880867,-0.0047996556386351585
0.5650315880775452,0.7374141216278076,9.682151794433594,-0.03825761750340462,-0.030770154669880867,-0.0047996556386351585
0.545877993106842,0.7374141216278076,9.682151794433594,-0.03825761750340462,-0.030770154669880867,-0.0047996556386351585
0.545877993106842,0.7374141216278076,9.682151794433594,-0.03825761750340462,-0.030770154669880867,-0.0047996556386351585
0.545877993106842,0.727837324142456,9.66299819946289,-0.008918632753193378,0.004642575979232788,0.0012915435945615172
0.5554547905921936,0.727837324142456,9.66299819946289,-0.002809980185702443,0.002199114765971899,0.0012915435945615172
0.5554547905921936,0.727837324142456,9.672574996948242,-0.0027925267349928617,0.0021816615480929613,6.981316983001307e-05
0.5554547905921936,0.7469909191131592,9.672574996948242,-0.0052534411661326885,0.0034208453726023436,0.0012915435945615172
0.545877993106842,0.7469909191131592,9.672574996948242,0.0008203047327697277,-0.0026703537441790104,6.981316983001307e-05
0.5554547905921936,0.7374141216278076,9.66299819946289,-0.00038397242315113544,-0.0038920841179788113,-0.0011344640515744686
0.14365209639072418,0.6129156351089478,9.21288776397705,0.04602433368563652,-0.10040879249572754,-0.006021386012434959
0.4692635238170624,0.7374141216278076,9.404424667358398,-0.11763519048690796,0.3528357744216919,0.0012915435945615172
0.6512228846549988,0.7469909191131592,9.605537414550781,0.002024581888690591,-0.06009168550372124,-0.0011344640515744686
0.5937620401382446,0.7374141216278076,9.59596061706543,0.006911503616720438,-0.014887658879160881,-0.0023561944253742695
0.6033388376235962,0.7469909191131592,9.66299819946289,0.003263765713199973,-0.0014486232539638877,-0.0011344640515744686
0.5937620401382446,0.7565677165985107,9.672574996948242,0.006928957067430019,-0.0038920841179788113,-0.0011344640515744686
0.5841852426528931,0.7661445140838623,9.672574996948242,0.0020420351065695286,-0.0026703537441790104,-0.0011344640515744686
0.5841852426528931,0.7565677165985107,9.66299819946289,-0.0015707963611930609,-0.00024434609804302454,-0.0011344640515744686
0.6033388376235962,0.727837324142456,9.653421401977539,0.0008028514566831291,-0.00022689280740451068,-0.0011344640515744686
0.5937620401382446,0.7565677165985107,9.653421401977539,0.0008028514566831291,-0.00022689280740451068,6.981316983001307e-05
0.5937620401382446,0.7565677165985107,9.653421401977539,0.002024581888690591,-0.0026703537441790104,6.981316983001307e-05
1.3982137441635132,0.7757213711738586,10.72602367401123,-0.021153390407562256,-0.09918706119060516,0.00617846567183733
0.31603461503982544,0.7182605266571045,8.983044624328613,0.01302015595138073,-0.07597418129444122,-0.0011344640515744686
0.5841852426528931,0.7374141216278076,9.864110946655273,-0.012601276859641075,-0.0038920841179788113,6.981316983001307e-05
0.6033388376235962,0.7469909191131592,9.567230224609375,-0.0016406094655394554,0.008325220085680485,-0.001117010717280209
0.6033388376235962,0.7469909191131592,9.624691009521484,0.0020420351065695286,-0.007557275705039501,-0.0011344640515744686
0.6033388376235962,0.7469909191131592,9.672574996948242,-0.0016057029133662581,0.002199114765971899,6.981316983001307e-05
0.5937620401382446,0.7374141216278076,9.634267807006836,-0.002809980185702443,0.002199114765971899,6.981316983001307e-05
0.6033388376235962,0.7661445140838623,9.66299819946289,-0.00038397242315113544,-0.0014486232539638877,-0.0011344640515744686
0.6033388376235962,0.7374141216278076,9.653421401977539,-0.0016231562476605177,-0.0014486232539638877,-0.0011344640515744686
0.6033388376235962,0.727837324142456,9.643844604492188,-0.00038397242315113544,-0.00022689280740451068,-0.0011344640515744686
0.6033388376235962,0.7469909191131592,9.653421401977539,-0.00040142572834156454,0.0009773843921720982,6.981316983001307e-05
0.5937620401382446,0.7469909191131592,9.66299819946289,-0.002827433403581381,0.002199114765971899,6.981316983001307e-05
0.5937620401382446,0.7661445140838623,9.643844604492188,-0.00038397242315113544,-0.0014486232539638877,-0.0011344640515744686
0.5937620401382446,0.7565677165985107,9.643844604492188,-0.00038397242315113544,-0.0014486232539638877,-0.0011344640515744686
0.5937620401382446,0.7374141216278076,9.643844604492188,0.0020420351065695286,-0.0038920841179788113,-0.0011344640515744686
0.6033388376235962,0.7469909191131592,9.643844604492188,0.0032463124953210354,-0.0014486232539638877,-0.0011344640515744686
0.5937620401382446,0.7565677165985107,9.66299819946289,-0.005288347601890564,0.0009773843921720982,-0.0011344640515744686
0.5937620401382446,0.7469909191131592,9.653421401977539,-0.005270894151180983,0.0009773843921720982,6.981316983001307e-05
0.5937620401382446,0.7469909191131592,9.643844604492188,-0.004066617228090763,0.0009773843921720982,-0.0011344640515744686
0.6607996821403503,0.6703764796257019,9.528923034667969,0.0875631719827652,-0.23968607187271118,-0.012130037881433964
0.9576807022094727,0.7948749661445618,10.371682167053223,0.09978047013282776,-0.40828487277030945,-0.0011344640515744686
0.6224924325942993,0.8331822156906128,9.806650161743164,-0.057822756469249725,0.21844540536403656,0.004956734832376242
0.5267243981361389,0.7182605266571045,9.251194953918457,-0.07250097393989563,0.29909706115722656,0.003752457909286022
0.6320692300796509,0.7469909191131592,9.53849983215332,0.0008203047327697277,-0.02954842336475849,-0.0011344640515744686
0.6033388376235962,0.7565677165985107,9.77791976928711,-0.005270894151180983,0.00708603672683239,6.981316983001307e-05
0.6224924325942993,0.7565677165985107,9.586383819580078,-0.0016231562476605177,0.0009773843921720982,-0.0011344640515744686
0.6129156351089478,0.7469909191131592,9.653421401977539,-0.00040142572834156454,-0.0014486232539638877,-0.0011344640515744686
0.6129156351089478,0.7469909191131592,9.672574996948242,0.0007853981805965304,-0.00143117003608495,-0.001117010717280209
0.6033388376235962,0.7469909191131592,9.653421401977539,0.002024581888690591,-0.0014486232539638877,-0.0011344640515744686
0.6224924325942993,0.7565677165985107,9.653421401977539,-0.0028448866214603186,0.002199114765971899,6.981316983001307e-05
0.6129156351089478,0.7565677165985107,9.653421401977539,-0.004066617228090763,0.002199114765971899,6.981316983001307e-05
0.6129156351089478,0.7565677165985107,9.653421401977539,-0.002827433403581381,0.0009773843921720982,6.981316983001307e-05
0.31603461503982544,0.8619126081466675,8.973467826843262,-0.00040142572834156454,-0.0014486232539638877,6.981316983001307e-05
1.0247182846069336,0.8619126081466675,10.5344877243042,0.043598324060440063,-0.22013837099075317,0.0012915435945615172
0.6991068720817566,0.8427590131759644,10.256759643554688,-0.04194026067852974,0.2257757931947708,0.0012915435945615172
0.5937620401382446,0.7565677165985107,9.27034854888916,0.0008028514566831291,-0.011222466826438904,6.981316983001307e-05
0.6033388376235962,0.7661445140838623,9.797073364257812,-0.00769690191373229,-0.0014486232539638877,6.981316983001307e-05
0.6033388376235962,0.7469909191131592,9.605537414550781,0.003263765713199973,-0.0026703537441790104,-0.0011344640515744686
0.6129156351089478,0.7374141216278076,9.682151794433594,-0.00041887903353199363,-0.00143117003608495,8.726646046852693e-05
0.6033388376235962,0.7469909191131592,9.66299819946289,0.0008028514566831291,0.002199114765971899,-0.0011344640515744686
0.6033388376235962,0.7661445140838623,9.643844604492188,0.0007679448463022709,-0.00020943951676599681,-0.001117010717280209
0.6033388376235962,0.7661445140838623,9.653421401977539,-0.0016057029133662581,-0.00022689280740451068,-0.0011344640515744686
0.6224924325942993,0.7374141216278076,9.643844604492188,0.0008028514566831291,0.0009773843921720982,-0.0011344640515744686
0.6224924325942993,0.7661445140838623,9.643844604492188,0.0020420351065695286,-0.00022689280740451068,-0.0011344640515744686
0.6224924325942993,0.7565677165985107,9.643844604492188,0.0008377580670639873,0.0009773843921720982,6.981316983001307e-05
0.6129156351089478,0.7565677165985107,9.66299819946289,-0.00038397242315113544,-0.00022689280740451068,-0.0011344640515744686
0.6033388376235962,0.7661445140838623,9.643844604492188,-0.002827433403581381,0.0009773843921720982,6.981316983001307e-05
0.6224924325942993,0.7565677165985107,9.653421401977539,-0.0028448866214603186,0.0009773843921720982,6.981316983001307e-05
0.6129156351089478,0.7565677165985107,9.643844604492188,-0.0028623400721699,-0.00020943951676599681,8.726646046852693e-05
0.6129156351089478,0.7565677165985107,9.66299819946289,-0.0028448866214603186,0.0009773843921720982,6.981316983001307e-05
0.6033388376235962,0.7565677165985107,9.634267807006836,-0.0016406094655394554,-0.0026529005263000727,8.726646046852693e-05
0.6129156351089478,0.7469909191131592,9.634267807006836,0.002024581888690591,-0.0026703537441790104,-0.0011344640515744686
0.6129156351089478,0.7565677165985107,9.653421401977539,-0.0028448866214603186,0.0009773843921720982,6.981316983001307e-05
0.6129156351089478,0.7661445140838623,9.643844604492188,-0.005288347601890564,0.0034208453726023436,6.981316983001307e-05
0.6129156351089478,0.7565677165985107,9.643844604492188,-0.007749261800199747,0.0034382985904812813,0.0013089969288557768
0.6033388376235962,0.7661445140838623,9.643844604492188,-0.0016231562476605177,-0.00022689280740451068,6.981316983001307e-05
0.6033388376235962,0.7661445140838623,9.643844604492188,-0.0016406094655394554,-0.00020943951676599681,8.726646046852693e-05
0.6033388376235962,0.7565677165985107,9.643844604492188,-0.0016231562476605177,-0.0014486232539638877,6.981316983001307e-05
0.6033388376235962,0.7565677165985107,9.643844604492188,-0.00041887903353199363,-0.00143117003608495,8.726646046852693e-05
0.6033388376235962,0.7565677165985107,9.643844604492188,-0.00041887903353199363,-0.00020943951676599681,-0.001117010717280209
0.6129156351089478,0.7565677165985107,9.653421401977539,0.0008028514566831291,-0.00022689280740451068,6.981316983001307e-05
0.6129156351089478,0.7565677165985107,9.653421401977539,-0.0028623400721699,0.0009948377264663577,8.726646046852693e-05
0.6033388376235962,0.7469909191131592,9.643844604492188,-0.004084070213139057,-0.00020943951676599681,8.726646046852693e-05
0.6224924325942993,0.7469909191131592,9.634267807006836,-0.004066617228090763,-0.00022689280740451068,6.981316983001307e-05
0.6224924325942993,0.7374141216278076,9.634267807006836,-0.00038397242315113544,-0.00022689280740451068,6.981316983001307e-05
0.6129156351089478,0.7469909191131592,9.643844604492188,0.003263765713199973,-0.0026703537441790104,-0.0011344640515744686
0.6129156351089478,0.7565677165985107,9.643844604492188,0.003228859044611454,-0.00143117003608495,-0.001117010717280209
0.6129156351089478,0.7565677165985107,9.643844604492188,-0.00038397242315113544,-0.0014486232539638877,-0.0011344640515744686
0.6129156351089478,0.7565677165985107,9.653421401977539,-0.00038397242315113544,-0.00022689280740451068,6.981316983001307e-05
0.3447650372982025,0.7757213711738586,9.35654067993164,0.023980824276804924,-0.02586578018963337,-0.001117010717280209
0.4692635238170624,0.6033388376235962,9.107542991638184,0.331891804933548,-0.4657061994075775,-0.025569073855876923
0.7469909191131592,0.8619126081466675,10.122684478759766,-0.07246606796979904,0.18423695862293243,0.0037350046914070845
0.4118026793003082,0.7374141216278076,9.41400146484375,-0.21907372772693634,0.3491705656051636,0.013508847914636135
0.5554547905921936,0.7757213711738586,9.346963882446289,-0.035814154893159866,-0.02099631167948246,-0.0011344640515744686
0.6224924325942993,0.7565677165985107,9.682151794433594,0.002024581888690591,0.0009773843921720982,-0.0011344640515744686
0.6320692300796509,0.7757213711738586,9.66299819946289,0.004485496319830418,-0.0038920841179788113,-0.0011344640515744686
0.6320692300796509,0.7661445140838623,9.653421401977539,-0.0016057029133662581,0.002199114765971899,6.981316983001307e-05
0.6224924325942993,0.7661445140838623,9.653421401977539,-0.0040317103266716,0.002199114765971899,6.981316983001307e-05
0.6224924325942993,0.7565677165985107,9.653421401977539,-0.0016231562476605177,0.0034208453726023436,6.981316983001307e-05
0.6224924325942993,0.7661445140838623,9.653421401977539,-0.0028448866214603186,0.004642575979232788,0.0012915435945615172
0.6129156351089478,0.7661445140838623,9.653421401977539,-0.005270894151180983,0.004642575979232788,0.0012915435945615172
0.6129156351089478,0.7565677165985107,9.643844604492188,-0.007749261800199747,0.0034382985904812813,0.0013089969288557768
0.6129156351089478,0.7469909191131592,9.643844604492188,-0.006510077975690365,0.002199114765971899,0.0012915435945615172
0.689530074596405,0.7182605266571045,9.232041358947754,0.011780972592532635,0.021764256060123444,0.0025307273026555777
0.6512228846549988,0.7757213711738586,9.289502143859863,-0.0016231562476605177,-0.008779006078839302,6.981316983001307e-05
0.6224924325942993,0.7757213711738586,9.433155059814453,-0.010175269097089767,0.019303342327475548,0.0012915435945615172
0.5937620401382446,0.7469909191131592,9.787496566772461,-0.008970992639660835,-0.0038746309000998735,8.726646046852693e-05
0.6129156351089478,0.7661445140838623,9.653421401977539,-0.005305801052600145,0.0034382985904812813,8.726646046852693e-05
0.6129156351089478,0.7565677165985107,9.634267807006836,-0.010157816112041473,0.005864306353032589,0.0012915435945615172
0.6129156351089478,0.7565677165985107,9.643844604492188,-0.010157816112041473,0.005864306353032589,0.0012915435945615172
0.6129156351089478,0.7565677165985107,9.643844604492188,-0.006492624990642071,0.005864306353032589,6.981316983001307e-05
0.6033388376235962,0.7565677165985107,9.643844604492188,-0.004049163777381182,0.0009773843921720982,6.981316983001307e-05
0.6033388376235962,0.7565677165985107,9.66299819946289,-0.004066617228090763,0.0009773843921720982,6.981316983001307e-05
0.6033388376235962,0.7757213711738586,9.643844604492188,-0.005288347601890564,-0.00022689280740451068,6.981316983001307e-05
0.6033388376235962,0.7565677165985107,9.634267807006836,-0.0028448866214603186,-0.0014486232539638877,6.981316983001307e-05
0.5937620401382446,0.7374141216278076,9.624691009521484,-0.00038397242315113544,-0.0014486232539638877,-0.0011344640515744686
0.5937620401382446,0.7565677165985107,9.643844604492188,0.004485496319830418,-0.0026703537441790104,-0.0011344640515744686
0.6033388376235962,0.7565677165985107,9.66299819946289,0.003263765713199973,-0.0014486232539638877,-0.0011344640515744686
0.6033388376235962,0.7565677165985107,9.653421401977539,-0.00040142572834156454,-0.00022689280740451068,6.981316983001307e-05
0.6033388376235962,0.7565677165985107,9.643844604492188,-0.0028623400721699,-0.00020943951676599681,8.726646046852693e-05
0.9576807022094727,0.7661445140838623,9.758766174316406,0.11075859516859055,-0.18470819294452667,-0.010908307507634163
0.7565677165985107,0.7661445140838623,10.20887565612793,0.08264134079217911,-0.21767745912075043,0.0013089969288557768
0.49799394607543945,0.7565677165985107,9.41400146484375,-0.07614871859550476,0.19034560024738312,6.981316983001307e-05
0.6129156351089478,0.7565677165985107,9.394847869873047,-0.035814154893159866,0.020525071769952774,0.0012915435945615172
0.6320692300796509,0.7661445140838623,9.739612579345703,-0.006527531426399946,-0.00753982225432992,8.726646046852693e-05
0.6033388376235962,0.7661445140838623,9.682151794433594,-0.007731808349490166,0.009529497474431992,6.981316983001307e-05
0.6129156351089478,0.7565677165985107,9.548076629638672,0.0032463124953210354,-0.005113814491778612,6.981316983001307e-05
0.6033388376235962,0.7374141216278076,9.672574996948242,0.0007853981805965304,-0.00143117003608495,-0.001117010717280209
0.6224924325942993,0.7661445140838623,9.66299819946289,0.004433136433362961,-0.005096361506730318,-0.0023387412074953318
0.5937620401382446,0.7469909191131592,9.366117477416992,0.003228859044611454,-0.0038746309000998735,-0.001117010717280209
1.0247182846069336,0.727837324142456,9.883264541625977,0.08627162128686905,-0.23111650347709656,-0.01211258489638567
0.7086837291717529,0.7374141216278076,10.199298858642578,0.027646014466881752,-0.15903440117835999,0.007417649496346712
0.5841852426528931,0.7661445140838623,9.854534149169922,0.004450589418411255,-0.056409042328596115,-0.001117010717280209
0.6129156351089478,0.7661445140838623,9.59596061706543,-0.0016406094655394554,-0.00020943951676599681,8.726646046852693e-05
0.6224924325942993,0.727837324142456,9.66299819946289,-0.0028797932900488377,-0.005096361506730318,8.726646046852693e-05
0.6224924325942993,0.7469909191131592,9.624691009521484,-0.0016755161341279745,0.0009948377264663577,-0.001117010717280209
0.6224924325942993,0.7661445140838623,9.624691009521484,0.003263765713199973,-0.0026703537441790104,-0.0011344640515744686
0.6320692300796509,0.7661445140838623,9.653421401977539,-0.00040142572834156454,-0.00022689280740451068,-0.0011344640515744686
0.6224924325942993,0.7757213711738586,9.66299819946289,-0.0016057029133662581,0.0009773843921720982,6.981316983001307e-05
0.6224924325942993,0.7757213711738586,9.653421401977539,-0.005305801052600145,0.0034382985904812813,8.726646046852693e-05
0.6224924325942993,0.7661445140838623,9.643844604492188,-0.007749261800199747,0.0022165682166814804,8.726646046852693e-05
0.6224924325942993,0.7661445140838623,9.643844604492188,-0.005288347601890564,0.002199114765971899,6.981316983001307e-05
0.6224924325942993,0.7565677165985107,9.634267807006836,-0.0028448866214603186,0.002199114765971899,6.981316983001307e-05
0.6224924325942993,0.7565677165985107,9.634267807006836,-0.0028623400721699,0.0034382985904812813,8.726646046852693e-05
0.6129156351089478,0.7565677165985107,9.672574996948242,-0.005305801052600145,0.005881759338080883,8.726646046852693e-05
0.6129156351089478,0.7661445140838623,9.653421401977539,-0.005288347601890564,0.004642575979232788,0.0012915435945615172
0.6129156351089478,0.7469909191131592,9.653421401977539,-0.005305801052600145,0.0022165682166814804,0.0013089969288557768
0.6320692300796509,0.8906430602073669,8.33182144165039,-0.0028448866214603186,0.0009773843921720982,6.981316983001307e-05
0.7469909191131592,0.4692635238170624,11.338939666748047,-0.04684463515877724,0.0645248219370842,0.007417649496346712
0.6320692300796509,0.6416460275650024,9.77791976928711,-0.02241002768278122,0.03520328924059868,-0.007225662935525179
