accX,accY,accZ,gyroX,gyroY,gyroZ
0.10169496387243271,-0.22432711720466614,9.821340560913086,0.0032069480512291193,0.00259610079228878,-0.0029015245381742716
0.10348957777023315,-0.23688943684101105,9.834501266479492,0.003970507066696882,0.003970507066696882,-0.0024433890357613564
0.10887342691421509,-0.22492532432079315,9.842875480651855,0.00519220158457756,0.0035123717971146107,-0.0018325417768210173
0.10289137065410614,-0.21714866161346436,9.852447509765625,0.0032069480512291193,0.0022906772792339325,-0.0021379655227065086
0.09032905846834183,-0.23210379481315613,9.850652694702148,0.0038177953101694584,0.0029015245381742716,-0.0024433890357613564
0.10049854964017868,-0.2392822653055191,9.81954574584961,0.005344913341104984,0.0036650835536420345,-0.0022906772792339325
0.1094716340303421,-0.22193430364131927,9.847063064575195,0.004428642801940441,0.0021379655227065086,-0.0029015245381742716
0.10348957777023315,-0.2470589429140091,9.829715728759766,0.004428642801940441,0.0015271181473508477,-0.0030542362947016954
0.10767702013254166,-0.22193430364131927,9.847661972045898,0.0050394898280501366,0.0032069480512291193,-0.0024433890357613564
0.1094716340303421,-0.22791635990142822,9.832108497619629,0.0050394898280501366,0.0029015245381742716,-0.0022906772792339325
0.09631111472845078,-0.22073788940906525,9.836894035339355,0.0030542362947016954,0.0029015245381742716,-0.0029015245381742716
0.09511470049619675,-0.23629122972488403,9.831509590148926,0.0036650835536420345,0.00259610079228878,-0.001985253533348441
0.09810572862625122,-0.2153540402650833,9.844670295715332,0.0038177953101694584,0.0016798300202935934,-0.0029015245381742716
0.10707881301641464,-0.24227328598499298,9.833903312683105,0.0035123717971146107,0.0036650835536420345,-0.0030542362947016954
0.09571290761232376,-0.23270200192928314,9.851250648498535,0.004581354558467865,0.0032069480512291193,-0.00259610079228878
0.12023933976888657,-0.22791635990142822,9.838688850402832,0.003970507066696882,0.004123218823224306,-0.0030542362947016954
0.09571290761232376,-0.21774685382843018,9.840482711791992,0.0032069480512291193,0.00259610079228878,-0.0022906772792339325
0.10348957777023315,-0.2231307178735733,9.846465110778809,0.0038177953101694584,0.0038177953101694584,-0.0022906772792339325
0.09092725813388824,-0.22133609652519226,9.830911636352539,0.004275931045413017,0.003359660040587187,-0.0030542362947016954
0.09511470049619675,-0.2273181527853012,9.844670295715332,0.003359660040587187,0.0036650835536420345,-0.0022906772792339325
0.10408778488636017,-0.22432711720466614,9.854840278625488,0.0036650835536420345,0.0035123717971146107,-0.00259610079228878
0.0891326442360878,-0.22492532432079315,9.854242324829102,0.0038177953101694584,0.003359660040587187,-0.0032069480512291193
0.09690931439399719,-0.22013968229293823,9.837491989135742,0.0036650835536420345,0.0038177953101694584,-0.0022906772792339325
0.09930214285850525,-0.2309073805809021,9.842875480651855,0.003359660040587187,0.0035123717971146107,-0.00259610079228878
0.11186445504426956,-0.22971096634864807,9.853643417358398,0.003970507066696882,0.0032069480512291193,-0.0024433890357613564
0.10408778488636017,-0.2356930375099182,9.846465110778809,0.0050394898280501366,0.0032069480512291193,-0.00259610079228878
0.11186445504426956,-0.2309073805809021,9.832706451416016,0.004275931045413017,0.0022906772792339325,-0.0029015245381742716
0.08973085135221481,-0.22492532432079315,9.843474388122559,0.0050394898280501366,0.0024433890357613564,-0.0022906772792339325
0.09990034252405167,-0.2147558331489563,9.849455833435059,0.004123218823224306,0.0022906772792339325,-0.002748812548816204
0.08793623000383377,-0.2392822653055191,9.845867156982422,0.004428642801940441,0.002748812548816204,-0.00259610079228878
0.10229317098855972,-0.22492532432079315,9.850054740905762,0.005803049076348543,0.0035123717971146107,-0.0030542362947016954
0.10887342691421509,-0.22372891008853912,9.849455833435059,0.0035123717971146107,0.0029015245381742716,-0.0024433890357613564
0.10767702013254166,-0.2273181527853012,9.838688850402832,0.0030542362947016954,0.0030542362947016954,-0.0021379655227065086
0.10229317098855972,-0.24047867953777313,9.839884757995605,0.005650337319821119,0.0035123717971146107,-0.0030542362947016954
0.09990034252405167,-0.23210379481315613,9.840482711791992,0.004123218823224306,0.004123218823224306,-0.0038177953101694584
0.11485548317432404,-0.24227328598499298,9.850054740905762,0.004123218823224306,0.0035123717971146107,-0.001374406274408102
0.09690931439399719,-0.22013968229293823,9.857233047485352,0.004123218823224306,0.002748812548816204,-0.002748812548816204
0.09810572862625122,-0.24526432156562805,9.840482711791992,0.0032069480512291193,0.0035123717971146107,-0.0030542362947016954
0.09092725813388824,-0.2183450609445572,9.842875480651855,0.0050394898280501366,0.0029015245381742716,-0.0036650835536420345
0.09272187948226929,-0.21655045449733734,9.836296081542969,0.004581354558467865,0.0036650835536420345,-0.0018325417768210173
0.12323036789894104,-0.2350948303937912,9.845269203186035,0.005650337319821119,0.0030542362947016954,-0.0032069480512291193
0.10707881301641464,-0.22791635990142822,9.857831001281738,0.004275931045413017,0.004123218823224306,-0.0022906772792339325
0.11844471842050552,-0.21954147517681122,9.842875480651855,0.0035123717971146107,0.0035123717971146107,-0.0024433890357613564
0.10767702013254166,-0.22133609652519226,9.850652694702148,0.0036650835536420345,0.0021379655227065086,-0.001985253533348441
0.10289137065410614,-0.2147558331489563,9.866206169128418,0.003970507066696882,0.0029015245381742716,-0.003970507066696882
0.09990034252405167,-0.23389841616153717,9.847063064575195,0.004734066314995289,0.001985253533348441,-0.0024433890357613564
0.09511470049619675,-0.21355941891670227,9.853045463562012,0.0038177953101694584,0.0029015245381742716,-0.002748812548816204
0.10169496387243271,-0.21296121180057526,9.850652694702148,0.004275931045413017,0.0032069480512291193,-0.0030542362947016954
0.09990034252405167,-0.2350948303937912,9.845269203186035,0.004428642801940441,0.0032069480512291193,-0.0024433890357613564
0.11126625537872314,-0.2309073805809021,9.851848602294922,0.003970507066696882,0.001985253533348441,-0.0022906772792339325
0.10887342691421509,-0.22193430364131927,9.842875480651855,0.0036650835536420345,0.0032069480512291193,-0.002748812548816204
0.09272187948226929,-0.22372891008853912,9.854840278625488,0.003359660040587187,0.0,0.0
0.10588239878416061,-0.22971096634864807,9.846465110778809,0.0032069480512291193,0.0,0.0
0.11246266216039658,-0.2315055876970291,9.865009307861328,0.004428642801940441,0.0,0.0
0.10229317098855972,-0.24227328598499298,9.845867156982422,0.003359660040587187,0.0,0.0
0.11126625537872314,-0.23988047242164612,9.830911636352539,0.004886778071522713,0.0,0.0
0.1136590763926506,-0.22612173855304718,9.856036186218262,0.004275931045413017,0.0,0.0
0.08733802288770676,-0.22971096634864807,9.848259925842285,0.004123218823224306,0.0,0.0
-0.05503492057323456,-0.18544375896453857,8.960522651672363,-0.005344913341104984,-0.04734066128730774,0.0
0.33918261528015137,-0.2877369225025177,10.574481010437012,-0.07559234648942947,-0.25090551376342773,0.0
0.4893322288990021,-0.3355933725833893,11.157134056091309,0.03145863488316536,0.09345962852239609,0.0
-0.3074777126312256,-0.12861421704292297,7.779066562652588,0.09513945877552032,0.2767138183116913,-0.007941014133393764
-0.04426721855998039,-0.19980068504810333,9.148359298706055,-0.08139539510011673,-0.24403348565101624,0.0018325417768210173
0.26919254660606384,-0.24466611444950104,10.53081226348877,0.05925218388438225,0.17653486132621765,-0.0065666078589856625
0.0005982056609354913,-0.19920247793197632,9.33858871459961,-0.037567105144262314,-0.11942064017057419,-0.00015271181473508477
0.24466611444950104,-0.26620152592658997,10.5421781539917,-0.03176405653357506,-0.1119377613067627,-0.0012216945178806782
-0.01734796352684498,-0.19740787148475647,9.288339614868164,0.030847785994410515,0.08322793990373611,-0.0050394898280501366
0.05503492057323456,-0.21236300468444824,9.635298728942871,-0.020463382825255394,-0.07269082218408585,-0.0007635590736754239
0.137587308883667,-0.2225325107574463,9.960722923278809,0.024281177669763565,0.06245913356542587,-0.0038177953101694584
0.09152546525001526,-0.22193430364131927,9.839884757995605,-0.010842538438737392,-0.04367557913064957,-0.0021379655227065086
0.14117653667926788,-0.22791635990142822,10.066604614257812,0.0004581354442052543,-0.0068720318377017975,-0.003359660040587187
0.11665010452270508,-0.2105683982372284,9.822537422180176,0.015423892997205257,0.038483377546072006,-0.0035123717971146107
0.11665010452270508,-0.22133609652519226,9.890732765197754,-0.0032069480512291193,-0.02244863659143448,-0.0024433890357613564
0.12143574655056,-0.23389841616153717,9.953543663024902,0.006108472589403391,0.009009997360408306,-0.0036650835536420345
0.0891326442360878,-0.23330020904541016,9.791430473327637,0.0010689827613532543,-0.004428642801940441,-0.0022906772792339325
0.1256231814622879,-0.2356930375099182,9.875777244567871,0.007330167107284069,0.010689826682209969,-0.00259610079228878
0.11246266216039658,-0.2153540402650833,9.789037704467773,0.005955760832875967,0.008399149402976036,-0.0024433890357613564
0.11126625537872314,-0.23629122972488403,9.876974105834961,0.004275931045413017,0.001985253533348441,-0.0029015245381742716
0.10827522724866867,-0.23210379481315613,9.831509590148926,0.0050394898280501366,0.008246437646448612,-0.002748812548816204
0.11665010452270508,-0.22133609652519226,9.866804122924805,0.0016798300202935934,-0.0006108472589403391,-0.0029015245381742716
0.09451649338006973,-0.21774685382843018,9.817750930786133,0.005803049076348543,0.006261184345930815,-0.00259610079228878
0.10648060590028763,-0.23270200192928314,9.875179290771484,0.0038177953101694584,0.001374406274408102,-0.0024433890357613564
0.11724831163883209,-0.22492532432079315,9.838688850402832,0.0050394898280501366,0.0032069480512291193,-0.00259610079228878
0.13639089465141296,-0.22552353143692017,9.853643417358398,0.004123218823224306,0.0038177953101694584,-0.0024433890357613564
0.10229317098855972,-0.22911277413368225,9.839286804199219,0.003970507066696882,0.00259610079228878,-0.0032069480512291193
0.11904292553663254,-0.23988047242164612,9.848259925842285,0.004428642801940441,0.003359660040587187,-0.00259610079228878
0.09272187948226929,-0.23030917346477509,9.839286804199219,0.0035123717971146107,0.0021379655227065086,-0.0024433890357613564
0.09451649338006973,-0.22851456701755524,9.860821723937988,0.005344913341104984,0.0030542362947016954,-0.0030542362947016954
0.11964113265275955,-0.22791635990142822,9.827920913696289,0.004123218823224306,0.0024433890357613564,-0.002748812548816204
0.10289137065410614,-0.22612173855304718,9.848857879638672,0.0038177953101694584,0.0032069480512291193,-0.0016798300202935934
0.09990034252405167,-0.22971096634864807,9.835697174072266,0.004886778071522713,0.0029015245381742716,-0.0029015245381742716
0.10887342691421509,-0.22911277413368225,9.849455833435059,0.0036650835536420345,0.003359660040587187,-0.002748812548816204
0.12681959569454193,-0.22971096634864807,9.850652694702148,0.0038177953101694584,0.0032069480512291193,-0.0029015245381742716
0.12143574655056,-0.21774685382843018,9.843474388122559,0.004581354558467865,0.0029015245381742716,-0.002748812548816204
0.20757736265659332,-0.24945175647735596,10.210174560546875,0.007482878863811493,0.012827792204916477,-0.0036650835536420345
0.2512463629245758,-0.25782662630081177,10.660024642944336,0.09697200357913971,0.27060532569885254,-0.007635590620338917
-0.04666004329919815,-0.16331014037132263,9.390034675598145,0.09590301662683487,0.2411319613456726,-0.009620844386518002
-0.17766708135604858,-0.13519448041915894,8.519046783447266,-0.10628741979598999,-0.28098973631858826,0.005650337319821119
0.5581258535385132,-0.3116651475429535,11.676974296569824,-0.08704573661088943,-0.2921377122402191,0.0030542362947016954
-0.16271193325519562,-0.16809579730033875,8.5764741897583,0.10644013434648514,0.3092414140701294,-0.008704573847353458
0.32303106784820557,-0.2841476798057556,10.73121166229248,0.03497100621461868,0.0978882759809494,-0.0050394898280501366
-0.04666004329919815,-0.19740787148475647,9.08853816986084,-0.020463382825255394,-0.06490252166986465,-0.0010689827613532543
0.21774685382843018,-0.24466611444950104,10.37767219543457,0.021990500390529633,0.058335911482572556,-0.003359660040587187
0.4091726839542389,-0.3032902777194977,11.711670875549316,0.07605048269033432,0.20753535628318787,-0.008246437646448612
-0.3326023519039154,-0.08434699475765228,7.703692436218262,0.091321662068367,0.22463907301425934,-0.007635590620338917
0.18424734473228455,-0.26919254660606384,11.059626579284668,-0.3124483823776245,-0.9127585291862488,0.01969982497394085
0.6711867451667786,-0.35473597049713135,11.871989250183105,0.1322484314441681,0.3961344361305237,-0.012827792204916477
-0.12083754688501358,-0.1986042857170105,9.299705505371094,0.2539597451686859,0.7531746625900269,-0.017867282032966614
0.6059823632240295,-0.3415754437446594,11.682358741760254,0.03787253051996231,0.11774080991744995,-0.005497625097632408
0.046061836183071136,-0.21595224738121033,9.826126098632812,0.16966283321380615,0.5195255875587463,-0.012369656935334206
-0.30568310618400574,-0.09690931439399719,7.529016494750977,0.042606595903635025,0.10934165865182877,-0.005497625097632408
0.4827519655227661,-0.3026920557022095,11.294720649719238,-0.05238015204668045,-0.1766875684261322,0.0010689827613532543
-0.010169495828449726,-0.20997019112110138,9.20279598236084,-0.05131116881966591,-0.16095824539661407,0.0007635590736754239
0.21655045449733734,-0.2512463629245758,10.3890380859375,0.04062134400010109,0.11590826511383057,-0.0035123717971146107
0.06041877344250679,-0.20997019112110138,9.446864128112793,-0.022906772792339325,-0.0794101431965828,-0.0010689827613532543
0.15613168478012085,-0.24945175647735596,10.134202003479004,0.023823043331503868,0.0653606578707695,-0.0030542362947016954
0.22013968229293823,-0.2793620526790619,10.473384857177734,-0.0007635590736754239,-0.009315420873463154,-0.002748812548816204
0.19800607860088348,-0.267397940158844,10.588240623474121,0.10918894410133362,0.3002314269542694,-0.009620844386518002
-0.11425728350877762,-0.1537388563156128,8.910273551940918,0.09681928902864456,0.24754585325717926,-0.009315420873463154
-0.02392822690308094,-0.23210379481315613,9.455238342285156,-0.18905723094940186,-0.5381564497947693,0.010689826682209969
0.4911268353462219,-0.28235307335853577,11.398808479309082,0.0794101431965828,0.24785128235816956,-0.008093725889921188
-0.2512463629245758,-0.12502498924732208,7.984251022338867,-0.02214321307837963,-0.07055285573005676,-0.00030542362947016954
0.04785645380616188,-0.21774685382843018,9.78126049041748,0.091321662068367,0.27289602160453796,-0.008246437646448612
0.13878370821475983,-0.23748764395713806,9.989436149597168,-0.060779303312301636,-0.1957765519618988,0.0015271181473508477
0.3116651475429535,-0.26560330390930176,10.680961608886719,-0.008093725889921188,-0.033596597611904144,-0.00259610079228878
-0.015553346835076809,-0.18125630915164948,9.154939651489258,0.013438640162348747,0.030847785994410515,-0.0032069480512291193
0.12861421704292297,-0.23389841616153717,9.919445991516113,-0.02993151545524597,-0.10353861004114151,-0.0016798300202935934
0.10648060590028763,-0.22372891008853912,9.7938232421875,0.029473381116986275,0.08002099394798279,-0.003970507066696882
0.054436713457107544,-0.2105683982372284,9.497711181640625,0.004581354558467865,0.0065666078589856625,-0.00259610079228878
0.1698904037475586,-0.2356930375099182,10.093523979187012,0.005955760832875967,0.008399149402976036,-0.0021379655227065086
0.06699903309345245,-0.21714866161346436,9.710672378540039,0.001374406274408102,-0.007177455350756645,-0.00259610079228878
0.09451649338006973,-0.2315055876970291,9.7669038772583,0.010078979656100273,0.018783552572131157,-0.0030542362947016954
0.21415762603282928,-0.24885354936122894,10.392626762390137,0.024586603045463562,0.06032116711139679,-0.0050394898280501366
0.017946170642971992,-0.19381862878799438,9.303893089294434,0.047951508313417435,0.1316375881433487,-0.004581354558467865
0.20099709928035736,-0.2590230405330658,10.26640510559082,-0.05329642444849014,-0.16996824741363525,0.0010689827613532543
0.0729810893535614,-0.20039889216423035,9.620343208312988,0.04031591862440109,0.11743538826704025,-0.004734066314995289
0.1704886108636856,-0.24167509377002716,10.101301193237305,-0.02214321307837963,-0.07864658534526825,-0.0021379655227065086
0.17766708135604858,-0.24107688665390015,10.16710376739502,0.011147962883114815,0.02733541466295719,-0.0032069480512291193
0.064606212079525,-0.2153540402650833,9.66520881652832,-0.0032069480512291193,-0.023364907130599022,-0.0016798300202935934
0.16271193325519562,-0.22552353143692017,10.04686450958252,-0.006413896102458239,-0.030695075169205666,-0.0021379655227065086
0.0933200865983963,-0.22791635990142822,9.7064847946167,0.009773556143045425,0.02244863659143448,-0.0029015245381742716
0.12203395366668701,-0.2350948303937912,9.842875480651855,0.00992626789957285,0.020463382825255394,-0.004428642801940441
0.08434699475765228,-0.22133609652519226,9.772287368774414,-0.0004581354442052543,-0.009315420873463154,-0.0024433890357613564
0.15074782073497772,-0.2153540402650833,9.910472869873047,0.007177455350756645,0.011453386396169662,-0.004123218823224306
0.12143574655056,-0.2231307178735733,9.806385040283203,0.0030542362947016954,-0.001374406274408102,-0.0018325417768210173
0.12143574655056,-0.2147558331489563,9.887741088867188,0.006261184345930815,0.005803049076348543,-0.0024433890357613564
0.09511470049619675,-0.22193430364131927,9.832706451416016,0.0018325417768210173,-0.00030542362947016954,-0.0022906772792339325
0.08853443711996078,-0.2225325107574463,9.854840278625488,0.004123218823224306,0.001985253533348441,-0.002748812548816204
0.11545369029045105,-0.22013968229293823,9.854242324829102,0.004428642801940441,0.0022906772792339325,-0.0021379655227065086
0.11964113265275955,-0.2309073805809021,9.860821723937988,0.00519220158457756,0.004123218823224306,-0.00259610079228878
0.12203395366668701,-0.22971096634864807,9.852447509765625,0.002748812548816204,0.0022906772792339325,-0.0024433890357613564
0.11724831163883209,-0.2225325107574463,9.837491989135742,0.0035123717971146107,0.0022906772792339325,-0.0029015245381742716
0.13220344483852386,-0.2189432680606842,9.863813400268555,0.0038177953101694584,0.003359660040587187,-0.003359660040587187
0.14117653667926788,-0.2267199456691742,9.869794845581055,0.0038177953101694584,0.004123218823224306,-0.0030542362947016954
0.12083754688501358,-0.22073788940906525,9.840482711791992,0.004275931045413017,0.003359660040587187,-0.0032069480512291193
0.13220344483852386,-0.21774685382843018,9.869794845581055,0.002748812548816204,0.005344913341104984,-0.0016798300202935934
0.10348957777023315,-0.22193430364131927,9.850652694702148,0.0050394898280501366,0.0018325417768210173,-0.0030542362947016954
0.12801600992679596,-0.2147558331489563,9.853045463562012,0.0038177953101694584,0.002748812548816204,-0.0022906772792339325
0.1339980661869049,-0.21954147517681122,9.851250648498535,0.0038177953101694584,0.0029015245381742716,-0.002748812548816204
0.11485548317432404,-0.21954147517681122,9.850054740905762,0.004275931045413017,0.003359660040587187,-0.001985253533348441
0.10468599200248718,-0.2273181527853012,9.838688850402832,0.0036650835536420345,0.003359660040587187,-0.0030542362947016954
0.137587308883667,-0.23210379481315613,9.851848602294922,0.004581354558467865,0.0030542362947016954,-0.0030542362947016954
0.1052841991186142,-0.22013968229293823,9.848259925842285,0.004734066314995289,0.003970507066696882,-0.00259610079228878
0.11485548317432404,-0.22073788940906525,9.847063064575195,0.004886778071522713,0.0032069480512291193,-0.0032069480512291193
0.12681959569454193,-0.21774685382843018,9.842875480651855,0.0050394898280501366,0.003359660040587187,-0.00259610079228878
0.12801600992679596,-0.22911277413368225,9.854840278625488,0.004123218823224306,0.0029015245381742716,-0.0024433890357613564
0.1256231814622879,-0.23748764395713806,9.846465110778809,0.003970507066696882,0.0035123717971146107,-0.002748812548816204
0.11425728350877762,-0.22552353143692017,9.874580383300781,0.004275931045413017,0.0029015245381742716,-0.00259610079228878
0.12502498924732208,-0.22851456701755524,9.848259925842285,0.0035123717971146107,0.0022906772792339325,-0.0024433890357613564
0.12023933976888657,-0.21296121180057526,9.859625816345215,0.004581354558467865,0.0030542362947016954,-0.0029015245381742716
-0.035892341285943985,-0.20518454909324646,9.10229778289795,-0.011147962883114815,-0.06444438546895981,-0.0024433890357613564
0.363709032535553,-0.27337998151779175,10.794621467590332,0.020005248486995697,0.05757235363125801,-0.003970507066696882
0.10408778488636017,-0.22851456701755524,9.848259925842285,-0.04749337583780289,-0.15378080308437347,-0.0
0.11665010452270508,-0.22133609652519226,9.82373332977295,0.04199574887752533,0.12201674282550812,-0.004428642801940441
0.129810631275177,-0.22492532432079315,9.963713645935059,-0.023975754156708717,-0.08307522535324097,-0.0012216945178806782
0.21774685382843018,-0.2512463629245758,10.216754913330078,0.004428642801940441,0.004581354558467865,-0.0022906772792339325
0.06580262631177902,-0.20757736265659332,9.605986595153809,0.0007635590736754239,-0.007330167107284069,-0.0022906772792339325
0.1501496136188507,-0.2309073805809021,10.005587577819824,-0.008399149402976036,-0.038636088371276855,-0.0022906772792339325
0.27696922421455383,-0.27038896083831787,10.414162635803223,-0.09529217332601547,-0.31199023127555847,0.004734066314995289
-0.26500511169433594,-0.12801600992679596,7.981858253479004,0.09727742522954941,0.27854636311531067,-0.008551862090826035
0.39122650027275085,-0.2919243574142456,11.09073257446289,-0.07391251623630524,-0.24250635504722595,0.0021379655227065086
0.3236292600631714,-0.2829512655735016,10.729416847229004,0.05405998229980469,0.15988926589488983,-0.006108472589403391
-0.029910283163189888,-0.1866401731967926,9.098708152770996,-0.031000498682260513,-0.10109522193670273,-0.00030542362947016954
0.2560320198535919,-0.267397940158844,10.510473251342773,-0.04489727318286896,-0.1498102843761444,-0.0006108472589403391
0.030508488416671753,-0.20099709928035736,9.351749420166016,0.04046862944960594,0.11407572776079178,-0.005955760832875967
0.038285162299871445,-0.21296121180057526,9.474979400634766,-0.016034740954637527,-0.06032116711139679,-0.0012216945178806782
0.16390834748744965,-0.22971096634864807,10.080962181091309,0.021837789565324783,0.056808795779943466,-0.003970507066696882
0.10707881301641464,-0.22492532432079315,9.750154495239258,-0.010078979656100273,-0.04046862944960594,-0.0021379655227065086
0.09092725813388824,-0.21176479756832123,9.655637741088867,0.008246437646448612,0.016645587980747223,-0.0024433890357613564
0.1094716340303421,-0.23330020904541016,9.857831001281738,-0.0050394898280501366,-0.024586603045463562,-0.001985253533348441
0.11006984114646912,-0.22133609652519226,9.814760208129883,0.011300674639642239,0.022754060104489326,-0.0035123717971146107
0.13878370821475983,-0.23210379481315613,9.88833999633789,-0.0010689827613532543,-0.010842538438737392,-0.0016798300202935934
0.13280165195465088,-0.24047867953777313,9.905089378356934,0.0050394898280501366,0.007788302376866341,-0.0035123717971146107
0.09810572862625122,-0.22492532432079315,9.830313682556152,0.0029015245381742716,-0.0024433890357613564,-0.0032069480512291193
0.12083754688501358,-0.23210379481315613,9.873384475708008,0.004581354558467865,0.0035123717971146107,-0.002748812548816204
0.11605189740657806,-0.2231307178735733,9.846465110778809,0.004581354558467865,0.0022906772792339325,-0.002748812548816204
0.11425728350877762,-0.23270200192928314,9.847661972045898,0.004123218823224306,0.003970507066696882,-0.0024433890357613564
0.12502498924732208,-0.22911277413368225,9.839286804199219,0.004428642801940441,0.0021379655227065086,-0.0024433890357613564
0.1094716340303421,-0.23330020904541016,9.845269203186035,0.004123218823224306,0.004428642801940441,-0.0036650835536420345
0.12323036789894104,-0.2267199456691742,9.861420631408691,0.003970507066696882,0.001985253533348441,-0.0030542362947016954
0.12861421704292297,-0.2189432680606842,9.858428955078125,0.004428642801940441,0.003359660040587187,-0.0029015245381742716
0.12921242415905,-0.21595224738121033,9.857831001281738,0.00519220158457756,0.003359660040587187,-0.003359660040587187
0.12681959569454193,-0.23988047242164612,9.859027862548828,0.0038177953101694584,0.0021379655227065086,-0.0030542362947016954
0.13519448041915894,-0.22911277413368225,9.834501266479492,0.0038177953101694584,0.0036650835536420345,-0.0021379655227065086
0.11246266216039658,-0.23210379481315613,9.845269203186035,0.004123218823224306,0.0036650835536420345,-0.0024433890357613564
0.08853443711996078,-0.23270200192928314,9.847063064575195,0.0038177953101694584,0.0029015245381742716,-0.002748812548816204
0.11964113265275955,-0.21595224738121033,9.840482711791992,0.004581354558467865,0.0036650835536420345,-0.0030542362947016954
0.11844471842050552,-0.21415762603282928,9.842277526855469,0.0036650835536420345,0.003359660040587187,-0.002748812548816204
0.12861421704292297,-0.22432711720466614,9.854840278625488,0.004886778071522713,0.00259610079228878,-0.0029015245381742716
0.11724831163883209,-0.2225325107574463,9.845867156982422,0.004428642801940441,0.0030542362947016954,-0.0029015245381742716
0.11844471842050552,-0.2315055876970291,9.850054740905762,0.004581354558467865,0.0029015245381742716,-0.002748812548816204
0.12622138857841492,-0.22851456701755524,9.845867156982422,0.004275931045413017,0.003359660040587187,-0.002748812548816204
0.13160525262355804,-0.22911277413368225,9.856036186218262,0.003359660040587187,0.0030542362947016954,-0.0029015245381742716
0.11964113265275955,-0.22372891008853912,9.838688850402832,0.003970507066696882,0.0038177953101694584,-0.0024433890357613564
0.13459627330303192,-0.21954147517681122,9.847661972045898,0.004275931045413017,0.0029015245381742716,-0.0022906772792339325
0.1256231814622879,-0.23449662327766418,9.848857879638672,0.0036650835536420345,0.0029015245381742716,-0.0029015245381742716
0.11964113265275955,-0.2273181527853012,9.837491989135742,0.0038177953101694584,0.0029015245381742716,-0.0024433890357613564
0.11246266216039658,-0.22013968229293823,9.861420631408691,0.004581354558467865,0.0038177953101694584,-0.0024433890357613564
0.11545369029045105,-0.23748764395713806,9.868598937988281,0.0036650835536420345,0.0018325417768210173,-0.0029015245381742716
0.12382857501506805,-0.2315055876970291,9.857233047485352,0.004123218823224306,0.0032069480512291193,-0.0021379655227065086
0.1381855010986328,-0.21595224738121033,9.849455833435059,0.004428642801940441,0.0035123717971146107,-0.0024433890357613564
0.1178465187549591,-0.20518454909324646,9.828518867492676,0.004123218823224306,0.0035123717971146107,-0.0022906772792339325
0.15732808411121368,-0.24526432156562805,10.231111526489258,0.125987246632576,0.3486410677433014,-0.010078979656100273
-0.14656038582324982,-0.14895321428775787,8.798408508300781,0.049173206090927124,0.12186402827501297,-0.005650337319821119
-0.010169495828449726,-0.2111666053533554,9.659825325012207,-0.21914145350456238,-0.6181774139404297,0.013133215717971325
0.5264210104942322,-0.32123643159866333,11.533405303955078,0.0844496339559555,0.2583884000778198,-0.008551862090826035
-0.10588239878416061,-0.1704886108636856,8.940183639526367,0.16645587980747223,0.4897467792034149,-0.012369656935334206
0.21296121180057526,-0.259621262550354,10.479965209960938,-0.12812520563602448,-0.39567631483078003,0.005344913341104984
0.11964113265275955,-0.24227328598499298,10.05284595489502,0.10109522193670273,0.30404922366142273,-0.00992626789957285
0.08733802288770676,-0.2386840581893921,9.780064582824707,-0.06826218217611313,-0.21623992919921875,0.0015271181473508477
0.3439682424068451,-0.267397940158844,10.822138786315918,-0.020616095513105392,-0.07314895838499069,-0.0009162708884105086
-0.04127619042992592,-0.17108681797981262,9.019146919250488,0.022906772792339325,0.06032116711139679,-0.0029015245381742716
0.24466611444950104,-0.23688943684101105,10.39501953125,-0.005344913341104984,-0.030542362481355667,-0.0018325417768210173
0.13160525262355804,-0.23030917346477509,9.866804122924805,0.031916771084070206,0.0910162404179573,-0.003970507066696882
0.13519448041915894,-0.22013968229293823,9.926026344299316,-0.015423892997205257,-0.061084724962711334,-0.0016798300202935934
0.17527425289154053,-0.22552353143692017,10.129416465759277,0.0038177953101694584,0.0009162708884105086,-0.0018325417768210173
0.0849452018737793,-0.2111666053533554,9.659825325012207,0.0022906772792339325,-0.004123218823224306,-0.003359660040587187
0.1256231814622879,-0.23449662327766418,9.964909553527832,-0.005497625097632408,-0.028251685202121735,-0.0006108472589403391
0.10767702013254166,-0.22193430364131927,9.747162818908691,0.010842538438737392,0.02351761981844902,-0.003359660040587187
0.1256231814622879,-0.22851456701755524,9.934999465942383,0.0004581354442052543,-0.007941014133393764,-0.002748812548816204
0.12442677468061447,-0.24167509377002716,9.869794845581055,0.007482878863811493,0.013896775431931019,-0.003359660040587187
0.13160525262355804,-0.2309073805809021,9.783055305480957,0.005344913341104984,0.007941014133393764,-0.0021379655227065086
0.12741780281066895,-0.22552353143692017,9.848259925842285,0.001374406274408102,-0.005497625097632408,-0.00259610079228878
0.12083754688501358,-0.22133609652519226,9.839286804199219,0.007024743594229221,0.009620844386518002,-0.0024433890357613564
0.1178465187549591,-0.2225325107574463,9.853643417358398,0.0029015245381742716,-0.0007635590736754239,-0.00259610079228878
0.1052841991186142,-0.22193430364131927,9.831509590148926,0.004886778071522713,0.005344913341104984,-0.0029015245381742716
0.12921242415905,-0.2309073805809021,9.878170013427734,0.003359660040587187,0.0015271181473508477,-0.00259610079228878
0.12203395366668701,-0.2356930375099182,9.868598937988281,0.004734066314995289,0.006108472589403391,-0.0022906772792339325
0.12622138857841492,-0.23449662327766418,9.850054740905762,0.004428642801940441,0.0021379655227065086,-0.002748812548816204
0.12442677468061447,-0.22193430364131927,9.857233047485352,0.004734066314995289,0.0032069480512291193,-0.0029015245381742716
0.12801600992679596,-0.21355941891670227,9.841081619262695,0.004428642801940441,0.002748812548816204,-0.00259610079228878
0.06640082597732544,-0.25722843408584595,9.633503913879395,0.004123218823224306,0.0029015245381742716,-0.001985253533348441
0.550349235534668,-0.3284149169921875,11.428719520568848,0.168899267911911,0.515707790851593,-0.014507622458040714
-0.39421752095222473,-0.08374879509210587,7.266404151916504,0.03695625811815262,0.09513945877552032,-0.00519220158457756
0.5605186820030212,-0.3158525824546814,11.642876625061035,-0.09804098308086395,-0.3243598937988281,0.004886778071522713
-0.11665010452270508,-0.18005990982055664,8.745766639709473,0.1319430023431778,0.38636088371276855,-0.010078979656100273
0.26620152592658997,-0.2787638306617737,10.64686393737793,-0.0975828468799591,-0.30908870697021484,0.0038177953101694584
0.05563312768936157,-0.22372891008853912,9.56889820098877,0.08338065445423126,0.2483094036579132,-0.007482878863811493
0.27696922421455383,-0.2787638306617737,10.575677871704102,0.04703523963689804,0.13576079905033112,-0.005803049076348543
0.15613168478012085,-0.24107688665390015,10.0343017578125,0.007330167107284069,0.010689826682209969,-0.0029015245381742716
0.20458634197711945,-0.24047867953777313,10.236495018005371,0.025655584409832954,0.07177454978227615,-0.0038177953101694584
0.06400800496339798,-0.19740787148475647,9.57906723022461,-0.010842538438737392,-0.04291202127933502,-0.0015271181473508477
0.15134602785110474,-0.23808585107326508,10.009775161743164,0.00992626789957285,0.019241688773036003,-0.0035123717971146107
0.09152546525001526,-0.2231307178735733,9.720842361450195,-0.0012216945178806782,-0.014202198944985867,-0.002748812548816204
0.15912270545959473,-0.2350948303937912,9.982257843017578,0.00916270911693573,0.01969982497394085,-0.0024433890357613564
0.14117653667926788,-0.24227328598499298,9.90688419342041,0.007177455350756645,0.012064233422279358,-0.0030542362947016954
0.12382857501506805,-0.22612173855304718,9.842875480651855,0.003359660040587187,-0.0007635590736754239,-0.001985253533348441
0.11246266216039658,-0.21355941891670227,9.809974670410156,0.0021379655227065086,-0.004428642801940441,-0.001985253533348441
0.12801600992679596,-0.22432711720466614,9.861420631408691,0.0050394898280501366,0.005344913341104984,-0.0024433890357613564
0.12741780281066895,-0.22791635990142822,9.822537422180176,0.003359660040587187,0.0010689827613532543,-0.0022906772792339325
0.1339980661869049,-0.21415762603282928,9.860821723937988,0.00519220158457756,0.005497625097632408,-0.00259610079228878
0.11246266216039658,-0.21714866161346436,9.866804122924805,0.004428642801940441,0.0007635590736754239,-0.002748812548816204
0.12622138857841492,-0.2225325107574463,9.845269203186035,0.004886778071522713,0.004428642801940441,-0.001374406274408102
0.12921242415905,-0.2356930375099182,9.849455833435059,0.004581354558467865,0.0022906772792339325,-0.0021379655227065086
0.1501496136188507,-0.23330020904541016,9.866206169128418,0.004275931045413017,0.0016798300202935934,-0.003359660040587187
0.11425728350877762,-0.22372891008853912,9.852447509765625,0.004581354558467865,0.0032069480512291193,-0.0032069480512291193
0.11724831163883209,-0.21714866161346436,9.843474388122559,0.00519220158457756,0.0030542362947016954,-0.0024433890357613564
0.11485548317432404,-0.2267199456691742,9.851848602294922,0.0050394898280501366,0.0038177953101694584,-0.002748812548816204
0.14656038582324982,-0.23270200192928314,9.865608215332031,0.0050394898280501366,0.0035123717971146107,-0.001985253533348441
0.11904292553663254,-0.22851456701755524,9.861420631408691,0.002748812548816204,0.0036650835536420345,-0.0021379655227065086
0.10827522724866867,-0.21296121180057526,9.934401512145996,0.13866232335567474,0.3758237659931183,-0.01175880990922451
-0.31046873331069946,-0.09152546525001526,8.094919204711914,-0.023364907130599022,-0.06872031837701797,-0.0006108472589403391
0.3720839321613312,-0.3517449200153351,11.757134437561035,-0.2954973578453064,-0.8955020904541016,0.018630841746926308
0.5688936114311218,-0.30927231907844543,11.674581527709961,0.16935740411281586,0.5286883115768433,-0.014660334214568138
-0.24107688665390015,-0.15672987699508667,8.468199729919434,0.23273280262947083,0.6665870547294617,-0.018019994720816612
-0.41575294733047485,-0.08255238085985184,7.245467185974121,0.01435491070151329,0.032222192734479904,-0.0036650835536420345
0.6137589812278748,-0.3116651475429535,11.765508651733398,-0.11560284346342087,-0.38544461131095886,0.005955760832875967
-0.10229317098855972,-0.17527425289154053,8.964112281799316,0.16141638159751892,0.4746283292770386,-0.012216945178806782
0.20817556977272034,-0.24945175647735596,10.470992088317871,-0.12323843687772751,-0.38162681460380554,0.004734066314995289
0.13639089465141296,-0.23389841616153717,10.03729248046875,0.09559759497642517,0.29259583353996277,-0.007788302376866341
-0.13220344483852386,-0.1417747437953949,8.479565620422363,0.03680354729294777,0.09437590092420578,-0.004428642801940441
0.07956135272979736,-0.2386840581893921,9.745966911315918,-0.0647498071193695,-0.20402298867702484,0.0015271181473508477
0.17766708135604858,-0.23030917346477509,10.067203521728516,0.05268557742238045,0.15454435348510742,-0.005497625097632408
-0.017946170642971992,-0.1746760457754135,9.073583602905273,0.0261137206107378,0.06749862432479858,-0.004428642801940441
0.24107688665390015,-0.25423741340637207,10.37767219543457,-0.008551862090826035,-0.040010496973991394,-0.0024433890357613564
0.03469592705368996,-0.20039889216423035,9.416953086853027,0.012369656935334206,0.028098974376916885,-0.0036650835536420345
0.12143574655056,-0.2273181527853012,9.863214492797852,-0.016034740954637527,-0.056961506605148315,-0.0018325417768210173
0.13639089465141296,-0.2189432680606842,9.817750930786133,0.01847812905907631,0.04688252881169319,-0.0038177953101694584
0.07238288223743439,-0.20817556977272034,9.66102123260498,0.003359660040587187,0.0030542362947016954,-0.0022906772792339325
0.1417747437953949,-0.23688943684101105,9.975677490234375,0.006719320081174374,0.009009997360408306,-0.00259610079228878
0.1178465187549591,-0.21655045449733734,9.778867721557617,0.011453386396169662,0.024281177669763565,-0.002748812548816204
0.137587308883667,-0.2356930375099182,9.923035621643066,0.0,-0.009315420873463154,-0.0021379655227065086
0.1333998590707779,-0.23030917346477509,9.89850902557373,0.005803049076348543,0.011606098152697086,-0.0032069480512291193
0.12323036789894104,-0.22492532432079315,9.838089942932129,0.0010689827613532543,-0.00519220158457756,-0.00259610079228878
0.1333998590707779,-0.21714866161346436,9.905089378356934,0.0036650835536420345,0.0,-0.0024433890357613564
0.11425728350877762,-0.23210379481315613,9.818349838256836,0.004123218823224306,0.002748812548816204,-0.0029015245381742716
0.12263216078281403,-0.2183450609445572,9.865608215332031,0.004734066314995289,0.004428642801940441,-0.0030542362947016954
0.11724831163883209,-0.2183450609445572,9.840482711791992,0.005955760832875967,0.0068720318377017975,-0.003359660040587187
0.1944168359041214,-0.22971096634864807,10.176674842834473,0.010995250195264816,0.01252236869186163,-0.002748812548816204
0.0323031060397625,-0.2069791555404663,9.355937004089355,0.00015271181473508477,-0.008857285603880882,-0.0029015245381742716
0.14356936514377594,-0.24107688665390015,9.990034103393555,-0.006719320081174374,-0.025961007922887802,-0.0021379655227065086
0.11246266216039658,-0.2105683982372284,9.809974670410156,0.0065666078589856625,0.007941014133393764,-0.0030542362947016954
0.10648060590028763,-0.2147558331489563,9.844072341918945,0.0015271181473508477,-0.004581354558467865,-0.00259610079228878
0.11186445504426956,-0.24227328598499298,9.842277526855469,0.0050394898280501366,0.008093725889921188,-0.0029015245381742716
0.11066804826259613,-0.23270200192928314,9.81655502319336,0.004581354558467865,0.0030542362947016954,-0.0021379655227065086
0.13698910176753998,-0.23688943684101105,9.858428955078125,0.004734066314995289,0.0032069480512291193,-0.0022906772792339325
0.13100704550743103,-0.23210379481315613,9.848259925842285,0.003359660040587187,0.0018325417768210173,-0.0024433890357613564
0.12203395366668701,-0.2183450609445572,9.839286804199219,0.004123218823224306,0.0032069480512291193,-0.001985253533348441
0.11964113265275955,-0.22851456701755524,9.857831001281738,0.004734066314995289,0.0022906772792339325,-0.0032069480512291193
0.1256231814622879,-0.23988047242164612,9.860223770141602,0.004123218823224306,0.003359660040587187,-0.002748812548816204
0.11904292553663254,-0.22612173855304718,9.833304405212402,0.004428642801940441,0.00259610079228878,-0.00259610079228878
0.10887342691421509,-0.2111666053533554,9.859625816345215,0.0050394898280501366,0.001985253533348441,-0.002748812548816204
0.12143574655056,-0.2267199456691742,9.842875480651855,0.0050394898280501366,0.004123218823224306,-0.0024433890357613564
0.13280165195465088,-0.23210379481315613,9.833903312683105,0.004734066314995289,0.0024433890357613564,-0.0032069480512291193
0.12921242415905,-0.22193430364131927,9.850652694702148,0.003970507066696882,0.0029015245381742716,-0.00259610079228878
0.1256231814622879,-0.21296121180057526,9.836296081542969,0.0030542362947016954,0.0035123717971146107,-0.0030542362947016954
0.12801600992679596,-0.23389841616153717,9.842875480651855,0.003359660040587187,0.0035123717971146107,-0.00259610079228878
0.12203395366668701,-0.22791635990142822,9.838089942932129,0.0036650835536420345,0.003359660040587187,-0.0024433890357613564
0.13280165195465088,-0.21774685382843018,9.842875480651855,0.003970507066696882,0.0029015245381742716,-0.002748812548816204
0.11126625537872314,-0.22791635990142822,9.846465110778809,0.004734066314995289,0.003359660040587187,-0.0030542362947016954
0.12741780281066895,-0.2267199456691742,9.842875480651855,0.004428642801940441,0.0029015245381742716,-0.0018325417768210173
0.12442677468061447,-0.2189432680606842,9.857233047485352,0.004428642801940441,0.0038177953101694584,-0.001985253533348441
0.12622138857841492,-0.23030917346477509,9.835697174072266,0.004275931045413017,0.0029015245381742716,-0.0024433890357613564
0.11066804826259613,-0.22971096634864807,9.863214492797852,0.004123218823224306,0.00259610079228878,-0.0015271181473508477
0.12263216078281403,-0.2225325107574463,9.827920913696289,0.004886778071522713,0.0036650835536420345,-0.0032069480512291193
0.1381855010986328,-0.21595224738121033,9.863214492797852,0.004581354558467865,0.003359660040587187,-0.0035123717971146107
0.11724831163883209,-0.23210379481315613,9.814760208129883,0.004428642801940441,0.004581354558467865,-0.0018325417768210173
0.11485548317432404,-0.22612173855304718,9.89133071899414,0.004275931045413017,0.0021379655227065086,-0.0024433890357613564
0.12442677468061447,-0.22432711720466614,9.850054740905762,0.004886778071522713,0.00519220158457756,-0.0032069480512291193
0.11066804826259613,-0.23330020904541016,9.856635093688965,0.003359660040587187,0.0012216945178806782,-0.00259610079228878
0.12263216078281403,-0.21595224738121033,9.846465110778809,0.004123218823224306,0.002748812548816204,-0.0029015245381742716
0.10648060590028763,-0.2231307178735733,9.850054740905762,0.0035123717971146107,0.0022906772792339325,-0.0024433890357613564
0.12203395366668701,-0.23688943684101105,9.859625816345215,0.004734066314995289,0.003359660040587187,-0.00259610079228878
0.11066804826259613,-0.23449662327766418,9.845269203186035,0.004734066314995289,0.0021379655227065086,-0.0035123717971146107
0.12442677468061447,-0.23030917346477509,9.855438232421875,0.00519220158457756,0.0036650835536420345,-0.0022906772792339325
0.11425728350877762,-0.22971096634864807,9.844670295715332,0.0038177953101694584,0.0029015245381742716,-0.00259610079228878
0.13100704550743103,-0.22911277413368225,9.835697174072266,0.0036650835536420345,0.0032069480512291193,-0.0029015245381742716
0.11904292553663254,-0.22013968229293823,9.846465110778809,0.005344913341104984,0.004123218823224306,-0.0036650835536420345
0.12741780281066895,-0.2273181527853012,9.849455833435059,0.0038177953101694584,0.0032069480512291193,-0.0029015245381742716
0.12502498924732208,-0.21774685382843018,9.828518867492676,0.004886778071522713,0.0050394898280501366,-0.002748812548816204
0.1339980661869049,-0.22791635990142822,9.886545181274414,0.0036650835536420345,-0.00015271181473508477,-0.0024433890357613564
0.12083754688501358,-0.2273181527853012,9.831509590148926,0.0035123717971146107,0.003970507066696882,-0.0024433890357613564
0.13160525262355804,-0.21954147517681122,9.846465110778809,0.0035123717971146107,0.0012216945178806782,-0.002748812548816204
0.12442677468061447,-0.243469700217247,9.869196891784668,-0.013591351918876171,-0.04443913698196411,-0.0022906772792339325
0.11665010452270508,-0.21176479756832123,9.78843879699707,0.01817270554602146,0.04550812020897865,-0.004275931045413017
0.0975075215101242,-0.21236300468444824,9.752547264099121,0.00030542362947016954,-0.00916270911693573,-0.0029015245381742716
0.11605189740657806,-0.22971096634864807,9.792028427124023,0.006261184345930815,0.01038440316915512,-0.0022906772792339325
0.1339980661869049,-0.2273181527853012,9.902098655700684,0.004123218823224306,0.0016798300202935934,-0.0036650835536420345
0.12203395366668701,-0.2225325107574463,9.817152976989746,0.007330167107284069,0.012827792204916477,-0.0022906772792339325
0.1010967567563057,-0.21774685382843018,9.81117057800293,0.0029015245381742716,0.0015271181473508477,-0.0035123717971146107
0.12203395366668701,-0.2147558331489563,9.866804122924805,0.0050394898280501366,0.005344913341104984,-0.00259610079228878
0.12263216078281403,-0.22133609652519226,9.832108497619629,0.005344913341104984,0.007330167107284069,-0.0036650835536420345
0.11545369029045105,-0.22432711720466614,9.859027862548828,0.004275931045413017,0.0016798300202935934,-0.0021379655227065086
0.13040883839130402,-0.23330020904541016,9.856036186218262,0.0050394898280501366,0.007635590620338917,-0.0018325417768210173
0.11066804826259613,-0.23808585107326508,9.864411354064941,0.003970507066696882,0.0021379655227065086,-0.0021379655227065086
0.11964113265275955,-0.2225325107574463,9.853643417358398,0.004734066314995289,0.004123218823224306,-0.0030542362947016954
0.11904292553663254,-0.2183450609445572,9.845867156982422,0.0038177953101694584,0.0030542362947016954,0.0
0.12143574655056,-0.22013968229293823,9.841081619262695,0.0038177953101694584,0.0035123717971146107,0.0
0.11665010452270508,-0.24047867953777313,9.847661972045898,0.004581354558467865,0.003970507066696882,0.0
0.12382857501506805,-0.22911277413368225,9.865009307861328,0.0050394898280501366,0.0029015245381742716,0.0
0.11485548317432404,-0.23030917346477509,9.862616539001465,0.003359660040587187,0.0022906772792339325,0.0
0.12801600992679596,-0.22133609652519226,9.855438232421875,0.00519220158457756,0.003359660040587187,0.0
0.1136590763926506,-0.2267199456691742,9.839884757995605,0.004581354558467865,0.0035123717971146107,0.0
0.12323036789894104,-0.22911277413368225,9.853045463562012,0.004428642801940441,0.00259610079228878,0.0
0.1256231814622879,-0.22073788940906525,9.844072341918945,0.004428642801940441,0.002748812548816204,0.0
0.11724831163883209,-0.23389841616153717,9.852447509765625,0.0035123717971146107,0.0035123717971146107,0.0
0.12083754688501358,-0.2315055876970291,9.848857879638672,0.0035123717971146107,0.0032069480512291193,0.0
0.11724831163883209,-0.22492532432079315,9.847063064575195,0.004123218823224306,0.0038177953101694584,0.0
0.12382857501506805,-0.23210379481315613,9.841081619262695,0.0038177953101694584,0.005344913341104984,0.0
0.12681959569454193,-0.22791635990142822,9.846465110778809,0.0038177953101694584,0.002748812548816204,0.0
0.1136590763926506,-0.23389841616153717,9.861420631408691,0.004734066314995289,0.0030542362947016954,0.0
0.12143574655056,-0.22193430364131927,9.842875480651855,0.0035123717971146107,0.002748812548816204,0.0
0.11964113265275955,-0.22133609652519226,9.837491989135742,0.004581354558467865,0.0024433890357613564,0.0
0.14057832956314087,-0.23270200192928314,9.841081619262695,0.004428642801940441,0.0038177953101694584,0.0
0.13160525262355804,-0.23030917346477509,9.839884757995605,0.004428642801940441,0.0021379655227065086,0.0
0.10468599200248718,-0.21296121180057526,9.842875480651855,0.004886778071522713,0.0032069480512291193,0.0
0.11485548317432404,-0.21296121180057526,9.864411354064941,0.0035123717971146107,0.0038177953101694584,0.0
0.11844471842050552,-0.2315055876970291,9.854840278625488,0.003970507066696882,0.0021379655227065086,0.0
0.15074782073497772,-0.22013968229293823,9.847661972045898,0.004734066314995289,0.001985253533348441,0.0
0.12023933976888657,-0.22492532432079315,9.860223770141602,0.004581354558467865,0.0035123717971146107,0.0
0.12203395366668701,-0.23449662327766418,9.845867156982422,0.0035123717971146107,0.0036650835536420345,0.0
0.12382857501506805,-0.22791635990142822,9.863214492797852,0.0038177953101694584,0.0030542362947016954,0.0
0.12143574655056,-0.23688943684101105,9.857233047485352,0.004123218823224306,0.0030542362947016954,0.0
0.12442677468061447,-0.22552353143692017,9.866206169128418,0.004275931045413017,0.0035123717971146107,0.0
0.12203395366668701,-0.23210379481315613,9.853045463562012,0.0038177953101694584,0.0030542362947016954,0.0
0.1333998590707779,-0.22851456701755524,9.844072341918945,0.004123218823224306,0.0029015245381742716,0.0
0.12203395366668701,-0.24406790733337402,9.851848602294922,0.0036650835536420345,0.0035123717971146107,0.0
0.13878370821475983,-0.22372891008853912,9.862616539001465,0.004581354558467865,0.004428642801940441,0.0
0.11844471842050552,-0.21774685382843018,9.847661972045898,0.004886778071522713,0.003359660040587187,0.0
0.12622138857841492,-0.22193430364131927,9.845867156982422,0.004275931045413017,0.00259610079228878,0.0
0.12502498924732208,-0.22372891008853912,9.847661972045898,0.003970507066696882,0.003359660040587187,0.0
0.12861421704292297,-0.2315055876970291,9.861420631408691,0.004886778071522713,0.0024433890357613564,0.0
0.11724831163883209,-0.23688943684101105,9.851848602294922,0.004734066314995289,0.0035123717971146107,0.0
0.12023933976888657,-0.22612173855304718,9.844072341918945,0.004428642801940441,0.0029015245381742716,0.0
0.13998012244701385,-0.2273181527853012,9.847661972045898,0.004886778071522713,0.0030542362947016954,0.0
0.13280165195465088,-0.2225325107574463,9.850652694702148,0.004581354558467865,0.002748812548816204,0.0
0.12442677468061447,-0.22013968229293823,9.860223770141602,0.004428642801940441,0.00259610079228878,0.0
0.14117653667926788,-0.23270200192928314,9.859027862548828,0.004275931045413017,0.002748812548816204,0.0
0.13100704550743103,-0.22851456701755524,9.841679573059082,0.004886778071522713,0.0029015245381742716,0.0
0.11246266216039658,-0.22432711720466614,9.841679573059082,0.004123218823224306,0.0036650835536420345,0.0
0.11724831163883209,-0.22791635990142822,9.860223770141602,0.0036650835536420345,0.0029015245381742716,0.0
0.12442677468061447,-0.2350948303937912,9.851848602294922,0.003970507066696882,0.0030542362947016954,0.0
0.129810631275177,-0.2356930375099182,9.857233047485352,0.00519220158457756,0.0029015245381742716,0.0
0.11724831163883209,-0.2231307178735733,9.843474388122559,0.005955760832875967,0.0035123717971146107,0.0
0.1256231814622879,-0.22372891008853912,9.860821723937988,0.0050394898280501366,0.0035123717971146107,0.0
0.12263216078281403,-0.22133609652519226,9.845269203186035,0.004734066314995289,0.0035123717971146107,0.0
0.12203395366668701,-0.22911277413368225,9.862018585205078,0.004734066314995289,0.0021379655227065086,0.0
0.12203395366668701,-0.21655045449733734,9.847661972045898,0.0050394898280501366,0.0035123717971146107,0.0
0.11964113265275955,-0.23389841616153717,9.849455833435059,0.004123218823224306,0.0032069480512291193,0.0
0.11844471842050552,-0.21655045449733734,9.841081619262695,0.0038177953101694584,0.0038177953101694584,0.0
0.1094716340303421,-0.2273181527853012,9.844670295715332,0.00519220158457756,0.0029015245381742716,0.0
0.12382857501506805,-0.23330020904541016,9.852447509765625,0.004734066314995289,0.0035123717971146107,0.0
0.13160525262355804,-0.22612173855304718,9.866804122924805,0.0038177953101694584,0.00259610079228878,0.0
0.13100704550743103,-0.2267199456691742,9.857831001281738,0.003970507066696882,0.0024433890357613564,0.0
0.12681959569454193,-0.22552353143692017,9.873384475708008,0.004123218823224306,0.0035123717971146107,0.0
0.31345975399017334,-0.26500511169433594,10.783853530883789,0.016492875292897224,0.036192700266838074,0.0
-0.08853443711996078,-0.15314064919948578,9.32722282409668,0.24556060135364532,0.6213843822479248,-0.018630841746926308
0.18364913761615753,-0.31824541091918945,11.58544921875,-0.40071579813957214,-1.1567920446395874,0.025655584409832954
0.914058268070221,-0.38225340843200684,12.139387130737305,-0.19409671425819397,-0.60825115442276,0.013285927474498749
0.21355941891670227,-0.26141586899757385,11.09192943572998,0.31886225938796997,0.9909469485282898,-0.024586603045463562
-0.4612165689468384,-0.061016976833343506,6.971488952636719,-0.049020491540431976,-0.13469181954860687,0.0016798300202935934
0.04366901144385338,-0.20757736265659332,10.040284156799316,0.23410721123218536,0.7162184119224548,-0.017561858519911766
-0.38225340843200684,-0.06939185410737991,7.247859954833984,0.09895725548267365,0.2516690790653229,-0.009468132629990578
-0.06939185410737991,-0.1824527233839035,8.936594009399414,-0.13087402284145355,-0.36757734417915344,0.0065666078589856625
0.13100704550743103,-0.22013968229293823,10.331011772155762,0.19180603325366974,0.5070032477378845,-0.015576604753732681
-0.27397820353507996,-0.11066804826259613,8.053643226623535,0.14553436636924744,0.3694098889827728,-0.011300674639642239
-0.13100704550743103,-0.21355941891670227,9.29312515258789,-0.31199023127555847,-0.8530482053756714,0.019241688773036003
0.778863787651062,-0.389431893825531,12.17647647857666,0.04443913698196411,0.1178935244679451,-0.005955760832875967
-0.39122650027275085,-0.08374879509210587,7.276573657989502,0.17974179983139038,0.46393850445747375,-0.013744063675403595
-0.37507495284080505,-0.07776673883199692,7.303493022918701,-0.07452336698770523,-0.2026485800743103,0.002748812548816204
0.672383189201355,-0.35533416271209717,11.779866218566895,-0.06734590977430344,-0.22754059731960297,0.0030542362947016954
0.4127618968486786,-0.26979073882102966,11.190633773803711,0.13453911244869232,0.4181249439716339,-0.012064233422279358
-0.24047867953777313,-0.13040883839130402,7.993224143981934,-0.05497625470161438,-0.15897299349308014,0.001985253533348441
0.2949153780937195,-0.28235307335853577,10.87298583984375,-0.12644538283348083,-0.40193748474121094,0.006108472589403391
0.08434699475765228,-0.22432711720466614,9.847063064575195,0.10888352245092392,0.3315373361110687,-0.00916270911693573
-0.1621137410402298,-0.14356936514377594,8.313263893127441,0.0261137206107378,0.06429167091846466,-0.004886778071522713
0.355932354927063,-0.24945175647735596,10.858031272888184,-0.017409147694706917,-0.0656660795211792,-0.0015271181473508477
0.15972091257572174,-0.23629122972488403,10.00857925415039,0.05925218388438225,0.17745113372802734,-0.006413896102458239
0.0933200865983963,-0.22133609652519226,9.792028427124023,-0.037108972668647766,-0.1238492801785469,-0.00015271181473508477
0.12382857501506805,-0.2350948303937912,9.934401512145996,0.03405473381280899,0.09666658192873001,-0.004275931045413017
0.029312077909708023,-0.19322042167186737,9.390632629394531,0.013438640162348747,0.03161134570837021,-0.001985253533348441
0.1866401731967926,-0.2548356056213379,10.15753173828125,0.0010689827613532543,-0.009620844386518002,-0.0021379655227065086
0.11246266216039658,-0.24227328598499298,9.824331283569336,0.0198525357991457,0.052990999072790146,-0.003970507066696882
0.13220344483852386,-0.22552353143692017,9.93260669708252,-0.008246437646448612,-0.0325276181101799,-0.0018325417768210173
0.11186445504426956,-0.21296121180057526,9.769296646118164,0.012369656935334206,0.02733541466295719,-0.00259610079228878
0.09870393574237823,-0.22073788940906525,9.759725570678711,0.0022906772792339325,-0.00519220158457756,-0.002748812548816204
0.11186445504426956,-0.21954147517681122,9.829715728759766,0.0015271181473508477,-0.005344913341104984,-0.0030542362947016954
0.13459627330303192,-0.2309073805809021,9.853045463562012,0.007330167107284069,0.01038440316915512,-0.003359660040587187
0.11844471842050552,-0.22492532432079315,9.820143699645996,0.0050394898280501366,0.004123218823224306,-0.0021379655227065086
0.0729810893535614,-0.23808585107326508,9.686744689941406,0.005497625097632408,0.003970507066696882,-0.0015271181473508477
0.4713860750198364,-0.3122633695602417,10.996216773986816,0.015576604753732681,0.0456608310341835,-0.0035123717971146107
0.28175488114356995,-0.268594354391098,10.584650993347168,0.04214845970273018,0.12125317752361298,-0.00519220158457756
-0.020937198773026466,-0.20817556977272034,9.192625999450684,0.058183200657367706,0.1682884246110916,-0.005955760832875967
0.22971096634864807,-0.24167509377002716,10.394421577453613,-0.0328330397605896,-0.11315945535898209,-0.0
0.2225325107574463,-0.2386840581893921,10.25743293762207,0.025808297097682953,0.0662769302725792,-0.003359660040587187
0.07178468257188797,-0.21415762603282928,9.589237213134766,-0.01252236869186163,-0.04871506989002228,-0.001374406274408102
0.18843477964401245,-0.24885354936122894,10.186843872070312,-0.012064233422279358,-0.05024218559265137,-0.0009162708884105086
0.08015955984592438,-0.21415762603282928,9.616155624389648,0.015271181240677834,0.037108972668647766,-0.0032069480512291193
0.11126625537872314,-0.23210379481315613,9.76989459991455,-0.007941014133393764,-0.0325276181101799,-0.00259610079228878
0.12681959569454193,-0.22492532432079315,9.867402076721191,0.013133215717971325,0.031916771084070206,-0.0035123717971146107
0.1417747437953949,-0.20757736265659332,9.869196891784668,-0.0016798300202935934,-0.017867282032966614,-0.0021379655227065086
0.12203395366668701,-0.22432711720466614,9.810572624206543,0.009009997360408306,0.018019994720816612,-0.002748812548816204
0.1339980661869049,-0.23270200192928314,9.903892517089844,0.0016798300202935934,-0.005344913341104984,-0.0032069480512291193
0.129810631275177,-0.24047867953777313,9.886545181274414,0.006413896102458239,0.008704573847353458,-0.0024433890357613564
0.11605189740657806,-0.2315055876970291,9.834501266479492,0.002748812548816204,-0.0007635590736754239,-0.0018325417768210173
0.1136590763926506,-0.21714866161346436,9.842277526855469,0.0035123717971146107,0.0036650835536420345,-0.0032069480512291193
0.12203395366668701,-0.2225325107574463,9.847661972045898,0.004123218823224306,0.0030542362947016954,-0.0032069480512291193
0.11246266216039658,-0.22432711720466614,9.865009307861328,0.004428642801940441,0.004123218823224306,-0.0030542362947016954
0.12023933976888657,-0.22133609652519226,9.877572059631348,0.004428642801940441,0.0021379655227065086,-0.0022906772792339325
0.12921242415905,-0.2105683982372284,9.851250648498535,0.005650337319821119,0.0038177953101694584,-0.0024433890357613564
0.11904292553663254,-0.22492532432079315,9.860821723937988,0.0038177953101694584,0.0021379655227065086,-0.0024433890357613564
0.12323036789894104,-0.22552353143692017,9.851848602294922,0.00519220158457756,0.004123218823224306,-0.003359660040587187
0.12203395366668701,-0.23330020904541016,9.841679573059082,0.004275931045413017,0.0022906772792339325,-0.00259610079228878
0.12323036789894104,-0.23330020904541016,9.857831001281738,0.004428642801940441,0.002748812548816204,-0.0024433890357613564
0.12203395366668701,-0.2267199456691742,9.832706451416016,0.004428642801940441,0.004428642801940441,-0.00259610079228878
0.11904292553663254,-0.2153540402650833,9.848259925842285,0.004581354558467865,0.002748812548816204,-0.0029015245381742716
0.11126625537872314,-0.2356930375099182,9.858428955078125,0.004581354558467865,0.0021379655227065086,-0.0015271181473508477
0.11724831163883209,-0.2267199456691742,9.850054740905762,0.004123218823224306,0.0035123717971146107,-0.00259610079228878
0.11545369029045105,-0.22432711720466614,9.857831001281738,0.004275931045413017,0.004123218823224306,-0.002748812548816204
0.12622138857841492,-0.22133609652519226,9.878170013427734,0.0038177953101694584,0.0035123717971146107,-0.0029015245381742716
0.13100704550743103,-0.23988047242164612,9.862616539001465,0.0032069480512291193,0.0022906772792339325,-0.0021379655227065086
0.12083754688501358,-0.2392822653055191,9.853643417358398,0.004428642801940441,0.0029015245381742716,-0.0030542362947016954
0.11545369029045105,-0.2309073805809021,9.856036186218262,0.004123218823224306,0.0035123717971146107,-0.0029015245381742716
0.11904292553663254,-0.22612173855304718,9.844072341918945,0.004123218823224306,0.0035123717971146107,-0.0024433890357613564
0.13519448041915894,-0.2315055876970291,9.856036186218262,0.004123218823224306,0.00259610079228878,-0.0029015245381742716
0.11724831163883209,-0.24406790733337402,9.850652694702148,0.0050394898280501366,0.0035123717971146107,-0.002748812548816204
0.13220344483852386,-0.2231307178735733,9.90987491607666,0.004734066314995289,0.00519220158457756,-0.0022906772792339325
0.10767702013254166,-0.22372891008853912,9.719047546386719,0.0036650835536420345,0.004123218823224306,-0.0024433890357613564
0.11844471842050552,-0.23808585107326508,9.862018585205078,0.009773556143045425,0.0198525357991457,-0.0021379655227065086
0.13579268753528595,-0.24287149310112,9.91107177734375,0.010078979656100273,0.021379653364419937,-0.0035123717971146107
0.11425728350877762,-0.21595224738121033,9.884750366210938,0.020005248486995697,0.04932591691613197,-0.0036650835536420345
0.09631111472845078,-0.2153540402650833,9.850054740905762,0.02076880633831024,0.049173206090927124,-0.0038177953101694584
0.07836493849754333,-0.19980068504810333,9.66221809387207,0.008551862090826035,0.013896775431931019,-0.00259610079228878
0.19621145725250244,-0.24287149310112,10.219147682189941,-0.017561858519911766,-0.06322269141674042,-0.0012216945178806782
0.09152546525001526,-0.2105683982372284,9.670592308044434,0.012980503961443901,0.027946261689066887,-0.0038177953101694584
0.12681959569454193,-0.2309073805809021,9.867402076721191,0.01038440316915512,0.02351761981844902,-0.0036650835536420345
0.13280165195465088,-0.21954147517681122,9.868000984191895,-0.0006108472589403391,-0.013896775431931019,-0.0030542362947016954
0.11066804826259613,-0.22372891008853912,9.8207426071167,0.0024433890357613564,-0.00030542362947016954,-0.002748812548816204
0.11306086927652359,-0.2231307178735733,9.830313682556152,0.002748812548816204,-0.0030542362947016954,-0.002748812548816204
0.14117653667926788,-0.23629122972488403,9.936196327209473,0.06933116167783737,0.18569757044315338,-0.006719320081174374
0.33798620104789734,-0.2626122832298279,11.0171537399292,0.13805148005485535,0.36070531606674194,-0.011911521665751934
0.06759724020957947,-0.2027917206287384,10.05703353881836,0.14935214817523956,0.37322768568992615,-0.011453386396169662
-0.2709871530532837,-0.08434699475765228,8.300702095031738,-0.06139015033841133,-0.15744587779045105,0.0016798300202935934
-0.20458634197711945,-0.10289137065410614,8.47298526763916,-0.29290124773979187,-0.8128849864006042,0.01847812905907631
-0.040677983313798904,-0.20518454909324646,9.513862609863281,0.21593450009822845,0.6484143733978271,-0.016645587980747223
-0.06999006122350693,-0.19800607860088348,9.136993408203125,-0.1557660549879074,-0.4486673176288605,0.007482878863811493
0.2554338276386261,-0.26979073882102966,10.59960651397705,-0.09407047927379608,-0.2990097403526306,0.003970507066696882
-0.08614161610603333,-0.18424734473228455,8.81934642791748,0.0030542362947016954,-0.00030542362947016954,-0.0029015245381742716
0.27337998151779175,-0.2626122832298279,10.542776107788086,0.004581354558467865,0.004886778071522713,-0.0016798300202935934
0.07776673883199692,-0.21714866161346436,9.680164337158203,0.045202698558568954,0.12888877093791962,-0.005344913341104984
0.16869398951530457,-0.24047867953777313,10.055837631225586,-0.025502873584628105,-0.08780929446220398,-0.0021379655227065086
0.08315058797597885,-0.22552353143692017,9.688538551330566,0.025197450071573257,0.06642963737249374,-0.0032069480512291193
0.06939185410737991,-0.21176479756832123,9.598808288574219,-0.0004581354442052543,-0.013133215717971325,-0.0021379655227065086
0.14715859293937683,-0.23808585107326508,9.994820594787598,0.010231691412627697,0.021532366052269936,-0.002748812548816204
0.10707881301641464,-0.22612173855304718,9.78664493560791,-0.0016798300202935934,-0.016034740954637527,-0.0024433890357613564
0.12083754688501358,-0.2147558331489563,9.896116256713867,0.00916270911693573,0.019241688773036003,-0.0029015245381742716
0.12263216078281403,-0.21415762603282928,9.865009307861328,-0.00015271181473508477,-0.010842538438737392,-0.00259610079228878
0.14057832956314087,-0.2309073805809021,9.910472869873047,0.003970507066696882,0.0021379655227065086,-0.0024433890357613564
0.12263216078281403,-0.22971096634864807,9.815957069396973,0.0030542362947016954,0.0010689827613532543,-0.00259610079228878
0.12921242415905,-0.22432711720466614,9.833903312683105,0.006261184345930815,0.007177455350756645,-0.0032069480512291193
0.13040883839130402,-0.2225325107574463,9.882357597351074,0.004123218823224306,0.0004581354442052543,-0.0029015245381742716
0.13040883839130402,-0.23808585107326508,9.848259925842285,0.004734066314995289,0.003359660040587187,-0.0022906772792339325
0.12143574655056,-0.2183450609445572,9.857233047485352,0.004581354558467865,0.004428642801940441,-0.0032069480512291193
0.11964113265275955,-0.2183450609445572,9.850054740905762,0.004275931045413017,0.005344913341104984,-0.0021379655227065086
0.12681959569454193,-0.22971096634864807,9.851250648498535,0.0038177953101694584,0.004734066314995289,-0.002748812548816204
0.13220344483852386,-0.23330020904541016,9.842277526855469,0.004123218823224306,0.0024433890357613564,-0.00259610079228878
0.11844471842050552,-0.22372891008853912,9.859027862548828,0.0030542362947016954,0.0029015245381742716,-0.00259610079228878
0.12323036789894104,-0.2350948303937912,9.866804122924805,0.004734066314995289,0.0032069480512291193,-0.001985253533348441
0.1178465187549591,-0.22193430364131927,9.841679573059082,0.0050394898280501366,0.0016798300202935934,-0.003359660040587187
0.11724831163883209,-0.22791635990142822,9.839884757995605,0.004581354558467865,0.002748812548816204,-0.0030542362947016954
0.11724831163883209,-0.22971096634864807,9.857233047485352,0.004734066314995289,0.002748812548816204,-0.0032069480512291193
0.12681959569454193,-0.23210379481315613,9.871589660644531,0.0050394898280501366,0.0032069480512291193,-0.002748812548816204
0.1339980661869049,-0.21415762603282928,9.863214492797852,0.004428642801940441,0.001985253533348441,-0.002748812548816204
0.12143574655056,-0.2231307178735733,9.848259925842285,0.004428642801940441,0.0030542362947016954,-0.0024433890357613564
0.12263216078281403,-0.23389841616153717,9.850652694702148,0.0038177953101694584,0.0024433890357613564,-0.0021379655227065086
0.1453639715909958,-0.23270200192928314,10.085747718811035,0.03771981969475746,0.10201149433851242,-0.005344913341104984
0.059820566326379776,-0.20039889216423035,9.539586067199707,-0.007941014133393764,-0.029778804630041122,-0.0022906772792339325
0.14297115802764893,-0.2356930375099182,9.994221687316895,-0.01175880990922451,-0.045202698558568954,-0.0015271181473508477
0.13160525262355804,-0.22372891008853912,9.915258407592773,0.00030542362947016954,-0.009468132629990578,-0.0032069480512291193
0.10169496387243271,-0.2273181527853012,9.841679573059082,0.0050394898280501366,0.004886778071522713,-0.0024433890357613564
0.11904292553663254,-0.2350948303937912,9.834501266479492,0.001985253533348441,-0.0007635590736754239,-0.00259610079228878
0.13998012244701385,-0.22492532432079315,9.859625816345215,0.0029015245381742716,0.0021379655227065086,-0.003359660040587187
0.12861421704292297,-0.22911277413368225,9.861420631408691,0.004581354558467865,0.002748812548816204,-0.0018325417768210173
0.05144568532705307,-0.19980068504810333,9.481559753417969,0.08460234850645065,0.23746687173843384,-0.006108472589403391
-0.07118647545576096,-0.16091732680797577,8.980263710021973,0.013744063675403595,0.030695075169205666,-0.004428642801940441
0.030508488416671753,-0.20039889216423035,9.477372169494629,-0.062153708189725876,-0.18004722893238068,0.0009162708884105086
0.2560320198535919,-0.2584248483181,10.546963691711426,-0.05024218559265137,-0.16156910359859467,0.0004581354442052543
0.06520441919565201,-0.19621145725250244,9.57069206237793,0.022601349279284477,0.05726693198084831,-0.0036650835536420345
0.09032905846834183,-0.21954147517681122,9.678967475891113,-0.00916270911693573,-0.03695625811815262,-0.0021379655227065086
0.13998012244701385,-0.24466611444950104,9.919445991516113,0.014660334214568138,0.03542914241552353,-0.0024433890357613564
0.09092725813388824,-0.19980068504810333,9.665806770324707,0.00992626789957285,0.018630841746926308,-0.003359660040587187
0.11545369029045105,-0.22971096634864807,9.854242324829102,-0.00519220158457756,-0.024586603045463562,-0.0018325417768210173
0.13519448041915894,-0.22552353143692017,9.968499183654785,0.0030542362947016954,-0.002748812548816204,-0.0029015245381742716
0.10408778488636017,-0.2231307178735733,9.760921478271484,0.004275931045413017,0.00030542362947016954,-0.0024433890357613564
0.12921242415905,-0.22372891008853912,9.90149974822998,-0.0006108472589403391,-0.01038440316915512,-0.001985253533348441
0.1136590763926506,-0.21595224738121033,9.803394317626953,0.0065666078589856625,0.010842538438737392,-0.0024433890357613564
0.12861421704292297,-0.2309073805809021,9.832706451416016,0.0012216945178806782,-0.0032069480512291193,-0.0032069480512291193
0.12263216078281403,-0.23748764395713806,9.861420631408691,0.006108472589403391,0.008551862090826035,-0.0022906772792339325
0.12622138857841492,-0.2273181527853012,9.865608215332031,0.00259610079228878,-0.0012216945178806782,-0.0022906772792339325
0.12023933976888657,-0.23210379481315613,9.842277526855469,0.0038177953101694584,0.005955760832875967,-0.002748812548816204
0.129810631275177,-0.2267199456691742,9.870393753051758,0.002748812548816204,0.0022906772792339325,-0.00259610079228878
0.12622138857841492,-0.22791635990142822,9.844670295715332,0.0050394898280501366,0.0036650835536420345,-0.0021379655227065086
0.12203395366668701,-0.2267199456691742,9.857233047485352,0.004734066314995289,0.0029015245381742716,-0.00259610079228878
0.12203395366668701,-0.22492532432079315,9.848857879638672,0.004275931045413017,0.0021379655227065086,-0.0036650835536420345
0.15972091257572174,-0.2231307178735733,10.001998901367188,0.008093725889921188,0.009315420873463154,-0.002748812548816204
0.08374879509210587,-0.21236300468444824,9.634700775146484,-0.011911521665751934,-0.04337015375494957,-0.0021379655227065086
