accX,accY,accZ,gyroX,gyroY,gyroZ
-0.19200000166893005,-0.04800000041723251,9.832050323486328,0.0006874999962747097,-0.0012374999932944775,-0.00013749999925494194
-0.19200000166893005,-0.05700000375509262,9.835050582885742,0.0006874999962747097,-0.0,-0.0013749999925494194
-0.1969500035047531,-0.06705000251531601,9.826950073242188,-0.0004124999977648258,-0.0012374999932944775,-0.0013749999925494194
-0.20400001108646393,-0.06405000388622284,9.847050666809082,-0.0004124999977648258,-0.002474999986588955,-0.0013749999925494194
-0.18900001049041748,-0.06000000238418579,9.829950332641602,-0.0004124999977648258,-0.002474999986588955,-0.0013749999925494194
-0.208950012922287,-0.08595000207424164,9.832050323486328,-0.0004124999977648258,-0.0012374999932944775,-0.0013749999925494194
-0.20100000500679016,-0.05505000427365303,9.849000930786133,0.0006874999962747097,-0.002474999986588955,-0.00013749999925494194
-0.1969500035047531,-0.05700000375509262,9.813000679016113,0.0006874999962747097,-0.0012374999932944775,-0.0013749999925494194
-0.21105000376701355,-0.06405000388622284,9.856050491333008,-0.0004124999977648258,-0.0012374999932944775,-0.00013749999925494194
-0.19905000925064087,-0.0690000057220459,9.808050155639648,0.0006874999962747097,-0.002474999986588955,-0.00013749999925494194
-0.20400001108646393,-0.06405000388622284,9.862950325012207,-0.0004124999977648258,-0.0,0.0009624999947845936
-0.20400001108646393,-0.06405000388622284,9.805950164794922,0.0019249999895691872,-0.002474999986588955,-0.00013749999925494194
-0.19395001232624054,-0.07395000010728836,9.865950584411621,-0.0016499999910593033,-0.0,-0.00013749999925494194
-0.1870500147342682,-0.06195000186562538,9.808050155639648,0.0019249999895691872,-0.0012374999932944775,-0.00013749999925494194
-0.20100000500679016,-0.06405000388622284,9.868050575256348,-0.0004124999977648258,-0.0,-0.00013749999925494194
-0.20100000500679016,-0.0499500036239624,9.808050155639648,0.0006874999962747097,-0.0,-0.00013749999925494194
-0.18195000290870667,-0.07395000010728836,9.820050239562988,0.0006874999962747097,-0.0012374999932944775,-0.00013749999925494194
-0.20100000500679016,-0.05700000375509262,9.861000061035156,0.0006874999962747097,0.0012374999932944775,0.0009624999947845936
-0.1870500147342682,-0.05505000427365303,9.853950500488281,0.0006874999962747097,-0.0012374999932944775,-0.00013749999925494194
-0.20400001108646393,-0.0690000057220459,9.804000854492188,0.0006874999962747097,-0.0012374999932944775,-0.00013749999925494194
-0.19905000925064087,-0.0690000057220459,9.859050750732422,0.0019249999895691872,-0.0,-0.00013749999925494194
-0.21105000376701355,-0.04305000230669975,9.838950157165527,0.0006874999962747097,-0.0,-0.00013749999925494194
-0.20595000684261322,-0.05295000225305557,9.835050582885742,0.0006874999962747097,-0.0012374999932944775,-0.00013749999925494194
-0.1969500035047531,-0.05700000375509262,9.829950332641602,0.0019249999895691872,-0.002474999986588955,-0.00013749999925494194
-0.18900001049041748,-0.06000000238418579,9.880050659179688,-0.0016499999910593033,0.0012374999932944775,-0.0013749999925494194
-0.1969500035047531,-0.06195000186562538,9.826950073242188,0.0019249999895691872,-0.0,-0.00013749999925494194
-0.19395001232624054,-0.07395000010728836,9.844050407409668,0.0006874999962747097,-0.0,-0.00013749999925494194
-0.19905000925064087,-0.06195000186562538,9.793950080871582,0.0019249999895691872,-0.002474999986588955,-0.00013749999925494194
-0.19200000166893005,-0.07395000010728836,9.8899507522583,0.0006874999962747097,-0.0,-0.00013749999925494194
-0.2160000056028366,-0.0690000057220459,9.838950157165527,-0.0004124999977648258,-0.0012374999932944775,-0.00013749999925494194
-0.1969500035047531,-0.0690000057220459,9.832050323486328,-0.0004124999977648258,-0.002474999986588955,-0.00013749999925494194
-0.18495000898838043,-0.06705000251531601,9.838950157165527,-0.0004124999977648258,-0.0012374999932944775,-0.00013749999925494194
-0.18495000898838043,-0.05505000427365303,9.826950073242188,0.0006874999962747097,-0.0012374999932944775,-0.00013749999925494194
-0.19395001232624054,-0.04800000041723251,9.885000228881836,-0.0004124999977648258,-0.0,-0.00013749999925494194
-0.19200000166893005,-0.05295000225305557,9.825000762939453,-0.0004124999977648258,0.0012374999932944775,-0.00013749999925494194
-0.20400001108646393,-0.0690000057220459,9.820050239562988,0.0006874999962747097,-0.002474999986588955,-0.00013749999925494194
-0.21105000376701355,-0.06195000186562538,9.849000930786133,-0.0016499999910593033,-0.0,-0.00013749999925494194
-0.1969500035047531,-0.05700000375509262,9.814950942993164,0.0006874999962747097,-0.0012374999932944775,-0.00013749999925494194
-0.1969500035047531,-0.05505000427365303,9.865950584411621,0.0006874999962747097,-0.0,-0.00013749999925494194
-0.1969500035047531,-0.04800000041723251,9.829950332641602,-0.0004124999977648258,-0.0012374999932944775,-0.00013749999925494194
-0.19395001232624054,-0.06405000388622284,9.847050666809082,-0.0004124999977648258,-0.0012374999932944775,-0.00013749999925494194
-0.21105000376701355,-0.06000000238418579,9.844050407409668,0.0006874999962747097,-0.0,-0.00013749999925494194
-0.19905000925064087,-0.0690000057220459,9.841950416564941,0.0006874999962747097,-0.0,-0.00013749999925494194
-0.19395001232624054,-0.05505000427365303,9.850950241088867,0.0006874999962747097,-0.0012374999932944775,-0.00013749999925494194
-0.19200000166893005,-0.05700000375509262,9.835050582885742,0.0006874999962747097,-0.0012374999932944775,-0.00013749999925494194
-0.20100000500679016,-0.06405000388622284,9.837000846862793,-0.0004124999977648258,-0.0,0.0009624999947845936
-0.2659500241279602,-0.040950000286102295,10.029000282287598,0.0006874999962747097,-0.018424998968839645,-0.00013749999925494194
-0.08400000631809235,-0.12000000476837158,9.660000801086426,-0.004124999977648258,-0.01718750037252903,-0.00013749999925494194
-0.18195000290870667,-0.07905000448226929,9.969000816345215,-0.011412499472498894,-0.01952499896287918,-0.00013749999925494194
-0.19395001232624054,-0.0499500036239624,9.724950790405273,0.015399999916553497,0.04881250113248825,-0.0013749999925494194
-0.17805001139640808,-0.07605000585317612,9.946950912475586,-0.0028874999843537807,0.0012374999932944775,-0.00013749999925494194
-0.20400001108646393,-0.05700000375509262,9.805950164794922,-0.0016499999910593033,-0.0,-0.00013749999925494194
-0.2160000056028366,-0.06405000388622284,9.904050827026367,-0.0028874999843537807,0.0012374999932944775,-0.00013749999925494194
-0.22500000894069672,-0.037950001657009125,9.793950080871582,0.0006874999962747097,-0.002474999986588955,0.0009624999947845936
-0.27105000615119934,-0.037950001657009125,9.868050575256348,-0.0004124999977648258,0.0012374999932944775,-0.00013749999925494194
-0.20400001108646393,-0.06000000238418579,9.841950416564941,-0.0004124999977648258,-0.0,-0.00013749999925494194
-0.1870500147342682,-0.0690000057220459,9.835050582885742,0.0006874999962747097,-0.0012374999932944775,-0.00013749999925494194
-0.20100000500679016,-0.04500000178813934,9.853950500488281,0.0006874999962747097,-0.0,-0.00013749999925494194
-0.1969500035047531,-0.06405000388622284,9.838950157165527,0.0006874999962747097,-0.0,-0.0013749999925494194
-0.19905000925064087,-0.04800000041723251,9.847050666809082,0.0006874999962747097,0.0012374999932944775,-0.00013749999925494194
-0.19905000925064087,-0.07905000448226929,9.837000846862793,0.0006874999962747097,-0.0,-0.00013749999925494194
-0.20595000684261322,-0.05295000225305557,9.859050750732422,0.0006874999962747097,0.0012374999932944775,-0.00013749999925494194
-0.19200000166893005,-0.06000000238418579,9.844050407409668,0.0006874999962747097,-0.0012374999932944775,-0.00013749999925494194
-0.19905000925064087,-0.05505000427365303,9.835050582885742,0.0006874999962747097,-0.0,-0.00013749999925494194
-0.1969500035047531,-0.06000000238418579,9.859050750732422,-0.0004124999977648258,-0.0,-0.00013749999925494194
-0.20595000684261322,-0.04800000041723251,9.832050323486328,0.0006874999962747097,-0.0,-0.00013749999925494194
-0.11505000293254852,-0.08100000023841858,9.25005054473877,0.0019249999895691872,0.013337500393390656,-0.0013749999925494194
-0.027000000700354576,-0.05700000375509262,8.87505054473877,0.0019249999895691872,-0.06228749826550484,0.0009624999947845936
-0.18000000715255737,-0.05295000225305557,9.576000213623047,0.012924999929964542,-0.010999999940395355,-0.00013749999925494194
-0.22500000894069672,-0.10305000841617584,10.062000274658203,-0.009074999950826168,-0.018424998968839645,-0.00013749999925494194
-0.20400001108646393,-0.0499500036239624,9.837000846862793,-0.0016499999910593033,0.00976249948143959,-0.0013749999925494194
-0.208950012922287,-0.08400000631809235,9.838950157165527,-0.0004124999977648258,-0.0,-0.00013749999925494194
-0.19200000166893005,-0.07395000010728836,9.849000930786133,-0.0004124999977648258,-0.0012374999932944775,-0.0013749999925494194
-0.18495000898838043,-0.05505000427365303,9.825000762939453,0.0006874999962747097,-0.0,-0.00013749999925494194
-0.16995000839233398,-0.08595000207424164,9.859050750732422,-0.0004124999977648258,-0.0012374999932944775,0.0009624999947845936
-0.19200000166893005,-0.06705000251531601,9.832050323486328,-0.0004124999977648258,-0.0012374999932944775,-0.00013749999925494194
-0.18495000898838043,-0.07905000448226929,9.829950332641602,0.0008249999955296516,-0.0012374999932944775,-0.00013749999925494194
-0.19905000925064087,-0.06000000238418579,9.859050750732422,-0.0004124999977648258,-0.0,-0.00013749999925494194
-0.19395001232624054,-0.06195000186562538,9.847050666809082,0.0008249999955296516,-0.0012374999932944775,0.0009624999947845936
-0.19395001232624054,-0.06405000388622284,9.832050323486328,0.0008249999955296516,-0.0,-0.00013749999925494194
-0.19395001232624054,-0.06195000186562538,9.847050666809082,0.0008249999955296516,-0.0,-0.00013749999925494194
-0.20595000684261322,-0.05700000375509262,9.859050750732422,-0.0004124999977648258,-0.0,-0.0013749999925494194
-0.208950012922287,-0.04500000178813934,9.856050491333008,0.0008249999955296516,-0.0,-0.00013749999925494194
-0.19905000925064087,-0.06000000238418579,9.856050491333008,0.0008249999955296516,-0.0012374999932944775,-0.00013749999925494194
-0.208950012922287,-0.06405000388622284,9.837000846862793,0.0008249999955296516,-0.0,-0.00013749999925494194
-0.19905000925064087,-0.0499500036239624,9.814950942993164,0.0008249999955296516,0.002337499987334013,-0.00013749999925494194
-0.18900001049041748,-0.04500000178813934,9.844050407409668,0.0019249999895691872,0.002337499987334013,0.002199999988079071
-0.22095000743865967,0.034950003027915955,9.523050308227539,-0.020075000822544098,-0.08552499860525131,0.0034374999813735485
-0.3949500322341919,0.05400000140070915,9.780000686645508,0.05211250111460686,0.09033749997615814,-0.002612499985843897
-0.024000000208616257,-0.15495000779628754,9.6739501953125,-0.0028874999843537807,-0.0,0.0009624999947845936
-0.24705001711845398,-0.012000000104308128,9.700950622558594,0.0019249999895691872,-0.01966249942779541,-0.00013749999925494194
-0.3360000252723694,-0.0499500036239624,10.16295051574707,0.008112499490380287,0.042762499302625656,-0.0013749999925494194
-0.16095000505447388,-0.06000000238418579,9.69105052947998,-0.007837500423192978,-0.018424998968839645,-0.00013749999925494194
-0.20595000684261322,-0.05295000225305557,9.72195053100586,0.0056374999694526196,-0.00494999997317791,-0.00013749999925494194
-0.18495000898838043,-0.04500000178813934,9.844050407409668,-0.0016499999910593033,-0.0,-0.00013749999925494194
-0.20100000500679016,-0.06000000238418579,9.745950698852539,0.0019249999895691872,-0.002474999986588955,-0.00013749999925494194
-0.2179500162601471,-0.07200000435113907,9.868050575256348,-0.0004124999977648258,-0.002474999986588955,-0.00013749999925494194
-0.19395001232624054,-0.07200000435113907,9.844050407409668,-0.0016499999910593033,-0.0,-0.00013749999925494194
-0.18900001049041748,-0.05295000225305557,9.844050407409668,0.0008249999955296516,-0.0,-0.00013749999925494194
-0.13905000686645508,-0.07200000435113907,9.69105052947998,-0.01759999990463257,-0.0635249987244606,0.0009624999947845936
-0.25905001163482666,-0.028950002044439316,9.910950660705566,0.010587500408291817,0.020762499421834946,-0.0013749999925494194
-0.16095000505447388,-0.06000000238418579,9.72195053100586,0.008112499490380287,0.014574999921023846,-0.00013749999925494194
-0.21105000376701355,-0.07605000585317612,9.95205020904541,-0.0028874999843537807,0.00976249948143959,-0.00013749999925494194
-0.3330000042915344,0.09000000357627869,9.825000762939453,0.0019249999895691872,0.0012374999932944775,-0.0013749999925494194
-0.16095000505447388,-0.08595000207424164,9.829950332641602,0.0019249999895691872,0.0012374999932944775,-0.00013749999925494194
-0.22305001318454742,-0.06405000388622284,9.811050415039062,0.0006874999962747097,-0.0012374999932944775,-0.00013749999925494194
-0.1870500147342682,-0.06195000186562538,9.844050407409668,0.0006874999962747097,-0.0,-0.00013749999925494194
-0.2179500162601471,-0.06195000186562538,9.853950500488281,-0.0004124999977648258,-0.0012374999932944775,-0.00013749999925494194
-0.19395001232624054,-0.06405000388622284,9.844050407409668,-0.0004124999977648258,-0.0,-0.00013749999925494194
-0.208950012922287,-0.06405000388622284,9.847050666809082,-0.0004124999977648258,0.0012374999932944775,-0.00013749999925494194
-0.19395001232624054,-0.04500000178813934,9.826950073242188,0.0006874999962747097,-0.0012374999932944775,-0.00013749999925494194
-0.19200000166893005,-0.05700000375509262,9.847050666809082,-0.0004124999977648258,-0.0,-0.00013749999925494194
-0.1870500147342682,-0.0499500036239624,9.835050582885742,0.0006874999962747097,-0.0,-0.00013749999925494194
-0.19905000925064087,-0.06705000251531601,9.850950241088867,0.0006874999962747097,-0.0,-0.00013749999925494194
-0.19200000166893005,-0.06405000388622284,9.865950584411621,-0.0004124999977648258,0.0012374999932944775,-0.00013749999925494194
-0.21105000376701355,-0.04500000178813934,9.861000061035156,-0.0004124999977648258,0.0012374999932944775,-0.00013749999925494194
-0.19905000925064087,-0.06000000238418579,9.835050582885742,0.0006874999962747097,-0.0,-0.00013749999925494194
-0.1969500035047531,-0.06000000238418579,9.841950416564941,0.0006874999962747097,-0.0,-0.00013749999925494194
-0.20100000500679016,-0.07200000435113907,9.844050407409668,0.0006874999962747097,-0.0012374999932944775,-0.00013749999925494194
-0.21105000376701355,-0.0690000057220459,9.865950584411621,-0.0004124999977648258,-0.0,-0.00013749999925494194
-0.1969500035047531,-0.06705000251531601,9.853950500488281,-0.0004124999977648258,-0.0,-0.00013749999925494194
-0.1969500035047531,-0.05700000375509262,9.841950416564941,-0.0004124999977648258,-0.0,-0.00013749999925494194
-0.1969500035047531,-0.05505000427365303,9.841950416564941,0.0006874999962747097,-0.0,-0.00013749999925494194
-0.18495000898838043,-0.05505000427365303,9.850950241088867,-0.0004124999977648258,-0.002474999986588955,0.0009624999947845936
-0.19200000166893005,-0.05505000427365303,9.838950157165527,-0.0004124999977648258,-0.0012374999932944775,-0.00013749999925494194
-0.1969500035047531,-0.06405000388622284,9.847050666809082,0.0006874999962747097,-0.0012374999932944775,-0.0013749999925494194
-0.20100000500679016,-0.0499500036239624,9.861000061035156,0.0006874999962747097,-0.0,-0.00013749999925494194
-0.1969500035047531,-0.05700000375509262,9.837000846862793,0.0006874999962747097,-0.0,-0.00013749999925494194
-0.20100000500679016,-0.07605000585317612,9.853950500488281,0.0006874999962747097,0.0012374999932944775,-0.00013749999925494194
-0.1969500035047531,-0.06000000238418579,9.841950416564941,-0.0004124999977648258,-0.0012374999932944775,-0.00013749999925494194
-0.20400001108646393,-0.05295000225305557,9.849000930786133,0.0008249999955296516,-0.0,-0.00013749999925494194
-0.20100000500679016,-0.06705000251531601,9.844050407409668,0.0008249999955296516,-0.0,-0.00013749999925494194
-0.19395001232624054,-0.0499500036239624,9.835050582885742,0.0008249999955296516,-0.0,-0.00013749999925494194
-0.18900001049041748,-0.06195000186562538,9.853950500488281,0.0008249999955296516,0.002337499987334013,0.0009624999947845936
-0.19200000166893005,-0.04305000230669975,9.850950241088867,0.0019249999895691872,0.0010999999940395355,-0.00013749999925494194
-0.1969500035047531,-0.06000000238418579,9.847050666809082,0.0008249999955296516,-0.0,0.0009624999947845936
-0.2160000056028366,-0.06405000388622284,9.861000061035156,0.0008249999955296516,0.0010999999940395355,-0.00013749999925494194
-0.20595000684261322,-0.05505000427365303,9.859050750732422,0.0019249999895691872,0.004812499973922968,-0.00013749999925494194
-0.208950012922287,-0.05295000225305557,9.849000930786133,0.006874999962747097,0.014574999921023846,-0.00013749999925494194
-0.2160000056028366,-0.05505000427365303,9.8899507522583,0.006874999962747097,0.0170499999076128,0.0009624999947845936
-0.1660500019788742,-0.08595000207424164,10.153050422668457,-0.013887500390410423,-0.01347499992698431,0.0009624999947845936
-0.15105000138282776,-0.05295000225305557,9.646050453186035,-0.01759999990463257,-0.035475000739097595,0.0009624999947845936
-0.25905001163482666,-0.040950000286102295,9.825000762939453,0.015399999916553497,0.02186249941587448,-0.00013749999925494194
-0.17805001139640808,-0.09300000220537186,9.877950668334961,-0.010174999944865704,-0.01347499992698431,-0.0013749999925494194
-0.33105000853538513,-0.06405000388622284,9.784050941467285,0.0008249999955296516,-0.0037124999798834324,-0.0013749999925494194
-0.14205001294612885,-0.07200000435113907,9.871050834655762,-0.0004124999977648258,-0.0,-0.00013749999925494194
-0.21300001442432404,-0.05295000225305557,9.862950325012207,-0.0028874999843537807,-0.0,-0.00013749999925494194
-0.18495000898838043,-0.06405000388622284,9.787050247192383,0.0008249999955296516,-0.002474999986588955,-0.00013749999925494194
-0.21105000376701355,-0.06405000388622284,9.849000930786133,-0.0004124999977648258,-0.0012374999932944775,-0.00013749999925494194
-0.20595000684261322,-0.06000000238418579,9.825000762939453,0.0008249999955296516,-0.002474999986588955,-0.00013749999925494194
-0.18900001049041748,-0.06705000251531601,9.841950416564941,-0.0016499999910593033,-0.002474999986588955,0.0009624999947845936
-0.20100000500679016,-0.06405000388622284,9.825000762939453,0.0008249999955296516,-0.002474999986588955,0.0009624999947845936
-0.18195000290870667,-0.06705000251531601,9.877950668334961,-0.0004124999977648258,-0.0037124999798834324,-0.0013749999925494194
-0.17505000531673431,-0.06705000251531601,9.789000511169434,-0.0004124999977648258,-0.002474999986588955,-0.00013749999925494194
-0.19395001232624054,-0.07395000010728836,9.847050666809082,-0.0004124999977648258,-0.002474999986588955,-0.00013749999925494194
-0.19905000925064087,-0.06705000251531601,9.820050239562988,0.0008249999955296516,-0.0012374999932944775,-0.00013749999925494194
-0.19905000925064087,-0.06195000186562538,9.861000061035156,-0.0016499999910593033,-0.0012374999932944775,-0.00013749999925494194
-0.20400001108646393,-0.04800000041723251,9.829950332641602,-0.0004124999977648258,-0.0,-0.00013749999925494194
-0.19200000166893005,-0.07605000585317612,9.829950332641602,0.0008249999955296516,-0.0012374999932944775,-0.00013749999925494194
-0.20100000500679016,-0.05700000375509262,9.841950416564941,-0.0004124999977648258,-0.002474999986588955,-0.0013749999925494194
-0.18900001049041748,-0.06000000238418579,9.856050491333008,-0.0004124999977648258,-0.0012374999932944775,-0.00013749999925494194
-0.18900001049041748,-0.06195000186562538,9.841950416564941,0.0008249999955296516,-0.0,-0.0013749999925494194
-0.19905000925064087,-0.06000000238418579,9.844050407409668,0.0008249999955296516,-0.0,-0.00013749999925494194
-0.1969500035047531,-0.06405000388622284,9.861000061035156,-0.0004124999977648258,-0.0,-0.00013749999925494194
-0.19395001232624054,-0.0499500036239624,9.829950332641602,0.0008249999955296516,-0.0,-0.00013749999925494194
-0.20595000684261322,-0.06000000238418579,9.849000930786133,0.0008249999955296516,-0.0012374999932944775,0.0009624999947845936
-0.20100000500679016,-0.06000000238418579,9.849000930786133,0.0008249999955296516,-0.0012374999932944775,-0.00013749999925494194
-0.20595000684261322,-0.05295000225305557,9.856050491333008,0.0008249999955296516,-0.0,-0.00013749999925494194
-0.20100000500679016,-0.0690000057220459,9.844050407409668,0.0008249999955296516,-0.0012374999932944775,-0.00013749999925494194
-0.208950012922287,-0.06195000186562538,9.838950157165527,0.0008249999955296516,-0.0012374999932944775,-0.00013749999925494194
-0.20400001108646393,-0.04305000230669975,9.844050407409668,0.0008249999955296516,-0.0012374999932944775,-0.00013749999925494194
-0.1969500035047531,-0.07200000435113907,9.844050407409668,0.0008249999955296516,-0.0,-0.00013749999925494194
-0.19200000166893005,-0.07605000585317612,9.862950325012207,0.0008249999955296516,0.0010999999940395355,-0.00013749999925494194
-0.1870500147342682,-0.0499500036239624,9.849000930786133,-0.0004124999977648258,-0.0,-0.00013749999925494194
-0.19395001232624054,-0.04800000041723251,9.844050407409668,-0.0004124999977648258,-0.0012374999932944775,-0.00013749999925494194
-0.19395001232624054,-0.05505000427365303,9.850950241088867,-0.0004124999977648258,-0.0,0.0009624999947845936
-0.1870500147342682,-0.06195000186562538,9.841950416564941,0.0008249999955296516,-0.0,-0.00013749999925494194
-0.19905000925064087,-0.04305000230669975,9.850950241088867,0.0008249999955296516,0.0010999999940395355,-0.00013749999925494194
-0.18900001049041748,-0.06000000238418579,9.826950073242188,0.0008249999955296516,-0.0,-0.00013749999925494194
-0.19905000925064087,-0.06405000388622284,9.862950325012207,0.0008249999955296516,0.0010999999940395355,-0.00013749999925494194
-0.1969500035047531,-0.04800000041723251,9.826950073242188,0.0008249999955296516,0.0010999999940395355,0.0009624999947845936
-0.208950012922287,-0.040950000286102295,9.837000846862793,-0.004124999977648258,0.002337499987334013,0.0009624999947845936
-0.18900001049041748,-0.037950001657009125,9.67905044555664,0.009349999949336052,0.00976249948143959,-0.00013749999925494194
-0.17295001447200775,-0.0690000057220459,9.775050163269043,0.0019249999895691872,-0.0012374999932944775,0.0009624999947845936
-0.2160000056028366,-0.06195000186562538,9.837000846862793,-0.0028874999843537807,-0.010999999940395355,-0.0013749999925494194
-0.20400001108646393,-0.05295000225305557,9.853950500488281,-0.0004124999977648258,-0.0037124999798834324,-0.0013749999925494194
-0.11505000293254852,-0.10305000841617584,9.835050582885742,0.0008249999955296516,-0.0012374999932944775,-0.00013749999925494194
-0.208950012922287,-0.04800000041723251,9.868050575256348,-0.0004124999977648258,-0.0,-0.0013749999925494194
-0.19905000925064087,-0.05505000427365303,9.844050407409668,0.0008249999955296516,-0.0012374999932944775,-0.00013749999925494194
-0.20595000684261322,-0.06195000186562538,9.847050666809082,0.0008249999955296516,-0.0012374999932944775,-0.00013749999925494194
-0.21105000376701355,-0.04500000178813934,9.835050582885742,0.0008249999955296516,-0.0012374999932944775,-0.00013749999925494194
-0.18900001049041748,-0.06195000186562538,9.853950500488281,-0.0004124999977648258,-0.0012374999932944775,-0.00013749999925494194
-0.20400001108646393,-0.05700000375509262,9.837000846862793,-0.0004124999977648258,-0.0012374999932944775,-0.00013749999925494194
-0.19395001232624054,-0.0690000057220459,9.844050407409668,-0.0004124999977648258,-0.0,-0.00013749999925494194
-0.20100000500679016,-0.0690000057220459,9.829950332641602,-0.0016499999910593033,-0.01347499992698431,-0.00013749999925494194
-0.2160000056028366,-0.05700000375509262,9.916050910949707,0.0056374999694526196,0.01952499896287918,-0.00013749999925494194
-0.19200000166893005,-0.06000000238418579,9.865950584411621,-0.0016499999910593033,-0.0012374999932944775,-0.00013749999925494194
-0.1680000126361847,-0.04305000230669975,9.787050247192383,0.0008249999955296516,-0.0012374999932944775,-0.00013749999925494194
-0.19200000166893005,-0.04500000178813934,9.841950416564941,-0.0004124999977648258,-0.0012374999932944775,0.0009624999947845936
-0.04305000230669975,-0.05700000375509262,9.856050491333008,-0.0004124999977648258,-0.0012374999932944775,-0.00013749999925494194
-0.24900001287460327,-0.05505000427365303,9.844050407409668,0.0008249999955296516,-0.0012374999932944775,-0.00013749999925494194
-0.1969500035047531,-0.05700000375509262,9.849000930786133,0.0008249999955296516,-0.0,-0.00013749999925494194
-0.21105000376701355,-0.0499500036239624,9.835050582885742,-0.0004124999977648258,-0.0,-0.00013749999925494194
-0.20400001108646393,-0.06705000251531601,9.837000846862793,-0.0004124999977648258,-0.0012374999932944775,-0.00013749999925494194
-0.18495000898838043,-0.07395000010728836,9.784050941467285,0.0008249999955296516,-0.002474999986588955,-0.00013749999925494194
-0.18195000290870667,-0.04500000178813934,9.832050323486328,0.0019249999895691872,-0.002474999986588955,-0.00013749999925494194
-0.208950012922287,-0.05295000225305557,9.865950584411621,-0.0004124999977648258,0.0010999999940395355,-0.00013749999925494194
-0.20100000500679016,-0.06405000388622284,9.871050834655762,-0.0004124999977648258,-0.0,-0.00013749999925494194
-0.20100000500679016,-0.05505000427365303,9.850950241088867,-0.0004124999977648258,-0.0012374999932944775,-0.00013749999925494194
-0.19395001232624054,-0.06195000186562538,9.841950416564941,-0.0004124999977648258,-0.0012374999932944775,0.0009624999947845936
-0.19200000166893005,-0.06705000251531601,9.832050323486328,-0.0004124999977648258,-0.0012374999932944775,-0.00013749999925494194
-0.19905000925064087,-0.06000000238418579,9.832050323486328,0.0008249999955296516,-0.0,-0.00013749999925494194
-0.20400001108646393,-0.06195000186562538,9.853950500488281,0.0008249999955296516,-0.0,-0.00013749999925494194
-0.1969500035047531,-0.0690000057220459,9.838950157165527,-0.0004124999977648258,-0.002474999986588955,0.0009624999947845936
-0.20595000684261322,-0.05295000225305557,9.844050407409668,-0.0004124999977648258,-0.0012374999932944775,-0.00013749999925494194
-0.1969500035047531,-0.06705000251531601,9.829950332641602,0.0008249999955296516,-0.0012374999932944775,-0.00013749999925494194
-0.20100000500679016,-0.0690000057220459,9.817950248718262,0.0008249999955296516,-0.0,-0.00013749999925494194
-0.17805001139640808,-0.06195000186562538,9.829950332641602,-0.0004124999977648258,-0.002474999986588955,-0.00013749999925494194
-0.20100000500679016,-0.05295000225305557,9.835050582885742,0.0008249999955296516,-0.0012374999932944775,-0.0013749999925494194
-0.19905000925064087,-0.05700000375509262,9.853950500488281,-0.0004124999977648258,-0.0,-0.00013749999925494194
-0.20400001108646393,-0.04305000230669975,9.850950241088867,-0.0004124999977648258,-0.0,-0.00013749999925494194
-0.18900001049041748,-0.06705000251531601,9.844050407409668,-0.0004124999977648258,-0.0012374999932944775,-0.00013749999925494194
-0.18495000898838043,-0.05700000375509262,9.853950500488281,-0.0004124999977648258,-0.0,-0.00013749999925494194
-0.208950012922287,-0.05295000225305557,9.871050834655762,-0.0004124999977648258,-0.0,-0.00013749999925494194
-0.19200000166893005,-0.07905000448226929,9.823050498962402,0.0008249999955296516,-0.0,-0.00013749999925494194
-0.18900001049041748,-0.05295000225305557,9.871050834655762,-0.0004124999977648258,-0.0012374999932944775,0.0009624999947845936
-0.19200000166893005,-0.06000000238418579,9.825000762939453,-0.0004124999977648258,-0.0,-0.00013749999925494194
-0.19905000925064087,-0.06195000186562538,9.862950325012207,-0.0004124999977648258,-0.0012374999932944775,-0.00013749999925494194
-0.1969500035047531,-0.06000000238418579,9.832050323486328,-0.0004124999977648258,-0.0012374999932944775,-0.00013749999925494194
-0.19905000925064087,-0.05700000375509262,9.849000930786133,-0.0004124999977648258,-0.0012374999932944775,-0.00013749999925494194
-0.18195000290870667,-0.06705000251531601,9.849000930786133,-0.0004124999977648258,-0.0,-0.00013749999925494194
-0.19200000166893005,-0.06705000251531601,9.838950157165527,0.0008249999955296516,-0.0,-0.00013749999925494194
-0.19905000925064087,-0.05295000225305557,9.859050750732422,-0.0004124999977648258,-0.0,-0.00013749999925494194
-0.1969500035047531,-0.0690000057220459,9.850950241088867,-0.0004124999977648258,-0.0012374999932944775,-0.00013749999925494194
-0.19905000925064087,-0.04500000178813934,9.837000846862793,0.0008249999955296516,-0.0,-0.00013749999925494194
-0.18495000898838043,-0.0690000057220459,9.829950332641602,0.0006874999962747097,-0.0,-0.0013749999925494194
-0.20100000500679016,-0.07200000435113907,9.861000061035156,-0.0004124999977648258,-0.0012374999932944775,-0.00013749999925494194
-0.1969500035047531,-0.04800000041723251,9.829950332641602,0.0006874999962747097,-0.0012374999932944775,-0.00013749999925494194
-0.1969500035047531,-0.06705000251531601,9.853950500488281,-0.0004124999977648258,-0.0012374999932944775,-0.00013749999925494194
-0.20100000500679016,-0.06195000186562538,9.849000930786133,-0.0004124999977648258,-0.0012374999932944775,-0.00013749999925494194
-0.1969500035047531,-0.05295000225305557,9.835050582885742,0.0006874999962747097,-0.0,-0.00013749999925494194
-0.1969500035047531,-0.06000000238418579,9.856050491333008,-0.0004124999977648258,-0.0,-0.00013749999925494194
-0.20595000684261322,-0.04800000041723251,9.835050582885742,-0.0004124999977648258,-0.0012374999932944775,-0.00013749999925494194
-0.1969500035047531,-0.07395000010728836,9.853950500488281,-0.0004124999977648258,-0.0,-0.0013749999925494194
-0.20400001108646393,-0.06705000251531601,9.844050407409668,0.0006874999962747097,-0.0,-0.00013749999925494194
-0.2179500162601471,-0.0690000057220459,9.850950241088867,-0.0004124999977648258,-0.0012374999932944775,-0.00013749999925494194
-0.19395001232624054,-0.0690000057220459,9.835050582885742,0.0006874999962747097,-0.0,-0.00013749999925494194
-0.19200000166893005,-0.06405000388622284,9.804000854492188,0.0006874999962747097,0.0012374999932944775,-0.00013749999925494194
-0.3450000286102295,0.021000001579523087,9.861000061035156,0.023924998939037323,0.037812501192092896,-0.0013749999925494194
-0.24195000529289246,-0.06705000251531601,10.045050621032715,0.0006874999962747097,0.0012374999932944775,-0.00013749999925494194
-0.20100000500679016,-0.08100000023841858,10.069050788879395,-0.012649999931454659,-0.015949999913573265,0.0009624999947845936
-0.22500000894069672,-0.06705000251531601,9.895050048828125,-0.0028874999843537807,-0.00494999997317791,-0.00013749999925494194
-0.20595000684261322,-0.06000000238418579,9.909000396728516,-0.0004124999977648258,0.0035749999806284904,-0.00013749999925494194
-0.13695000112056732,-0.10005000233650208,9.849000930786133,-0.0016499999910593033,-0.0012374999932944775,-0.00013749999925494194
-0.15600000321865082,-0.028950002044439316,9.853950500488281,-0.0016499999910593033,-0.0012374999932944775,0.0009624999947845936
-0.12495000660419464,-0.08100000023841858,9.877950668334961,-0.0004124999977648258,-0.0,-0.00013749999925494194
-0.22305001318454742,-0.06405000388622284,9.850950241088867,0.0006874999962747097,-0.0012374999932944775,-0.00013749999925494194
-0.18495000898838043,-0.06405000388622284,9.862950325012207,0.0006874999962747097,-0.0,-0.00013749999925494194
-0.20595000684261322,-0.06195000186562538,9.847050666809082,0.0006874999962747097,-0.0,-0.00013749999925494194
-0.18195000290870667,-0.06705000251531601,9.859050750732422,0.0006874999962747097,-0.0012374999932944775,-0.00013749999925494194
-0.20595000684261322,-0.0499500036239624,9.853950500488281,0.0006874999962747097,-0.0,-0.00013749999925494194
-0.1870500147342682,-0.06405000388622284,9.850950241088867,-0.0004124999977648258,-0.0012374999932944775,-0.00013749999925494194
-0.1969500035047531,-0.0499500036239624,9.841950416564941,0.0008249999955296516,-0.00013749999925494194,-0.00013749999925494194
-0.20100000500679016,-0.06000000238418579,9.853950500488281,0.0008249999955296516,-0.0012374999932944775,-0.00013749999925494194
-0.20595000684261322,-0.0690000057220459,9.849000930786133,0.0008249999955296516,-0.00013749999925494194,-0.00013749999925494194
-0.1969500035047531,-0.06195000186562538,9.847050666809082,-0.0004124999977648258,-0.0012374999932944775,-0.00013749999925494194
-0.20100000500679016,-0.06705000251531601,9.838950157165527,-0.0004124999977648258,-0.0012374999932944775,-0.00013749999925494194
-0.21300001442432404,-0.05700000375509262,9.850950241088867,0.0008249999955296516,-0.0012374999932944775,-0.00013749999925494194
-0.18195000290870667,-0.05295000225305557,9.841950416564941,0.0008249999955296516,-0.00013749999925494194,-0.0013749999925494194
-0.17505000531673431,-0.0690000057220459,9.72705078125,0.0008249999955296516,0.0010999999940395355,-0.00013749999925494194
-0.22995001077651978,-0.05700000375509262,9.921000480651855,-0.0004124999977648258,-0.008662499487400055,-0.00013749999925494194
-0.17805001139640808,-0.06195000186562538,9.780000686645508,-0.0016499999910593033,-0.0037124999798834324,-0.00013749999925494194
-0.1969500035047531,-0.05295000225305557,9.6670503616333,0.0008249999955296516,-0.00989999994635582,-0.00013749999925494194
-0.2350500077009201,-0.07905000448226929,9.99000072479248,-0.004124999977648258,-0.00494999997317791,-0.00013749999925494194
-0.1969500035047531,-0.07905000448226929,9.874950408935547,-0.004124999977648258,-0.0037124999798834324,0.0010999999940395355
-0.036000002175569534,-0.12195000797510147,9.856050491333008,-0.0004124999977648258,-0.002474999986588955,-0.00013749999925494194
-0.2179500162601471,-0.0499500036239624,9.817950248718262,0.0008249999955296516,-0.002474999986588955,-0.00013749999925494194
-0.18900001049041748,-0.07905000448226929,9.849000930786133,-0.0004124999977648258,-0.0012374999932944775,-0.00013749999925494194
-0.208950012922287,-0.06000000238418579,9.838950157165527,-0.0004124999977648258,-0.0012374999932944775,-0.00013749999925494194
-0.20400001108646393,-0.07605000585317612,9.835050582885742,0.0008249999955296516,-0.00013749999925494194,-0.00013749999925494194
-0.19905000925064087,-0.05295000225305557,9.844050407409668,-0.0004124999977648258,-0.00013749999925494194,-0.00013749999925494194
-0.19905000925064087,-0.0499500036239624,9.849000930786133,0.0008249999955296516,-0.00013749999925494194,-0.00013749999925494194
-0.20595000684261322,-0.05505000427365303,9.865950584411621,-0.0004124999977648258,-0.00013749999925494194,-0.00013749999925494194
-0.1969500035047531,-0.06195000186562538,9.838950157165527,0.0008249999955296516,-0.00013749999925494194,-0.00013749999925494194
-0.19395001232624054,-0.06195000186562538,9.853950500488281,0.0008249999955296516,-0.0012374999932944775,-0.00013749999925494194
-0.19905000925064087,-0.05700000375509262,9.829950332641602,-0.0004124999977648258,-0.00013749999925494194,-0.00013749999925494194
-0.2350500077009201,-0.016950000077486038,9.906000137329102,-0.009074999950826168,-0.06476250290870667,0.0010999999940395355
-0.25200000405311584,-0.040950000286102295,9.847050666809082,0.015399999916553497,0.04152499884366989,-0.00013749999925494194
-0.13005000352859497,-0.0880500078201294,9.777000427246094,-0.004124999977648258,-0.01718750037252903,0.0010999999940395355
-0.22995001077651978,-0.040950000286102295,9.904050827026367,0.0008249999955296516,0.035337500274181366,-0.0013749999925494194
-0.21300001442432404,-0.0499500036239624,9.856050491333008,0.004399999976158142,0.006049999967217445,-0.00013749999925494194
-0.1870500147342682,-0.0499500036239624,9.814950942993164,-0.0004124999977648258,-0.0012374999932944775,-0.00013749999925494194
-0.20100000500679016,-0.06195000186562538,9.825000762939453,0.0019249999895691872,0.0010999999940395355,-0.00013749999925494194
-0.09600000083446503,-0.16305001080036163,9.832050323486328,-0.0004124999977648258,-0.0012374999932944775,0.0010999999940395355
-0.27105000615119934,-0.0070500001311302185,9.772050857543945,0.0008249999955296516,-0.002474999986588955,-0.00013749999925494194
-0.19395001232624054,-0.07605000585317612,9.853950500488281,-0.0004124999977648258,-0.00013749999925494194,-0.00013749999925494194
-0.20595000684261322,-0.07200000435113907,9.832050323486328,-0.0004124999977648258,-0.00013749999925494194,-0.00013749999925494194
-0.19905000925064087,-0.05700000375509262,9.865950584411621,-0.0004124999977648258,-0.00013749999925494194,-0.00013749999925494194
-0.18900001049041748,-0.040950000286102295,9.849000930786133,0.0008249999955296516,-0.00013749999925494194,-0.00013749999925494194
-0.1969500035047531,-0.06405000388622284,9.844050407409668,-0.0004124999977648258,-0.00013749999925494194,-0.00013749999925494194
-0.20100000500679016,-0.04500000178813934,9.847050666809082,0.0008249999955296516,-0.00013749999925494194,-0.00013749999925494194
-0.21105000376701355,-0.06000000238418579,9.844050407409668,-0.0004124999977648258,-0.00013749999925494194,-0.00013749999925494194
-0.21105000376701355,-0.025950001552700996,9.859050750732422,-0.006599999964237213,-0.04895000159740448,0.0010999999940395355
-0.2569500207901001,-0.024000000208616257,9.841950416564941,0.017875000834465027,0.03904999792575836,-0.0013749999925494194
-0.10605000704526901,-0.10005000233650208,9.804000854492188,-0.007837500423192978,-0.02199999988079071,0.0010999999940395355
-0.22995001077651978,-0.040950000286102295,9.853950500488281,0.0019249999895691872,0.030524998903274536,-0.00013749999925494194
-0.19395001232624054,-0.06000000238418579,9.763050079345703,0.0056374999694526196,0.0010999999940395355,-0.00013749999925494194
-0.2160000056028366,-0.012000000104308128,9.909000396728516,-0.0016499999910593033,-0.00013749999925494194,-0.00013749999925494194
-0.20100000500679016,-0.07200000435113907,9.837000846862793,-0.0004124999977648258,-0.00013749999925494194,-0.00013749999925494194
-0.19905000925064087,-0.04800000041723251,9.853950500488281,0.0008249999955296516,0.0010999999940395355,-0.00013749999925494194
-0.19395001232624054,-0.06000000238418579,9.823050498962402,0.0008249999955296516,-0.00013749999925494194,-0.00013749999925494194
-0.18195000290870667,-0.05700000375509262,9.871050834655762,-0.0004124999977648258,-0.00013749999925494194,-0.00013749999925494194
-0.19200000166893005,-0.07605000585317612,9.838950157165527,0.0008249999955296516,-0.00013749999925494194,0.0010999999940395355
-0.19395001232624054,-0.0499500036239624,9.862950325012207,0.0008249999955296516,-0.0012374999932944775,-0.00013749999925494194
-0.20595000684261322,-0.06195000186562538,9.862950325012207,0.0008249999955296516,0.0010999999940395355,-0.00013749999925494194
-0.19200000166893005,-0.06000000238418579,9.826950073242188,0.0008249999955296516,-0.0,-0.00013749999925494194
-0.20100000500679016,-0.0499500036239624,9.898950576782227,-0.0004124999977648258,0.002337499987334013,-0.00013749999925494194
-0.18000000715255737,-0.06000000238418579,9.796050071716309,0.0008249999955296516,-0.0012374999932944775,-0.00013749999925494194
-0.20400001108646393,-0.0690000057220459,9.877950668334961,-0.0004124999977648258,-0.0,-0.00013749999925494194
-0.20595000684261322,-0.06405000388622284,9.826950073242188,0.0008249999955296516,-0.0,-0.00013749999925494194
-0.20595000684261322,-0.05505000427365303,9.856050491333008,-0.0004124999977648258,0.0010999999940395355,-0.00013749999925494194
-0.1969500035047531,-0.06405000388622284,9.835050582885742,0.0019249999895691872,-0.0,-0.00013749999925494194
-0.19905000925064087,-0.05295000225305557,9.850950241088867,0.0019249999895691872,0.0010999999940395355,-0.00013749999925494194
-0.1969500035047531,-0.05505000427365303,9.844050407409668,0.0008249999955296516,-0.0,-0.00013749999925494194
-0.20595000684261322,-0.06405000388622284,10.102950096130371,-0.012649999931454659,-0.00494999997317791,0.0009624999947845936
-0.22305001318454742,-0.031050002202391624,9.808050155639648,0.006874999962747097,0.01952499896287918,-0.00013749999925494194
-0.208950012922287,-0.05505000427365303,9.787050247192383,0.006874999962747097,0.01209999993443489,-0.00013749999925494194
-0.26100000739097595,-0.05700000375509262,9.94005012512207,0.0008249999955296516,-0.002474999986588955,-0.00013749999925494194
-0.1870500147342682,-0.05505000427365303,9.847050666809082,0.0008249999955296516,0.004812499973922968,-0.00013749999925494194
-0.36705002188682556,0.04005000367760658,9.792000770568848,-0.0028874999843537807,-0.008662499487400055,-0.00013749999925494194
-0.16305001080036163,-0.09795000404119492,9.804000854492188,-0.0004124999977648258,-0.00494999997317791,-0.00013749999925494194
-0.19905000925064087,-0.06195000186562538,9.861000061035156,-0.0004124999977648258,-0.0012374999932944775,-0.00013749999925494194
-0.19395001232624054,-0.06000000238418579,9.859050750732422,-0.0004124999977648258,-0.0,-0.00013749999925494194
-0.208950012922287,-0.0690000057220459,9.853950500488281,0.0008249999955296516,-0.0,-0.00013749999925494194
-0.19395001232624054,-0.04800000041723251,9.847050666809082,-0.0004124999977648258,-0.0,-0.00013749999925494194
-0.208950012922287,-0.07200000435113907,9.805950164794922,0.0008249999955296516,-0.0,-0.0013749999925494194
-0.16305001080036163,-0.07200000435113907,9.7339506149292,0.0008249999955296516,-0.0037124999798834324,-0.00013749999925494194
-0.18195000290870667,-0.07395000010728836,9.756000518798828,0.0019249999895691872,-0.0037124999798834324,-0.00013749999925494194
-0.18000000715255737,-0.06000000238418579,9.804000854492188,0.0008249999955296516,-0.002474999986588955,-0.00013749999925494194
-0.18000000715255737,-0.040950000286102295,9.837000846862793,0.0008249999955296516,-0.0,-0.00013749999925494194
-0.18000000715255737,-0.07605000585317612,9.853950500488281,0.0008249999955296516,-0.0,-0.00013749999925494194
-0.18900001049041748,-0.07905000448226929,9.837000846862793,-0.0004124999977648258,-0.0,-0.00013749999925494194
-0.19395001232624054,-0.06405000388622284,9.841950416564941,-0.0004124999977648258,-0.0,-0.00013749999925494194
-0.20595000684261322,-0.06705000251531601,9.847050666809082,-0.0004124999977648258,-0.0,-0.00013749999925494194
-0.1969500035047531,-0.05295000225305557,9.850950241088867,0.0008249999955296516,-0.0,-0.00013749999925494194
-0.18900001049041748,-0.06195000186562538,9.844050407409668,0.0008249999955296516,-0.0,-0.00013749999925494194
-0.17805001139640808,-0.05505000427365303,9.841950416564941,0.0019249999895691872,0.0170499999076128,-0.00013749999925494194
-0.16095000505447388,-0.06705000251531601,9.693000793457031,-0.0016499999910593033,-0.010999999940395355,-0.00013749999925494194
-0.19200000166893005,-0.04800000041723251,9.68595027923584,0.0019249999895691872,-0.010999999940395355,-0.00013749999925494194
-0.1680000126361847,-0.05505000427365303,9.777000427246094,-0.0004124999977648258,-0.006187499966472387,-0.00013749999925494194
-0.3930000066757202,0.034950003027915955,9.796050071716309,0.0008249999955296516,-0.0037124999798834324,-0.00013749999925494194
-0.13905000686645508,-0.07905000448226929,9.862950325012207,-0.0004124999977648258,-0.0012374999932944775,-0.00013749999925494194
-0.21105000376701355,-0.037950001657009125,9.835050582885742,-0.0004124999977648258,0.0010999999940395355,-0.00013749999925494194
-0.18900001049041748,-0.06705000251531601,9.849000930786133,0.0008249999955296516,-0.0,-0.00013749999925494194
-0.21105000376701355,-0.0499500036239624,9.861000061035156,-0.0004124999977648258,-0.0,-0.00013749999925494194
-0.19395001232624054,-0.05505000427365303,9.732000350952148,0.0019249999895691872,-0.002474999986588955,-0.00013749999925494194
-0.18900001049041748,-0.06000000238418579,9.837000846862793,0.0008249999955296516,-0.002474999986588955,-0.00013749999925494194
-0.20100000500679016,-0.06195000186562538,9.799050331115723,0.0008249999955296516,-0.0012374999932944775,-0.00013749999925494194
-0.1969500035047531,-0.05505000427365303,9.781949996948242,0.0019249999895691872,-0.0037124999798834324,-0.00013749999925494194
-0.21300001442432404,-0.04800000041723251,9.8899507522583,-0.0004124999977648258,-0.0,0.0009624999947845936
-0.1969500035047531,-0.06405000388622284,9.868050575256348,-0.0016499999910593033,-0.0,0.0009624999947845936
-0.19200000166893005,-0.06705000251531601,9.847050666809082,-0.0004124999977648258,-0.0,-0.00013749999925494194
-0.18900001049041748,-0.08100000023841858,9.817950248718262,0.0008249999955296516,-0.0,0.0009624999947845936
-0.19200000166893005,-0.0690000057220459,9.841950416564941,0.0008249999955296516,-0.0,-0.00013749999925494194
-0.20400001108646393,-0.06195000186562538,9.838950157165527,-0.0004124999977648258,-0.0,-0.00013749999925494194
-0.20100000500679016,-0.0690000057220459,9.856050491333008,-0.0004124999977648258,0.0010999999940395355,0.0009624999947845936
-0.1870500147342682,-0.06405000388622284,9.850950241088867,-0.0004124999977648258,-0.0,-0.00013749999925494194
-0.1969500035047531,-0.07395000010728836,9.849000930786133,-0.0004124999977648258,-0.0012374999932944775,-0.00013749999925494194
-0.20595000684261322,-0.06000000238418579,9.841950416564941,0.0008249999955296516,-0.0012374999932944775,-0.00013749999925494194
-0.19905000925064087,-0.07200000435113907,9.832050323486328,-0.0004124999977648258,-0.0012374999932944775,-0.00013749999925494194
-0.20400001108646393,-0.07200000435113907,9.796050071716309,0.0008249999955296516,-0.0012374999932944775,-0.00013749999925494194
-0.20100000500679016,-0.07200000435113907,9.865950584411621,0.0008249999955296516,-0.0,-0.0013749999925494194
-0.19395001232624054,-0.05505000427365303,9.849000930786133,-0.0004124999977648258,-0.0,-0.00013749999925494194
-0.19200000166893005,-0.06000000238418579,9.850950241088867,-0.0004124999977648258,-0.0,-0.00013749999925494194
-0.20100000500679016,-0.05505000427365303,9.825000762939453,0.0008249999955296516,-0.0012374999932944775,-0.00013749999925494194
-0.208950012922287,-0.07200000435113907,9.862950325012207,-0.0004124999977648258,-0.0012374999932944775,-0.00013749999925494194
-0.20100000500679016,-0.05505000427365303,9.814950942993164,-0.0004124999977648258,-0.0,-0.00013749999925494194
-0.18000000715255737,-0.0690000057220459,9.844050407409668,0.0008249999955296516,-0.0012374999932944775,-0.00013749999925494194
-0.21105000376701355,-0.0690000057220459,9.814950942993164,0.0008249999955296516,-0.0,-0.00013749999925494194
-0.19200000166893005,-0.06705000251531601,9.829950332641602,-0.0004124999977648258,-0.002474999986588955,0.0009624999947845936
-0.20100000500679016,-0.05505000427365303,9.883050918579102,-0.0004124999977648258,-0.0012374999932944775,-0.00013749999925494194
-0.208950012922287,-0.05700000375509262,9.886950492858887,-0.0004124999977648258,-0.0012374999932944775,-0.00013749999925494194
-0.1969500035047531,-0.0690000057220459,9.837000846862793,-0.0004124999977648258,-0.0012374999932944775,-0.00013749999925494194
-0.19395001232624054,-0.05295000225305557,9.826950073242188,-0.0004124999977648258,-0.002474999986588955,-0.00013749999925494194
-0.18900001049041748,-0.06405000388622284,9.838950157165527,-0.0004124999977648258,-0.0012374999932944775,-0.00013749999925494194
-0.16995000839233398,-0.0499500036239624,9.847050666809082,0.0008249999955296516,-0.0,-0.00013749999925494194
-0.208950012922287,-0.05700000375509262,9.861000061035156,-0.0004124999977648258,-0.0,-0.00013749999925494194
-0.20400001108646393,-0.06000000238418579,9.850950241088867,0.0008249999955296516,-0.0012374999932944775,-0.00013749999925494194
-0.2160000056028366,-0.06405000388622284,9.853950500488281,-0.0004124999977648258,-0.0012374999932944775,-0.0013749999925494194
-0.20100000500679016,-0.04800000041723251,9.829950332641602,0.0008249999955296516,-0.0,-0.00013749999925494194
-0.21105000376701355,-0.06000000238418579,9.90195083618164,0.0008249999955296516,-0.0,-0.00013749999925494194
-0.21300001442432404,-0.05700000375509262,9.898950576782227,-0.0004124999977648258,-0.0,-0.00013749999925494194
-0.18495000898838043,-0.037950001657009125,9.804000854492188,-0.0004124999977648258,0.0010999999940395355,-0.00013749999925494194
-0.1969500035047531,-0.07605000585317612,9.787050247192383,0.0008249999955296516,-0.0,0.0009624999947845936
-0.1870500147342682,-0.07200000435113907,9.765000343322754,0.0019249999895691872,-0.0012374999932944775,0.0009624999947845936
-0.18900001049041748,-0.05700000375509262,9.808050155639648,0.0008249999955296516,-0.0012374999932944775,-0.00013749999925494194
-0.20595000684261322,-0.0499500036239624,9.849000930786133,0.0031624999828636646,0.0035749999806284904,-0.0013749999925494194
-0.20100000500679016,-0.05505000427365303,9.856050491333008,-0.0016499999910593033,-0.006187499966472387,-0.0013749999925494194
-0.20400001108646393,-0.04800000041723251,9.849000930786133,0.0008249999955296516,0.002337499987334013,-0.00013749999925494194
-0.19905000925064087,-0.05700000375509262,9.861000061035156,0.0019249999895691872,0.006049999967217445,0.0009624999947845936
-0.17805001139640808,-0.07200000435113907,9.868050575256348,-0.0016499999910593033,-0.0012374999932944775,0.0009624999947845936
-0.18000000715255737,-0.05505000427365303,9.612000465393066,0.0019249999895691872,0.0085249999538064,-0.00013749999925494194
-0.17805001139640808,-0.05295000225305557,9.655050277709961,0.004399999976158142,-0.00494999997317791,-0.00013749999925494194
-0.17295001447200775,-0.0690000057220459,9.910950660705566,-0.009074999950826168,-0.018424998968839645,-0.00013749999925494194
-0.1870500147342682,-0.06705000251531601,9.883050918579102,-0.0004124999977648258,-0.006187499966472387,-0.00013749999925494194
-0.20100000500679016,-0.04800000041723251,9.835050582885742,0.004399999976158142,0.002337499987334013,-0.00013749999925494194
-0.2179500162601471,-0.05295000225305557,9.835050582885742,-0.0004124999977648258,-0.00494999997317791,0.0009624999947845936
-0.20595000684261322,-0.05700000375509262,9.861000061035156,0.0008249999955296516,-0.0,-0.00013749999925494194
-0.2179500162601471,-0.07605000585317612,9.871050834655762,-0.0004124999977648258,-0.002474999986588955,-0.0013749999925494194
-0.1870500147342682,-0.06705000251531601,9.841950416564941,-0.0004124999977648258,-0.0012374999932944775,-0.00013749999925494194
-0.18495000898838043,-0.0499500036239624,9.849000930786133,-0.0004124999977648258,0.0010999999940395355,-0.00013749999925494194
-0.20400001108646393,-0.05700000375509262,9.844050407409668,0.0008249999955296516,-0.0,-0.00013749999925494194
-0.1969500035047531,-0.0690000057220459,9.838950157165527,0.0008249999955296516,-0.0012374999932944775,-0.00013749999925494194
-0.20595000684261322,-0.06405000388622284,9.844050407409668,-0.0004124999977648258,-0.0012374999932944775,-0.00013749999925494194
-0.1969500035047531,-0.0499500036239624,9.837000846862793,0.0008249999955296516,-0.0012374999932944775,-0.00013749999925494194
-0.208950012922287,-0.05295000225305557,9.862950325012207,-0.0004124999977648258,-0.00013749999925494194,-0.00013749999925494194
-0.2370000183582306,-0.04500000178813934,10.01400089263916,-0.0004124999977648258,0.002337499987334013,-0.00013749999925494194
-0.20595000684261322,-0.04800000041723251,9.886950492858887,-0.0016499999910593033,0.002337499987334013,-0.00013749999925494194
-0.21105000376701355,-0.06705000251531601,9.8899507522583,0.0008249999955296516,0.0010999999940395355,-0.00013749999925494194
-0.20100000500679016,-0.07605000585317612,9.835050582885742,0.0008249999955296516,-0.00013749999925494194,-0.00013749999925494194
-0.1870500147342682,-0.07395000010728836,9.847050666809082,0.0008249999955296516,-0.00013749999925494194,-0.00013749999925494194
-0.18495000898838043,-0.0690000057220459,9.832050323486328,0.0008249999955296516,-0.00013749999925494194,-0.00013749999925494194
-0.18900001049041748,-0.04500000178813934,9.861000061035156,-0.0004124999977648258,-0.00013749999925494194,-0.00013749999925494194
-0.20595000684261322,-0.0499500036239624,9.844050407409668,-0.0004124999977648258,-0.00013749999925494194,-0.00013749999925494194
-0.21300001442432404,-0.06195000186562538,9.847050666809082,-0.0004124999977648258,-0.00013749999925494194,-0.00013749999925494194
-0.20595000684261322,-0.06195000186562538,9.844050407409668,-0.0004124999977648258,-0.00013749999925494194,-0.00013749999925494194
-0.1969500035047531,-0.05505000427365303,9.838950157165527,-0.0004124999977648258,-0.00013749999925494194,-0.00013749999925494194
-0.18900001049041748,-0.05700000375509262,9.847050666809082,-0.0004124999977648258,-0.00013749999925494194,-0.00013749999925494194
-0.20595000684261322,-0.05505000427365303,9.853950500488281,0.0008249999955296516,0.0010999999940395355,-0.00013749999925494194
-0.20400001108646393,-0.06195000186562538,9.856050491333008,-0.0004124999977648258,-0.00013749999925494194,-0.00013749999925494194
-0.20100000500679016,-0.05505000427365303,9.838950157165527,0.0008249999955296516,-0.0012374999932944775,-0.0013749999925494194
-0.19905000925064087,-0.06195000186562538,9.850950241088867,0.0008249999955296516,-0.00013749999925494194,0.0010999999940395355
-0.20595000684261322,-0.04500000178813934,9.844050407409668,-0.0004124999977648258,-0.00013749999925494194,-0.00013749999925494194
-0.19395001232624054,-0.06195000186562538,9.844050407409668,0.0008249999955296516,-0.00013749999925494194,-0.00013749999925494194
-0.1969500035047531,-0.05505000427365303,9.844050407409668,0.0019249999895691872,-0.00013749999925494194,-0.00013749999925494194
-0.21105000376701355,-0.0499500036239624,9.859050750732422,0.0008249999955296516,-0.00013749999925494194,-0.00013749999925494194
-0.19905000925064087,-0.05700000375509262,9.844050407409668,-0.0004124999977648258,-0.00013749999925494194,-0.00013749999925494194
-0.21105000376701355,-0.06195000186562538,9.847050666809082,-0.0004124999977648258,-0.0012374999932944775,-0.00013749999925494194
-0.19905000925064087,-0.06000000238418579,9.825000762939453,0.0008249999955296516,-0.0012374999932944775,-0.00013749999925494194
-0.20595000684261322,-0.04500000178813934,9.850950241088867,0.0008249999955296516,-0.00013749999925494194,-0.00013749999925494194
-0.18900001049041748,-0.05505000427365303,9.856050491333008,0.0008249999955296516,-0.0,0.0009624999947845936
-0.20400001108646393,-0.06405000388622284,9.859050750732422,0.0008249999955296516,-0.0,-0.00013749999925494194
-0.20595000684261322,-0.06405000388622284,9.832050323486328,-0.0004124999977648258,-0.0,-0.00013749999925494194
-0.20100000500679016,-0.05295000225305557,9.849000930786133,-0.0004124999977648258,-0.0,0.0009624999947845936
-0.20100000500679016,-0.06000000238418579,9.838950157165527,0.0008249999955296516,0.0010999999940395355,-0.00013749999925494194
-0.18195000290870667,-0.05505000427365303,9.849000930786133,-0.0004124999977648258,-0.0,-0.00013749999925494194
-0.19200000166893005,-0.0499500036239624,9.837000846862793,0.0008249999955296516,-0.0,-0.00013749999925494194
-0.18900001049041748,-0.06000000238418579,9.853950500488281,-0.0004124999977648258,-0.0,-0.00013749999925494194
-0.19395001232624054,-0.0499500036239624,9.850950241088867,-0.0004124999977648258,-0.0,-0.00013749999925494194
-0.20100000500679016,-0.0499500036239624,9.853950500488281,0.0008249999955296516,-0.0,-0.00013749999925494194
-0.20595000684261322,-0.0499500036239624,9.847050666809082,-0.0004124999977648258,-0.0,-0.00013749999925494194
-0.1969500035047531,-0.06195000186562538,9.808050155639648,0.0008249999955296516,-0.0,-0.00013749999925494194
-0.21300001442432404,-0.05505000427365303,9.949950218200684,-0.0028874999843537807,0.0010999999940395355,-0.00013749999925494194
-0.2179500162601471,-0.07395000010728836,9.909000396728516,-0.0004124999977648258,0.0010999999940395355,-0.00013749999925494194
-0.22305001318454742,-0.04500000178813934,9.801000595092773,0.0031624999828636646,-0.0,-0.00013749999925494194
-0.20100000500679016,-0.05700000375509262,9.892050743103027,-0.0004124999977648258,-0.0,-0.0013749999925494194
-0.1870500147342682,-0.07395000010728836,9.877950668334961,-0.0016499999910593033,-0.0037124999798834324,-0.00013749999925494194
-0.208950012922287,-0.05700000375509262,9.835050582885742,-0.0004124999977648258,-0.0,-0.00013749999925494194
-0.19200000166893005,-0.0690000057220459,9.859050750732422,-0.0004124999977648258,-0.0012374999932944775,-0.00013749999925494194
-0.18000000715255737,-0.0690000057220459,9.847050666809082,0.0008249999955296516,-0.0012374999932944775,-0.00013749999925494194
-0.20595000684261322,-0.05700000375509262,9.849000930786133,0.0008249999955296516,-0.0,-0.00013749999925494194
-0.20100000500679016,-0.05700000375509262,9.847050666809082,-0.0004124999977648258,-0.0,-0.00013749999925494194
-0.20400001108646393,-0.06195000186562538,9.847050666809082,-0.0004124999977648258,-0.0,0.0009624999947845936
-0.18900001049041748,-0.06195000186562538,9.850950241088867,-0.0004124999977648258,-0.0012374999932944775,-0.00013749999925494194
-0.18195000290870667,-0.06195000186562538,9.859050750732422,0.0008249999955296516,-0.0,-0.00013749999925494194
-0.18900001049041748,-0.05295000225305557,9.847050666809082,-0.0004124999977648258,-0.0012374999932944775,-0.00013749999925494194
-0.1969500035047531,-0.04800000041723251,9.835050582885742,0.0008249999955296516,-0.0,-0.00013749999925494194
-0.22500000894069672,-0.0690000057220459,9.850950241088867,-0.0004124999977648258,-0.0012374999932944775,-0.00013749999925494194
-0.1969500035047531,-0.06195000186562538,9.847050666809082,-0.0004124999977648258,-0.0,0.0009624999947845936
-0.20595000684261322,-0.06000000238418579,9.871050834655762,0.0008249999955296516,-0.0,-0.00013749999925494194
-0.20400001108646393,-0.04800000041723251,9.829950332641602,-0.0004124999977648258,-0.0,-0.00013749999925494194
-0.18495000898838043,-0.04800000041723251,9.847050666809082,-0.0004124999977648258,-0.0012374999932944775,-0.00013749999925494194
-0.19395001232624054,-0.05505000427365303,9.849000930786133,-0.0004124999977648258,-0.0012374999932944775,-0.0013749999925494194
-0.19200000166893005,-0.0690000057220459,9.777000427246094,0.0008249999955296516,-0.002474999986588955,-0.00013749999925494194
-0.18495000898838043,-0.07200000435113907,9.825000762939453,0.0008249999955296516,-0.0,-0.0013749999925494194
-0.20400001108646393,-0.0499500036239624,9.829950332641602,-0.0004124999977648258,-0.0012374999932944775,-0.0013749999925494194
-0.20100000500679016,-0.06705000251531601,9.865950584411621,-0.0004124999977648258,-0.0012374999932944775,-0.00013749999925494194
-0.19395001232624054,-0.07200000435113907,9.853950500488281,-0.0016499999910593033,-0.0012374999932944775,-0.00013749999925494194
-0.19395001232624054,-0.06405000388622284,9.850950241088867,-0.0004124999977648258,-0.0012374999932944775,-0.00013749999925494194
-0.1680000126361847,-0.10500000417232513,9.859050750732422,-0.0004124999977648258,-0.0012374999932944775,-0.00013749999925494194
-0.18900001049041748,-0.08400000631809235,9.856050491333008,0.0008249999955296516,-0.0,-0.00013749999925494194
-0.17505000531673431,-0.0690000057220459,9.850950241088867,0.0008249999955296516,-0.0,-0.00013749999925494194
-0.18900001049041748,-0.06705000251531601,9.847050666809082,-0.0004124999977648258,-0.0,-0.00013749999925494194
-0.1870500147342682,-0.05505000427365303,9.847050666809082,-0.0004124999977648258,-0.0012374999932944775,-0.00013749999925494194
-0.2160000056028366,-0.06405000388622284,9.871050834655762,-0.0004124999977648258,-0.0012374999932944775,-0.00013749999925494194
-0.19905000925064087,-0.08400000631809235,9.813000679016113,0.0008249999955296516,-0.0012374999932944775,-0.00013749999925494194
-0.21105000376701355,-0.040950000286102295,9.859050750732422,0.0008249999955296516,-0.0012374999932944775,-0.00013749999925494194
-0.18495000898838043,-0.07200000435113907,9.835050582885742,-0.0004124999977648258,-0.0012374999932944775,-0.00013749999925494194
-0.18900001049041748,-0.05295000225305557,9.859050750732422,0.0008249999955296516,-0.0,-0.00013749999925494194
-0.20595000684261322,-0.04800000041723251,9.847050666809082,0.0008249999955296516,-0.0012374999932944775,-0.0013749999925494194
-0.19905000925064087,-0.05295000225305557,9.847050666809082,-0.0004124999977648258,-0.0,-0.00013749999925494194
-0.20595000684261322,-0.06000000238418579,9.841950416564941,0.0008249999955296516,-0.0012374999932944775,-0.00013749999925494194
-0.19200000166893005,-0.04500000178813934,9.847050666809082,-0.0004124999977648258,-0.0012374999932944775,-0.00013749999925494194
-0.1870500147342682,-0.06195000186562538,9.849000930786133,-0.0004124999977648258,-0.00013749999925494194,-0.00013749999925494194
-0.21105000376701355,-0.05700000375509262,9.847050666809082,0.0008249999955296516,-0.00013749999925494194,-0.00013749999925494194
-0.1969500035047531,-0.06405000388622284,9.847050666809082,-0.0004124999977648258,-0.0012374999932944775,-0.00013749999925494194
-0.20595000684261322,-0.06000000238418579,9.838950157165527,-0.0004124999977648258,-0.00013749999925494194,-0.00013749999925494194
-0.20100000500679016,-0.05505000427365303,9.856050491333008,-0.0004124999977648258,-0.0012374999932944775,-0.00013749999925494194
-0.19905000925064087,-0.05700000375509262,9.838950157165527,-0.0004124999977648258,-0.0012374999932944775,-0.00013749999925494194
-0.20595000684261322,-0.06705000251531601,9.837000846862793,-0.0004124999977648258,-0.0012374999932944775,-0.00013749999925494194
-0.1969500035047531,-0.05295000225305557,9.837000846862793,0.0008249999955296516,-0.00013749999925494194,-0.00013749999925494194
-0.21105000376701355,-0.07395000010728836,9.844050407409668,-0.0004124999977648258,-0.0012374999932944775,-0.00013749999925494194
-0.1969500035047531,-0.06405000388622284,9.853950500488281,0.0008249999955296516,-0.0012374999932944775,-0.00013749999925494194
-0.20400001108646393,-0.0499500036239624,9.844050407409668,0.0008249999955296516,-0.00013749999925494194,-0.0013749999925494194
-0.19200000166893005,-0.05505000427365303,9.837000846862793,-0.0004124999977648258,-0.0012374999932944775,-0.00013749999925494194
-0.20400001108646393,-0.06000000238418579,9.847050666809082,-0.0004124999977648258,-0.0012374999932944775,-0.00013749999925494194
-0.20595000684261322,-0.05295000225305557,9.841950416564941,-0.0004124999977648258,-0.00013749999925494194,-0.0013749999925494194
-0.20100000500679016,-0.06000000238418579,9.856050491333008,0.0008249999955296516,-0.00013749999925494194,-0.00013749999925494194
-0.20400001108646393,-0.0690000057220459,9.841950416564941,-0.0004124999977648258,-0.00013749999925494194,-0.00013749999925494194
-0.19905000925064087,-0.06705000251531601,9.850950241088867,-0.0004124999977648258,-0.00013749999925494194,-0.00013749999925494194
-0.20400001108646393,-0.0690000057220459,9.838950157165527,-0.0004124999977648258,-0.00013749999925494194,-0.00013749999925494194
-0.19200000166893005,-0.06405000388622284,9.844050407409668,0.0008249999955296516,-0.0012374999932944775,-0.00013749999925494194
-0.19905000925064087,-0.05700000375509262,9.847050666809082,0.0008249999955296516,-0.00013749999925494194,-0.00013749999925494194
-0.1969500035047531,-0.0690000057220459,9.847050666809082,-0.0004124999977648258,-0.00013749999925494194,-0.00013749999925494194
-0.21300001442432404,-0.06000000238418579,9.844050407409668,-0.0004124999977648258,-0.0012374999932944775,-0.00013749999925494194
-0.18900001049041748,-0.06195000186562538,9.841950416564941,0.0008249999955296516,-0.0012374999932944775,-0.00013749999925494194
-0.1969500035047531,-0.06405000388622284,9.859050750732422,0.0008249999955296516,-0.00013749999925494194,-0.00013749999925494194
-0.20100000500679016,-0.0499500036239624,9.847050666809082,-0.0004124999977648258,-0.00013749999925494194,-0.00013749999925494194
-0.19905000925064087,-0.06405000388622284,9.838950157165527,-0.0004124999977648258,-0.00013749999925494194,-0.00013749999925494194
-0.1489500105381012,-0.08595000207424164,9.784050941467285,0.0056374999694526196,0.02186249941587448,-0.0013749999925494194
-0.14205001294612885,-0.06195000186562538,9.598050117492676,-0.007837500423192978,-0.023237500339746475,-0.0013749999925494194
-0.208950012922287,-0.028950002044439316,9.592950820922852,0.004399999976158142,-0.011137500405311584,-0.0013749999925494194
-0.15405000746250153,-0.07200000435113907,9.745950698852539,-0.0028874999843537807,-0.0147124994546175,-0.00013749999925494194
-0.20595000684261322,-0.04305000230669975,9.829950332641602,-0.0016499999910593033,-0.008662499487400055,-0.0013749999925494194
-0.11805000901222229,-0.1080000028014183,9.799050331115723,0.0019249999895691872,-0.00013749999925494194,-0.00013749999925494194
-0.20100000500679016,-0.06405000388622284,9.850950241088867,0.0008249999955296516,0.0010999999940395355,-0.00013749999925494194
-0.2179500162601471,-0.05505000427365303,9.861000061035156,0.0008249999955296516,-0.0012374999932944775,-0.00013749999925494194
-0.18900001049041748,-0.06705000251531601,9.847050666809082,-0.0004124999977648258,-0.0012374999932944775,-0.0013749999925494194
-0.20400001108646393,-0.06195000186562538,9.844050407409668,0.0008249999955296516,-0.00013749999925494194,-0.00013749999925494194
-0.20100000500679016,-0.05700000375509262,9.850950241088867,-0.0004124999977648258,-0.00013749999925494194,-0.00013749999925494194
-0.20400001108646393,-0.06405000388622284,9.849000930786133,0.0008249999955296516,-0.00013749999925494194,-0.00013749999925494194
-0.20100000500679016,-0.0690000057220459,9.841950416564941,0.0008249999955296516,-0.00013749999925494194,-0.00013749999925494194
-0.19905000925064087,-0.06705000251531601,9.837000846862793,0.0008249999955296516,-0.0012374999932944775,0.0010999999940395355
-0.21300001442432404,-0.036000002175569534,10.2610502243042,0.019112499430775642,0.07562500238418579,-0.0013749999925494194
-0.1680000126361847,-0.11205000430345535,10.153050422668457,-0.021175000816583633,-0.01223750039935112,-0.00013749999925494194
-0.22305001318454742,-0.012000000104308128,9.72195053100586,-0.007837500423192978,-0.020899999886751175,-0.00013749999925494194
-0.1680000126361847,-0.04800000041723251,9.693000793457031,0.004399999976158142,-0.008662499487400055,-0.0013749999925494194
-0.23295001685619354,-0.06000000238418579,9.880050659179688,0.0008249999955296516,0.002337499987334013,-0.00013749999925494194
-0.30195000767707825,0.025950001552700996,9.868050575256348,0.0008249999955296516,0.002337499987334013,0.0010999999940395355
-0.22500000894069672,-0.05700000375509262,9.868050575256348,-0.0004124999977648258,-0.0012374999932944775,-0.00013749999925494194
-0.18900001049041748,-0.07395000010728836,9.871050834655762,-0.0004124999977648258,-0.00013749999925494194,-0.00013749999925494194
-0.22305001318454742,-0.06405000388622284,9.844050407409668,-0.0004124999977648258,-0.00013749999925494194,-0.00013749999925494194
-0.20100000500679016,-0.06000000238418579,9.838950157165527,-0.0004124999977648258,-0.0012374999932944775,-0.00013749999925494194
-0.1870500147342682,-0.06705000251531601,9.844050407409668,-0.0004124999977648258,-0.00013749999925494194,-0.00013749999925494194
-0.19200000166893005,-0.0690000057220459,9.853950500488281,-0.0004124999977648258,-0.0012374999932944775,-0.00013749999925494194
-0.19395001232624054,-0.06000000238418579,9.849000930786133,0.0008249999955296516,-0.00013749999925494194,-0.00013749999925494194
-0.20100000500679016,-0.06705000251531601,9.832050323486328,-0.0004124999977648258,-0.0012374999932944775,-0.00013749999925494194
-0.20400001108646393,-0.06705000251531601,9.873000144958496,-0.0004124999977648258,-0.00013749999925494194,-0.00013749999925494194
-0.1969500035047531,-0.07395000010728836,9.838950157165527,0.0008249999955296516,-0.00013749999925494194,-0.00013749999925494194
-0.20400001108646393,-0.06405000388622284,9.856050491333008,0.0008249999955296516,-0.00013749999925494194,-0.00013749999925494194
-0.19395001232624054,-0.06000000238418579,9.847050666809082,-0.0004124999977648258,-0.00013749999925494194,-0.00013749999925494194
-0.19905000925064087,-0.06000000238418579,9.829950332641602,-0.0004124999977648258,-0.0012374999932944775,-0.00013749999925494194
-0.208950012922287,-0.06195000186562538,9.835050582885742,0.0008249999955296516,-0.00013749999925494194,-0.00013749999925494194
-0.19395001232624054,-0.05505000427365303,9.868050575256348,0.0008249999955296516,-0.0012374999932944775,-0.00013749999925494194
-0.20595000684261322,-0.07200000435113907,9.847050666809082,-0.0004124999977648258,-0.00013749999925494194,-0.00013749999925494194
-0.20595000684261322,-0.07200000435113907,9.862950325012207,-0.0004124999977648258,-0.0012374999932944775,-0.00013749999925494194
-0.19200000166893005,-0.06195000186562538,9.847050666809082,-0.0004124999977648258,-0.0012374999932944775,-0.00013749999925494194
-0.20100000500679016,-0.04800000041723251,9.850950241088867,-0.0004124999977648258,-0.0012374999932944775,-0.00013749999925494194
-0.18900001049041748,-0.05700000375509262,9.847050666809082,-0.0004124999977648258,-0.00013749999925494194,-0.00013749999925494194
-0.18000000715255737,-0.06405000388622284,9.844050407409668,-0.0004124999977648258,-0.00013749999925494194,-0.00013749999925494194
-0.19200000166893005,-0.04800000041723251,9.856050491333008,0.0008249999955296516,-0.0012374999932944775,-0.00013749999925494194
-0.1969500035047531,-0.05505000427365303,9.844050407409668,0.0008249999955296516,-0.00013749999925494194,-0.00013749999925494194
-0.18900001049041748,-0.06405000388622284,9.841950416564941,0.0008249999955296516,-0.00013749999925494194,-0.00013749999925494194
-0.21300001442432404,-0.0499500036239624,9.841950416564941,0.0008249999955296516,-0.0012374999932944775,-0.00013749999925494194
-0.19200000166893005,-0.06000000238418579,9.841950416564941,-0.0004124999977648258,-0.00013749999925494194,-0.00013749999925494194
-0.19395001232624054,-0.0690000057220459,9.829950332641602,-0.0004124999977648258,-0.00013749999925494194,-0.00013749999925494194
-0.19905000925064087,-0.06405000388622284,9.844050407409668,0.0008249999955296516,-0.00013749999925494194,-0.0013749999925494194
-0.20400001108646393,-0.05295000225305557,9.844050407409668,0.0008249999955296516,-0.00013749999925494194,-0.00013749999925494194
-0.19395001232624054,-0.06195000186562538,9.865950584411621,-0.0004124999977648258,-0.00013749999925494194,-0.00013749999925494194
-0.208950012922287,-0.06705000251531601,9.850950241088867,0.0008249999955296516,-0.0012374999932944775,-0.00013749999925494194
-0.21105000376701355,-0.07605000585317612,9.9660005569458,-0.0028874999843537807,0.0010999999940395355,0.0010999999940395355
-0.19395001232624054,-0.04500000178813934,9.895050048828125,-0.0028874999843537807,-0.0037124999798834324,-0.00013749999925494194
-0.19905000925064087,-0.05505000427365303,9.853950500488281,0.0008249999955296516,-0.00013749999925494194,-0.00013749999925494194
-0.18900001049041748,-0.05700000375509262,9.823050498962402,0.0019249999895691872,0.004812499973922968,-0.00013749999925494194
-0.19200000166893005,-0.0690000057220459,9.850950241088867,-0.0004124999977648258,-0.0012374999932944775,-0.00013749999925494194
-0.16995000839233398,-0.0690000057220459,9.826950073242188,0.0008249999955296516,0.0010999999940395355,-0.00013749999925494194
-0.17805001139640808,-0.004950000438839197,9.877950668334961,-0.0004124999977648258,0.0010999999940395355,0.0010999999940395355
-0.16995000839233398,-0.05700000375509262,9.862950325012207,-0.0004124999977648258,-0.00013749999925494194,-0.00013749999925494194
-0.208950012922287,-0.05505000427365303,9.837000846862793,0.0008249999955296516,-0.00013749999925494194,-0.00013749999925494194
-0.20100000500679016,-0.06000000238418579,9.849000930786133,0.0008249999955296516,-0.0013749999925494194,-0.00013749999925494194
-0.21105000376701355,-0.06000000238418579,9.856050491333008,0.0008249999955296516,-0.0013749999925494194,-0.00013749999925494194
-0.1969500035047531,-0.0690000057220459,9.837000846862793,0.0008249999955296516,-0.00013749999925494194,-0.00013749999925494194
-0.19905000925064087,-0.07395000010728836,9.859050750732422,-0.0004124999977648258,-0.0013749999925494194,-0.0013749999925494194
-0.18900001049041748,-0.05700000375509262,9.832050323486328,-0.0004124999977648258,-0.0013749999925494194,-0.00013749999925494194
-0.19905000925064087,-0.05295000225305557,9.832050323486328,-0.0004124999977648258,-0.0013749999925494194,-0.00013749999925494194
-0.25905001163482666,-0.040950000286102295,10.072050094604492,0.0008249999955296516,0.014574999921023846,-0.00013749999925494194
-0.22095000743865967,-0.0690000057220459,10.009050369262695,0.0008249999955296516,0.009624999947845936,-0.00013749999925494194
-0.208950012922287,-0.07395000010728836,9.922950744628906,-0.0004124999977648258,-0.00013749999925494194,0.0010999999940395355
-0.22305001318454742,-0.08400000631809235,9.825000762939453,-0.0028874999843537807,-0.006187499966472387,-0.00013749999925494194
-0.17805001139640808,-0.0690000057220459,9.880050659179688,-0.0004124999977648258,0.0010999999940395355,-0.00013749999925494194
-0.28995001316070557,0.016050001606345177,9.837000846862793,-0.0004124999977648258,-0.002474999986588955,-0.00013749999925494194
-0.16995000839233398,-0.05505000427365303,9.847050666809082,-0.0004124999977648258,0.0010999999940395355,-0.00013749999925494194
-0.2179500162601471,-0.06705000251531601,9.829950332641602,0.0008249999955296516,-0.00013749999925494194,-0.00013749999925494194
-0.20400001108646393,-0.05295000225305557,9.841950416564941,0.0008249999955296516,-0.00013749999925494194,-0.00013749999925494194
-0.1680000126361847,-0.07395000010728836,9.684000015258789,0.0019249999895691872,0.002337499987334013,-0.0013749999925494194
-0.25200000405311584,-0.025950001552700996,9.643050193786621,0.011824999935925007,0.007287499960511923,-0.00013749999925494194
-0.2350500077009201,-0.06195000186562538,9.823050498962402,0.009349999949336052,0.0010999999940395355,-0.00013749999925494194
-0.18195000290870667,-0.0880500078201294,9.957000732421875,-0.010174999944865704,-0.02447500079870224,0.0010999999940395355
-0.19905000925064087,-0.07605000585317612,9.873000144958496,-0.005362499970942736,-0.0037124999798834324,-0.00013749999925494194
-0.034050002694129944,-0.14100000262260437,9.847050666809082,0.0008249999955296516,0.0010999999940395355,-0.00013749999925494194
-0.2760000228881836,-0.021000001579523087,9.847050666809082,0.0008249999955296516,-0.0012374999932944775,-0.00013749999925494194
-0.1680000126361847,-0.07200000435113907,9.837000846862793,0.0008249999955296516,-0.0012374999932944775,-0.00013749999925494194
-0.2179500162601471,-0.05700000375509262,9.837000846862793,0.0008249999955296516,-0.00013749999925494194,-0.00013749999925494194
-0.20100000500679016,-0.05505000427365303,9.856050491333008,-0.0004124999977648258,-0.0012374999932944775,-0.00013749999925494194
-0.2179500162601471,-0.06705000251531601,9.829950332641602,-0.0004124999977648258,-0.0012374999932944775,-0.00013749999925494194
-0.20400001108646393,-0.05505000427365303,9.844050407409668,-0.0004124999977648258,-0.00013749999925494194,-0.00013749999925494194
-0.18900001049041748,-0.05505000427365303,9.835050582885742,-0.0004124999977648258,-0.00013749999925494194,-0.00013749999925494194
-0.18900001049041748,-0.0499500036239624,9.841950416564941,-0.0004124999977648258,-0.0012374999932944775,-0.00013749999925494194
-0.20595000684261322,-0.05295000225305557,9.873000144958496,-0.0004124999977648258,-0.00013749999925494194,-0.00013749999925494194
-0.18900001049041748,-0.06195000186562538,9.829950332641602,-0.0004124999977648258,-0.0012374999932944775,-0.00013749999925494194
-0.20400001108646393,-0.05295000225305557,9.853950500488281,0.0008249999955296516,-0.0012374999932944775,-0.0013749999925494194
-0.20100000500679016,-0.06195000186562538,9.838950157165527,-0.0004124999977648258,-0.0012374999932944775,-0.00013749999925494194
-0.19905000925064087,-0.05295000225305557,9.856050491333008,-0.0004124999977648258,-0.0012374999932944775,-0.00013749999925494194
-0.18900001049041748,-0.06000000238418579,9.838950157165527,0.0008249999955296516,-0.00013749999925494194,-0.00013749999925494194
-0.18495000898838043,-0.06405000388622284,9.847050666809082,0.0008249999955296516,-0.00013749999925494194,-0.00013749999925494194
-0.20100000500679016,-0.04500000178813934,9.841950416564941,0.0008249999955296516,0.002337499987334013,-0.00013749999925494194
-0.22500000894069672,-0.037950001657009125,9.11205005645752,0.0008249999955296516,0.0035749999806284904,0.0010999999940395355
0.11100000888109207,-0.1360500007867813,8.683050155639648,0.010587500408291817,-0.0672374963760376,-0.00013749999925494194
-0.05505000427365303,-0.12000000476837158,9.483000755310059,-0.0028874999843537807,-0.04399999976158142,-0.0013749999925494194
-0.22305001318454742,-0.04500000178813934,9.69795036315918,0.0056374999694526196,-0.006187499966472387,0.0010999999940395355
