accX,accY,accZ,gyroX,gyroY,gyroZ
1.7234305143356323,6.283552169799805,7.295716285705566,-0.3201025128364563,0.8224930763244629,0.4760259985923767
0.7914260625839233,5.60817813873291,8.34018325805664,-0.27216702699661255,0.9453943371772766,0.41637295484542847
0.7651050686836243,5.449952602386475,8.519944190979004,-0.29453691840171814,0.8841434121131897,0.4882761836051941
0.7603194117546082,5.344668388366699,8.831310272216797,-0.3627118468284607,0.8868064880371094,0.4973306655883789
0.8539385795593262,5.24416971206665,9.509077072143555,-0.4159734845161438,0.9619054198265076,0.484547883272171
0.6885347366333008,5.339882850646973,10.019346237182617,-0.2769605815410614,1.0141018629074097,0.4754934012889862
0.7100701332092285,5.850152492523193,9.645767211914062,0.04513924941420555,0.9336767196655273,0.4547213613986969
1.0549356937408447,5.581857204437256,8.745168685913086,0.3194367587566376,0.6296858787536621,0.42915576696395874
1.1988041400909424,5.73260498046875,8.416753768920898,0.3375457227230072,0.43208515644073486,0.4451342523097992
1.0142576694488525,5.80708122253418,8.34736156463623,0.16444534063339233,0.39160630106925964,0.4201012849807739
0.7268198728561401,5.461916923522949,8.050353050231934,0.014780107885599136,0.4938686490058899,0.38814428448677063
0.36999019980430603,4.877470016479492,7.6839518547058105,-0.0560578890144825,0.6307511329650879,0.39826399087905884
0.09451649338006973,4.798506736755371,9.30329418182373,0.30186042189598083,0.39054104685783386,0.4227643609046936
-0.3080759048461914,4.96630334854126,8.20110034942627,0.4334166944026947,0.2181064635515213,0.42755791544914246
-0.06370890140533447,5.220241546630859,7.451549053192139,0.29227331280708313,0.2287587970495224,0.4440690279006958
0.3556332588195801,5.4643096923828125,7.312466144561768,0.044606633484363556,0.3447360396385193,0.3391435742378235
0.3963112533092499,5.442774295806885,8.024031639099121,-0.14061075448989868,0.3458012640476227,0.17243459820747375
0.10648060590028763,4.8798627853393555,8.421539306640625,-0.09174319356679916,0.12489857524633408,0.0824224054813385
-0.5739783048629761,4.386343002319336,8.455039024353027,0.06963960826396942,-0.1541924774646759,0.09786828607320786
-0.8901300430297852,4.01754903793335,8.234899520874023,0.09520520269870758,-0.4059869349002838,0.22409839928150177
-0.4253242313861847,4.623531341552734,8.498408317565918,-0.10332760214805603,-0.2276935577392578,0.42915576696395874
-0.17138592898845673,5.088337421417236,9.264710426330566,-0.019307348877191544,-0.04127778112888336,0.3785571753978729
-0.027816563844680786,5.004588603973389,8.915059089660645,0.21610915660858154,-0.10572437942028046,0.3364804685115814
0.2356930375099182,5.179264545440674,8.622835159301758,0.37482887506484985,-0.34966275095939636,0.29174068570137024
0.3436691462993622,5.991328716278076,7.16650390625,-0.18428531289100647,-0.23568280041217804,0.012649642303586006
0.14715859293937683,5.277669429779053,8.85523796081543,-0.24766667187213898,0.10998530685901642,-0.1283605843782425
-0.18335004150867462,4.942076206207275,9.176176071166992,-0.1070559173822403,0.12862688302993774,-0.08415340632200241
-0.15942180156707764,5.36859655380249,8.491230010986328,-0.018242115154862404,-0.0689738392829895,-0.05858781561255455
0.09212367236614227,5.265705108642578,8.33300495147705,-0.08002562820911407,-0.03861469775438309,-0.043141938745975494
0.058624155819416046,5.469095230102539,7.705487251281738,-0.23062294721603394,0.24473728239536285,-0.022902509197592735
-0.10199406743049622,5.469095230102539,7.633403301239014,-0.3067871034145355,0.44646579027175903,-0.05752258375287056
-0.25304099917411804,5.337490081787109,7.9953179359436035,-0.18748101592063904,0.35698622465133667,-0.08308817446231842
-0.4205385744571686,5.270491123199463,7.980960845947266,-0.036351077258586884,0.11850717663764954,-0.0639139786362648
-0.24586252868175507,5.3231329917907715,7.913662910461426,-0.021437814459204674,0.04607132822275162,-0.03941362351179123
-0.42771705985069275,5.421238899230957,8.06231689453125,-0.16404588520526886,0.12489857524633408,-0.055924732238054276
-0.5811567902565002,5.263312339782715,8.330612182617188,-0.2588516175746918,0.23781327903270721,-0.04367455467581749
-0.5739783048629761,5.337490081787109,8.196314811706543,-0.3440702557563782,0.3202356696128845,-0.039946239441633224
-0.5859424471855164,5.488536834716797,8.23250675201416,-0.39839714765548706,0.2999962568283081,-0.050598569214344025
-0.5404788255691528,5.543571949005127,8.685049057006836,-0.2876129150390625,0.2079867422580719,-0.06710968166589737
-0.2602194547653198,5.373382568359375,8.658727645874023,-0.2029268890619278,0.09773512929677963,-0.07935985922813416
-0.5285146832466125,5.696712493896484,8.256434440612793,-0.10172975063323975,-0.021038351580500603,-0.09054480493068695
-0.7055835723876953,5.514857769012451,8.37129020690918,-0.01664426550269127,-0.026897134259343147,-0.07137060910463333
-0.6912266612052917,5.620141983032227,7.798807144165039,-0.03581846132874489,-0.05352795869112015,-0.06924014538526535
-0.5213362574577332,5.541179180145264,8.220541954040527,-0.09387365728616714,0.009853405877947807,-0.059120431542396545
-0.42771705985069275,5.703890800476074,8.541479110717773,-0.01664426550269127,-0.10892007499933243,-0.05113118514418602
-0.32961133122444153,5.536393165588379,8.304290771484375,0.12396649271249771,-0.326227605342865,-0.05432688444852829
-0.2192423790693283,5.505286693572998,8.328219413757324,0.13302096724510193,-0.39160630106925964,-0.055924732238054276
-0.22642084956169128,5.375775337219238,8.452646255493164,0.06005251035094261,-0.3043903410434723,-0.062316130846738815
-0.15463615953922272,5.351847171783447,8.639585494995117,-0.015579032711684704,-0.1872147023677826,-0.06284874677658081
-0.2192423790693283,5.687141418457031,8.793025016784668,-0.03901416063308716,-0.09294158220291138,-0.09800143539905548
-0.2961117923259735,5.473880767822266,8.665905952453613,0.020106272771954536,-0.24313943088054657,-0.13049104809761047
-0.11156535893678665,5.433202743530273,8.606085777282715,0.11917294561862946,-0.4075847864151001,-0.13528458774089813
0.12323036789894104,5.536393165588379,8.38564682006836,0.10639014840126038,-0.4187697470188141,-0.14327384531497955
0.3939184248447418,5.378168106079102,8.46461009979248,0.013714875094592571,-0.3560541272163391,-0.14433906972408295
0.6191428303718567,5.038087844848633,8.757132530212402,-0.08375394344329834,-0.3368799388408661,-0.15392617881298065
0.6454638838768005,4.680959224700928,9.204889297485352,-0.19866596162319183,-0.17176882922649384,-0.14220860600471497
0.4537389874458313,4.575675010681152,9.439684867858887,-0.0773625448346138,-0.12330072373151779,-0.15392617881298065
0.367597371339798,4.690829753875732,9.657731056213379,0.1250317245721817,-0.11318100988864899,-0.1374150663614273
0.2548356056213379,4.6785664558410645,9.255139350891113,0.30239301919937134,-0.13661614060401917,-0.1059906855225563
0.26919254660606384,4.642673969268799,8.620442390441895,0.3295564651489258,-0.14034445583820343,-0.0857512578368187
0.4489533603191376,4.668995380401611,8.067102432250977,0.1676410436630249,0.0050598569214344025,-0.07669677585363388
0.9903294444084167,4.755435943603516,7.748558044433594,-0.009187635034322739,0.197334423661232,-0.08415340632200241
0.8611170649528503,4.985445976257324,7.3986077308654785,-0.11983871459960938,0.34739911556243896,-0.20665520429611206
0.9759725332260132,4.726722240447998,7.750950813293457,-0.1278279572725296,0.2170412242412567,-0.23115555942058563
1.1748759746551514,4.609174728393555,8.306683540344238,-0.07203638553619385,0.05938674136996269,-0.24180789291858673
1.2945170402526855,4.46560525894165,8.919844627380371,-0.10971900075674057,-0.0077229393646121025,-0.19706811010837555
1.3567304611206055,4.570889472961426,9.339186668395996,-0.18641577661037445,0.04074516147375107,-0.16617634892463684
1.1150553226470947,4.456034183502197,8.67069149017334,-0.2652430236339569,0.21597599983215332,-0.13421936333179474
0.6358926296234131,4.3983073234558105,7.99292516708374,-0.31850466132164,0.38308441638946533,-0.07563154399394989
0.5111667513847351,4.35045051574707,7.820342540740967,-0.3163742125034332,0.3942693769931793,-0.039946239441633224
0.3652045428752899,4.381557464599609,7.6911301612854,-0.3009283244609833,0.31703996658325195,0.0015978495357558131
0.31495529413223267,4.513461589813232,7.851449489593506,-0.3067871034145355,0.23621542751789093,0.0031956990715116262
0.21415762603282928,4.702793598175049,8.632407188415527,-0.2684387266635895,0.11690932512283325,0.011584409512579441
0.12323036789894104,4.668995380401611,8.486444473266602,-0.07949301600456238,0.021038351580500603,0.06324820965528488
0.07058826833963394,4.865505695343018,7.336394309997559,-0.06031882017850876,-0.09294158220291138,0.13142313063144684
0.49680981040000916,4.894219398498535,7.626224994659424,-0.2892107665538788,-0.06418029218912125,0.15006470680236816
0.48723849654197693,4.750650405883789,8.869595527648926,-0.4074516296386719,0.07696308940649033,0.1037270650267601
0.4250251352787018,4.47278356552124,9.168996810913086,-0.32755914330482483,0.13128997385501862,0.07709623873233795
0.4130610227584839,4.628317356109619,9.171390533447266,-0.22742724418640137,0.0908111184835434,0.09627043455839157
0.6933203339576721,4.5828537940979,8.974879264831543,-0.1395455300807953,0.07802832126617432,0.1042596846818924
0.7268198728561401,4.743471622467041,8.843274116516113,-0.10971900075674057,0.12170287221670151,0.0936073511838913
1.0190433263778687,5.016552448272705,8.24686336517334,-0.12516488134860992,0.2079867422580719,0.02489982172846794
-0.5787639617919922,4.537389755249023,8.402397155761719,-0.21943800151348114,0.3447360396385193,0.05579157918691635
-0.056530434638261795,4.503890514373779,8.886344909667969,-0.2146444469690323,0.331953227519989,0.17456506192684174
0.1495514214038849,4.613960266113281,8.970093727111816,-0.1177082508802414,0.34846433997154236,0.21344606578350067
0.1495514214038849,4.721936225891113,9.176176071166992,-0.04966649040579796,0.34739911556243896,0.23421810567378998
0.16151553392410278,4.702793598175049,9.14985466003418,0.04833494871854782,0.3745625615119934,0.26830556988716125
0.10408778488636017,4.901398181915283,8.996415138244629,0.1250317245721817,0.3745625615119934,0.29972994327545166
0.3364906907081604,4.803292274475098,8.986844062805176,0.18095645308494568,0.3633776009082794,0.32476291060447693
0.7746763229370117,4.867898464202881,8.793025016784668,0.1900109350681305,0.3516600430011749,0.335415244102478
0.9807581901550293,4.841577529907227,8.871988296508789,0.13248835504055023,0.35911667346954346,0.2757622003555298
0.5542375445365906,4.877470016479492,9.015856742858887,0.12716218829154968,0.3559209704399109,0.22569625079631805
0.30538398027420044,4.925326347351074,8.8648099899292,0.23475073277950287,0.2505960762500763,0.19267402589321136
0.44416770339012146,4.805685043334961,9.11874771118164,0.2422073632478714,0.07536523789167404,0.22729410231113434
0.3556332588195801,4.846363067626953,9.442078590393066,0.24700090289115906,0.05619104206562042,0.26777294278144836
0.13040883839130402,4.887041091918945,9.300901412963867,0.2619141638278961,0.12063764035701752,0.2613815665245056
-0.030209386721253395,4.85114860534668,9.03978443145752,0.2608489394187927,0.16324695944786072,0.26777294278144836
-0.21684955060482025,4.6402812004089355,8.574978828430176,0.2640446424484253,0.32715970277786255,0.26937079429626465
-0.37507495284080505,4.999803066253662,8.606085777282715,0.22569625079631805,0.3745625615119934,0.2746969759464264
-0.4731806814670563,5.174479007720947,8.479266166687012,0.18734785914421082,0.31703996658325195,0.26883819699287415
-0.6194419860839844,5.179264545440674,8.838488578796387,0.17243459820747375,0.18188853561878204,0.2507292330265045
-0.4301098585128784,5.059623718261719,9.116354942321777,0.24007689952850342,0.1222354918718338,0.2198374718427658
-0.18813568353652954,4.808077812194824,8.931808471679688,0.2214353084564209,0.12063764035701752,0.2006632685661316
-0.056530434638261795,4.657031059265137,9.216854095458984,0.09520520269870758,0.17389929294586182,0.19693495333194733
-0.33439695835113525,4.295415878295898,9.705587387084961,0.04726971685886383,0.24526990950107574,0.19427187740802765
-0.45643091201782227,4.266701698303223,9.827920913696289,0.09147688746452332,0.25472384691238403,0.19586972892284393
-0.5811567902565002,4.369593143463135,9.585947036743164,0.34287187457084656,0.22503048181533813,0.1878804713487625
-0.6840481758117676,4.470390796661377,8.567800521850586,0.5499265193939209,0.14140968024730682,0.15059731900691986
-1.007378339767456,4.357629299163818,8.033602714538574,0.5095808506011963,0.16750788688659668,0.15379302203655243
-1.0217353105545044,4.709972381591797,8.184350967407227,0.40891632437705994,0.13128997385501862,0.18308693170547485
-0.8805587291717529,4.884648323059082,8.160422325134277,0.30186042189598083,0.10465914756059647,0.14793424308300018
-0.8207381963729858,4.882255554199219,7.671688556671143,0.2741643488407135,-0.15152940154075623,0.06537867337465286
-0.6218347549438477,5.114658355712891,8.64915657043457,0.026497671380639076,0.2282261699438095,0.03342168778181076
-0.7342974543571472,5.2992048263549805,8.960522651672363,0.052063263952732086,0.41504141688346863,-0.0053261648863554
-1.0698908567428589,5.160121917724609,8.507980346679688,0.2517944574356079,0.27230018377304077,0.0021304660476744175
-1.3070793151855469,5.263312339782715,8.05513858795166,0.4552539587020874,0.17017097771167755,0.09520520269870758
-1.3070793151855469,5.821438312530518,7.930412292480469,0.5440677404403687,0.1328878253698349,0.11597724258899689
-1.165603756904602,5.953043460845947,7.3052873611450195,0.5079829692840576,0.34633389115333557,0.04833494871854782
-1.2326027154922485,6.096911907196045,6.531508445739746,0.09786828607320786,0.20372581481933594,0.03661738336086273
-1.8026927709579468,5.936294078826904,7.3675007820129395,-0.16404588520526886,0.017310036346316338,0.004660394508391619
-1.378864049911499,5.629713535308838,8.086244583129883,-0.42236489057540894,-0.2500634491443634,-0.07030537724494934
-1.074676513671875,5.943472385406494,8.661120414733887,-0.3302222490310669,-0.3948020040988922,-0.053794268518686295
-0.8614161610603333,5.953043460845947,8.38564682006836,-0.0874822586774826,-0.3857475221157074,-0.042076703161001205
-0.9308080077171326,5.691926956176758,7.851449489593506,0.08615072071552277,-0.26657456159591675,-0.02236989326775074
-0.8709874153137207,5.555535793304443,7.7222371101379395,0.10958584398031235,-0.21224768459796906,-0.0053261648863554
-0.8733802437782288,5.708676815032959,7.849056243896484,0.037150003015995026,-0.17230144143104553,0.024367205798625946
-0.794417142868042,5.933900833129883,8.234899520874023,-0.08215609937906265,-0.10998530685901642,0.033954303711652756
-0.7319046258926392,6.025127410888672,8.306683540344238,-0.1496652364730835,-0.009853405877947807,0.02276935614645481
-0.758225679397583,6.065805435180664,8.052745819091797,-0.031024912372231483,-0.014114337973296642,0.016910573467612267
-0.5667998790740967,6.199803352355957,7.307680130004883,0.21451130509376526,-0.12330072373151779,0.016910573467612267
-0.24825534224510193,6.0849480628967285,6.749554634094238,0.3290238380432129,-0.28787922859191895,-0.0079892473295331
-0.2192423790693283,6.154339790344238,6.888637065887451,0.15911918878555298,-0.36124715209007263,-0.03408745676279068
-0.4013960063457489,6.312565326690674,7.22871732711792,-0.016111649572849274,-0.32889068126678467,-0.048468101769685745
-0.7848458290100098,6.168696880340576,8.138887405395508,-0.2561885416507721,-0.16058388352394104,-0.052729032933712006
-0.9475577473640442,6.180660724639893,8.720941543579102,-0.12995843589305878,-0.0583215095102787,-0.0063913981430232525
-0.7728816866874695,6.1399827003479,8.266005516052246,0.2416747361421585,-0.1451379954814911,0.04993279650807381
-0.3655036687850952,6.120840549468994,7.446763038635254,0.46004751324653625,-0.3256950080394745,0.03608476743102074
-0.39900317788124084,6.777071952819824,7.573582649230957,0.07975932210683823,-0.28734660148620605,-0.13102366030216217
-0.5018945336341858,6.161518096923828,7.736593723297119,0.11331415921449661,-0.3256950080394745,-0.1288931965827942
-0.2554338276386261,6.096911907196045,8.167600631713867,0.18308693170547485,-0.30971649289131165,-0.058055199682712555
-0.034995030611753464,6.147161483764648,8.23250675201416,0.2006632685661316,-0.2809551954269409,-0.03834838792681694
0.2069791555404663,6.254838466644287,7.88494873046875,0.145803764462471,-0.2697702646255493,-0.05645735189318657
0.13280165195465088,6.020042896270752,7.599903583526611,-0.005991935729980469,-0.37136685848236084,-0.11397993564605713
-0.08285148441791534,5.797510147094727,7.717451095581055,-0.1390129029750824,-0.37349733710289,-0.1608501821756363
-0.15463615953922272,5.449952602386475,8.25404167175293,-0.18641577661037445,-0.24846559762954712,-0.1720351278781891
-0.08045866340398788,5.510072231292725,8.701798439025879,-0.03794892504811287,-0.11477886140346527,-0.1262301206588745
0.08255238085985184,5.759224891662598,8.34018325805664,0.14953207969665527,-0.13821399211883545,-0.09374050796031952
-0.04935196787118912,5.826223850250244,7.856235027313232,0.14101022481918335,-0.27669426798820496,-0.09693620353937149
-0.1618146300315857,5.644070625305176,7.9953179359436035,0.013714875094592571,-0.22290000319480896,-0.08681648969650269
0.0032901312224566936,5.6153564453125,8.287541389465332,-0.03368799388408661,-0.07110430300235748,-0.08255556225776672
-0.011066804639995098,5.454738140106201,8.37846851348877,-0.0011983871227130294,0.04713656008243561,-0.0958709716796875
-0.10677970945835114,5.567500114440918,8.258827209472656,0.05366111174225807,0.10838746279478073,-0.10865376889705658
-0.09481559693813324,5.557928562164307,8.122137069702148,0.14101022481918335,0.04607132822275162,-0.13155627250671387
0.46331027150154114,5.651248931884766,7.3052873611450195,0.14846685528755188,-0.05565842613577843,-0.17363297939300537
0.5446662306785583,5.67756986618042,7.286144733428955,0.06324820965528488,0.06258244067430496,-0.1906767040491104
0.6215356588363647,5.723033428192139,7.508976459503174,-0.009187635034322739,0.14567062258720398,-0.2135792225599289
0.46331027150154114,5.74696159362793,7.688737392425537,-0.10545806586742401,0.09666989743709564,-0.23275341093540192
0.786640465259552,5.60817813873291,8.091031074523926,-0.18907886743545532,0.011983871459960938,-0.24287313222885132
0.3002992272377014,5.447559833526611,8.285148620605469,-0.21837277710437775,0.0034620072692632675,-0.3115806579589844
0.015254244208335876,5.344668388366699,8.330612182617188,-0.3073197305202484,0.08282186836004257,-0.2535254657268524
0.022432712838053703,5.203192710876465,8.68026351928711,-0.3195699155330658,0.16111649572849274,-0.1688394397497177
0.06340979784727097,5.332704544067383,8.766703605651855,-0.1704372763633728,0.13821399211883545,-0.11131685227155685
0.061016976833343506,5.481059551239014,8.129315376281738,0.05312849581241608,0.00452724052593112,-0.07935985922813416
-0.0062811593525111675,5.577071189880371,7.310073375701904,0.12822742760181427,-0.14034445583820343,-0.051663801074028015
0.11126625537872314,5.718247890472412,7.068099021911621,-0.012915950268507004,-0.15951864421367645,-0.013315413147211075
0.24047867953777313,5.703890800476074,7.465905666351318,-0.17363297939300537,-0.10998530685901642,-0.029293907806277275
0.2835494875907898,5.866901874542236,7.267002582550049,-0.2348838746547699,-0.09294158220291138,-0.16298064589500427
-0.06610172241926193,5.639284610748291,7.743772506713867,-0.39892977476119995,-0.12756165862083435,-0.14487169682979584
-0.3607180118560791,5.60817813873291,8.447860717773438,-0.4031907021999359,-0.07270215451717377,-0.06551183015108109
-0.4468596279621124,5.382953643798828,8.38564682006836,-0.19600287079811096,0.031158065423369408,0.05632419511675835
-0.14745768904685974,5.502893924713135,7.889734268188477,-0.036351077258586884,0.07483261823654175,0.18308693170547485
0.02961117960512638,5.536393165588379,8.105387687683105,-0.0454055592417717,0.08069140464067459,0.21397867798805237
0.2309073805809021,5.694319725036621,8.637192726135254,-0.10758853703737259,0.1872147023677826,0.21877223253250122
0.2907279431819916,5.8118672370910645,8.962915420532227,-0.10971900075674057,0.2786915898323059,0.2091851383447647
0.2069791555404663,6.128018856048584,9.090034484863281,0.009453942999243736,0.37829089164733887,0.1900109350681305
0.1256231814622879,6.149554252624512,8.735298156738281,0.10852061212062836,0.34686651825904846,0.18202169239521027
0.07776673883199692,6.068198204040527,7.9713897705078125,0.22889193892478943,0.1962691843509674,0.19373925030231476
0.26201409101486206,5.962615013122559,7.75334358215332,0.17509767413139343,0.12170287221670151,0.18681524693965912
0.1495514214038849,6.065805435180664,7.803592681884766,0.016910573467612267,0.197334423661232,0.1681736707687378
0.259621262550354,5.933900833129883,7.99292516708374,-0.0964035913348198,0.26271310448646545,0.16284750401973724
0.29312077164649963,5.996114253997803,8.08385181427002,-0.0773625448346138,0.24526990950107574,0.16018441319465637
0.45134615898132324,5.9937214851379395,8.05513858795166,0.03661738336086273,0.18242116272449493,0.15166255831718445
0.6167500615119934,5.737390518188477,8.126922607421875,0.07070484012365341,0.12063764035701752,0.15112993121147156
0.4298107624053955,5.7062835693359375,8.579764366149902,0.004660394508391619,0.16271434724330902,0.178293377161026
0.18544375896453857,5.754439353942871,8.783453941345215,-0.02729659713804722,0.20053011178970337,0.1900109350681305
-0.07567301392555237,5.725426197052002,8.821739196777344,0.029693370684981346,0.22290000319480896,0.232087641954422
-0.18813568353652954,5.589035511016846,8.23250675201416,0.21717438101768494,0.21597599983215332,0.2762948274612427
-0.1905284970998764,5.54596471786499,7.664510250091553,0.3615134656429291,0.24313943088054657,0.3183715343475342
0.02961117960512638,5.764010429382324,7.453941822052002,0.3828181326389313,0.30425718426704407,0.3199693560600281
0.33409786224365234,5.912365436553955,7.271788120269775,0.27842527627944946,0.3218335211277008,0.3077192008495331
0.35802608728408813,5.902794361114502,7.966603755950928,0.20226112008094788,0.37243208289146423,0.2113156020641327
0.10408778488636017,5.79990291595459,8.23968505859375,0.18042384088039398,0.4049217104911804,0.16497796773910522
-0.31046873331069946,5.797510147094727,8.330612182617188,0.22942456603050232,0.3346163332462311,0.15485824644565582
-0.32721850275993347,5.723033428192139,7.9881391525268555,0.2619141638278961,0.29626792669296265,0.16338011622428894
-0.3320041298866272,5.790331840515137,7.6911301612854,0.12290126085281372,0.40438908338546753,0.1569887101650238
-0.4827519655227661,5.727818965911865,8.165207862854004,-0.08002562820911407,0.5274235010147095,0.1575213372707367
-0.5069792866706848,5.653641700744629,8.294719696044922,-0.12463226169347763,0.5428693890571594,0.17403244972229004
-0.6002993583679199,5.795117378234863,8.273183822631836,-0.10172975063323975,0.5013253092765808,0.18521739542484283
-1.0049854516983032,5.845366477966309,8.153244018554688,-0.03528584539890289,0.3671059310436249,0.1884130984544754
-0.882951557636261,5.605785369873047,8.210970878601074,0.050998032093048096,0.17709499597549438,0.21557652950286865
-0.31046873331069946,5.466702461242676,7.880163192749023,0.09893351793289185,0.13768136501312256,0.21291345357894897
-0.25064817070961,5.43080997467041,7.695915699005127,-0.017176883295178413,0.16218173503875732,0.1692388951778412
-0.494716078042984,5.569892883300781,7.952247142791748,-0.19973118603229523,0.21384553611278534,0.11864032596349716
-0.7151548862457275,5.569892883300781,8.153244018554688,-0.25139498710632324,0.2181064635515213,0.09573781490325928
-0.8973084688186646,5.454738140106201,8.311469078063965,-0.2130466103553772,0.18455162644386292,0.08135717362165451
-0.8805587291717529,5.373382568359375,8.299505233764648,-0.1267627328634262,0.15206201374530792,0.09094426780939102
-0.6098706722259521,5.452345371246338,8.299505233764648,0.09200949966907501,0.13661614060401917,0.1138467788696289
-0.9954141974449158,5.473880767822266,8.04796028137207,0.18734785914421082,0.21331290900707245,0.08348763734102249
-1.3621143102645874,5.627320766448975,7.947461128234863,0.11331415921449661,0.1547250896692276,0.08188978582620621
-1.311864972114563,5.5005011558532715,7.645367622375488,0.05792204663157463,0.03328853100538254,0.11704248189926147
-1.1081759929656982,5.445167064666748,7.477869987487793,0.008921326138079166,-0.0018641578499227762,0.10639014840126038
-0.9020941257476807,5.461916923522949,7.439584732055664,-0.010785484686493874,0.08495233207941055,0.0717700719833374
-0.9978070259094238,5.517251014709473,7.604689598083496,-0.005459319334477186,0.15898603200912476,0.020106272771954536
-1.2804591655731201,5.73978328704834,7.6911301612854,-0.05712312087416649,0.05619104206562042,-0.02450035884976387
-1.3908281326293945,5.831009864807129,7.872984886169434,-0.08588441461324692,-0.019973119720816612,-0.033554840832948685
-1.5032907724380493,5.857330799102783,8.021638870239258,-0.06244928762316704,-0.16377957165241241,-0.037815771996974945
-1.472184181213379,5.8357954025268555,7.899305820465088,-0.033155377954244614,-0.20958459377288818,-0.02982652559876442
-1.3860424757003784,5.797510147094727,7.63818883895874,-0.020372580736875534,-0.22396524250507355,-0.02556559257209301
-1.184746265411377,5.620141983032227,7.820342540740967,-0.10758853703737259,-0.20532366633415222,-0.028228675946593285
-0.9284151792526245,5.644070625305176,8.174779891967773,-0.15126308798789978,-0.27616167068481445,-0.030359141528606415
-1.2732807397842407,5.941079616546631,8.606085777282715,-0.11025162041187286,-0.4480636417865753,-0.08149032294750214
-1.251745343208313,5.795117378234863,8.622835159301758,0.03874785080552101,-0.6600450277328491,-0.1272953450679779
-0.8063812255859375,5.756832122802734,8.107780456542969,0.16444534063339233,-0.6786866188049316,-0.16670896112918854
-0.44446679949760437,6.0466628074646,7.666903018951416,0.14314068853855133,-0.5093145370483398,-0.22582940757274628
-0.42771705985069275,6.0777692794799805,7.425227642059326,0.07070484012365341,-0.3043903410434723,-0.28228676319122314
-0.6553342938423157,6.128018856048584,7.262216567993164,-0.0027962366584688425,-0.21437814831733704,-0.299330472946167
-0.9690931439399719,6.034698486328125,7.357929706573486,-0.15925233066082,-0.07749570161104202,-0.2652430236339569
-1.0001999139785767,5.988935947418213,7.892127513885498,-0.21997061371803284,-0.025831900537014008,-0.2354165017604828
-0.8542376756668091,5.996114253997803,7.47547721862793,0.0014646954368799925,0.0007989247678779066,-0.264710396528244
-0.9427721500396729,5.962615013122559,7.511369228363037,-0.037416309118270874,-0.03861469775438309,-0.27323228120803833
-1.0555338859558105,5.957829475402832,7.63101053237915,-0.08428656309843063,-0.08282186836004257,-0.26204732060432434
-1.0914262533187866,5.881258964538574,7.6839518547058105,-0.11397993564605713,-0.05672365799546242,-0.22902509570121765
-1.0794621706008911,5.8357954025268555,7.782057285308838,-0.12409964948892593,-0.026364516466856003,-0.21570968627929688
-1.0459625720977783,5.792724609375,7.9642109870910645,-0.11504516750574112,-0.00399462366476655,-0.2023942768573761
-0.9092726111412048,5.795117378234863,7.945068359375,-0.066177599132061,-0.07270215451717377,-0.20772044360637665
-0.9092726111412048,5.814260005950928,7.695915699005127,-0.06298190355300903,-0.16750788688659668,-0.21837277710437775
-0.8733802437782288,5.900401592254639,7.906484127044678,-0.09959928691387177,-0.19200825691223145,-0.2146444469690323
-0.8590233325958252,5.838188171386719,7.925626754760742,-0.012383334338665009,-0.19520394504070282,-0.1810896098613739
-0.8877372145652771,5.881258964538574,7.499405384063721,0.02276935614645481,-0.21970431506633759,-0.1709699034690857
-0.758225679397583,5.893223285675049,7.719843864440918,-0.03954677656292915,-0.23035664856433868,-0.16404588520526886
-0.758225679397583,5.957829475402832,7.911269664764404,-0.07629731297492981,-0.2505960762500763,-0.15179570019245148
-0.758225679397583,5.974578857421875,7.961818218231201,0.03608476743102074,-0.31930360198020935,-0.1395455300807953
-0.755832850933075,5.97936487197876,7.9280195236206055,0.03874785080552101,-0.3756277859210968,-0.14274121820926666
-0.6002993583679199,6.099305152893066,7.990531921386719,-0.01770949922502041,-0.3990629315376282,-0.16564373672008514
-0.5907281041145325,6.116054534912109,8.016853332519531,-0.005991935729980469,-0.3974650800228119,-0.1688394397497177
-0.4085744619369507,6.1399827003479,8.067102432250977,0.08721595257520676,-0.43528082966804504,-0.1704372763633728
-0.5069792866706848,6.489634037017822,7.331608772277832,0.16231487691402435,-0.5593804717063904,-0.20505735278129578
-0.49710890650749207,6.3484578132629395,7.705487251281738,0.16444534063339233,-0.530619204044342,-0.20079642534255981
-0.4612165689468384,6.2500529289245605,7.942675590515137,0.04300878196954727,-0.44380271434783936,-0.17469821870326996
-0.20488543808460236,6.336493492126465,8.893523216247559,-0.08428656309843063,-0.24260681867599487,-0.17256775498390198
-0.054137613624334335,6.166304111480713,8.96530818939209,-0.00226362026296556,-0.24207420647144318,-0.2018616646528244
-0.4899304509162903,5.725426197052002,8.426324844360352,0.07390054315328598,-0.36124715209007263,-0.13208889961242676
-0.2841476798057556,5.6584272384643555,8.342576026916504,0.07656362652778625,-0.31930360198020935,-0.08149032294750214
-0.07806584239006042,5.804688453674316,8.452646255493164,0.09041165560483932,-0.06151720881462097,-0.08149032294750214
-0.3535395562648773,5.7517476081848145,7.940282821655273,0.09041165560483932,-0.017842652276158333,-0.12356702983379364
-0.6457630395889282,5.442774295806885,7.470691204071045,0.06857437640428543,-0.14673584699630737,-0.14114338159561157
-0.8207381963729858,5.387739181518555,7.7222371101379395,0.06804175674915314,-0.23461757600307465,-0.06497921794652939
-0.6122635006904602,5.48584508895874,7.717451095581055,0.11171631515026093,-0.18242116272449493,0.0185084231197834
-0.3774677813053131,5.402096271514893,8.040781021118164,0.19746756553649902,-0.0801587849855423,0.07549838721752167
0.03469592705368996,5.577071189880371,7.957032680511475,0.33168694376945496,-0.09294158220291138,0.09467258304357529
-0.06370890140533447,5.723033428192139,7.7940216064453125,0.3711005449295044,-0.132355198264122,0.06378082931041718
-0.2024926096200943,5.895616054534912,7.552047252655029,0.31198012828826904,-0.2394111156463623,0.01637795753777027
-0.03978067636489868,5.720640659332275,7.389036178588867,0.178293377161026,-0.18455162644386292,-0.06497921794652939
0.09451649338006973,5.510072231292725,7.556832790374756,0.06484606117010117,-0.0023967742454260588,-0.08149032294750214
0.2763710021972656,5.54596471786499,7.6911301612854,0.04993279650807381,0.03595161437988281,-0.058055199682712555
0.12083754688501358,5.5722856521606445,8.079066276550293,0.015312724746763706,0.07696308940649033,-0.04687025398015976
-0.1666002720594406,5.6584272384643555,8.052745819091797,0.011051792651414871,0.08441971987485886,-0.035685304552316666
-0.07328019291162491,5.483452320098877,7.7700934410095215,0.04620448127388954,-0.020505735650658607,0.007323476951569319
0.26201409101486206,5.483452320098877,7.5927252769470215,0.07496577501296997,-0.07856093347072601,0.0504654161632061
0.34606197476387024,5.603392601013184,7.47547721862793,0.001997311832383275,0.00452724052593112,0.037150003015995026
0.13040883839130402,5.534000396728516,7.834699630737305,-0.13368675112724304,0.12862688302993774,0.04513924941420555
0.13040883839130402,5.612963676452637,7.813164234161377,-0.1501978635787964,0.07696308940649033,0.06804175674915314
0.24287149310112,5.589035511016846,7.937591075897217,-0.04220985993742943,-0.22130216658115387,0.10053136944770813
0.36281174421310425,5.708676815032959,7.957032680511475,-0.013448567129671574,-0.22290000319480896,0.13302096724510193
0.5832505226135254,5.660820007324219,8.608478546142578,-0.1272953450679779,0.14620323479175568,0.1138467788696289
0.5928218364715576,5.663212776184082,8.761918067932129,-0.18961147964000702,0.457650750875473,0.0936073511838913
0.10408778488636017,5.809474468231201,8.591729164123535,-0.11930610239505768,0.33994248509407043,0.11171631515026093
0.19262222945690155,5.80708122253418,8.82652473449707,-0.03368799388408661,0.21650861203670502,0.1356840580701828
0.0849452018737793,5.962615013122559,8.970093727111816,0.13941237330436707,0.42409589886665344,0.12290126085281372
-0.2192423790693283,5.950650691986084,7.765307903289795,0.26724034547805786,0.3995955288410187,0.12290126085281372
-0.04695914313197136,5.797510147094727,7.583154201507568,0.24646829068660736,0.25152814388275146,0.12290126085281372
0.04666004329919815,5.9554362297058105,7.307680130004883,0.10479229688644409,0.22076953947544098,0.09893351793289185
-0.33918261528015137,6.020042896270752,7.798807144165039,-0.023568280041217804,0.15046416223049164,0.08082455396652222
-0.08763712644577026,5.974578857421875,8.004889488220215,-0.10492545366287231,0.12543119490146637,0.07496577501296997
-0.025423740968108177,5.9554362297058105,8.07667350769043,-0.1272953450679779,0.07962616533041,0.08402025699615479
-0.33439695835113525,5.831009864807129,8.325826644897461,-0.09280842542648315,0.0061250897124409676,0.09680305421352386
-0.1737787425518036,5.6584272384643555,8.313861846923828,-0.004926702938973904,-0.0790935531258583,0.17296721041202545
0.32931220531463623,5.74696159362793,8.119744300842285,-0.03528584539890289,-0.009320789016783237,0.24060951173305511
0.21655045449733734,5.988935947418213,7.913662910461426,-0.1390129029750824,0.11051792651414871,0.2869471311569214
0.1543370634317398,5.850152492523193,7.602296829223633,-0.1821548491716385,0.23088926076889038,0.2427399754524231
0.0729810893535614,5.881258964538574,7.8179497718811035,-0.18535055220127106,0.2079867422580719,0.24646829068660736
0.16869398951530457,5.790331840515137,7.762914657592773,-0.16191542148590088,0.21544337272644043,0.2613815665245056
0.28115665912628174,5.86211633682251,7.734200954437256,-0.1704372763633728,0.21970431506633759,0.3359478712081909
0.36999019980430603,5.909972667694092,7.604689598083496,-0.20878566801548004,0.19893226027488708,0.3364804685115814
0.4250251352787018,5.909972667694092,7.724629878997803,-0.2854824364185333,0.22716094553470612,0.3412740230560303
0.4369892477989197,5.92432975769043,7.88494873046875,-0.3728315532207489,0.2568543255329132,0.34233927726745605
0.37956148386001587,5.797510147094727,8.107780456542969,-0.3829512596130371,0.23674803972244263,0.35405683517456055
0.34606197476387024,5.80708122253418,8.390432357788086,-0.31850466132164,0.2079867422580719,0.3567199110984802
0.4058825373649597,5.723033428192139,8.438288688659668,-0.20718781650066376,0.22290000319480896,0.3476654291152954
0.40348970890045166,5.620141983032227,8.299505233764648,-0.10279498994350433,0.2282261699438095,0.3721657991409302
0.38673996925354004,5.67039155960083,8.172386169433594,-0.0667102187871933,0.22396524250507355,0.38601380586624146
0.37956148386001587,5.73260498046875,8.131709098815918,-0.04966649040579796,0.2410089671611786,0.4137098789215088
0.5760720372200012,5.7735819816589355,8.23011302947998,-0.06777545064687729,0.30585503578186035,0.39666613936424255
0.6598208546638489,5.715855121612549,8.203493118286133,-0.07310161739587784,0.34739911556243896,0.37695932388305664
0.8057830333709717,5.828616619110107,8.114958763122559,-0.051264338195323944,0.36870378255844116,0.33221954107284546
0.7603194117546082,5.8357954025268555,8.021638870239258,-0.008122402243316174,0.31703996658325195,0.292805939912796
0.7244270443916321,5.857330799102783,7.980960845947266,0.0030625448562204838,0.289343923330307,0.27949050068855286
0.6933203339576721,5.8357954025268555,8.126922607421875,0.005193010903894901,0.3244965970516205,0.2651098668575287
0.5279164910316467,6.135197162628174,7.985746383666992,0.12023817747831345,0.3234313726425171,0.2203700840473175
0.631106972694397,6.240481376647949,7.834699630737305,0.10852061212062836,0.3010614812374115,0.19800019264221191
0.3939184248447418,5.8118672370910645,8.122137069702148,0.012649642303586006,0.23674803972244263,0.1884130984544754
0.18305093050003052,5.584249973297119,8.793025016784668,-0.13049104809761047,0.24367205798625946,0.25818586349487305
0.13280165195465088,5.342275619506836,9.12592601776123,-0.12196917831897736,0.33887726068496704,0.29919731616973877
0.15672987699508667,5.318347454071045,8.47178840637207,0.06005251035094261,0.31757259368896484,0.30239301919937134
0.24287149310112,5.308775901794434,7.611867904663086,0.2422073632478714,0.23728065192699432,0.25712060928344727
0.2715853750705719,5.498108386993408,7.10638427734375,0.22516362369060516,0.16750788688659668,0.18521739542484283
0.19262222945690155,5.471487998962402,7.295716285705566,0.08615072071552277,0.19307348132133484,0.14367330074310303
0.04666004329919815,5.466702461242676,7.734200954437256,-0.02942706272006035,0.26218047738075256,0.13834713399410248
-0.011066804639995098,5.557928562164307,7.976175308227539,-0.10758853703737259,0.2675066292285919,0.1569887101650238
0.039481572806835175,5.426024436950684,7.9642109870910645,-0.08588441461324692,0.26111525297164917,0.16124965250492096
0.24526432156562805,5.3303117752075195,8.553443908691406,0.08402025699615479,0.20319320261478424,0.10852061212062836
-0.03738785535097122,5.560321807861328,8.297112464904785,0.059519894421100616,0.18029068410396576,0.08774857223033905
0.13040883839130402,5.586642742156982,8.323433876037598,0.07496577501296997,0.1014634445309639,0.09627043455839157
0.30299118161201477,5.792724609375,8.234899520874023,0.061650361865758896,0.10625699162483215,0.07603100687265396
-0.17617157101631165,5.691926956176758,7.767700672149658,0.06644391268491745,0.111050546169281,0.07922670245170593
-0.19531415402889252,5.526822090148926,7.384250640869141,0.11065108329057693,-0.019973119720816612,0.12716218829154968
-0.21206390857696533,5.4403815269470215,7.418049335479736,0.06005251035094261,-0.03541899845004082,0.12662957608699799
-0.34636107087135315,5.392524719238281,7.832306861877441,-0.03688369318842888,0.010918638668954372,0.1250317245721817
-0.7295117974281311,5.315954685211182,8.227720260620117,-0.02410089783370495,-0.03595161437988281,0.16124965250492096
-0.39421752095222473,5.24416971206665,8.352147102355957,0.0925421193242073,0.1552577167749405,0.22250054776668549
0.1136590763926506,5.43080997467041,8.52472972869873,0.2837514579296112,0.36817115545272827,0.22409839928150177
-0.638584554195404,5.232205867767334,7.741379261016846,0.022236740216612816,0.35006219148635864,0.2310224175453186
-0.8422735929489136,5.320740222930908,8.138887405395508,-0.0953383520245552,0.31810522079467773,0.21344606578350067
-0.9403793215751648,5.222634315490723,8.596514701843262,-0.12463226169347763,0.31650736927986145,0.17349982261657715
-0.8709874153137207,5.114658355712891,8.237292289733887,0.028628136962652206,0.2909417748451233,0.15432563424110413
-0.8135597109794617,5.239384174346924,7.968996524810791,0.09627043455839157,0.2685718834400177,0.15379302203655243
-0.5620142221450806,5.574678421020508,7.7940216064453125,0.1356840580701828,0.1765623688697815,0.15166255831718445
-0.6960122585296631,5.878866195678711,7.81555700302124,0.07443315535783768,0.1541924774646759,0.09680305421352386
-0.8757730722427368,6.027520179748535,8.148458480834961,0.005193010903894901,0.04394086077809334,-0.01171756349503994
-0.9403793215751648,5.79990291595459,7.892127513885498,-0.047003407031297684,0.005592473316937685,0.0031956990715116262
-0.3655036687850952,5.648856163024902,7.997710704803467,-0.10439283400774002,-0.04127778112888336,0.08561810106039047
0.12083754688501358,5.833402633666992,8.36411190032959,-0.16617634892463684,0.002929390873759985,0.11011846363544464
0.16869398951530457,5.672784328460693,8.411968231201172,-0.1805569976568222,0.16804051399230957,0.09893351793289185
0.16151553392410278,5.663212776184082,8.630014419555664,-0.10226237028837204,0.23568280041217804,0.041410934180021286
-0.22402802109718323,5.960222244262695,8.323433876037598,0.05312849581241608,0.19254086911678314,-0.02663082629442215
-0.389431893825531,6.049055576324463,7.523333549499512,0.14260807633399963,0.07110430300235748,-0.0745663121342659
-0.2841476798057556,6.151947021484375,7.4587273597717285,0.10532491654157639,-0.015712186694145203,-0.13475197553634644
-0.12352947145700455,6.082555294036865,7.923233985900879,0.05792204663157463,0.03275591507554054,-0.1810896098613739
-0.3798605799674988,5.974578857421875,8.009675025939941,0.1031944528222084,0.06684337556362152,-0.20612259209156036
-1.129711389541626,5.998507499694824,7.755736351013184,0.21557652950286865,-0.08282186836004257,-0.18375270068645477
-0.7728816866874695,5.8357954025268555,7.5927252769470215,0.2411421239376068,-0.1440727710723877,-0.13421936333179474
-0.46360939741134644,5.79990291595459,7.092027187347412,0.2422073632478714,-0.10838746279478073,-0.10812114924192429
-0.41575294733047485,6.082555294036865,6.972385883331299,0.14260807633399963,-0.08974587917327881,-0.1374150663614273
-0.5859424471855164,5.97936487197876,7.695915699005127,-0.10119713842868805,-0.4800206422805786,-0.38827744126319885
-0.5715855360031128,5.787939071655273,7.130312442779541,-0.14593692123889923,-0.4363460838794708,-0.38348388671875
-0.4899304509162903,5.792724609375,7.377072334289551,-0.3392767310142517,-0.3448691964149475,-0.3430050313472748
-0.12352947145700455,6.151947021484375,8.122137069702148,-0.41970181465148926,-0.3852148950099945,-0.2854824364185333
-0.19531415402889252,6.254838466644287,8.244470596313477,-0.2972000241279602,-0.4922707974910736,-0.24979715049266815
-0.01585244946181774,6.271588325500488,7.9713897705078125,-0.14167599380016327,-0.5577826499938965,-0.26897132396698
0.137587308883667,6.293422698974609,7.87777042388916,-0.016111649572849274,-0.615837812423706,-0.28441721200942993
0.22133609652519226,6.432206153869629,7.782057285308838,0.01957365684211254,-0.6440665125846863,-0.3073197305202484
0.15194423496723175,6.4680986404418945,7.75334358215332,-0.0017310036346316338,-0.6366099119186401,-0.3440702557563782
0.09930214285850525,6.465705871582031,7.837092399597168,-0.03528584539890289,-0.6914693713188171,-0.3738967776298523
-0.034995030611753464,6.451348781585693,7.913662910461426,-0.050199106335639954,-0.737807035446167,-0.3941362202167511
-0.1905284970998764,6.389135360717773,8.26121997833252,-0.060851436108350754,-0.8123733401298523,-0.4154408872127533
-0.1618146300315857,6.192625045776367,8.455039024353027,0.019041040912270546,-0.7990579009056091,-0.39094051718711853
-0.01824527233839035,6.278766632080078,8.34018325805664,0.12343387305736542,-0.7745575904846191,-0.3392767310142517
0.25722843408584595,6.451348781585693,7.029813766479492,0.178293377161026,-0.7489919662475586,-0.3115806579589844
0.4417748749256134,6.7555365562438965,7.880163192749023,0.033954303711652756,-0.6802844405174255,-0.3744294047355652
0.39152559638023376,6.693323135375977,7.957032680511475,-0.023568280041217804,-0.6563166975975037,-0.40851685404777527
0.2069791555404663,6.341279029846191,8.752346992492676,-0.08908011019229889,-0.6802844405174255,-0.4340824484825134
-0.1666002720594406,6.389135360717773,9.152247428894043,-0.015046416781842709,-0.7292851805686951,-0.3515268862247467
