accX,accY,accZ,gyroX,gyroY,gyroZ
-1.3157166242599487,1.0905416011810303,9.929258346557617,-0.030892645940184593,-0.09201214462518692,0.04048001766204834
-1.3013436794281006,1.085750699043274,9.991540908813477,0.0074568456038832664,-0.10053425282239914,0.0703074038028717
-1.2630161046981812,1.0953326225280762,9.84781265258789,0.02024000883102417,-0.10373004525899887,0.07882951200008392
-1.2438522577285767,1.085750699043274,9.73762035369873,0.008522109128534794,-0.11970899999141693,0.08522108942270279
-1.1336601972579956,1.009095311164856,9.728038787841797,-0.026631591841578484,-0.14314480125904083,0.09054741263389587
-0.9372310042381287,0.9180671572685242,9.747201919555664,-0.029827382415533066,-0.14207953214645386,0.0703074038028717
-0.87973952293396,0.9659767150878906,9.756784439086914,0.0,-0.11864373832941055,0.030892645940184593
-0.9707676768302917,1.1049144268035889,9.58910083770752,0.025566328316926956,-0.0834900364279747,0.025566328316926956
-0.8174570798873901,0.9516038298606873,9.670546531677246,0.02024000883102417,-0.03768370300531387,0.0703074038028717
-0.7647565007209778,0.9659767150878906,9.62742805480957,0.06072002649307251,0.0070573715493083,0.038349490612745285
-0.8845304250717163,1.0282591581344604,9.565145492553711,0.0564589723944664,-0.005725792143493891,0.009587372653186321
-0.8509937524795532,1.1049144268035889,9.474117279052734,0.004261054564267397,-0.03235738351941109,-0.0021305272821336985
-0.8557847142219543,1.119287371635437,9.502862930297852,-0.029827382415533066,-0.030226856470108032,-0.008522109128534794
-0.9563947916030884,1.1144963502883911,9.622637748718262,-0.045806337147951126,-0.029161592945456505,0.0074568456038832664
-0.87973952293396,0.9851405620574951,9.771157264709473,0.009587372653186321,0.015579480677843094,0.013848427683115005
-0.8989033102989197,1.0043044090270996,9.665756225585938,0.03195790946483612,0.028362644836306572,0.005326318088918924
-0.9276490807533264,0.9995134472846985,9.613055229187012,-0.008522109128534794,0.015579480677843094,0.0010652636410668492
-0.8989033102989197,0.9755586385726929,9.713665962219238,-0.05539371073246002,0.0017310534603893757,-0.008522109128534794
-0.8270389437675476,0.9707676768302917,9.8526029586792,-0.03195790946483612,0.012383690103888512,-0.02769685536623001
-0.8701575994491577,1.0953326225280762,9.785530090332031,0.02876211889088154,0.028362644836306572,-0.03941475600004196
-1.1144963502883911,1.1240782737731934,9.819067001342773,0.029827382415533066,0.04221107065677643,-0.04474107176065445
-1.2246884107589722,1.0953326225280762,9.814275741577148,0.0031957910396158695,0.004926844500005245,-0.022370535880327225
-1.080959677696228,1.1576149463653564,9.766366004943848,0.02876211889088154,-0.0025300011038780212,-0.03515370190143585
-1.085750699043274,1.2294793128967285,9.584309577941895,0.03515370190143585,-0.004660528618842363,-0.030892645940184593
-1.0905416011810303,1.2390612363815308,9.656173706054688,0.009587372653186321,0.014514217153191566,-0.014913691207766533
-1.0570049285888672,1.2103155851364136,9.699292182922363,0.0021305272821336985,0.012383690103888512,-0.004261054564267397
-1.1815698146820068,1.4402815103530884,9.483699798583984,-0.025566328316926956,0.1423458606004715,0.029827382415533066
-0.9659767150878906,1.047423005104065,10.11131477355957,0.0010652636410668492,0.034754227846860886,0.05965476483106613
-0.9947224855422974,1.0330501794815063,9.972376823425293,0.046871598809957504,-0.06644582003355026,0.013848427683115005
-1.042631983757019,1.1240782737731934,9.512445449829102,0.02769685536623001,0.01771000772714615,0.008522109128534794
-1.0617958307266235,1.1863607168197632,9.608263969421387,-0.0010652636410668492,0.04966791719198227,0.03621896356344223
-1.0617958307266235,1.047423005104065,9.881348609924316,0.0,-0.0035952648613601923,0.050067391246557236
-0.913276195526123,1.0617958307266235,9.699292182922363,0.02024000883102417,-0.016378428786993027,0.025566328316926956
-0.9516038298606873,1.1336601972579956,9.684919357299805,0.017044218257069588,0.02516685426235199,-0.0031957910396158695
-0.9611857533454895,1.119287371635437,9.728038787841797,0.009587372653186321,0.024101590737700462,0.009587372653186321
-0.9611857533454895,1.0617958307266235,9.780738830566406,0.03515370190143585,0.051798444241285324,0.008522109128534794
-1.042631983757019,1.0905416011810303,9.694501876831055,0.07243792712688446,0.06671213358640671,-0.0
-1.0905416011810303,1.1240782737731934,9.63701057434082,0.07669898122549057,0.07736477255821228,0.0031957910396158695
-1.047423005104065,1.1576149463653564,9.613055229187012,0.08309056609869003,0.11145320534706116,0.02450106292963028
-1.0761687755584717,1.1528240442276,9.622637748718262,-0.008522109128534794,0.06990792602300644,-0.050067391246557236
-1.253434181213379,1.253434181213379,9.823857307434082,-0.0021305272821336985,0.08162582665681839,-0.07669898122549057
-1.397162914276123,1.3348804712295532,9.775947570800781,0.010652636177837849,0.07203845679759979,-0.041545283049345016
-1.358835220336914,1.3300894498825073,9.742411613464355,0.0,0.06032055243849754,-0.0074568456038832664
-1.286970853805542,1.2246884107589722,9.83823013305664,0.012783164158463478,0.0624510794878006,-0.0021305272821336985
-1.3732080459594727,1.286970853805542,9.718456268310547,0.066046342253685,0.04647212475538254,-0.03515370190143585
-1.4259085655212402,1.4402815103530884,9.469326972961426,0.04367581009864807,0.04114580899477005,-0.018109481781721115
-1.3875809907913208,1.4450724124908447,9.536399841308594,-0.022370535880327225,0.024101590737700462,0.013848427683115005
-1.325298547744751,1.2917617559432983,9.68971061706543,0.05113265663385391,0.06032055243849754,0.0074568456038832664
-1.344462275505066,1.3396713733673096,9.718456268310547,0.0330231711268425,0.04008054360747337,0.013848427683115005
-1.248643159866333,1.1863607168197632,9.742411613464355,0.03515370190143585,0.039015281945466995,0.008522109128534794
-1.1719878911972046,1.1001235246658325,9.771157264709473,0.06498108059167862,0.06032055243849754,-0.012783164158463478
-1.320507526397705,1.2773889303207397,9.766366004943848,0.1502021700143814,0.11251847445964813,-0.0703074038028717
-1.7133660316467285,1.694202184677124,9.565145492553711,0.2077264040708542,0.14128059148788452,-0.0074568456038832664
-1.526518702507019,1.866676688194275,8.568626403808594,0.09480846673250198,-0.08455529808998108,0.12570111453533173
-1.0953326225280762,1.5073548555374146,9.857394218444824,-0.11824426054954529,0.07736477255821228,0.08735162019729614
-1.4402815103530884,1.2342703342437744,9.660964965820312,-0.18002955615520477,-0.14314480125904083,0.03941475600004196
-1.119287371635437,1.176778793334961,9.718456268310547,-0.2599243223667145,-0.1537974327802658,-0.02769685536623001
-1.4450724124908447,1.1863607168197632,10.183178901672363,-0.15446323156356812,-0.06751108169555664,-0.07563371956348419
-1.6894112825393677,1.3013436794281006,10.101733207702637,0.0074568456038832664,-0.0600542388856411,0.0031957910396158695
-1.5121458768844604,1.3396713733673096,9.651383399963379,0.06498108059167862,-0.017443692311644554,0.08096003532409668
-1.2055245637893677,1.2294793128967285,9.584309577941895,0.034088436514139175,-0.01318263728171587,0.0990695208311081
-1.047423005104065,1.1097054481506348,9.57951831817627,-0.011717899702489376,-0.04620581120252609,0.03728422895073891
-1.0761687755584717,1.1144963502883911,9.569936752319336,-0.041545283049345016,-0.07070687413215637,-0.03195790946483612
-1.0905416011810303,1.1815698146820068,9.694501876831055,-0.042610544711351395,-0.05685844644904137,-0.04474107176065445
-1.0953326225280762,1.191151738166809,9.828648567199707,-0.004261054564267397,-0.033422645181417465,-0.03728422895073891
-1.0713777542114258,1.2294793128967285,9.680129051208496,0.026631591841578484,-0.03235738351941109,-0.029827382415533066
-1.1336601972579956,1.282179832458496,9.73762035369873,0.012783164158463478,-0.0270310640335083,-0.04367581009864807
-1.1815698146820068,1.3061347007751465,9.728038787841797,0.018109481781721115,-0.04194475710391998,-0.05539371073246002
-1.282179832458496,1.3109256029129028,9.63701057434082,0.03941475600004196,-0.01318263728171587,-0.05113265663385391
-1.4019538164138794,1.3492532968521118,9.613055229187012,0.038349490612745285,-0.0035952648613601923,-0.025566328316926956
-1.397162914276123,1.325298547744751,9.598682403564453,0.010652636177837849,-0.0270310640335083,-0.0021305272821336985
-1.3109256029129028,1.3061347007751465,9.569936752319336,-0.01597895473241806,-0.040879491716623306,-0.0021305272821336985
-1.3013436794281006,1.3013436794281006,9.565145492553711,-0.018109481781721115,-0.01850895583629608,-0.005326318088918924
-1.344462275505066,1.3061347007751465,9.603473663330078,-0.010652636177837849,-0.00892158318310976,0.006391582079231739
-1.3636261224746704,1.2630161046981812,9.670546531677246,-0.02769685536623001,-0.01850895583629608,0.026631591841578484
-1.1288692951202393,1.1719878911972046,9.728038787841797,-0.012783164158463478,-0.00892158318310976,0.011717899702489376
-1.1576149463653564,1.21510648727417,9.680129051208496,0.008522109128534794,0.0017310534603893757,-0.0074568456038832664
-1.1480331420898438,1.320507526397705,9.62742805480957,-0.0021305272821336985,-0.005725792143493891,-0.008522109128534794
-1.176778793334961,1.4019538164138794,9.622637748718262,-0.02024000883102417,-0.009986846707761288,0.0010652636410668492
-1.1719878911972046,1.358835220336914,9.63701057434082,-0.02024000883102417,0.015579480677843094,0.02024000883102417
-1.1719878911972046,1.3061347007751465,9.742411613464355,-0.009587372653186321,0.02516685426235199,0.02769685536623001
-1.1528240442276,1.3061347007751465,9.766366004943848,0.009587372653186321,-0.0003994738799519837,0.01597895473241806
-1.1671968698501587,1.2917617559432983,9.593891143798828,-0.008522109128534794,-0.025965800508856773,0.009587372653186321
-1.1480331420898438,1.2294793128967285,9.57951831817627,-0.04474107176065445,-0.01850895583629608,0.014913691207766533
-1.1624059677124023,1.2103155851364136,9.704083442687988,-0.03515370190143585,0.002796316985040903,0.021305272355675697
-1.0953326225280762,1.1863607168197632,9.775947570800781,-0.0010652636410668492,0.004926844500005245,0.017044218257069588
-1.0905416011810303,1.2055245637893677,9.58910083770752,0.02024000883102417,0.01771000772714615,-0.0010652636410668492
-1.0953326225280762,1.3013436794281006,9.574728012084961,-0.008522109128534794,0.027297381311655045,-0.011717899702489376
-1.1480331420898438,1.2678070068359375,9.699292182922363,-0.038349490612745285,0.008122635073959827,-0.008522109128534794
-1.1240782737731934,1.1959426403045654,9.718456268310547,-0.014913691207766533,0.02090579830110073,-0.0031957910396158695
-1.1480331420898438,1.2007336616516113,9.704083442687988,0.022370535880327225,0.04966791719198227,-0.0021305272821336985
-1.2390612363815308,1.2630161046981812,9.641800880432129,0.019174745306372643,0.05712476372718811,-0.0074568456038832664
-1.2198973894119263,1.2725980281829834,9.632219314575195,-0.013848427683115005,0.028362644836306572,-0.0021305272821336985
-1.1719878911972046,1.2103155851364136,9.675337791442871,-0.02024000883102417,0.02516685426235199,-0.012783164158463478
-1.3157166242599487,1.2390612363815308,9.708874702453613,-0.006391582079231739,0.023036325350403786,-0.02024000883102417
-1.382789969444275,1.3013436794281006,9.751993179321289,-0.0330231711268425,-0.0035952648613601923,-0.0074568456038832664
-1.4019538164138794,1.2725980281829834,9.857394218444824,-0.06711161136627197,-0.03874896466732025,-0.0021305272821336985
-1.3923718929290771,1.2198973894119263,9.881348609924316,-0.05965476483106613,-0.04727107286453247,-0.0010652636410668492
-1.397162914276123,1.253434181213379,9.876558303833008,-0.02450106292963028,-0.04620581120252609,0.0031957910396158695
-1.4786090850830078,1.416326642036438,9.742411613464355,-0.022370535880327225,-0.07283740490674973,0.0074568456038832664
-1.3540441989898682,1.3875809907913208,9.684919357299805,-0.0564589723944664,-0.07709845900535583,0.05326318368315697
-1.2678070068359375,1.2582250833511353,9.809484481811523,-0.05219791829586029,-0.08562056720256805,0.06072002649307251
-1.2055245637893677,1.176778793334961,9.814275741577148,-0.0330231711268425,-0.09627319872379303,0.038349490612745285
-1.1863607168197632,1.2198973894119263,9.756784439086914,-0.02024000883102417,-0.10799109935760498,0.02769685536623001
-1.1480331420898438,1.282179832458496,9.68971061706543,-0.03941475600004196,-0.13888375461101532,0.03621896356344223
-1.0665868520736694,1.286970853805542,9.603473663330078,-0.066046342253685,-0.16125428676605225,0.04367581009864807
-1.0043044090270996,1.2678070068359375,9.536399841308594,-0.0798947736620903,-0.15699322521686554,0.04900212585926056
-0.9755586385726929,1.2294793128967285,9.560355186462402,-0.08415582776069641,-0.1399490088224411,0.058589499443769455
-0.8605756759643555,1.0713777542114258,9.684919357299805,-0.07669898122549057,-0.1261005848646164,0.06072002649307251
-0.7887113094329834,0.9947224855422974,9.675337791442871,-0.046871598809957504,-0.1069258376955986,0.030892645940184593
-0.7599655389785767,1.1288692951202393,9.603473663330078,-0.013848427683115005,-0.08455529808998108,0.018109481781721115
-0.6306097507476807,1.21510648727417,9.565145492553711,-0.02450106292963028,-0.07070687413215637,0.02450106292963028
-0.573118269443512,1.1049144268035889,9.555563926696777,-0.04367581009864807,-0.03981423005461693,0.022370535880327225
-0.5827001333236694,0.9899315237998962,9.73762035369873,-0.03195790946483612,0.011318426579236984,0.011717899702489376
-0.7791293859481812,0.9516038298606873,9.905303955078125,0.0330231711268425,0.023036325350403786,-0.03195790946483612
-0.9947224855422974,1.1001235246658325,8.999813079833984,0.041545283049345016,0.20093534886837006,-0.0330231711268425
-1.2342703342437744,1.1336601972579956,9.747201919555664,0.08628635853528976,0.14767217636108398,0.02876211889088154
-1.0953326225280762,1.2198973894119263,9.62742805480957,-0.06391581892967224,0.06032055243849754,-0.03195790946483612
-1.1863607168197632,1.2103155851364136,9.991540908813477,-0.03941475600004196,0.059255290776491165,0.0021305272821336985
-1.0905416011810303,1.1288692951202393,9.771157264709473,0.005326318088918924,0.03688475489616394,0.022370535880327225
-0.9659767150878906,1.1863607168197632,9.675337791442871,0.02450106292963028,0.06990792602300644,0.023435799404978752
-1.023468255996704,1.1719878911972046,9.83823013305664,-0.02024000883102417,0.03368896245956421,0.014913691207766533
-0.9707676768302917,1.1576149463653564,9.732829093933105,-0.008522109128534794,0.024101590737700462,0.0074568456038832664
-1.009095311164856,1.1671968698501587,9.63701057434082,0.014913691207766533,0.07203845679759979,0.009587372653186321
-1.0138863325119019,1.0953326225280762,9.708874702453613,0.034088436514139175,0.12317110598087311,0.023435799404978752
-1.0282591581344604,1.119287371635437,9.79990291595459,0.05539371073246002,0.1284974217414856,0.012783164158463478
-1.0378410816192627,1.2007336616516113,9.680129051208496,0.04367581009864807,0.08908267319202423,-0.011717899702489376
-0.9899315237998962,1.2438522577285767,9.541191101074219,0.008522109128534794,0.06990792602300644,-0.030892645940184593
-1.0186772346496582,1.1863607168197632,9.646592140197754,-0.004261054564267397,0.10080057382583618,-0.04048001766204834
-1.2725980281829834,1.1432421207427979,9.828648567199707,0.04793686419725418,0.06884266436100006,-0.009587372653186321
-1.325298547744751,1.1815698146820068,9.680129051208496,0.06498108059167862,0.06351634114980698,-0.02024000883102417
-1.344462275505066,1.2773889303207397,9.622637748718262,0.026631591841578484,0.04434159770607948,-0.023435799404978752
-1.3875809907913208,1.2582250833511353,9.58910083770752,-0.012783164158463478,0.0294279083609581,-0.023435799404978752
-1.4211176633834839,1.2630161046981812,9.785530090332031,-0.010652636177837849,0.04966791719198227,-0.012783164158463478
-1.4738181829452515,1.2246884107589722,9.886139869689941,0.013848427683115005,0.027297381311655045,0.009587372653186321
-1.3396713733673096,1.21510648727417,9.866975784301758,0.02769685536623001,0.004926844500005245,0.010652636177837849
-1.3492532968521118,1.21510648727417,9.814275741577148,0.022370535880327225,-0.004660528618842363,-0.0021305272821336985
-1.7996032238006592,1.3875809907913208,9.383089065551758,0.06285055726766586,-0.3135869801044464,0.0010652636410668492
-0.8366208672523499,1.7133660316467285,9.248942375183105,-0.1129179447889328,0.17856481671333313,0.0074568456038832664
-1.6367107629776,0.9899315237998962,10.025077819824219,-0.10439583659172058,-0.007856319658458233,0.01597895473241806
-1.1336601972579956,1.382789969444275,10.029869079589844,0.004261054564267397,-0.0739026665687561,0.005326318088918924
-1.2773889303207397,1.325298547744751,9.699292182922363,0.03728422895073891,0.005992108024656773,0.0330231711268425
-1.2103155851364136,1.3157166242599487,9.680129051208496,0.01597895473241806,-0.0270310640335083,0.046871598809957504
-1.1144963502883911,1.0282591581344604,9.814275741577148,-0.022370535880327225,-0.06218476593494415,-0.0031957910396158695
-1.1144963502883911,1.1815698146820068,9.670546531677246,0.03195790946483612,-0.03768370300531387,-0.03621896356344223
-1.1336601972579956,1.2582250833511353,9.608263969421387,0.023435799404978752,-0.029161592945456505,-0.026631591841578484
-1.1288692951202393,1.3013436794281006,9.656173706054688,-0.0031957910396158695,-0.03768370300531387,-0.019174745306372643
-1.1671968698501587,1.2630161046981812,9.670546531677246,-0.017044218257069588,-0.0366184376180172,-0.014913691207766533
-1.2007336616516113,1.2055245637893677,9.751993179321289,-0.004261054564267397,-0.025965800508856773,-0.006391582079231739
-1.2390612363815308,1.191151738166809,9.756784439086914,0.012783164158463478,-0.021704746410250664,-0.0031957910396158695
-1.2725980281829834,1.2342703342437744,9.684919357299805,0.005326318088918924,-0.020639482885599136,0.010652636177837849
-1.191151738166809,1.1959426403045654,9.665756225585938,-0.0074568456038832664,-0.025965800508856773,0.022370535880327225
-1.1240782737731934,1.1432421207427979,9.675337791442871,-0.012783164158463478,-0.014247900806367397,0.013848427683115005
-1.1336601972579956,1.1959426403045654,9.646592140197754,-0.010652636177837849,-0.03235738351941109,-0.005326318088918924
-1.1384512186050415,1.21510648727417,9.63701057434082,0.0021305272821336985,0.012383690103888512,0.0010652636410668492
-1.080959677696228,1.2007336616516113,9.73762035369873,-0.012783164158463478,0.014514217153191566,0.026631591841578484
-1.0330501794815063,1.1336601972579956,9.732829093933105,-0.008522109128534794,0.015579480677843094,0.0021305272821336985
-1.0378410816192627,1.1336601972579956,9.723247528076172,0.0010652636410668492,0.02090579830110073,-0.010652636177837849
-1.1097054481506348,1.1815698146820068,9.728038787841797,0.010652636177837849,0.039015281945466995,-0.019174745306372643
-1.2294793128967285,1.1959426403045654,9.775947570800781,0.013848427683115005,0.02197106182575226,-0.010652636177837849
-1.1959426403045654,1.2007336616516113,9.761574745178223,0.017044218257069588,0.005992108024656773,-0.0010652636410668492
-1.21510648727417,1.2582250833511353,9.713665962219238,0.009587372653186321,0.002796316985040903,-0.005326318088918924
-1.253434181213379,1.2773889303207397,9.718456268310547,-0.013848427683115005,-0.017443692311644554,-0.004261054564267397
-1.248643159866333,1.320507526397705,9.665756225585938,-0.023435799404978752,-0.033422645181417465,-0.0021305272821336985
-1.2198973894119263,1.3300894498825073,9.684919357299805,-0.022370535880327225,-0.020639482885599136,0.011717899702489376
-1.1815698146820068,1.286970853805542,9.660964965820312,-0.0010652636410668492,-0.011052110232412815,0.02450106292963028
-1.1240782737731934,1.2773889303207397,9.622637748718262,0.0021305272821336985,0.008122635073959827,0.0330231711268425
-1.119287371635437,1.2390612363815308,9.675337791442871,-0.0074568456038832664,0.010253162123262882,0.029827382415533066
-1.0186772346496582,1.1288692951202393,9.732829093933105,-0.02450106292963028,-0.011052110232412815,0.005326318088918924
-0.9516038298606873,1.1576149463653564,9.761574745178223,0.017044218257069588,0.01664474420249462,-0.012783164158463478
-1.0665868520736694,1.2630161046981812,9.73762035369873,0.03941475600004196,0.01771000772714615,-0.014913691207766533
-1.1480331420898438,1.2965527772903442,9.603473663330078,0.006391582079231739,-0.0025300011038780212,0.0021305272821336985
-1.0665868520736694,1.2198973894119263,9.708874702453613,-0.022370535880327225,0.0070573715493083,0.009587372653186321
-1.119287371635437,1.1432421207427979,9.857394218444824,-0.005326318088918924,0.003861580742523074,-0.0074568456038832664
-1.2103155851364136,1.1384512186050415,9.771157264709473,0.005326318088918924,-0.029161592945456505,-0.026631591841578484
-1.21510648727417,1.1624059677124023,9.665756225585938,-0.011717899702489376,-0.0366184376180172,-0.029827382415533066
-1.191151738166809,1.21510648727417,9.680129051208496,-0.006391582079231739,-0.021704746410250664,-0.03728422895073891
-1.2342703342437744,1.320507526397705,9.670546531677246,0.021305272355675697,0.0006657897611148655,-0.02769685536623001
-1.21510648727417,1.3779990673065186,9.57951831817627,0.02450106292963028,-0.0035952648613601923,-0.0010652636410668492
-1.119287371635437,1.3492532968521118,9.522027015686035,-0.008522109128534794,-0.0025300011038780212,0.010652636177837849
-1.0570049285888672,1.2246884107589722,9.680129051208496,-0.03515370190143585,0.012383690103888512,0.0021305272821336985
-1.0570049285888672,1.1240782737731934,9.751993179321289,0.023435799404978752,0.03262370079755783,-0.026631591841578484
-1.1671968698501587,1.2055245637893677,9.665756225585938,0.03941475600004196,0.047537390142679214,-0.02769685536623001
-1.2055245637893677,1.2342703342437744,9.684919357299805,0.025566328316926956,0.047537390142679214,-0.018109481781721115
-1.1576149463653564,1.2390612363815308,9.742411613464355,-0.0010652636410668492,0.014514217153191566,-0.009587372653186321
-1.4067447185516357,1.8379309177398682,8.745892524719238,-0.08202529698610306,0.11571425944566727,0.022370535880327225
-1.2582250833511353,1.3109256029129028,9.747201919555664,-0.12463584542274475,0.08482161909341812,0.08522108942270279
-1.1240782737731934,0.9755586385726929,10.164015769958496,-0.07669898122549057,0.034754227846860886,0.07137266546487808
-1.085750699043274,0.8222479820251465,10.192761421203613,-0.014913691207766533,-0.024900536984205246,0.03195790946483612
-1.1336601972579956,1.0330501794815063,9.646592140197754,0.025566328316926956,0.01664474420249462,-0.02024000883102417
-1.1671968698501587,1.1719878911972046,9.809484481811523,-0.045806337147951126,0.04221107065677643,-0.005326318088918924
-1.0378410816192627,1.119287371635437,10.034659385681152,-0.06391581892967224,-0.0003994738799519837,-0.010652636177837849
-0.9468128681182861,1.1240782737731934,9.79990291595459,-0.010652636177837849,-0.01318263728171587,-0.045806337147951126
-1.0522139072418213,1.2773889303207397,9.632219314575195,0.01597895473241806,0.030493171885609627,-0.06072002649307251
-1.1528240442276,1.3061347007751465,9.680129051208496,0.004261054564267397,0.03795001655817032,-0.04900212585926056
-1.2198973894119263,1.2198973894119263,9.751993179321289,0.006391582079231739,0.02516685426235199,-0.042610544711351395
-1.3109256029129028,1.2198973894119263,9.775947570800781,0.01597895473241806,0.035819489508867264,-0.04367581009864807
-1.4642362594604492,1.2582250833511353,9.881348609924316,0.008522109128534794,0.003861580742523074,-0.03941475600004196
-1.4834001064300537,1.2630161046981812,9.84781265258789,-0.011717899702489376,-0.04727107286453247,-0.0330231711268425
-1.4211176633834839,1.2103155851364136,9.905303955078125,0.0010652636410668492,-0.03129211813211441,-0.018109481781721115
-1.4211176633834839,0.8366208672523499,10.07298755645752,-0.07776424288749695,0.011318426579236984,0.02769685536623001
-1.454654335975647,0.9420219659805298,10.144851684570312,-0.023435799404978752,-0.03555317223072052,0.012783164158463478
-1.2055245637893677,1.2390612363815308,9.843021392822266,0.04367581009864807,-0.04194475710391998,0.023435799404978752
-1.2342703342437744,1.2055245637893677,9.708874702453613,0.03728422895073891,-0.004660528618842363,0.041545283049345016
-1.1959426403045654,1.3636261224746704,9.665756225585938,-0.02024000883102417,-0.07177213579416275,0.012783164158463478
-1.1288692951202393,1.3157166242599487,9.684919357299805,-0.029827382415533066,-0.08242477476596832,0.017044218257069588
-1.248643159866333,1.2246884107589722,9.555563926696777,0.02450106292963028,-0.028096329420804977,0.04474107176065445
-1.1480331420898438,1.2007336616516113,9.541191101074219,0.0010652636410668492,-0.045140545815229416,0.05219791829586029
-1.0522139072418213,1.1863607168197632,9.512445449829102,-0.042610544711351395,-0.07922898232936859,0.018109481781721115
-1.009095311164856,1.1863607168197632,9.545982360839844,-0.07350318878889084,-0.08881635963916779,-0.005326318088918924
-1.0282591581344604,1.2055245637893677,9.756784439086914,-0.046871598809957504,-0.04727107286453247,-0.012783164158463478
-1.119287371635437,1.253434181213379,9.751993179321289,0.0031957910396158695,-0.03129211813211441,0.004261054564267397
-1.0570049285888672,1.2294793128967285,9.641800880432129,0.023435799404978752,-0.004660528618842363,0.02876211889088154
-1.0330501794815063,1.2007336616516113,9.574728012084961,0.0,-0.005725792143493891,0.03515370190143585
-0.9899315237998962,1.1480331420898438,9.694501876831055,-0.04793686419725418,-0.017443692311644554,0.025566328316926956
-0.9228581190109253,1.1240782737731934,9.79032039642334,-0.0564589723944664,-0.04407528415322304,-0.0010652636410668492
-0.9995134472846985,1.1432421207427979,9.742411613464355,-0.03621896356344223,-0.0270310640335083,-0.010652636177837849
-1.0570049285888672,1.191151738166809,9.742411613464355,-0.02876211889088154,-0.016378428786993027,0.005326318088918924
-1.0570049285888672,1.1624059677124023,9.766366004943848,-0.022370535880327225,-0.004660528618842363,0.023435799404978752
-1.009095311164856,1.1576149463653564,9.732829093933105,-0.009587372653186321,-0.016378428786993027,0.02024000883102417
-0.9563947916030884,1.176778793334961,9.632219314575195,0.0,0.002796316985040903,0.011717899702489376
-0.9563947916030884,1.2103155851364136,9.63701057434082,-0.005326318088918924,0.011318426579236984,0.0010652636410668492
-1.085750699043274,1.2678070068359375,9.646592140197754,-0.023435799404978752,0.008122635073959827,-0.0
-1.1001235246658325,1.2725980281829834,9.704083442687988,-0.04048001766204834,-0.007856319658458233,0.009587372653186321
-1.0378410816192627,1.2103155851364136,9.708874702453613,-0.04900212585926056,-0.024900536984205246,0.023435799404978752
-0.980349600315094,1.1624059677124023,9.675337791442871,-0.038349490612745285,-0.009986846707761288,0.026631591841578484
-0.9659767150878906,1.1144963502883911,9.694501876831055,0.0021305272821336985,0.04114580899477005,0.017044218257069588
-1.0761687755584717,1.1049144268035889,9.809484481811523,0.010652636177837849,0.051798444241285324,0.012783164158463478
-1.1097054481506348,1.1097054481506348,9.886139869689941,-0.008522109128534794,0.011318426579236984,0.0010652636410668492
-1.0570049285888672,1.1144963502883911,9.823857307434082,-0.023435799404978752,-0.020639482885599136,-0.008522109128534794
-1.0617958307266235,1.2342703342437744,9.919676780700684,0.019174745306372643,0.019840534776449203,0.041545283049345016
-0.9707676768302917,1.1528240442276,9.694501876831055,0.011717899702489376,-0.11331742256879807,-0.0074568456038832664
-1.119287371635437,1.2390612363815308,9.196242332458496,-0.0564589723944664,-0.04620581120252609,-0.023435799404978752
-1.1049144268035889,1.2773889303207397,9.454954147338867,-0.07456845790147781,0.024101590737700462,-0.006391582079231739
-1.2007336616516113,1.2582250833511353,10.034659385681152,-0.042610544711351395,0.04540686309337616,0.03728422895073891
-1.1240782737731934,1.1719878911972046,9.919676780700684,0.013848427683115005,0.014514217153191566,0.066046342253685
-1.0043044090270996,1.1863607168197632,9.617846488952637,-0.010652636177837849,0.005992108024656773,0.03195790946483612
-1.119287371635437,1.042631983757019,9.775947570800781,-0.07882951200008392,-0.029161592945456505,0.014913691207766533
-1.3540441989898682,1.6271288394927979,9.62742805480957,0.09587372839450836,0.11571425944566727,0.029827382415533066
-0.8270389437675476,0.9228581190109253,9.584309577941895,0.0,-0.09733846783638,0.07456845790147781
-0.7647565007209778,0.9372310042381287,9.383089065551758,-0.12783163785934448,-0.08455529808998108,-0.0894821435213089
-1.1528240442276,1.1624059677124023,10.015496253967285,-0.12570111453533173,-0.00892158318310976,-0.08841688185930252
-1.2965527772903442,1.1671968698501587,10.235879898071289,-0.018109481781721115,-0.004660528618842363,-0.005326318088918924
-1.1001235246658325,1.1528240442276,9.828648567199707,0.08735162019729614,0.012383690103888512,0.054328445345163345
-0.9036942720413208,1.1384512186050415,9.507654190063477,0.07776424288749695,0.030493171885609627,0.05752423778176308
-0.8509937524795532,1.1336601972579956,9.493281364440918,-0.013848427683115005,-0.014247900806367397,0.0010652636410668492
-0.9468128681182861,1.047423005104065,9.84781265258789,-0.050067391246557236,-0.03555317223072052,-0.05965476483106613
-1.1384512186050415,1.1576149463653564,9.775947570800781,0.0330231711268425,0.014514217153191566,-0.045806337147951126
-1.1576149463653564,1.286970853805542,9.704083442687988,0.04793686419725418,0.0070573715493083,-0.0074568456038832664
-1.0713777542114258,1.2438522577285767,9.545982360839844,0.010652636177837849,-0.006791055668145418,0.0031957910396158695
-1.0138863325119019,1.2055245637893677,9.680129051208496,-0.025566328316926956,-0.014247900806367397,-0.019174745306372643
-1.2103155851364136,1.1432421207427979,9.756784439086914,0.05113265663385391,0.03262370079755783,0.006391582079231739
-1.1576149463653564,1.2198973894119263,9.58910083770752,-0.011717899702489376,-0.020639482885599136,0.005326318088918924
-1.0522139072418213,1.1719878911972046,9.651383399963379,-0.05539371073246002,-0.03555317223072052,-0.009587372653186321
-1.1049144268035889,1.1528240442276,9.747201919555664,-0.019174745306372643,-0.004660528618842363,-0.013848427683115005
-1.1336601972579956,1.2294793128967285,9.708874702453613,0.02876211889088154,0.014514217153191566,0.005326318088918924
-1.0138863325119019,1.2390612363815308,9.47890853881836,0.038349490612745285,0.026232117787003517,0.025566328316926956
-1.0617958307266235,1.1288692951202393,9.881348609924316,-0.0021305272821336985,0.031558435410261154,-0.009587372653186321
-1.0665868520736694,1.1719878911972046,9.857394218444824,0.04793686419725418,0.04434159770607948,0.004261054564267397
-1.0665868520736694,1.1815698146820068,9.819067001342773,0.04900212585926056,0.04221107065677643,0.009587372653186321
-1.0138863325119019,1.1432421207427979,9.728038787841797,0.018109481781721115,0.008122635073959827,0.0021305272821336985
-0.9851405620574951,1.1240782737731934,9.718456268310547,-0.014913691207766533,-0.012117373757064342,-0.02769685536623001
-1.0378410816192627,1.1288692951202393,9.785530090332031,-0.0074568456038832664,-0.011052110232412815,-0.04793686419725418
-1.2055245637893677,1.1671968698501587,9.756784439086914,0.02769685536623001,0.004926844500005245,-0.041545283049345016
-1.2294793128967285,1.1288692951202393,9.68971061706543,0.03621896356344223,0.02197106182575226,-0.009587372653186321
-1.1528240442276,1.1240782737731934,9.694501876831055,0.03515370190143585,0.012383690103888512,-0.014913691207766533
-1.0617958307266235,1.1336601972579956,9.58910083770752,0.02769685536623001,0.0070573715493083,-0.0330231711268425
-1.0330501794815063,1.1336601972579956,9.651383399963379,0.014913691207766533,0.013448953628540039,-0.045806337147951126
-0.9516038298606873,1.0522139072418213,9.886139869689941,0.03195790946483612,0.023036325350403786,-0.06072002649307251
-1.009095311164856,1.0665868520736694,9.83823013305664,0.08522108942270279,0.0294279083609581,-0.0894821435213089
-1.1097054481506348,1.1815698146820068,9.766366004943848,0.08841688185930252,0.050733182579278946,-0.08415582776069641
-1.4115357398986816,1.5552644729614258,8.491971015930176,0.0703074038028717,0.11571425944566727,-0.03621896356344223
-1.416326642036438,1.69899320602417,9.411835670471191,-0.005326318088918924,0.17323850095272064,0.021305272355675697
-1.1863607168197632,1.1144963502883911,10.269416809082031,0.04048001766204834,0.04966791719198227,0.030892645940184593
-0.9755586385726929,0.9755586385726929,9.574728012084961,0.10759162902832031,0.02090579830110073,-0.06498108059167862
-1.1863607168197632,1.2055245637893677,9.37829875946045,0.050067391246557236,0.08162582665681839,-0.07882951200008392
-1.1480331420898438,1.344462275505066,9.775947570800781,0.0031957910396158695,0.09227846562862396,-0.045806337147951126
-1.1576149463653564,1.2582250833511353,9.670546531677246,0.021305272355675697,0.08695214241743088,-0.021305272355675697
-1.0570049285888672,1.2965527772903442,9.694501876831055,0.029827382415533066,0.13169321417808533,-0.025566328316926956
-1.1863607168197632,1.2438522577285767,9.910094261169434,0.0703074038028717,0.12104058265686035,-0.05219791829586029
-1.4019538164138794,1.2773889303207397,9.766366004943848,0.11611373722553253,0.12104058265686035,-0.07243792712688446
-1.6079649925231934,1.5073548555374146,9.522027015686035,0.10439583659172058,0.10612688958644867,-0.04048001766204834
-1.69899320602417,1.564846396446228,9.632219314575195,0.010652636177837849,0.08269108831882477,0.02876211889088154
-1.454654335975647,1.3157166242599487,9.919676780700684,-0.009587372653186321,0.028362644836306572,0.03728422895073891
-1.4067447185516357,1.2007336616516113,9.890931129455566,0.061785291880369186,0.039015281945466995,-0.023435799404978752
-1.564846396446228,1.325298547744751,9.742411613464355,0.10439583659172058,0.04008054360747337,-0.061785291880369186
-1.9289591312408447,1.4354904890060425,9.58910083770752,0.08735162019729614,0.01771000772714615,-0.05539371073246002
-1.3109256029129028,1.8427218198776245,8.51113510131836,-0.05326318368315697,-0.08135951310396194,0.023435799404978752
-1.5408915281295776,1.6415016651153564,9.910094261169434,-0.11930952966213226,0.09653951972723007,0.026631591841578484
-1.48819100856781,1.564846396446228,9.680129051208496,-0.08309056609869003,-0.12503531575202942,0.08841688185930252
-1.4977729320526123,1.4019538164138794,9.866975784301758,-0.0894821435213089,-0.04407528415322304,0.0798947736620903
-1.5552644729614258,1.4594453573226929,9.814275741577148,-0.0564589723944664,-0.11544794589281082,0.07882951200008392
-1.5456825494766235,1.5888011455535889,9.771157264709473,-0.06285055726766586,-0.1399490088224411,0.09693899005651474
-1.4354904890060425,1.5935920476913452,9.704083442687988,-0.09480846673250198,-0.22197431325912476,0.12357058376073837
-1.1815698146820068,1.3636261224746704,9.617846488952637,-0.11078742146492004,-0.2486059069633484,0.1416800618171692
-0.9659767150878906,1.1815698146820068,9.58910083770752,-0.10120004415512085,-0.19747324287891388,0.1459411233663559
-0.7982932329177856,1.1576149463653564,9.608263969421387,-0.08096003532409668,-0.13781848549842834,0.10226531326770782
-0.8318299055099487,1.0617958307266235,9.62742805480957,-0.09587372839450836,-0.1165132075548172,0.06817687302827835
-0.7503836750984192,0.9755586385726929,9.732829093933105,-0.08841688185930252,-0.09840372949838638,0.042610544711351395
-0.7791293859481812,1.047423005104065,9.747201919555664,-0.04367581009864807,-0.08881635963916779,0.0074568456038832664
-0.7360107898712158,1.1671968698501587,9.574728012084961,-0.019174745306372643,-0.09094688296318054,-0.009587372653186321
-0.7120559811592102,1.1863607168197632,9.488490104675293,-0.02769685536623001,-0.06857634335756302,-0.0074568456038832664
-0.6833102703094482,1.1384512186050415,9.541191101074219,-0.050067391246557236,-0.0366184376180172,-0.009587372653186321
-1.1384512186050415,1.1528240442276,9.718456268310547,-0.050067391246557236,-0.001464737462811172,-0.038349490612745285
-1.1624059677124023,1.0617958307266235,9.886139869689941,-0.04474107176065445,0.005992108024656773,-0.0330231711268425
-1.1671968698501587,1.1049144268035889,9.910094261169434,0.005326318088918924,0.005992108024656773,-0.034088436514139175
-1.2773889303207397,1.1576149463653564,9.090841293334961,0.09693899005651474,0.08482161909341812,-0.05219791829586029
-1.2390612363815308,1.5792192220687866,9.397461891174316,0.08841688185930252,0.13382373750209808,0.01597895473241806
-0.9036942720413208,1.085750699043274,9.766366004943848,-0.08735162019729614,0.034754227846860886,-0.08415582776069641
-1.253434181213379,1.1432421207427979,10.068196296691895,-0.017044218257069588,0.050733182579278946,-0.04793686419725418
-1.1097054481506348,1.1576149463653564,9.9484224319458,0.061785291880369186,0.03795001655817032,-0.02769685536623001
-1.047423005104065,1.2007336616516113,9.660964965820312,0.09800425171852112,0.050733182579278946,-0.022370535880327225
-1.0282591581344604,1.320507526397705,9.536399841308594,0.041545283049345016,0.012383690103888512,-0.02769685536623001
-1.0713777542114258,1.2678070068359375,9.62742805480957,-0.04048001766204834,-0.02277000993490219,-0.04048001766204834
-1.1001235246658325,1.1863607168197632,9.828648567199707,-0.04900212585926056,-0.033422645181417465,-0.054328445345163345
-1.2198973894119263,1.2007336616516113,9.934049606323242,0.02769685536623001,0.01771000772714615,-0.04793686419725418
-1.3061347007751465,1.2582250833511353,9.771157264709473,0.07776424288749695,0.013448953628540039,-0.010652636177837849
-1.1624059677124023,1.2390612363815308,9.646592140197754,0.06498108059167862,0.009187898598611355,0.0074568456038832664
-1.0761687755584717,1.1624059677124023,9.584309577941895,0.05326318368315697,-0.0003994738799519837,-0.02876211889088154
-1.1528240442276,1.2246884107589722,9.58910083770752,0.04048001766204834,0.002796316985040903,-0.06285055726766586
-1.253434181213379,1.3013436794281006,9.665756225585938,0.012783164158463478,-0.0270310640335083,-0.04900212585926056
-1.492982029914856,1.3923718929290771,8.45843505859375,0.012783164158463478,-0.12183953076601028,-0.025566328316926956
-0.8557847142219543,1.5888011455535889,9.560355186462402,-0.06072002649307251,0.13595427572727203,-0.0
-1.358835220336914,0.9947224855422974,10.025077819824219,-0.011717899702489376,0.023036325350403786,0.0021305272821336985
-1.397162914276123,1.3013436794281006,9.747201919555664,-0.012783164158463478,-0.05898897349834442,-0.004261054564267397
-1.253434181213379,1.320507526397705,9.775947570800781,-0.07456845790147781,-0.03874896466732025,0.026631591841578484
-1.2965527772903442,1.253434181213379,9.9484224319458,-0.0798947736620903,-0.06964161247015,0.013848427683115005
-1.2246884107589722,1.2773889303207397,9.857394218444824,-0.0330231711268425,-0.08668582886457443,0.022370535880327225
-1.1288692951202393,1.2630161046981812,9.708874702453613,0.02024000883102417,-0.04407528415322304,0.030892645940184593
-1.0378410816192627,1.282179832458496,9.62742805480957,0.04048001766204834,-0.021704746410250664,0.0330231711268425
-0.9755586385726929,1.2725980281829834,9.541191101074219,0.018109481781721115,-0.03129211813211441,0.038349490612745285
-0.87973952293396,1.248643159866333,9.574728012084961,-0.008522109128534794,-0.05153212696313858,0.026631591841578484
-0.87973952293396,1.191151738166809,9.574728012084961,-0.018109481781721115,-0.053662657737731934,0.009587372653186321
-0.8845304250717163,1.1671968698501587,9.641800880432129,-0.01597895473241806,-0.04301001876592636,-0.0
-0.8893213868141174,1.042631983757019,9.507654190063477,0.008522109128534794,-0.0025300011038780212,-0.004261054564267397
-1.1336601972579956,1.2582250833511353,9.545982360839844,0.058589499443769455,0.07843003422021866,-0.0074568456038832664
-1.0761687755584717,1.248643159866333,9.651383399963379,0.05539371073246002,0.026232117787003517,0.013848427683115005
-1.047423005104065,1.176778793334961,9.3687162399292,-0.017044218257069588,-0.05259739235043526,-0.005326318088918924
-1.1288692951202393,1.119287371635437,9.359134674072266,-0.0894821435213089,0.010253162123262882,-0.03195790946483612
-1.1576149463653564,1.2390612363815308,9.833439826965332,-0.08309056609869003,0.026232117787003517,-0.018109481781721115
-1.2103155851364136,1.1480331420898438,9.910094261169434,-0.011717899702489376,0.026232117787003517,0.011717899702489376
-1.0617958307266235,1.2055245637893677,9.632219314575195,0.04367581009864807,0.03262370079755783,0.02450106292963028
-1.0665868520736694,1.2103155851364136,9.522027015686035,0.011717899702489376,0.04647212475538254,0.013848427683115005
-1.1336601972579956,1.286970853805542,9.632219314575195,-0.04367581009864807,-0.00892158318310976,-0.009587372653186321
-1.1432421207427979,1.2965527772903442,9.675337791442871,-0.06072002649307251,-0.025965800508856773,-0.0074568456038832664
-1.1432421207427979,1.2438522577285767,9.761574745178223,-0.022370535880327225,0.005992108024656773,0.0074568456038832664
-1.1959426403045654,1.2582250833511353,9.83823013305664,0.009587372653186321,0.011318426579236984,0.021305272355675697
-1.1815698146820068,1.2342703342437744,9.79032039642334,-0.0031957910396158695,-0.014247900806367397,0.034088436514139175
-1.1528240442276,1.2246884107589722,9.728038787841797,-0.013848427683115005,-0.028096329420804977,0.030892645940184593
-1.1336601972579956,1.191151738166809,9.780738830566406,-0.02024000883102417,-0.03555317223072052,0.030892645940184593
-1.023468255996704,1.1576149463653564,9.665756225585938,0.006391582079231739,-0.03874896466732025,0.026631591841578484
-0.980349600315094,1.176778793334961,9.57951831817627,0.017044218257069588,-0.009986846707761288,0.026631591841578484
-0.9372310042381287,1.1815698146820068,9.555563926696777,0.02450106292963028,0.0006657897611148655,0.022370535880327225
-0.9084852337837219,1.1959426403045654,9.493281364440918,0.01597895473241806,-0.001464737462811172,0.0074568456038832664
-0.9420219659805298,1.2007336616516113,9.507654190063477,0.011717899702489376,0.01664474420249462,-0.0074568456038832664
-1.1144963502883911,1.253434181213379,9.62742805480957,0.0,0.010253162123262882,-0.0
-1.1336601972579956,1.2246884107589722,9.670546531677246,-0.02769685536623001,-0.021704746410250664,0.02024000883102417
-1.0186772346496582,1.1576149463653564,9.651383399963379,-0.034088436514139175,-0.03129211813211441,0.006391582079231739
-1.085750699043274,1.1959426403045654,9.680129051208496,-0.03621896356344223,-0.030226856470108032,-0.011717899702489376
-1.2198973894119263,1.2007336616516113,9.68971061706543,-0.05326318368315697,-0.04833633825182915,0.005326318088918924
-1.1863607168197632,1.1719878911972046,9.68971061706543,-0.04048001766204834,-0.05685844644904137,0.02876211889088154
-1.0570049285888672,1.1959426403045654,9.569936752319336,-0.018109481781721115,-0.03874896466732025,0.02876211889088154
-0.9755586385726929,1.2103155851364136,9.550772666931152,-0.0074568456038832664,-0.0153131652623415,0.02450106292963028
-0.9276490807533264,1.2055245637893677,9.565145492553711,0.0,-0.007856319658458233,0.017044218257069588
-0.9516038298606873,1.2198973894119263,9.517236709594727,-0.018109481781721115,-0.01957421936094761,0.014913691207766533
-0.8893213868141174,1.2055245637893677,9.512445449829102,-0.061785291880369186,-0.04194475710391998,0.006391582079231739
-0.8941123485565186,1.1432421207427979,9.622637748718262,-0.0703074038028717,-0.0270310640335083,-0.004261054564267397
-0.9755586385726929,1.1049144268035889,9.785530090332031,-0.038349490612745285,-0.007856319658458233,0.0010652636410668492
-0.9755586385726929,1.1097054481506348,9.704083442687988,-0.008522109128534794,-0.021704746410250664,-0.0010652636410668492
-1.0665868520736694,1.1384512186050415,9.699292182922363,-0.021305272355675697,0.010253162123262882,0.010652636177837849
-1.0138863325119019,1.1097054481506348,9.775947570800781,-0.018109481781721115,-0.021704746410250664,0.004261054564267397
-0.9084852337837219,1.1336601972579956,9.632219314575195,-0.018109481781721115,-0.030226856470108032,-0.0031957910396158695
-0.9468128681182861,1.080959677696228,9.756784439086914,-0.018109481781721115,0.003861580742523074,0.006391582079231739
-0.9659767150878906,1.1001235246658325,9.15312385559082,-0.0564589723944664,-0.0834900364279747,0.004261054564267397
-1.0186772346496582,1.1384512186050415,9.632219314575195,-0.10013478249311447,0.009187898598611355,-0.010652636177837849
-1.1576149463653564,1.1097054481506348,9.991540908813477,-0.04793686419725418,0.0006657897611148655,0.009587372653186321
-1.0570049285888672,1.1432421207427979,9.833439826965332,0.021305272355675697,-0.016378428786993027,0.03728422895073891
-0.8509937524795532,1.1480331420898438,9.502862930297852,0.041545283049345016,-0.0025300011038780212,0.05219791829586029
-0.8174570798873901,1.1384512186050415,9.502862930297852,-0.0010652636410668492,0.008122635073959827,0.026631591841578484
-0.8701575994491577,1.080959677696228,9.63701057434082,-0.054328445345163345,-0.028096329420804977,0.0021305272821336985
-1.21510648727417,1.2917617559432983,9.73762035369873,0.0330231711268425,0.10080057382583618,-0.026631591841578484
-1.0665868520736694,0.9707676768302917,9.502862930297852,0.0074568456038832664,-0.025965800508856773,0.0703074038028717
-1.0282591581344604,1.1576149463653564,9.684919357299805,0.0010652636410668492,-0.007856319658458233,-0.03621896356344223
-1.0665868520736694,1.3540441989898682,9.555563926696777,0.011717899702489376,0.02516685426235199,0.021305272355675697
-0.9180671572685242,1.2246884107589722,9.641800880432129,0.004261054564267397,0.035819489508867264,0.05965476483106613
-0.7887113094329834,1.080959677696228,9.713665962219238,-0.0021305272821336985,0.003861580742523074,0.03728422895073891
-0.77433842420578,0.9995134472846985,9.68971061706543,-0.0031957910396158695,-0.001464737462811172,-0.011717899702489376
-0.9563947916030884,1.0761687755584717,9.775947570800781,0.018109481781721115,0.01771000772714615,-0.046871598809957504
-1.1336601972579956,1.1815698146820068,9.809484481811523,0.02876211889088154,0.0017310534603893757,-0.03941475600004196
-1.1576149463653564,1.2055245637893677,9.732829093933105,0.02876211889088154,-0.02383527345955372,-0.013848427683115005
-1.047423005104065,1.2103155851364136,9.584309577941895,0.030892645940184593,-0.03981423005461693,-0.009587372653186321
-1.023468255996704,1.2438522577285767,9.42620849609375,0.022370535880327225,-0.02383527345955372,-0.013848427683115005
-1.0138863325119019,1.2582250833511353,9.474117279052734,0.009587372653186321,-0.0003994738799519837,-0.010652636177837849
-1.1097054481506348,1.253434181213379,9.57951831817627,0.0010652636410668492,0.005992108024656773,-0.013848427683115005
-1.1432421207427979,1.2630161046981812,9.593891143798828,-0.01597895473241806,-0.00892158318310976,-0.0021305272821336985
-1.1001235246658325,1.2342703342437744,9.656173706054688,-0.0330231711268425,-0.017443692311644554,0.0074568456038832664
-1.0570049285888672,1.1480331420898438,9.680129051208496,-0.022370535880327225,-0.012117373757064342,0.004261054564267397
-1.085750699043274,1.1671968698501587,9.747201919555664,-0.005326318088918924,-0.01318263728171587,-0.010652636177837849
-1.191151738166809,1.286970853805542,9.680129051208496,-0.011717899702489376,-0.03981423005461693,-0.02024000883102417
-1.2390612363815308,1.3396713733673096,9.660964965820312,-0.03515370190143585,-0.04194475710391998,0.004261054564267397
-1.1671968698501587,1.282179832458496,9.823857307434082,-0.026631591841578484,-0.040879491716623306,0.03621896356344223
-1.0713777542114258,1.21510648727417,9.742411613464355,0.009587372653186321,-0.03981423005461693,0.050067391246557236
-0.9516038298606873,1.1719878911972046,9.617846488952637,0.041545283049345016,-0.004660528618842363,0.054328445345163345
-0.8557847142219543,1.2055245637893677,9.545982360839844,0.04900212585926056,-0.0003994738799519837,0.045806337147951126
-0.8701575994491577,1.2438522577285767,9.4645357131958,0.014913691207766533,-0.014247900806367397,0.03621896356344223
-0.87973952293396,1.253434181213379,9.498072624206543,-0.030892645940184593,-0.03768370300531387,0.021305272355675697
-0.8078751564025879,1.1863607168197632,9.536399841308594,-0.0330231711268425,-0.03555317223072052,0.011717899702489376
-0.8462027907371521,1.1959426403045654,9.569936752319336,0.0074568456038832664,0.0017310534603893757,0.0074568456038832664
-0.8318299055099487,1.253434181213379,9.550772666931152,0.02024000883102417,0.0070573715493083,0.017044218257069588
-0.8605756759643555,1.1959426403045654,9.560355186462402,0.0010652636410668492,0.005992108024656773,0.02450106292963028
-0.9084852337837219,1.0713777542114258,9.756784439086914,-0.06924213469028473,-0.03874896466732025,-0.0074568456038832664
-0.9851405620574951,0.9659767150878906,9.8526029586792,-0.030892645940184593,-0.021704746410250664,-0.011717899702489376
-0.9995134472846985,0.9995134472846985,9.809484481811523,0.030892645940184593,-0.004660528618842363,-0.0074568456038832664
-0.980349600315094,1.1432421207427979,9.565145492553711,0.04793686419725418,-0.01318263728171587,-0.01597895473241806
-0.87973952293396,1.2390612363815308,9.402253150939941,-0.008522109128534794,-0.03768370300531387,-0.02769685536623001
-0.7935022711753845,1.2390612363815308,9.42620849609375,-0.046871598809957504,-0.024900536984205246,-0.04367581009864807
-0.8557847142219543,1.253434181213379,9.57951831817627,-0.04367581009864807,0.0070573715493083,-0.034088436514139175
-0.8509937524795532,1.1719878911972046,9.747201919555664,-0.0031957910396158695,0.0294279083609581,-0.011717899702489376
-0.87973952293396,1.1384512186050415,9.742411613464355,0.05113265663385391,0.04966791719198227,-0.014913691207766533
-0.9707676768302917,1.253434181213379,9.574728012084961,0.04367581009864807,0.027297381311655045,-0.029827382415533066
-1.0378410816192627,1.2917617559432983,9.541191101074219,-0.0330231711268425,-0.0153131652623415,-0.029827382415533066
-0.9995134472846985,1.2246884107589722,9.704083442687988,-0.07137266546487808,-0.03768370300531387,-0.02876211889088154
-1.0761687755584717,1.1624059677124023,9.723247528076172,-0.02024000883102417,-0.01957421936094761,-0.01597895473241806
-1.1288692951202393,1.1863607168197632,9.665756225585938,0.006391582079231739,0.0017310534603893757,-0.0021305272821336985
-1.119287371635437,1.248643159866333,9.641800880432129,0.01597895473241806,0.018775271251797676,0.03621896356344223
-0.980349600315094,1.1624059677124023,9.58910083770752,-0.005326318088918924,-0.005725792143493891,0.04048001766204834
-0.9180671572685242,1.1528240442276,9.545982360839844,-0.041545283049345016,-0.024900536984205246,0.008522109128534794
-0.9036942720413208,1.1432421207427979,9.680129051208496,-0.05965476483106613,-0.01850895583629608,-0.0021305272821336985
-0.9036942720413208,1.1288692951202393,9.751993179321289,-0.02450106292963028,0.0070573715493083,-0.0031957910396158695
-0.8941123485565186,1.1049144268035889,9.761574745178223,0.014913691207766533,0.027297381311655045,0.0031957910396158695
-0.9036942720413208,1.1144963502883911,9.718456268310547,0.03941475600004196,0.030493171885609627,0.0031957910396158695
-0.9036942720413208,1.1288692951202393,9.665756225585938,0.0330231711268425,0.015579480677843094,-0.006391582079231739
-0.9084852337837219,1.1863607168197632,9.646592140197754,0.011717899702489376,0.0017310534603893757,-0.01597895473241806
-0.9324400424957275,1.2342703342437744,9.622637748718262,-0.009587372653186321,-0.014247900806367397,-0.023435799404978752
-0.9611857533454895,1.2342703342437744,9.641800880432129,-0.011717899702489376,-0.007856319658458233,-0.014913691207766533
-0.9995134472846985,1.2630161046981812,9.680129051208496,0.01597895473241806,0.004926844500005245,0.0031957910396158695
-0.980349600315094,1.2390612363815308,9.593891143798828,0.02769685536623001,0.010253162123262882,0.030892645940184593
-0.8509937524795532,1.1671968698501587,9.512445449829102,0.006391582079231739,-0.0003994738799519837,0.02876211889088154
-0.8222479820251465,1.1001235246658325,9.603473663330078,-0.034088436514139175,-0.00892158318310976,-0.0074568456038832664
-0.913276195526123,1.0617958307266235,9.713665962219238,-0.03195790946483612,-0.033422645181417465,-0.03515370190143585
-0.9707676768302917,1.1288692951202393,9.651383399963379,-0.006391582079231739,-0.016378428786993027,-0.034088436514139175
-0.9851405620574951,1.2007336616516113,9.613055229187012,0.022370535880327225,0.018775271251797676,-0.009587372653186321
-0.9180671572685242,1.2294793128967285,9.531609535217285,0.022370535880327225,0.026232117787003517,0.010652636177837849
-0.8653666377067566,1.2198973894119263,9.502862930297852,-0.009587372653186321,0.012383690103888512,0.0010652636410668492
-0.8989033102989197,1.1576149463653564,9.550772666931152,-0.042610544711351395,0.0017310534603893757,-0.02024000883102417
-0.9563947916030884,1.1432421207427979,9.742411613464355,-0.03515370190143585,0.01771000772714615,-0.02769685536623001
-0.9611857533454895,1.1384512186050415,9.871767044067383,0.0021305272821336985,0.013448953628540039,-0.02450106292963028
-1.0378410816192627,1.1432421207427979,9.680129051208496,0.029827382415533066,0.003861580742523074,-0.018109481781721115
-1.0043044090270996,1.1144963502883911,9.63701057434082,0.018109481781721115,0.009187898598611355,-0.006391582079231739
-0.9947224855422974,1.1719878911972046,9.641800880432129,0.014913691207766533,-0.0003994738799519837,-0.02769685536623001
-1.0282591581344604,1.286970853805542,9.531609535217285,-0.0010652636410668492,-0.020639482885599136,-0.034088436514139175
-1.0330501794815063,1.3636261224746704,9.47890853881836,-0.034088436514139175,-0.025965800508856773,-0.014913691207766533
-0.9899315237998962,1.3157166242599487,9.57951831817627,-0.04474107176065445,-0.00892158318310976,0.006391582079231739
-0.9563947916030884,1.2055245637893677,9.675337791442871,-0.0021305272821336985,0.031558435410261154,0.019174745306372643
-0.9851405620574951,1.1480331420898438,9.665756225585938,0.03728422895073891,0.047537390142679214,0.02450106292963028
-0.9324400424957275,1.1144963502883911,9.555563926696777,0.019174745306372643,0.030493171885609627,0.02024000883102417
-0.9611857533454895,1.1097054481506348,9.584309577941895,-0.02450106292963028,0.009187898598611355,0.0010652636410668492
-0.8941123485565186,1.1480331420898438,9.660964965820312,-0.04900212585926056,-0.021704746410250664,-0.014913691207766533
-0.8701575994491577,1.0761687755584717,9.708874702453613,-0.019174745306372643,0.002796316985040903,-0.02450106292963028
-0.9084852337837219,1.0761687755584717,9.646592140197754,0.0330231711268425,0.035819489508867264,-0.02450106292963028
-1.023468255996704,1.1815698146820068,9.680129051208496,0.03515370190143585,0.043276336044073105,-0.017044218257069588
-1.0522139072418213,1.2390612363815308,9.656173706054688,0.0074568456038832664,-0.007856319658458233,-0.013848427683115005
-1.009095311164856,1.2582250833511353,9.632219314575195,-0.02876211889088154,-0.040879491716623306,-0.02450106292963028
-1.1097054481506348,1.2198973894119263,9.512445449829102,-0.03621896356344223,-0.06644582003355026,-0.03515370190143585
-0.9420219659805298,1.3732080459594727,9.771157264709473,-0.029827382415533066,0.01664474420249462,-0.010652636177837849
-1.2198973894119263,1.1624059677124023,9.819067001342773,0.021305272355675697,-0.03874896466732025,0.011717899702489376
-1.1240782737731934,1.3109256029129028,9.584309577941895,0.03195790946483612,-0.0025300011038780212,0.017044218257069588
-1.2390612363815308,1.248643159866333,9.593891143798828,0.0,-0.021704746410250664,0.03621896356344223
-1.0713777542114258,1.248643159866333,9.613055229187012,-0.03515370190143585,-0.061119500547647476,0.03621896356344223
-0.913276195526123,1.1863607168197632,9.536399841308594,-0.038349490612745285,-0.06218476593494415,0.03515370190143585
-0.8605756759643555,1.1719878911972046,9.507654190063477,-0.0330231711268425,-0.045140545815229416,0.03515370190143585
-0.7982932329177856,1.1432421207427979,9.603473663330078,-0.013848427683115005,0.002796316985040903,0.038349490612745285
-0.8222479820251465,1.085750699043274,9.68971061706543,0.009587372653186321,0.014514217153191566,0.03621896356344223
-0.8366208672523499,1.1049144268035889,9.62742805480957,0.012783164158463478,-0.004660528618842363,0.021305272355675697
-0.7647565007209778,1.1336601972579956,9.622637748718262,-0.006391582079231739,-0.017443692311644554,0.005326318088918924
-0.7408017516136169,1.1432421207427979,9.613055229187012,-0.017044218257069588,-0.03129211813211441,-0.008522109128534794
-0.77433842420578,1.1480331420898438,9.622637748718262,-0.02450106292963028,-0.028096329420804977,-0.02876211889088154
-0.8845304250717163,1.1528240442276,9.728038787841797,0.0021305272821336985,-0.005725792143493891,-0.02876211889088154
-0.9755586385726929,1.1719878911972046,9.723247528076172,0.03941475600004196,0.012383690103888512,-0.011717899702489376
-1.023468255996704,1.176778793334961,9.646592140197754,0.042610544711351395,0.010253162123262882,0.0021305272821336985
-0.9947224855422974,1.1719878911972046,9.593891143798828,0.0031957910396158695,-0.01957421936094761,-0.0
-0.9420219659805298,1.1528240442276,9.603473663330078,-0.017044218257069588,-0.03235738351941109,-0.009587372653186321
-0.8989033102989197,1.1671968698501587,9.603473663330078,-0.019174745306372643,-0.028096329420804977,-0.023435799404978752
-1.0617958307266235,1.3013436794281006,9.47890853881836,0.02876211889088154,0.05712476372718811,-0.004261054564267397
-0.8222479820251465,1.325298547744751,9.488490104675293,-0.02769685536623001,0.004926844500005245,-0.008522109128534794
-0.8030841946601868,1.2678070068359375,9.660964965820312,-0.05219791829586029,-0.006791055668145418,-0.005326318088918924
-0.8509937524795532,1.1815698146820068,9.708874702453613,-0.011717899702489376,0.01771000772714615,-0.006391582079231739
-0.9372310042381287,1.1336601972579956,9.747201919555664,0.02769685536623001,0.03368896245956421,-0.0021305272821336985
-0.9372310042381287,1.1576149463653564,9.747201919555664,0.03515370190143585,0.026232117787003517,-0.0
-0.9611857533454895,1.176778793334961,9.584309577941895,0.01597895473241806,-0.001464737462811172,-0.006391582079231739
-0.87973952293396,1.2007336616516113,9.617846488952637,-0.017044218257069588,-0.009986846707761288,-0.019174745306372643
-1.0330501794815063,1.1863607168197632,9.699292182922363,0.004261054564267397,0.03262370079755783,-0.019174745306372643
-1.1576149463653564,1.2007336616516113,9.723247528076172,0.022370535880327225,0.02516685426235199,0.0021305272821336985
-0.9899315237998962,1.253434181213379,9.536399841308594,-0.0031957910396158695,-0.004660528618842363,0.012783164158463478
-0.980349600315094,1.2678070068359375,9.47890853881836,-0.030892645940184593,-0.001464737462811172,0.0031957910396158695
-1.009095311164856,1.286970853805542,9.641800880432129,-0.03621896356344223,0.015579480677843094,0.004261054564267397
-1.0522139072418213,1.2725980281829834,9.708874702453613,0.005326318088918924,0.028362644836306572,0.01597895473241806
-1.1001235246658325,1.3013436794281006,9.670546531677246,0.03195790946483612,0.035819489508867264,0.03195790946483612
-0.9707676768302917,1.253434181213379,9.680129051208496,0.0021305272821336985,0.010253162123262882,0.04900212585926056
-0.8462027907371521,1.1288692951202393,9.704083442687988,-0.019174745306372643,-0.00892158318310976,0.030892645940184593
-1.325298547744751,1.6079649925231934,7.974547863006592,-0.1033305749297142,0.04114580899477005,0.019174745306372643
-1.176778793334961,1.2103155851364136,9.660964965820312,0.08628635853528976,-0.06218476593494415,0.02024000883102417
