accX,accY,accZ,gyroX,gyroY,gyroZ
-0.143890380859375,-0.0974578857421875,9.62744140625,0.0012664794921875,0.00048828125,-0.0001678466796875
2.094696044921875,5.1410675048828125,7.5995635986328125,-1.79156494140625,-0.1923370361328125,-0.4699554443359375
1.8600616455078125,4.944732666015625,9.328170776367188,-1.77984619140625,0.4361724853515625,-0.4561004638671875
0.20806884765625,4.8848876953125,12.086288452148438,-1.236572265625,1.7496490478515625,-0.2398529052734375
0.57916259765625,5.2416229248046875,10.542037963867188,-0.4557342529296875,1.7816009521484375,0.2320556640625
0.732391357421875,5.45709228515625,10.103897094726562,-0.1915435791015625,1.1914520263671875,0.4344482421875
1.7187957763671875,5.2799224853515625,8.449493408203125,0.042816162109375,0.0697174072265625,0.6560211181640625
2.1784820556640625,5.0692291259765625,7.170989990234375,-0.1468048095703125,-0.548126220703125,0.5452423095703125
1.366851806640625,4.678985595703125,7.6905364990234375,-0.393951416015625,-0.26690673828125,0.4312591552734375
1.27587890625,4.657440185546875,7.8748931884765625,-0.3971405029296875,-0.0890045166015625,0.4994354248046875
2.0515899658203125,4.595184326171875,9.045654296875,-0.2597198486328125,0.2305755615234375,0.6112823486328125
2.7363433837890625,4.700531005859375,8.822998046875,-0.2032623291015625,0.5054168701171875,0.552703857421875
2.5304412841796875,4.6837615966796875,7.9491119384765625,-0.1819610595703125,0.6907806396484375,0.164947509765625
1.8145751953125,4.4443511962890625,7.5660400390625,-0.2139129638671875,0.6300506591796875,-0.0587615966796875
0.2224273681640625,4.171417236328125,7.719268798828125,-0.3289642333984375,0.5256500244140625,-0.3240203857421875
-0.5437164306640625,4.64306640625,7.666595458984375,-0.393951416015625,0.593841552734375,-0.1610260009765625
-0.3856964111328125,4.394073486328125,7.2835235595703125,-0.4109954833984375,0.3861083984375,0.130859375
-0.4910430908203125,3.6853790283203125,7.9539031982421875,-0.515380859375,0.3104705810546875,0.2363128662109375
-0.6849822998046875,3.465118408203125,8.751174926757812,-0.4546661376953125,0.577850341796875,0.1670684814453125
0.15777587890625,4.5353240966796875,8.404006958007812,0.416717529296875,-0.3489227294921875,-0.32720947265625
-1.1135406494140625,3.867340087890625,6.905242919921875,0.384765625,-0.8261566162109375,-0.40496826171875
-0.629913330078125,4.604766845703125,6.673004150390625,0.1823577880859375,-1.015777587890625,-0.326141357421875
0.124267578125,4.458709716796875,7.0704345703125,0.033233642578125,-0.961456298828125,-0.283538818359375
0.0213165283203125,4.3270263671875,8.54766845703125,-0.4450836181640625,-0.289276123046875,-0.2899322509765625
-0.03375244140625,4.0181732177734375,9.85968017578125,-0.4322967529296875,0.0292510986328125,-0.203643798828125
-0.2037353515625,4.03973388671875,9.347320556640625,-0.210723876953125,-0.0080413818359375,-0.2558441162109375
-0.6442718505859375,4.3294219970703125,8.921157836914062,-0.1553192138671875,0.03350830078125,-0.293121337890625
-1.36492919921875,4.480255126953125,8.143035888671875,-0.1702423095703125,0.0505523681640625,-0.2196197509765625
-1.094390869140625,4.47308349609375,8.111923217773438,-0.2384185791015625,0.0494842529296875,-0.1173553466796875
0.04046630859375,4.353363037109375,8.674560546875,-0.3172454833984375,0.053741455078125,-0.00762939453125
0.2607269287109375,4.283935546875,8.700897216796875,-0.25225830078125,-0.0155029296875,-0.1109619140625
-0.39288330078125,4.319854736328125,8.087982177734375,-0.1915435791015625,-0.261566162109375,-0.2984466552734375
-0.5485076904296875,4.33660888671875,7.9969940185546875,-0.19580078125,-0.41497802734375,-0.3325347900390625
-0.31866455078125,4.437164306640625,8.30584716796875,-0.2469329833984375,-0.3510589599609375,-0.2398529052734375
-0.0193939208984375,4.1690216064453125,8.52850341796875,-0.2266998291015625,0.0175323486328125,-0.079010009765625
-0.186981201171875,4.0852203369140625,8.554840087890625,-0.24481201171875,0.0739898681640625,-0.0459747314453125
-0.0265655517578125,3.8170623779296875,8.583572387695312,-0.2725067138671875,-0.1220245361328125,-0.0949859619140625
0.1865081787109375,4.0062103271484375,8.552444458007812,-0.2469329833984375,-0.1923370361328125,-0.188720703125
-0.4000701904296875,4.0421295166015625,8.181350708007812,-0.1478729248046875,-0.25091552734375,-0.2089691162109375
-0.3737335205078125,4.14508056640625,8.557235717773438,-0.1436004638671875,-0.0879364013671875,-0.051300048828125
0.2655181884765625,4.4132232666015625,9.35211181640625,-0.060516357421875,0.431915283203125,0.06268310546875
-0.6849822998046875,3.8577728271484375,9.115081787109375,0.1781005859375,0.2454986572265625,0.080780029296875
-0.21331787109375,4.3485870361328125,8.794265747070312,0.31658935546875,-0.0069732666015625,0.1127471923828125
0.308624267578125,4.2216949462890625,8.303451538085938,0.2952880859375,-0.263702392578125,0.0222015380859375
0.308624267578125,4.5305328369140625,7.8916473388671875,0.112060546875,-0.470367431640625,-0.1141510009765625
-0.024169921875,4.5353240966796875,8.346542358398438,-0.0882110595703125,-0.6802215576171875,-0.133331298828125
0.72760009765625,4.300689697265625,9.244369506835938,0.07904052734375,-0.342529296875,0.08184814453125
0.540863037109375,4.80108642578125,7.0417022705078125,0.301666259765625,-0.152923583984375,0.21820068359375
1.0364532470703125,4.8561553955078125,7.40802001953125,0.0342864990234375,0.213531494140625,0.27679443359375
0.9885711669921875,4.6837615966796875,8.937911987304688,-0.1031341552734375,0.4521484375,0.2277984619140625
0.7611236572265625,4.4658966064453125,9.019317626953125,0.1280364990234375,0.373321533203125,0.2043609619140625
-0.297119140625,4.9088287353515625,7.6474456787109375,0.2196502685546875,0.09954833984375,0.127655029296875
0.1170806884765625,5.1937408447265625,7.8868560791015625,0.066253662109375,-0.1103057861328125,0.1937103271484375
0.5073394775390625,5.12908935546875,8.978622436523438,0.030029296875,-0.263702392578125,0.2043609619140625
0.3541107177734375,4.966278076171875,9.332962036132812,0.1951446533203125,-0.2913970947265625,0.2437744140625
0.39959716796875,5.0452880859375,9.543655395507812,0.3314971923828125,-0.2946014404296875,0.26507568359375
0.4067840576171875,4.8872833251953125,9.251556396484375,0.69049072265625,-0.2903289794921875,0.274658203125
0.5121307373046875,5.1362762451171875,7.5277252197265625,0.8683929443359375,-0.1081695556640625,0.252288818359375
0.4187469482421875,5.2200775146484375,7.2835235595703125,0.7352294921875,-0.185943603515625,0.162811279296875
1.4386749267578125,5.6175079345703125,8.382461547851562,0.751220703125,-0.776092529296875,0.07012939453125
1.7762603759765625,5.98382568359375,8.1358642578125,0.739501953125,-0.76544189453125,0.073333740234375
1.6804962158203125,6.0556488037109375,7.7144775390625,0.5967559814453125,-0.1806182861328125,0.1127471923828125
0.615081787109375,5.9143829345703125,7.3984375,0.3442840576171875,0.5970306396484375,0.1734619140625
1.783447265625,5.430755615234375,9.696884155273438,0.1855621337890625,-0.482086181640625,0.217132568359375
2.0084991455078125,5.641448974609375,8.578781127929688,0.2899627685546875,-0.1987152099609375,0.1457672119140625
1.0029296875,5.1961212158203125,8.016143798828125,0.0960845947265625,0.2646636962890625,0.162811279296875
1.1585540771484375,4.585601806640625,8.205291748046875,-0.1222991943359375,0.4510955810546875,0.2949066162109375
1.6374053955078125,4.3653411865234375,8.4207763671875,-0.21923828125,0.4617462158203125,0.297027587890625
0.93829345703125,3.9248046875,8.861297607421875,-0.18621826171875,0.1773223876953125,0.2245941162109375
0.933502197265625,3.750030517578125,9.040863037109375,-0.1116485595703125,-0.092193603515625,0.2277984619140625
1.577545166015625,4.204925537109375,8.885238647460938,0.1184539794921875,-0.197662353515625,0.2384490966796875
1.4578399658203125,4.226470947265625,8.9283447265625,0.25799560546875,0.1059417724609375,0.2586822509765625
2.8105621337890625,4.4012603759765625,7.58758544921875,0.5615997314453125,0.7930450439453125,0.3822479248046875
2.3197479248046875,4.209716796875,6.8621368408203125,0.1759796142578125,0.901702880859375,0.2714691162109375
2.5687408447265625,3.4483642578125,9.502944946289062,-0.3598480224609375,0.7461700439453125,0.59423828125
2.094696044921875,3.4675140380859375,8.890029907226562,-0.4866180419921875,2.758453369140625,0.766815185546875
0.1960906982421875,3.343017578125,7.7863006591796875,-0.8328399658203125,2.6146392822265625,0.5345916748046875
-1.2571868896484375,2.6798248291015625,8.353729248046875,-1.1023406982421875,1.0668182373046875,0.3982391357421875
1.048431396484375,3.220916748046875,9.821380615234375,0.1642608642578125,0.0079345703125,0.416351318359375
0.6078948974609375,3.802703857421875,8.150222778320312,0.430572509765625,0.2785186767578125,0.445098876953125
0.351715087890625,3.97747802734375,7.4942169189453125,0.42950439453125,0.3818511962890625,0.494110107421875
0.3445281982421875,4.1642303466796875,7.1398773193359375,0.2324371337890625,0.39569091796875,0.6102294921875
0.80181884765625,3.838623046875,7.8341827392578125,-0.17236328125,0.1421661376953125,0.58251953125
0.8664703369140625,3.5153961181640625,8.166976928710938,-0.187286376953125,-0.2647705078125,0.56121826171875
1.2567291259765625,4.0421295166015625,9.371261596679688,-0.206451416015625,0.06439208984375,0.5164794921875
0.5815582275390625,3.759613037109375,9.993759155273438,-0.0093841552734375,0.6588134765625,0.536712646484375
-0.0888214111328125,3.5584869384765625,9.589141845703125,0.4678497314453125,0.4969024658203125,0.6943817138671875
0.44268798828125,4.21929931640625,8.1478271484375,0.6766510009765625,0.2635955810546875,0.722076416015625
0.775482177734375,4.1426849365234375,7.455902099609375,0.51153564453125,-0.3595733642578125,0.50689697265625
1.0579986572265625,3.9272003173828125,7.81024169921875,0.291015625,-0.9625244140625,0.286376953125
1.4674072265625,4.4635009765625,8.313034057617188,0.259063720703125,-1.2139129638671875,0.1681365966796875
1.175323486328125,4.7675628662109375,9.021713256835938,0.302734375,-0.5768890380859375,0.256561279296875
0.9837799072265625,4.564056396484375,8.648223876953125,0.3453521728515625,0.098480224609375,0.5665435791015625
1.5057220458984375,4.288726806640625,8.535690307617188,0.2974090576171875,0.168792724609375,0.6911773681640625
1.58233642578125,4.236053466796875,8.30584716796875,0.2665252685546875,-0.1305389404296875,0.604888916015625
1.5966949462890625,4.63348388671875,7.908416748046875,0.202606201171875,-0.3585052490234375,0.6006317138671875
2.2622833251953125,4.9088287353515625,8.384857177734375,0.165313720703125,-0.0666351318359375,0.71142578125
2.6573333740234375,4.468292236328125,9.009735107421875,0.3187255859375,0.5533599853515625,0.7519073486328125
2.106658935546875,4.6023712158203125,7.1877593994140625,0.4571990966796875,0.923004150390625,0.58251953125
1.79302978515625,4.7891082763671875,7.0201568603515625,0.30487060546875,0.763214111328125,0.5281982421875
1.5416259765625,4.944732666015625,7.1446533203125,0.1493377685546875,0.51287841796875,0.503692626953125
1.915130615234375,4.913604736328125,8.097549438476562,0.0470733642578125,0.2220611572265625,0.59423828125
2.295806884765625,5.176971435546875,8.023330688476562,0.1599884033203125,0.70355224609375,0.6943817138671875
1.97259521484375,5.2583770751953125,7.8341827392578125,0.193023681640625,0.763214111328125,0.7274017333984375
1.567962646484375,4.963897705078125,8.004180908203125,0.1045989990234375,0.3925018310546875,0.630462646484375
1.5751495361328125,4.997406005859375,8.437530517578125,0.0843658447265625,0.1080780029296875,0.689056396484375
2.0444183349609375,4.86572265625,8.444717407226562,0.1642608642578125,0.126190185546875,0.776397705078125
2.8704071044921875,5.1626129150390625,8.078399658203125,0.272918701171875,0.624725341796875,0.764678955078125
1.2686920166015625,5.0692291259765625,9.222824096679688,0.2558746337890625,0.443634033203125,0.5654754638671875
1.038848876953125,4.827423095703125,9.538864135742188,0.781036376953125,-0.2125701904296875,0.57080078125
0.732391357421875,5.3158416748046875,8.6553955078125,1.319000244140625,-0.037872314453125,0.651763916015625
0.995758056640625,5.378082275390625,7.6282806396484375,1.3275299072265625,0.1986236572265625,0.6602935791015625
2.15216064453125,5.990997314453125,7.487030029296875,1.0058135986328125,-0.10498046875,0.66455078125
3.0428009033203125,7.19049072265625,8.131072998046875,0.8343048095703125,-0.36810302734375,0.710357666015625
2.559173583984375,6.3668975830078125,8.18853759765625,0.89715576171875,-0.6003265380859375,0.70928955078125
2.0779266357421875,4.8561553955078125,7.762359619140625,0.9365692138671875,-0.8570556640625,0.712493896484375
2.6525421142578125,5.6965179443359375,7.0608673095703125,0.5679931640625,-0.688751220703125,0.5196685791015625
2.528045654296875,5.9239654541015625,7.8748931884765625,0.2974090576171875,-0.628021240234375,0.37054443359375
2.439453125,6.07000732421875,7.534912109375,0.362396240234375,-0.1454620361328125,0.4632110595703125
2.8799896240234375,5.93115234375,6.9962158203125,0.381561279296875,0.328582763671875,0.564422607421875
2.9805450439453125,5.8186187744140625,6.85736083984375,0.3900909423828125,0.5309906005859375,0.56121826171875
2.7530975341796875,5.6773681640625,6.6179351806640625,0.362396240234375,0.920867919921875,0.49517822265625
1.757110595703125,5.5217437744140625,6.7807464599609375,0.280364990234375,0.5725250244140625,0.435516357421875
2.042022705078125,5.684539794921875,6.684967041015625,0.10992431640625,0.0164642333984375,0.719940185546875
2.9015350341796875,5.4020233154296875,6.445556640625,0.087554931640625,0.227386474609375,0.778533935546875
3.03082275390625,5.48822021484375,6.165435791015625,-0.0669097900390625,0.5576171875,0.6826629638671875
2.020477294921875,5.3685150146484375,7.0608673095703125,-0.267181396484375,0.761077880859375,0.6006317138671875
1.587127685546875,5.291900634765625,7.455902099609375,-0.368377685546875,0.634307861328125,0.5803985595703125
1.709228515625,5.3493499755859375,9.780670166015625,-0.1372222900390625,0.178375244140625,0.6016998291015625
2.2144012451171875,5.6222991943359375,9.06719970703125,0.317657470703125,0.3360443115234375,0.64111328125
1.769073486328125,5.9622650146484375,7.5109710693359375,0.46466064453125,0.7312469482421875,0.7710723876953125
1.725982666015625,6.2471771240234375,6.1055755615234375,0.2196502685546875,1.2340545654296875,1.05230712890625
2.40594482421875,6.31182861328125,5.16705322265625,-0.3960723876953125,2.117156982421875,1.244049072265625
2.422698974609375,5.81622314453125,5.394500732421875,-1.1257781982421875,2.55499267578125,1.0800018310546875
1.3046112060546875,5.08599853515625,6.9076385498046875,-1.5689239501953125,2.2386016845703125,0.780670166015625
0.0644073486328125,4.75799560546875,8.509353637695312,-1.758544921875,1.8966522216796875,0.529266357421875
-0.4024658203125,4.5832061767578125,9.505340576171875,-1.724456787109375,1.7379302978515625,0.4461669921875
-0.5125885009765625,4.48504638671875,10.826934814453125,-1.3526763916015625,1.14776611328125,0.4056854248046875
-0.42401123046875,4.34619140625,11.267471313476562,-0.61871337890625,0.5853118896484375,0.4067535400390625
-0.5604705810546875,4.75799560546875,9.799835205078125,0.053466796875,0.748291015625,0.620880126953125
1.3070068359375,4.3150634765625,7.2069091796875,0.49554443359375,0.0015411376953125,0.69970703125
1.460235595703125,4.520965576171875,6.759185791015625,0.3666534423828125,-0.00164794921875,0.538848876953125
1.0460357666015625,4.784332275390625,6.9507293701171875,0.02044677734375,0.2433624267578125,0.3289947509765625
-0.2420501708984375,4.690948486328125,8.346542358398438,-0.2938079833984375,0.32965087890625,0.310882568359375
-0.1941680908203125,4.657440185546875,8.679336547851562,-0.2139129638671875,0.274261474609375,0.4408416748046875
0.3541107177734375,4.6239166259765625,8.657791137695312,-0.08502197265625,0.375457763671875,0.5228729248046875
0.5935211181640625,4.5233612060546875,8.863693237304688,0.0236358642578125,0.4969024658203125,0.482391357421875
0.1386260986328125,5.124298095703125,8.3896484375,0.2430877685546875,0.638580322265625,0.4067535400390625
-0.4886474609375,5.018951416015625,8.19091796875,0.2484130859375,0.6630706787109375,0.484527587890625
-0.4647064208984375,4.7675628662109375,8.7918701171875,0.3900909423828125,0.2082061767578125,0.5335235595703125
-0.038543701171875,4.700531005859375,9.759124755859375,0.6074066162109375,-0.1763458251953125,0.5313873291015625
0.33734130859375,4.7891082763671875,9.998550415039062,1.170928955078125,-0.628021240234375,0.332183837890625
-0.297119140625,5.1889495849609375,7.57562255859375,1.343505859375,-1.201141357421875,0.1106109619140625
0.2870635986328125,5.7874908447265625,6.936370849609375,0.93017578125,-1.6741180419921875,0.16387939453125
1.026885986328125,5.99578857421875,8.00897216796875,0.5211181640625,-1.0701141357421875,0.3961029052734375
1.2519378662109375,5.777923583984375,6.874114990234375,0.3101959228515625,-1.07330322265625,0.435516357421875
1.4578399658203125,5.6031494140625,7.391265869140625,0.23883056640625,-1.41845703125,0.355621337890625
2.274261474609375,5.8928375244140625,8.557235717773438,0.32830810546875,-1.224578857421875,0.3034210205078125
2.3412933349609375,6.2519683837890625,7.8653106689453125,0.6265869140625,-0.1699676513671875,0.3183441162109375
1.4219207763671875,5.8976287841796875,6.1678314208984375,0.599945068359375,0.34881591796875,0.264007568359375
1.1824951171875,5.8880462646484375,5.870941162109375,0.2867584228515625,-0.16357421875,0.2384490966796875
1.9510345458984375,6.3668975830078125,6.5221710205078125,0.18768310546875,-0.604583740234375,0.2821197509765625
2.7267608642578125,6.6781463623046875,6.397674560546875,0.226043701171875,-0.1912689208984375,0.3630828857421875
2.62860107421875,6.14422607421875,6.371337890625,-0.0296173095703125,0.8377838134765625,0.297027587890625
0.7730865478515625,5.938323974609375,7.9586944580078125,-0.173431396484375,0.408477783203125,0.080780029296875
1.41473388671875,6.2136688232421875,8.303451538085938,0.113128662109375,0.5725250244140625,0.438720703125
1.6230316162109375,6.2663421630859375,8.037689208984375,0.268646240234375,1.320343017578125,0.71142578125
1.94146728515625,6.9175567626953125,6.886077880859375,0.167449951171875,1.3736114501953125,0.7071685791015625
1.1705322265625,5.895233154296875,8.418380737304688,-0.1766357421875,-0.2115020751953125,0.3257904052734375
1.122650146484375,5.7803192138671875,8.861297607421875,-0.0115203857421875,0.0399017333984375,0.379058837890625
0.9358978271484375,5.619903564453125,8.820602416992188,0.1301727294921875,0.239105224609375,0.4333953857421875
1.0316619873046875,5.282318115234375,8.1358642578125,0.4263153076171875,0.3701324462890625,0.5771942138671875
1.8768157958984375,5.19134521484375,7.170989990234375,0.397552490234375,0.2689208984375,0.6006317138671875
2.073150634765625,4.985443115234375,6.917205810546875,0.235626220703125,0.0153961181640625,0.494110107421875
1.5296630859375,4.7484130859375,8.657791137695312,0.124847412109375,0.8462982177734375,0.4855804443359375
0.98138427734375,4.9207916259765625,8.308242797851562,0.202606201171875,0.782379150390625,0.4419097900390625
0.837738037109375,4.8034820556640625,8.2100830078125,0.22711181640625,0.5224609375,0.4216766357421875
1.2112274169921875,4.7484130859375,8.162200927734375,0.2057952880859375,0.1400299072265625,0.4632110595703125
1.7595062255859375,4.765167236328125,7.858123779296875,0.226043701171875,-0.1092376708984375,0.4419097900390625
1.7714691162109375,4.76995849609375,7.604339599609375,0.2622528076171875,-0.2019195556640625,0.4099578857421875
1.7810516357421875,4.9902191162109375,7.5373077392578125,0.2164459228515625,-0.0623626708984375,0.42486572265625
1.6972503662109375,5.02374267578125,7.941925048828125,0.165313720703125,0.16986083984375,0.456817626953125
1.8337249755859375,4.5999755859375,8.164596557617188,0.272918701171875,0.500091552734375,0.593170166015625
2.8751983642578125,4.9710693359375,6.8621368408203125,0.3432159423828125,1.06787109375,0.7061004638671875
1.567962646484375,4.9591064453125,7.5037841796875,1.081451416015625,1.481201171875,0.917022705078125
1.747528076171875,5.064453125,6.5700531005859375,0.9269866943359375,1.858306884765625,1.0448455810546875
2.31256103515625,4.8777008056640625,6.7017364501953125,0.420989990234375,2.09478759765625,1.0128936767578125
2.307769775390625,4.9303741455078125,8.351333618164062,0.193023681640625,1.9424591064453125,0.7710723876953125
1.060394287109375,5.3756866455078125,9.718429565429688,0.8715972900390625,0.8495025634765625,0.4781341552734375
0.3972015380859375,5.55047607421875,9.139022827148438,1.2891693115234375,0.6108856201171875,0.4930419921875
0.447479248046875,5.895233154296875,7.7958831787109375,1.4969024658203125,1.1009063720703125,0.6709442138671875
0.255950927734375,6.3477325439453125,5.4016876220703125,1.0963592529296875,1.5323333740234375,0.8200836181640625
0.469024658203125,6.0724029541015625,5.205352783203125,0.3538665771484375,1.0060882568359375,0.88079833984375
1.800201416015625,6.52490234375,6.72088623046875,-0.0754241943359375,0.5927734375,0.8839874267578125
1.9390716552734375,6.6470184326171875,7.434356689453125,-0.0658416748046875,0.6407012939453125,0.7476348876953125
-0.3737335205078125,6.2591552734375,6.8717193603515625,-0.2586517333984375,1.05828857421875,0.844573974609375
0.4666290283203125,6.091552734375,7.52294921875,-0.4205780029296875,1.000762939453125,1.0448455810546875
1.8720245361328125,6.1849365234375,7.7527923583984375,-0.5121917724609375,0.9027557373046875,1.054443359375
1.709228515625,5.947906494140625,8.195709228515625,-0.5121917724609375,0.84417724609375,0.8744049072265625
0.7443695068359375,5.789886474609375,8.593154907226562,-0.335357666015625,1.0082244873046875,0.8190155029296875
0.4019927978515625,5.6605987548828125,8.085586547851562,-0.1457366943359375,1.1009063720703125,0.9074249267578125
0.86407470703125,5.715667724609375,7.63067626953125,-0.0828857421875,0.784515380859375,0.9660186767578125
1.0508270263671875,5.8066558837890625,7.276336669921875,-0.1819610595703125,0.6513519287109375,0.9670867919921875
1.0579986572265625,5.7611541748046875,7.5157623291015625,-0.2480010986328125,0.8047637939453125,0.99371337890625
1.048431396484375,5.55047607421875,8.092758178710938,-0.17449951171875,0.9283294677734375,1.0341949462890625
0.8257598876953125,5.387664794921875,8.23162841796875,0.1418914794921875,0.8015594482421875,1.0821380615234375
0.299041748046875,5.5337066650390625,7.3529510498046875,0.3314971923828125,0.7994232177734375,1.2046356201171875
0.26312255859375,5.272735595703125,7.0345306396484375,0.24627685546875,0.486236572265625,1.3154296875
1.4315032958984375,5.4044189453125,7.7384185791015625,0.179168701171875,0.1432342529296875,1.3772125244140625
2.243133544921875,5.270355224609375,8.533294677734375,0.3240509033203125,-0.20831298828125,1.2536468505859375
2.3939666748046875,5.4594879150390625,8.832565307617188,0.7650604248046875,-0.55877685546875,1.11090087890625
2.1401824951171875,5.943115234375,8.466262817382812,0.9706573486328125,-0.5087127685546875,1.0810699462890625
1.2639007568359375,6.3453521728515625,7.2931060791015625,1.08251953125,-0.073028564453125,1.0714874267578125
1.208831787109375,6.1107177734375,7.04888916015625,0.9578704833984375,0.3743896484375,1.1726837158203125
1.9917449951171875,5.9622650146484375,6.883697509765625,0.8108673095703125,0.22418212890625,1.2919921875
2.7698516845703125,5.9766387939453125,6.673004150390625,0.781036376953125,-0.049591064453125,1.3111724853515625
4.13934326171875,6.675750732421875,6.1223297119140625,0.7671966552734375,-0.307373046875,1.1854705810546875
4.15130615234375,7.056427001953125,6.2947235107421875,0.717132568359375,0.1858367919921875,0.91595458984375
3.097869873046875,6.675750732421875,6.9076385498046875,0.748016357421875,0.79730224609375,0.7380523681640625
2.4729766845703125,6.7236328125,6.8405914306640625,0.8140716552734375,0.7546844482421875,0.7849273681640625
3.0020904541015625,6.8074188232421875,6.29949951171875,0.8140716552734375,0.3786468505859375,0.8967742919921875
3.70599365234375,7.32696533203125,6.081634521484375,0.783172607421875,0.4489593505859375,0.8776092529296875
3.73712158203125,7.3293609619140625,6.4024505615234375,0.736297607421875,0.7003631591796875,0.788116455078125
3.404327392578125,7.0755767822265625,6.778350830078125,0.7799835205078125,0.749359130859375,0.72100830078125
3.521636962890625,7.1186676025390625,6.589202880859375,0.919525146484375,0.60235595703125,0.72314453125
3.3660125732421875,7.2718963623046875,6.0050201416015625,1.0612030029296875,0.5288543701171875,0.7178192138671875
3.2127838134765625,7.532867431640625,5.193389892578125,1.0516204833984375,0.5501556396484375,0.7700042724609375
3.342071533203125,7.50653076171875,5.4016876220703125,0.9174041748046875,0.5043487548828125,0.7849273681640625
4.8025360107421875,7.83453369140625,3.6539154052734375,0.689422607421875,0.38824462890625,0.67413330078125
4.0483551025390625,7.5137176513671875,4.7313079833984375,0.2995452880859375,0.725921630859375,0.468536376953125
2.9637908935546875,7.0947265625,6.8501739501953125,0.030029296875,0.736572265625,0.2363128662109375
2.908721923828125,7.2982330322265625,6.1678314208984375,0.2430877685546875,0.6470947265625,0.16387939453125
2.4777679443359375,7.28387451171875,5.976287841796875,0.2633209228515625,0.662017822265625,0.12872314453125
1.5703582763671875,7.2982330322265625,6.019378662109375,0.2303009033203125,0.739776611328125,0.127655029296875
1.788238525390625,7.121063232421875,6.4886474609375,0.1855621337890625,0.6662750244140625,0.1883697509765625
2.2048187255859375,7.089935302734375,6.4694976806640625,0.2164459228515625,0.5395050048828125,0.148956298828125
1.68768310546875,7.235992431640625,5.9930419921875,0.2398834228515625,0.4830474853515625,0.05096435546875
0.775482177734375,7.362884521484375,5.8350372314453125,0.2398834228515625,0.43084716796875,0.0200653076171875
0.72760009765625,7.528076171875,5.8422088623046875,0.280364990234375,0.4830474853515625,0.05841064453125
0.8784332275390625,7.501739501953125,5.85418701171875,0.336822509765625,0.5735931396484375,0.0520172119140625
0.859283447265625,7.43231201171875,5.2700042724609375,0.350677490234375,0.5501556396484375,0.0765228271484375
1.0987091064453125,7.379638671875,4.7432708740234375,0.1898193359375,0.4372406005859375,0.12872314453125
1.1202545166015625,7.343719482421875,5.4759063720703125,-0.028564453125,0.3552093505859375,0.1436309814453125
1.376434326171875,7.1881103515625,6.49822998046875,-0.0892791748046875,0.246551513671875,0.14044189453125
1.7714691162109375,7.156982421875,7.1255035400390625,0.077972412109375,0.08038330078125,0.072265625
1.8648529052734375,7.2934417724609375,6.991424560546875,0.235626220703125,0.032440185546875,0.0179290771484375
1.362060546875,7.6334228515625,5.727294921875,0.5157928466796875,0.126190185546875,-0.0683441162109375
1.1082763671875,7.913543701171875,4.1136016845703125,0.48809814453125,0.167724609375,-0.0385284423828125
0.9933624267578125,8.1290283203125,4.13275146484375,-0.013641357421875,0.0782470703125,0.0456390380859375
1.2639007568359375,8.100296020507812,5.3370361328125,-0.2139129638671875,0.05267333984375,0.106353759765625
1.333343505859375,8.057205200195312,6.40484619140625,-0.140411376953125,-0.0091094970703125,0.0743865966796875
0.7204132080078125,8.246337890625,5.775177001953125,0.1940765380859375,-0.04638671875,0.129791259765625
1.694854736328125,8.253524780273438,4.9228363037109375,0.235626220703125,0.0707855224609375,0.1926422119140625
1.8959808349609375,8.176910400390625,5.1550750732421875,0.1642608642578125,0.167724609375,0.0648040771484375
0.71563720703125,8.100296020507812,5.8470001220703125,0.1940765380859375,0.055877685546875,-0.0118865966796875
-0.0457305908203125,7.9374847412109375,5.7895355224609375,0.337890625,-0.16357421875,0.1446990966796875
0.7443695068359375,7.913543701171875,5.2819671630859375,0.4838409423828125,-0.2466583251953125,0.3417816162109375
2.6956329345703125,8.526458740234375,3.4863128662109375,-0.0221710205078125,-0.0858001708984375,0.106353759765625
1.8863983154296875,7.9470672607421875,5.9834747314453125,-0.0775604248046875,0.4947662353515625,0.0083465576171875
1.43389892578125,7.949462890625,5.3490142822265625,0.1866302490234375,0.5522918701171875,-0.0246734619140625
1.3189697265625,8.176910400390625,4.496673583984375,0.21112060546875,0.5629425048828125,-0.020416259765625
0.8856201171875,8.354080200195312,3.8502349853515625,0.12164306640625,0.5927734375,-0.0257415771484375
0.2224273681640625,8.200851440429688,3.8598175048828125,-0.2139129638671875,0.410614013671875,0.0552215576171875
0.521697998046875,7.9997406005859375,4.412872314453125,-0.356658935546875,0.2422943115234375,0.1148681640625
1.524871826171875,8.073959350585938,5.353790283203125,-0.4056549072265625,0.133636474609375,0.127655029296875
1.101104736328125,8.112258911132812,5.140716552734375,-0.26397705078125,0.2550811767578125,0.059478759765625
0.7802734375,8.1409912109375,4.8701629638671875,-0.20751953125,0.2444305419921875,0.0530853271484375
0.6557769775390625,8.198455810546875,4.496673583984375,-0.1830291748046875,0.2114105224609375,0.071197509765625
0.7659149169921875,8.306198120117188,4.022613525390625,-0.208587646484375,0.1869049072265625,0.108489990234375
1.3429107666015625,8.191268920898438,3.4647674560546875,-0.3960723876953125,0.214599609375,0.1361846923828125
1.49853515625,8.19366455078125,3.3594207763671875,-0.528167724609375,0.29449462890625,0.1095428466796875
0.990966796875,7.7675018310546875,4.05853271484375,-0.83709716796875,0.3594818115234375,0.01580810546875
0.5288848876953125,7.607086181640625,5.0377655029296875,-1.00433349609375,0.120849609375,0.038177490234375
1.05560302734375,7.61187744140625,5.0688934326171875,-1.0149993896484375,-0.1433258056640625,0.085052490234375
1.2998199462890625,8.485763549804688,4.6953887939453125,-0.9787750244140625,-0.0272216796875,0.0179290771484375
0.902374267578125,6.95587158203125,4.10162353515625,-1.1151275634765625,0.1719818115234375,0.0307159423828125
0.4642333984375,6.9606475830078125,7.530120849609375,-1.4549407958984375,0.44256591796875,-0.0928497314453125
-0.3258514404296875,6.8600921630859375,8.899612426757812,-1.019256591796875,0.0079345703125,-0.0374603271484375
-0.28753662109375,7.1641693115234375,8.755950927734375,-0.393951416015625,-0.46929931640625,0.083984375
0.543243408203125,7.4466705322265625,7.29071044921875,0.1259002685546875,-0.3862152099609375,0.2267303466796875
0.964630126953125,7.5998992919921875,6.440765380859375,0.4358978271484375,-0.0655670166015625,0.2203369140625
0.3660736083984375,7.01092529296875,6.2683868408203125,0.5733184814453125,-0.141204833984375,0.195831298828125
0.308624267578125,7.2718963623046875,5.8733367919921875,0.670257568359375,-1.0328216552734375,0.285308837890625
0.583953857421875,7.6190643310546875,5.1239471435546875,0.7320404052734375,-1.7188568115234375,0.4206085205078125
0.7395782470703125,7.7363739013671875,5.2652130126953125,0.714996337890625,-1.6602630615234375,0.4674835205078125
1.7020416259765625,8.0548095703125,6.9219970703125,0.740570068359375,-0.9763641357421875,0.4653472900390625
1.9031524658203125,8.526458740234375,7.1398773193359375,0.97491455078125,-0.77716064453125,0.3875885009765625
1.874420166015625,7.9901580810546875,6.8501739501953125,1.1645355224609375,-1.1958160400390625,0.3407135009765625
2.4466400146484375,8.2152099609375,5.6961669921875,1.307281494140625,-1.2075347900390625,0.380126953125
3.193634033203125,8.516891479492188,5.3298492431640625,1.319000244140625,-1.0946044921875,0.3822479248046875
4.22552490234375,8.394775390625,4.4894866943359375,1.2700042724609375,-0.5460052490234375,0.25335693359375
4.3404541015625,8.28704833984375,4.190216064453125,1.173065185546875,-0.401123046875,0.1670684814453125
3.6940155029296875,8.452239990234375,5.3968963623046875,0.771453857421875,-0.672760009765625,-0.067291259765625
2.6214141845703125,7.6573638916015625,6.239654541015625,0.849212646484375,-0.6461334228515625,0.0211334228515625
5.68359375,8.16015625,-5.9540252685546875,0.522186279296875,-0.470367431640625,0.1479034423828125
3.363616943359375,7.1497955322265625,1.137603759765625,-1.4826507568359375,0.0952911376953125,-0.0800628662109375
2.9063262939453125,6.42913818359375,10.510910034179688,-1.8789215087890625,0.269989013671875,0.298095703125
4.3332672119140625,5.926361083984375,11.727157592773438,-0.96173095703125,0.1858367919921875,0.5431060791015625
5.7793731689453125,6.158599853515625,9.713638305664062,-0.515380859375,0.37652587890625,0.540985107421875
7.345184326171875,6.6853179931640625,8.181350708007812,-0.3044586181640625,0.513946533203125,0.369476318359375
7.831207275390625,6.8409423828125,7.4942169189453125,-0.2480010986328125,0.6470947265625,0.057342529296875
7.71148681640625,6.8529205322265625,6.3737335205078125,-0.22137451171875,0.99969482421875,-0.5615692138671875
3.849639892578125,3.326263427734375,6.3545684814453125,-1.70208740234375,-0.4618377685546875,-0.725616455078125
4.3859405517578125,6.3932342529296875,8.301055908203125,-1.4229888916015625,1.3171539306640625,-0.8023223876953125
3.373199462890625,5.9407196044921875,6.29949951171875,-0.9319000244140625,2.2758941650390625,-0.79486083984375
0.797027587890625,6.117889404296875,5.6985626220703125,-1.153472900390625,1.7943878173828125,-0.70538330078125
-1.0560760498046875,4.9615020751953125,6.83819580078125,-1.621124267578125,0.659881591796875,-0.1045684814453125
-0.5748443603515625,3.7452392578125,9.761520385742188,-1.418731689453125,0.1389617919921875,0.4759979248046875
2.073150634765625,5.990997314453125,8.861297607421875,-0.7103271484375,0.319000244140625,0.917022705078125
3.6605072021484375,5.583984375,8.272323608398438,-0.2458648681640625,0.554412841796875,0.925537109375
3.8472442626953125,5.6773681640625,5.8685455322265625,0.0460052490234375,1.3352508544921875,0.6027679443359375
2.812957763671875,5.2583770751953125,4.1183929443359375,-0.4290924072265625,1.2255401611328125,0.3641510009765625
2.3508758544921875,4.678985595703125,5.246063232421875,-1.19927978515625,0.533111572265625,0.28851318359375
2.2718658447265625,5.12908935546875,7.2308502197265625,-1.465606689453125,0.1091461181640625,0.287445068359375
1.6326141357421875,5.3230133056640625,9.227615356445312,-1.280242919921875,0.2913055419921875,0.3854522705078125
1.86724853515625,5.064453125,9.75433349609375,-0.7955474853515625,0.934722900390625,0.630462646484375
2.83929443359375,4.4084320068359375,9.253952026367188,-0.1702423095703125,0.969879150390625,0.5431060791015625
2.7842254638671875,4.839385986328125,8.289093017578125,-0.0445404052734375,0.44256591796875,0.3023681640625
2.34368896484375,4.6885528564453125,7.9012298583984375,-0.196868896484375,0.43084716796875,0.1681365966796875
1.441070556640625,5.0668487548828125,8.272323608398438,-0.3321533203125,0.2231292724609375,0.0797271728515625
1.314178466796875,5.1051483154296875,8.456680297851562,-0.288482666015625,0.1134033203125,0.2725372314453125
2.46099853515625,5.0093841552734375,8.63385009765625,-0.18621826171875,0.3030242919921875,0.435516357421875
2.94464111328125,4.7723541259765625,9.093536376953125,-0.06903076171875,0.56719970703125,0.3268585205078125
2.053985595703125,4.9040374755859375,8.765533447265625,0.110992431640625,0.39996337890625,0.1500244140625
1.18011474609375,5.3421783447265625,6.8813018798828125,0.2622528076171875,-0.0186920166015625,0.274658203125
2.6262054443359375,5.3302001953125,8.245986938476562,0.0619964599609375,0.06439208984375,0.365203857421875
2.793792724609375,5.0213470458984375,8.787078857421875,0.2089996337890625,0.274261474609375,0.27679443359375
2.13299560546875,5.064453125,7.72406005859375,0.2995452880859375,-0.0197601318359375,-0.018280029296875
2.137786865234375,5.361328125,8.16937255859375,0.2622528076171875,-0.5119171142578125,-0.131195068359375
1.6062774658203125,5.5552520751953125,8.107131958007812,0.2856903076171875,-0.665313720703125,-0.09710693359375
1.8456878662109375,5.33978271484375,7.7791290283203125,0.3347015380859375,-0.6365509033203125,0.0094146728515625
1.725982666015625,5.1697845458984375,7.2954864501953125,0.301666259765625,-0.4842071533203125,-0.0150909423828125
1.7379608154296875,4.9998016357421875,7.64984130859375,0.120574951171875,-0.597137451171875,-0.06622314453125
2.0515899658203125,5.01177978515625,7.9610748291015625,0.101409912109375,-0.86663818359375,-0.0800628662109375
2.1090545654296875,5.0883941650390625,7.8916473388671875,0.1823577880859375,-0.595001220703125,-0.0246734619140625
2.006103515625,4.8465728759765625,7.386474609375,0.1717071533203125,0.05694580078125,0.07012939453125
1.9246978759765625,4.626312255859375,7.4678802490234375,-0.0328216552734375,0.24761962890625,0.07012939453125
2.0228729248046875,4.657440185546875,8.617095947265625,-0.1681060791015625,-0.2019195556640625,-0.0960540771484375
1.2686920166015625,5.102752685546875,8.526107788085938,-0.0828857421875,-0.603515625,-0.250518798828125
0.741973876953125,5.2847137451171875,8.562026977539062,0.054534912109375,-0.2157745361328125,-0.0481109619140625
1.4386749267578125,4.5664520263671875,7.994598388671875,-0.142547607421875,0.04522705078125,0.17559814453125
1.3644561767578125,4.9615020751953125,8.382461547851562,-0.08502197265625,-0.3468017578125,0.115936279296875
1.048431396484375,4.9040374755859375,8.542877197265625,0.085418701171875,-0.0634307861328125,0.1031494140625
1.2303924560546875,5.24639892578125,8.207687377929688,0.193023681640625,0.2540130615234375,0.1383056640625
1.091522216796875,5.2895050048828125,7.750396728515625,0.2516021728515625,0.546966552734375,0.164947509765625
0.785064697265625,4.8896636962890625,7.2931060791015625,0.1045989990234375,0.70355224609375,0.172393798828125
1.20166015625,4.9040374755859375,7.88446044921875,-0.1776885986328125,0.182647705078125,0.047760009765625
1.3261566162109375,4.9734649658203125,8.382461547851562,-0.24481201171875,-0.127349853515625,-0.0268096923828125
0.964630126953125,5.112335205078125,8.741592407226562,-0.199005126953125,-0.354248046875,-0.142913818359375
0.6725311279296875,5.1697845458984375,8.988189697265625,-0.0871429443359375,-0.0858001708984375,-0.112030029296875
1.0891265869140625,5.071624755859375,8.502166748046875,0.1429443359375,0.429779052734375,-0.043853759765625
0.46185302734375,5.0692291259765625,7.5899810791015625,0.1844940185546875,0.48944091796875,-0.053436279296875
0.2008819580078125,5.186553955078125,7.369720458984375,0.066253662109375,-0.0080413818359375,0.0317840576171875
1.35009765625,5.334991455078125,7.9993896484375,0.05560302734375,-0.09112548828125,0.115936279296875
1.524871826171875,5.4594879150390625,7.8389739990234375,0.1024627685546875,0.1293792724609375,0.108489990234375
1.4051666259765625,5.3014678955078125,7.2811279296875,0.0843658447265625,0.4500274658203125,0.0648040771484375
1.4099578857421875,5.198516845703125,7.4894256591796875,-0.0988616943359375,0.110198974609375,-0.0960540771484375
1.11785888671875,5.2104949951171875,7.8222198486328125,-0.185150146484375,-0.197662353515625,-0.17913818359375
0.5935211181640625,5.30865478515625,8.2843017578125,-0.2043304443359375,-0.69940185546875,-0.213226318359375
0.8042144775390625,5.567230224609375,8.42315673828125,-0.06158447265625,-0.48101806640625,-0.09710693359375
1.6374053955078125,5.471466064453125,7.6641998291015625,0.1184539794921875,0.25933837890625,-0.0172119140625
1.0364532470703125,5.4546966552734375,7.51336669921875,0.0460052490234375,0.535247802734375,-0.1035003662109375
0.3038330078125,5.4642791748046875,7.422393798828125,-0.070098876953125,0.201812744140625,0.0200653076171875
1.1250457763671875,5.452301025390625,7.5660400390625,-0.23095703125,0.132568359375,-0.04278564453125
1.00054931640625,5.7348175048828125,7.731231689453125,-0.3204345703125,-0.0410614013671875,-0.215362548828125
-0.134307861328125,5.6438446044921875,8.1358642578125,-0.358795166015625,-0.378753662109375,-0.2771453857421875
-0.42401123046875,5.7444000244140625,8.576385498046875,-0.3417510986328125,-0.5193634033203125,-0.2206878662109375
0.320587158203125,5.8234100341796875,9.344924926757812,-0.070098876953125,-0.3489227294921875,0.0062103271484375
1.081939697265625,5.732421875,7.8389739990234375,0.2175140380859375,0.3392333984375,0.0179290771484375
0.7395782470703125,5.794677734375,7.0872039794921875,0.124847412109375,0.170928955078125,0.0445709228515625
0.5600128173828125,5.715667724609375,7.25958251953125,0.0374908447265625,0.0026092529296875,0.0754547119140625
0.9191436767578125,5.7061004638671875,7.3266143798828125,-0.0083160400390625,0.121917724609375,0.1574859619140625
1.22320556640625,5.471466064453125,7.37689208984375,-0.18408203125,0.1410980224609375,0.04669189453125
1.4674072265625,5.509765625,8.2220458984375,-0.2725067138671875,-0.2498626708984375,-0.133331298828125
0.8449249267578125,5.524139404296875,8.444717407226562,-0.18408203125,-0.4618377685546875,-0.2622222900390625
-0.0098114013671875,5.5648345947265625,8.5692138671875,-0.0328216552734375,-0.369171142578125,-0.177001953125
0.5576171875,5.572021484375,8.06402587890625,0.0907440185546875,-0.101776123046875,-0.051300048828125
1.40277099609375,5.619903564453125,7.8605194091796875,0.1045989990234375,0.248687744140625,-0.0502471923828125
0.8233642578125,5.6917266845703125,8.049667358398438,0.064117431640625,0.102752685546875,-0.1109619140625
0.7132415771484375,5.684539794921875,8.272323608398438,0.0843658447265625,-0.045318603515625,-0.0917816162109375
0.9670257568359375,5.9239654541015625,7.70489501953125,0.2601318359375,0.1421661376953125,-0.020416259765625
1.0196990966796875,5.78271484375,6.8142547607421875,0.1429443359375,0.20074462890625,-0.063018798828125
0.8520965576171875,5.821014404296875,7.855743408203125,-0.138275146484375,-0.3233642578125,-0.2068328857421875
0.6725311279296875,5.9622650146484375,9.14141845703125,-0.175567626953125,-0.50445556640625,-0.259033203125
0.753936767578125,5.947906494140625,9.579559326171875,-0.0647735595703125,-0.4842071533203125,-0.2430572509765625
1.249542236328125,5.9622650146484375,9.467041015625,0.341094970703125,-0.18487548828125,-0.1844635009765625
1.6661376953125,6.0245208740234375,8.353729248046875,0.5179290771484375,0.1080780029296875,-0.1535797119140625
1.34051513671875,5.8665008544921875,7.3577423095703125,0.42950439453125,0.3328399658203125,-0.213226318359375
0.615081787109375,5.4666748046875,7.6905364990234375,0.1376190185546875,0.0079345703125,-0.1961822509765625
0.5552215576171875,5.3325958251953125,8.123886108398438,0.0619964599609375,-0.0666351318359375,-0.079010009765625
0.8544921875,5.3014678955078125,8.035308837890625,0.0385589599609375,0.0036773681640625,-0.0491790771484375
1.213623046875,5.2009124755859375,8.461471557617188,0.0236358642578125,-0.1092376708984375,-0.12481689453125
1.4003753662109375,4.9830474853515625,7.7815093994140625,0.3314971923828125,-0.2828826904296875,-0.1759490966796875
1.77386474609375,4.975860595703125,8.066421508789062,0.301666259765625,-0.345733642578125,-0.1961822509765625
2.073150634765625,5.1362762451171875,7.666595458984375,0.3357696533203125,-0.1443939208984375,-0.1833953857421875
1.8073883056640625,5.186553955078125,7.424774169921875,0.2303009033203125,0.1165924072265625,-0.2537078857421875
1.354888916015625,5.20330810546875,7.592376708984375,0.147216796875,0.0707855224609375,-0.2515716552734375
1.5966949462890625,5.2272491455078125,7.8605194091796875,0.1386871337890625,0.075042724609375,-0.135467529296875
1.948638916015625,5.20330810546875,7.3888702392578125,0.101409912109375,0.38397216796875,-0.1386566162109375
1.486572265625,4.8944549560546875,7.657012939453125,-0.0594482421875,0.1155242919921875,-0.279266357421875
1.0939178466796875,5.19134521484375,8.363311767578125,-0.070098876953125,-0.30950927734375,-0.328277587890625
1.1322174072265625,5.299072265625,8.20050048828125,0.1152496337890625,-0.1678314208984375,-0.223876953125
1.6541595458984375,5.1745758056640625,7.518157958984375,0.2324371337890625,0.132568359375,-0.123748779296875
1.7283782958984375,5.071624755859375,7.329010009765625,0.1291046142578125,0.1421661376953125,-0.1610260009765625
1.620635986328125,4.901641845703125,8.047271728515625,-0.086090087890625,-0.3052520751953125,-0.2537078857421875
1.73077392578125,5.334991455078125,8.4949951171875,0.1855621337890625,-0.23919677734375,-0.154632568359375
1.800201416015625,4.9686737060546875,7.67138671875,0.2761077880859375,0.009002685546875,-0.1077728271484375
2.142578125,5.4666748046875,7.539703369140625,0.261199951171875,0.0952911376953125,-0.022552490234375
2.0444183349609375,5.8018646240234375,6.79510498046875,0.2303009033203125,0.363739013671875,0.048828125
1.14898681640625,5.37091064453125,6.2588043212890625,-0.0562591552734375,0.6737213134765625,0.176666259765625
1.280670166015625,5.5480804443359375,7.096771240234375,-0.3726348876953125,0.69610595703125,0.3140716552734375
1.546417236328125,5.598358154296875,7.5732269287109375,-0.4557342529296875,0.6513519287109375,0.3822479248046875
1.5416259765625,5.4163970947265625,8.267547607421875,-0.5558624267578125,0.4617462158203125,0.470672607421875
1.4267120361328125,5.291900634765625,8.564422607421875,-0.570770263671875,0.273193359375,0.5047607421875
1.175323486328125,5.2009124755859375,8.657791137695312,-0.42376708984375,-0.094329833984375,0.57293701171875
1.493743896484375,5.27752685546875,8.341766357421875,-0.3161773681640625,0.3136749267578125,0.7593536376953125
2.30059814453125,4.42041015625,8.679336547851562,-0.35772705078125,0.646026611328125,0.7401885986328125
2.834503173828125,4.511383056640625,8.837356567382812,-0.3715667724609375,0.98797607421875,0.56121826171875
2.180877685546875,5.20330810546875,8.3154296875,-0.356658935546875,1.53765869140625,0.16387939453125
0.490570068359375,5.38287353515625,8.004180908203125,-0.2970123291015625,1.2393798828125,0.1894378662109375
0.076385498046875,5.2152862548828125,7.750396728515625,-0.3300323486328125,0.80902099609375,0.308746337890625
0.0596160888671875,4.9423370361328125,8.06402587890625,-0.4173736572265625,-0.07940673828125,0.5313873291015625
1.2208099365234375,4.700531005859375,8.758346557617188,-0.4791717529296875,-0.5673065185546875,0.54949951171875
1.156158447265625,4.7603759765625,8.849334716796875,-0.368377685546875,-0.626953125,0.3535003662109375
0.943084716796875,4.6670074462890625,8.6553955078125,-0.16278076171875,-0.5577239990234375,0.275726318359375
1.283050537109375,4.4826507568359375,9.110305786132812,-0.039215087890625,-0.446929931640625,0.31195068359375
1.9701995849609375,4.3390045166015625,9.378448486328125,0.2622528076171875,0.1091461181640625,0.34710693359375
2.7004241943359375,4.33660888671875,9.23480224609375,0.396484375,0.3094024658203125,0.285308837890625
3.468963623046875,4.827423095703125,8.229232788085938,0.4923553466796875,0.4947662353515625,-0.00762939453125
1.783447265625,5.6653900146484375,6.4335784912109375,0.0257720947265625,0.5767822265625,-0.749053955078125
-0.0433349609375,4.9207916259765625,6.7735595703125,-0.483428955078125,-0.101776123046875,-0.6414642333984375
0.057220458984375,4.532928466796875,7.6259002685546875,-0.573974609375,-0.3382720947265625,-0.40924072265625
1.1035003662109375,4.4228057861328125,8.81341552734375,-0.4429473876953125,-0.0623626708984375,-0.0992431640625
1.335723876953125,4.4635009765625,8.186141967773438,-0.2512054443359375,0.2412261962890625,-0.086456298828125
0.775482177734375,4.437164306640625,8.4207763671875,-0.1776885986328125,0.032440185546875,-0.1397247314453125
0.694091796875,4.6502532958984375,8.384857177734375,-0.0764923095703125,-0.0325469970703125,-0.041717529296875
1.3070068359375,4.731658935546875,7.93475341796875,0.03216552734375,0.0846405029296875,0.08184814453125
1.6637420654296875,4.7340545654296875,7.7815093994140625,0.09820556640625,0.3797149658203125,0.03497314453125
1.0340576171875,4.94952392578125,7.9969940185546875,-0.083953857421875,0.361602783203125,-0.1855316162109375
0.457061767578125,4.870513916015625,8.60272216796875,-0.1457366943359375,-0.152923583984375,-0.2643585205078125
0.5073394775390625,4.9255828857421875,8.96185302734375,-0.050933837890625,-0.3851470947265625,-0.2302703857421875
1.23516845703125,5.5025787353515625,9.534072875976562,0.2089996337890625,0.00048828125,-0.0811309814453125
0.8664703369140625,5.461883544921875,8.399215698242188,0.3314971923828125,0.7238006591796875,0.038177490234375
0.25115966796875,5.0213470458984375,7.635467529296875,0.2558746337890625,0.260406494140625,0.106353759765625
0.5911407470703125,5.2583770751953125,7.8389739990234375,0.0129852294921875,-0.2221527099609375,0.0637359619140625
1.1633453369140625,5.23443603515625,8.255569458007812,-0.062652587890625,-0.221099853515625,0.0552215576171875
1.323760986328125,5.124298095703125,8.202896118164062,-0.0306854248046875,0.1400299072265625,0.060546875
1.0316619873046875,4.913604736328125,7.9874114990234375,0.1269683837890625,-0.0176239013671875,-0.04278564453125
1.2686920166015625,5.002197265625,7.757568359375,0.1418914794921875,-0.02508544921875,-0.06622314453125
1.7068328857421875,5.145843505859375,7.1949310302734375,0.0918121337890625,0.2082061767578125,-0.0960540771484375
1.362060546875,5.09796142578125,7.4463348388671875,-0.1031341552734375,0.4372406005859375,-0.1258697509765625
0.5671844482421875,5.071624755859375,8.080795288085938,-0.25653076171875,0.35308837890625,-0.1375885009765625
0.36846923828125,5.1195068359375,9.083969116210938,-0.2725067138671875,0.1187286376953125,-0.0917816162109375
0.3780517578125,5.09796142578125,9.342529296875,-0.18408203125,0.05694580078125,-0.0502471923828125
0.5073394775390625,5.3589324951171875,9.0025634765625,0.0374908447265625,0.1176605224609375,0.0317840576171875
0.5719757080078125,5.1961212158203125,8.705673217773438,0.1408233642578125,0.1165924072265625,0.0775909423828125
0.7515411376953125,5.1219024658203125,8.427947998046875,0.169586181640625,0.110198974609375,0.094635009765625
0.7874603271484375,5.1626129150390625,8.15740966796875,0.158935546875,0.1538848876953125,0.0914306640625
0.574371337890625,5.093170166015625,7.6282806396484375,0.0619964599609375,0.1645355224609375,0.0978240966796875
0.93829345703125,4.93994140625,8.166976928710938,-0.09674072265625,0.0356292724609375,0.0882415771484375
1.0412445068359375,4.79150390625,8.954681396484375,-0.039215087890625,-0.049591064453125,-0.018280029296875
0.595916748046875,4.966278076171875,8.988189697265625,0.1951446533203125,-0.0900726318359375,-0.1269378662109375
0.045257568359375,4.9519195556640625,8.447097778320312,0.3687896728515625,-0.308441162109375,-0.1620941162109375
0.62225341796875,5.0333251953125,7.9969940185546875,0.3805084228515625,-0.4064483642578125,-0.1173553466796875
1.12982177734375,5.176971435546875,7.81982421875,0.3464202880859375,-0.1880645751953125,-0.1535797119140625
0.8736419677734375,5.24639892578125,7.73602294921875,0.305938720703125,-0.0037841796875,-0.2632904052734375
0.2535552978515625,5.09796142578125,8.111923217773438,0.302734375,-0.4192352294921875,-0.4262847900390625
-0.10797119140625,5.2583770751953125,8.150222778320312,0.3666534423828125,-0.9454803466796875,-0.4944610595703125
0.162567138671875,5.5432891845703125,7.6115264892578125,0.341094970703125,-1.027496337890625,-0.3485107421875
0.797027587890625,5.8377685546875,7.4199981689453125,0.21112060546875,-0.721771240234375,-0.2089691162109375
0.794647216796875,5.758758544921875,7.783905029296875,0.0609283447265625,-0.261566162109375,-0.188720703125
0.3708648681640625,5.4475250244140625,7.6211090087890625,0.0129852294921875,-0.209381103515625,-0.1993865966796875
0.540863037109375,5.4906158447265625,7.7144775390625,-0.006195068359375,-0.3244171142578125,-0.1407928466796875
0.6749267578125,5.5121612548828125,7.855743408203125,0.0342864990234375,-0.1103057861328125,-0.0576934814453125
0.57916259765625,5.4020233154296875,7.982635498046875,0.044952392578125,0.0494842529296875,-0.032135009765625
0.4402923583984375,5.2152862548828125,7.7767333984375,0.064117431640625,0.1070098876953125,-0.044921875
0.83294677734375,5.3182373046875,7.6857452392578125,0.0683746337890625,-0.026153564453125,-0.0736846923828125
0.964630126953125,5.3637237548828125,7.5253448486328125,0.0342864990234375,-0.0101776123046875,-0.0939178466796875
0.7443695068359375,5.1961212158203125,7.6474456787109375,-0.0562591552734375,0.0271148681640625,-0.147186279296875
-0.091217041015625,5.3206329345703125,7.889251708984375,-0.1414794921875,0.157073974609375,-0.0875244140625
-0.124725341796875,5.23443603515625,8.4327392578125,-0.119110107421875,0.114471435546875,0.026458740234375
0.447479248046875,5.145843505859375,9.045654296875,-0.0413360595703125,-0.2999267578125,-0.0928497314453125
0.3660736083984375,5.366119384765625,8.257965087890625,0.1844940185546875,-0.331878662109375,-0.15570068359375
-0.2803497314453125,5.430755615234375,7.2069091796875,0.0832977294921875,0.0835723876953125,-0.0608978271484375
0.050048828125,5.440338134765625,7.709686279296875,-0.095672607421875,0.07611083984375,0.028594970703125
0.20806884765625,5.3062591552734375,8.415985107421875,-0.161712646484375,-0.125213623046875,-0.0172119140625
0.17694091796875,5.325408935546875,8.667373657226562,-0.1212310791015625,-0.1795501708984375,-0.044921875
0.1912994384765625,5.378082275390625,8.574005126953125,0.0385589599609375,-0.16143798828125,-0.0502471923828125
0.17694091796875,5.2799224853515625,8.186141967773438,0.1482696533203125,-0.160369873046875,-0.063018798828125
0.0069427490234375,5.2847137451171875,7.97784423828125,0.1599884033203125,-0.1997833251953125,-0.0800628662109375
-0.1175537109375,5.449920654296875,7.771942138671875,0.122711181640625,-0.2679595947265625,-0.0374603271484375
-0.0720672607421875,5.53131103515625,7.8437652587890625,0.0832977294921875,-0.2296142578125,-0.0001678466796875
0.1003265380859375,5.5384979248046875,7.846160888671875,0.0566558837890625,-0.12628173828125,0.080780029296875
0.4067840576171875,5.35174560546875,7.7216644287109375,0.073699951171875,-0.0783538818359375,0.1138153076171875
1.25433349609375,5.4642791748046875,7.0417022705078125,0.088623046875,0.1623992919921875,0.0658721923828125
0.5648040771484375,5.6127166748046875,7.115936279296875,-0.11590576171875,0.3275146484375,-0.0491790771484375
-0.124725341796875,5.60552978515625,7.5253448486328125,-0.210723876953125,0.284912109375,-0.05450439453125
-0.8765106201171875,5.5432891845703125,8.617095947265625,-0.2117767333984375,0.1197967529296875,0.0743865966796875
-0.514984130859375,5.2057037353515625,9.031295776367188,-0.0988616943359375,0.179443359375,0.197967529296875
0.574371337890625,5.3302001953125,8.178955078125,0.144012451171875,0.3925018310546875,0.3162078857421875
1.16094970703125,5.524139404296875,7.3050689697265625,0.124847412109375,0.21673583984375,0.142578125
0.5336761474609375,5.6749725341796875,7.7480010986328125,-0.0296173095703125,-0.03680419921875,-0.145050048828125
0.10272216796875,5.78509521484375,8.107131958007812,-0.0296173095703125,-0.17315673828125,-0.215362548828125
-0.09600830078125,5.8545379638671875,7.8437652587890625,0.097137451171875,-0.103912353515625,-0.135467529296875
0.3229827880859375,5.92156982421875,7.360137939453125,0.076904296875,0.2518768310546875,0.0094146728515625
0.50494384765625,5.62469482421875,7.4535064697265625,-0.015777587890625,0.20074462890625,0.0072784423828125
0.6749267578125,5.66778564453125,8.104736328125,-0.06903076171875,0.0058135986328125,-0.079010009765625
0.5073394775390625,5.7084808349609375,8.3154296875,-0.050933837890625,-0.037872314453125,-0.133331298828125
0.0428619384765625,5.7803192138671875,8.382461547851562,0.00872802734375,-0.0666351318359375,-0.1823272705078125
-0.1271209716796875,5.8138275146484375,8.281906127929688,0.0374908447265625,-0.10498046875,-0.1631622314453125
0.4091796875,5.8593292236328125,7.93475341796875,0.1312255859375,-0.1220245361328125,-0.0172119140625
0.5193023681640625,5.715667724609375,7.6594085693359375,0.1706390380859375,0.0153961181640625,0.000885009765625
0.342132568359375,5.610321044921875,7.8222198486328125,0.165313720703125,0.0484161376953125,-0.0491790771484375
0.08355712890625,5.3158416748046875,8.614700317382812,0.2782440185546875,-0.342529296875,-0.166351318359375
0.3493194580078125,5.493011474609375,8.985794067382812,0.56585693359375,-0.752655029296875,-0.222808837890625
0.457061767578125,5.6749725341796875,8.870880126953125,0.7309722900390625,-0.7270965576171875,-0.2292022705078125
0.3780517578125,5.78509521484375,8.396820068359375,0.9131317138671875,-0.608856201171875,-0.2281341552734375
-0.1797943115234375,6.1945037841796875,6.1319122314453125,0.860931396484375,-0.2903289794921875,-0.203643798828125
0.1793365478515625,6.091552734375,6.091217041015625,0.4028778076171875,-0.6450653076171875,-0.1631622314453125
0.7826690673828125,6.21844482421875,6.5293426513671875,0.2548065185546875,-0.825103759765625,-0.154632568359375
1.345306396484375,6.369293212890625,8.202896118164062,0.144012451171875,-0.7824859619140625,-0.2632904052734375
0.7515411376953125,5.93115234375,7.793487548828125,0.327239990234375,-0.7835540771484375,-0.4337310791015625
0.7395782470703125,6.0508575439453125,7.3577423095703125,0.3805084228515625,-0.98382568359375,-0.50830078125
1.026885986328125,6.5153350830078125,6.91241455078125,0.2952880859375,-1.005126953125,-0.5359954833984375
0.785064697265625,6.836151123046875,6.198944091796875,0.188751220703125,-0.5417327880859375,-0.40496826171875
0.425933837890625,6.730804443359375,5.923614501953125,0.0811614990234375,-0.38726806640625,-0.328277587890625
0.373260498046875,6.24957275390625,6.7759552001953125,-0.1904754638671875,-0.5257568359375,-0.2217559814453125
0.976593017578125,6.4674530029296875,7.4846343994140625,-0.1926116943359375,-0.733489990234375,-0.1951141357421875
0.902374267578125,6.601531982421875,7.4463348388671875,-0.0637054443359375,-0.53533935546875,-0.17913818359375
0.342132568359375,6.4004058837890625,7.4582977294921875,0.0502777099609375,-0.43414306640625,-0.123748779296875
1.0340576171875,6.8481292724609375,6.49822998046875,0.1493377685546875,-0.4842071533203125,0.0445709228515625
2.106658935546875,6.7858734130859375,5.1335296630859375,-0.0946044921875,-0.0783538818359375,0.0861053466796875
1.41473388671875,6.661376953125,5.9260101318359375,-0.4493408203125,0.2412261962890625,-0.0342559814453125
1.397979736328125,6.3621063232421875,8.171768188476562,-0.40460205078125,0.5490875244140625,0.2458953857421875
1.8552703857421875,6.3094329833984375,8.085586547851562,-0.333221435546875,0.751495361328125,0.2906494140625
1.927093505859375,6.5440673828125,7.2356414794921875,-0.3524017333984375,1.238311767578125,0.320465087890625
0.890411376953125,6.529693603515625,6.1917724609375,-0.690093994140625,1.4503021240234375,0.40142822265625
0.4019927978515625,6.548858642578125,5.9427642822265625,-1.2173919677734375,1.3746795654296875,0.5335235595703125
0.162567138671875,5.8401641845703125,7.0153656005859375,-1.5635986328125,0.9197998046875,0.58251953125
-0.069671630859375,5.05487060546875,7.836578369140625,-1.5742645263671875,0.725921630859375,0.5005035400390625
-0.25640869140625,4.90643310546875,8.24359130859375,-1.4123382568359375,0.68438720703125,0.4419097900390625
-0.208526611328125,4.913604736328125,8.988189697265625,-1.3303070068359375,0.626861572265625,0.392913818359375
-0.366546630859375,4.6287078857421875,10.123046875,-0.9894256591796875,0.4212646484375,0.2469635009765625
-0.3402099609375,4.7077178955078125,10.077560424804688,-0.7380218505859375,0.2231292724609375,0.2086181640625
-0.1055755615234375,5.081207275390625,8.574005126953125,-0.138275146484375,-0.1230926513671875,0.2022247314453125
0.1553955078125,5.0955657958984375,7.929962158203125,-0.0669097900390625,-0.045318603515625,0.2118072509765625
0.569580078125,5.186553955078125,7.57562255859375,-0.1063232421875,0.2199249267578125,0.1851806640625
0.2535552978515625,5.24639892578125,8.068817138671875,-0.2139129638671875,0.3339080810546875,0.106353759765625
-0.1103668212890625,5.12908935546875,8.461471557617188,-0.199005126953125,0.0942230224609375,0.092498779296875
0.0811614990234375,5.112335205078125,8.291488647460938,-0.138275146484375,0.0430908203125,0.1233978271484375
0.2176361083984375,4.9423370361328125,8.291488647460938,-0.107391357421875,0.0825042724609375,0.1351165771484375
0.124267578125,5.02374267578125,8.583572387695312,-0.06158447265625,0.1400299072265625,0.1138153076171875
0.06201171875,5.064453125,8.310638427734375,0.0577239990234375,0.03350830078125,0.0914306640625
0.1673583984375,5.0788116455078125,8.054458618164062,0.0598602294921875,0.0249786376953125,0.0893096923828125
0.552825927734375,5.064453125,8.365707397460938,0.1376190185546875,-0.1646270751953125,0.10528564453125
0.382843017578125,5.251190185546875,8.84454345703125,0.2196502685546875,0.1293792724609375,0.0094146728515625
-0.8382110595703125,5.5217437744140625,7.657012939453125,0.4593353271484375,0.24761962890625,0.1787872314453125
-0.45751953125,5.5025787353515625,7.76715087890625,0.3421478271484375,0.0292510986328125,0.230987548828125
-0.1797943115234375,5.5408935546875,7.69293212890625,0.247344970703125,-0.16143798828125,0.2043609619140625
0.215240478515625,5.3756866455078125,8.3896484375,0.153594970703125,-0.312713623046875,0.10528564453125
0.1793365478515625,5.2679595947265625,8.873275756835938,0.165313720703125,-0.2455902099609375,0.0541534423828125
0.1960906982421875,5.29669189453125,8.123886108398438,0.2739715576171875,-0.0783538818359375,0.06268310546875
0.3014373779296875,5.30865478515625,8.1358642578125,0.2654571533203125,0.0281829833984375,0.096771240234375
0.4235382080078125,5.3685150146484375,8.193313598632812,0.25799560546875,0.213531494140625,0.1596221923828125
0.2966461181640625,5.05487060546875,8.755950927734375,0.3336334228515625,0.135772705078125,0.16387939453125
0.3708648681640625,5.138671875,8.19091796875,0.336822509765625,0.2678680419921875,0.17559814453125
0.3852386474609375,4.7292633056640625,8.219650268554688,0.2249755859375,0.19329833984375,0.1127471923828125
0.5193023681640625,4.8896636962890625,8.566818237304688,0.1738433837890625,0.0249786376953125,-0.008697509765625
0.330169677734375,5.17218017578125,8.195709228515625,0.2175140380859375,-0.0293426513671875,-0.0811309814453125
0.3493194580078125,5.11712646484375,7.982635498046875,0.2185821533203125,0.091033935546875,-0.053436279296875
0.4833984375,5.1266937255859375,8.037689208984375,0.2089996337890625,0.225250244140625,-0.021484375
0.4929656982421875,5.018951416015625,8.583572387695312,0.19195556640625,0.4830474853515625,0.03497314453125
0.4283294677734375,4.8609466552734375,8.72723388671875,0.2196502685546875,0.5043487548828125,0.07012939453125
0.65338134765625,4.8298187255859375,8.526107788085938,0.214324951171875,0.3679962158203125,0.119140625
0.80181884765625,4.8298187255859375,8.44232177734375,0.181304931640625,0.18157958984375,0.1127471923828125
0.990966796875,4.743621826171875,8.327392578125,0.158935546875,-0.1465301513671875,0.0658721923828125
1.091522216796875,4.8968505859375,8.401611328125,0.122711181640625,-0.0080413818359375,0.05841064453125
1.196868896484375,4.743621826171875,8.712860107421875,0.108856201171875,0.1890411376953125,0.06268310546875
1.139404296875,4.638275146484375,8.789474487304688,0.1844940185546875,0.102752685546875,0.01580810546875
0.7994232177734375,4.6741943359375,8.700897216796875,0.23883056640625,0.0281829833984375,-0.009765625
0.627044677734375,4.690948486328125,8.408798217773438,0.282501220703125,-0.02508544921875,0.0083465576171875
0.6294403076171875,4.870513916015625,7.7216644287109375,0.291015625,-0.1241607666015625,0.05096435546875
0.72760009765625,4.9710693359375,7.762359619140625,0.268646240234375,-0.172088623046875,0.060546875
0.890411376953125,4.98065185546875,8.480621337890625,0.3123321533203125,-0.1593017578125,0.0648040771484375
1.2902374267578125,4.7723541259765625,8.121490478515625,0.590362548828125,0.2422943115234375,0.096771240234375
1.635009765625,5.1578216552734375,7.2045135498046875,0.5381622314453125,0.2646636962890625,-0.0001678466796875
1.419525146484375,5.217681884765625,7.25,0.4795684814453125,0.147491455078125,-0.088592529296875
0.7252044677734375,5.5408935546875,6.8932647705078125,0.2249755859375,-0.3116455078125,-0.2089691162109375
0.5336761474609375,5.6749725341796875,7.3218231201171875,0.0044708251953125,-0.7153778076171875,-0.112030029296875
0.7204132080078125,5.6965179443359375,7.9131927490234375,-0.06903076171875,-0.5310821533203125,0.0179290771484375
1.1465911865234375,5.545684814453125,8.408798217773438,-0.1127166748046875,0.39569091796875,0.2363128662109375
1.122650146484375,5.3302001953125,7.96826171875,-0.1255035400390625,0.8047637939453125,0.2799835205078125
1.0843353271484375,5.38287353515625,7.7216644287109375,-0.126556396484375,0.4478912353515625,0.2363128662109375
1.1681365966796875,5.7348175048828125,6.831024169921875,-0.1446685791015625,0.075042724609375,0.207550048828125
1.1896820068359375,5.80426025390625,6.651458740234375,-0.2245635986328125,-0.06768798828125,0.1851806640625
1.14898681640625,5.6031494140625,6.926788330078125,-0.300201416015625,-0.2924652099609375,0.1446990966796875
1.2950286865234375,5.4427337646484375,7.7216644287109375,-0.1808929443359375,-1.0125885009765625,0.16387939453125
1.546417236328125,5.397247314453125,7.8868560791015625,-0.1372222900390625,-0.755859375,0.2235260009765625
1.5583953857421875,5.1961212158203125,8.4638671875,-0.1787567138671875,-0.7121734619140625,0.1777191162109375
1.3955841064453125,5.1075439453125,8.851730346679688,-0.0551910400390625,-1.0434722900390625,0.0179290771484375
1.9079437255859375,5.81622314453125,8.435134887695312,0.16851806640625,-0.7835540771484375,0.160675048828125
2.4633941650390625,5.461883544921875,7.91558837890625,0.2984771728515625,-0.1326751708984375,0.2821197509765625
2.6932373046875,5.27752685546875,7.530120849609375,0.2622528076171875,-0.136932373046875,0.1201934814453125
2.7842254638671875,5.55047607421875,7.063262939453125,0.07904052734375,-0.4160308837890625,-0.086456298828125
1.9558258056640625,5.725250244140625,6.567657470703125,-0.1446685791015625,-0.49273681640625,-0.21429443359375
1.714019775390625,5.842559814453125,7.18536376953125,-0.3321533203125,-0.425628662109375,-0.15570068359375
2.0875091552734375,5.8880462646484375,7.74560546875,-0.32257080078125,-0.2711639404296875,-0.0832672119140625
2.23834228515625,5.737213134765625,7.307464599609375,-0.1681060791015625,0.2305755615234375,-0.0459747314453125
2.1569366455078125,5.598358154296875,7.3433837890625,-0.2927398681640625,-0.1678314208984375,-0.1535797119140625
2.0180816650390625,5.768341064453125,7.9850311279296875,-0.2725067138671875,-0.295654296875,-0.1759490966796875
1.8433074951171875,5.8449554443359375,8.511749267578125,-0.206451416015625,-0.2360076904296875,-0.12481689453125
1.630218505859375,5.7755279541015625,8.329788208007812,-0.0445404052734375,-0.0080413818359375,-0.0342559814453125
1.8265380859375,5.9000244140625,7.2571868896484375,0.064117431640625,0.5395050048828125,0.1617431640625
2.3460845947265625,5.5384979248046875,6.0529022216796875,-0.0360107421875,0.5991668701171875,0.164947509765625
2.5735321044921875,5.423583984375,6.24444580078125,-0.1904754638671875,0.4798431396484375,0.11700439453125
2.252716064453125,5.7444000244140625,7.29071044921875,-0.3832855224609375,0.1368408203125,-0.0246734619140625
1.7187957763671875,5.7491912841796875,7.982635498046875,-0.3971405029296875,0.0718536376953125,-0.029998779296875
1.8289337158203125,5.62469482421875,9.275497436523438,-0.19580078125,0.102752685546875,0.071197509765625
1.893585205078125,5.904815673828125,7.010589599609375,0.350677490234375,0.934722900390625,0.139373779296875
2.1497650146484375,5.6175079345703125,7.47027587890625,0.099273681640625,0.4969024658203125,0.10528564453125
2.3772125244140625,5.7707366943359375,8.059249877929688,-0.0296173095703125,0.1368408203125,-0.0502471923828125
1.9821624755859375,5.7444000244140625,8.269927978515625,-0.046661376953125,0.08038330078125,-0.1173553466796875
1.4913482666015625,5.732421875,8.514144897460938,-0.027496337890625,0.053741455078125,-0.1375885009765625
1.139404296875,5.8234100341796875,8.468658447265625,0.112060546875,0.167724609375,-0.0342559814453125
1.462615966796875,5.631866455078125,7.855743408203125,0.19940185546875,0.363739013671875,0.0743865966796875
1.512908935546875,5.4427337646484375,7.8006744384765625,0.1195068359375,0.248687744140625,0.0637359619140625
1.8648529052734375,5.42596435546875,8.238815307617188,0.065185546875,0.0143280029296875,0.005157470703125
1.5799407958984375,5.5744171142578125,8.143035888671875,0.112060546875,0.05694580078125,-0.0811309814453125
1.0316619873046875,5.60552978515625,7.645050048828125,0.1024627685546875,0.1986236572265625,-0.065155029296875
0.955047607421875,5.629486083984375,7.7025146484375,0.009796142578125,0.1964874267578125,-0.0118865966796875
1.04364013671875,5.60552978515625,7.96826171875,-0.0338897705078125,0.1485595703125,0.003021240234375
1.345306396484375,5.4283599853515625,8.23162841796875,-0.028564453125,-0.0069732666015625,-0.01934814453125
1.0412445068359375,5.5337066650390625,7.783905029296875,-0.0093841552734375,-0.061309814453125,-0.1045684814453125
1.0340576171875,5.2631683349609375,7.9179840087890625,-0.08502197265625,-0.094329833984375,-0.076873779296875
1.1465911865234375,5.133880615234375,7.98980712890625,-0.10845947265625,-0.07940673828125,-0.0608978271484375
0.1865081787109375,4.9615020751953125,8.123886108398438,-0.152130126953125,-0.185943603515625,-0.1045684814453125
0.689300537109375,5.1793670654296875,8.827789306640625,0.030029296875,0.0665283203125,0.02325439453125
0.4331207275390625,5.01177978515625,8.313034057617188,0.181304931640625,0.3669281005859375,0.013671875
0.1649627685546875,5.05487060546875,8.490203857421875,0.2175140380859375,0.07611083984375,0.092498779296875
0.7467498779296875,5.112335205078125,7.889251708984375,0.2409515380859375,-0.0644989013671875,0.16387939453125
0.509735107421875,5.270355224609375,7.719268798828125,0.22283935546875,0.0590667724609375,0.2022247314453125
1.4003753662109375,5.0524749755859375,6.3330230712890625,0.18023681640625,0.73870849609375,0.3076934814453125
1.709228515625,4.4012603759765625,7.15423583984375,-0.1478729248046875,0.6215362548828125,0.06268310546875
1.6972503662109375,4.384490966796875,8.248382568359375,-0.232025146484375,0.284912109375,-0.1290740966796875
0.4929656982421875,5.0405120849609375,9.368865966796875,-0.0828857421875,-0.459716796875,-0.3879241943359375
-1.5253448486328125,4.8106689453125,9.469436645507812,0.2057952880859375,-0.8400115966796875,-0.3123016357421875
-1.25958251953125,5.1674041748046875,9.198883056640625,0.4135284423828125,-0.5768890380859375,0.0648040771484375
0.267913818359375,5.08599853515625,8.5380859375,0.4912872314453125,-0.1774139404296875,0.2586822509765625
0.964630126953125,5.3182373046875,7.5109710693359375,0.4018096923828125,-0.1198883056640625,0.1596221923828125
0.816192626953125,5.5073699951171875,6.8597564697265625,0.247344970703125,-0.0751495361328125,0.0200653076171875
0.330169677734375,5.3756866455078125,6.9938201904296875,0.007659912109375,0.0079345703125,-0.067291259765625
-0.0098114013671875,5.493011474609375,8.279510498046875,-0.09246826171875,-0.094329833984375,-0.088592529296875
-0.07684326171875,5.493011474609375,8.394439697265625,0.0161895751953125,0.0143280029296875,-0.0023040771484375
0.416351318359375,5.4594879150390625,7.9658660888671875,0.132293701171875,0.1070098876953125,0.083984375
0.7515411376953125,5.62469482421875,7.3744964599609375,0.1504058837890625,0.0622711181640625,0.038177490234375
0.51690673828125,5.509765625,6.8765106201171875,0.006591796875,-0.02508544921875,0.00408935546875
0.9526519775390625,5.55047607421875,7.55645751953125,-0.1595916748046875,-0.2008514404296875,-0.0704803466796875
0.8401336669921875,5.7635498046875,8.224441528320312,-0.11590576171875,-0.1880645751953125,-0.1269378662109375
0.435516357421875,5.7228546142578125,7.93475341796875,0.0012664794921875,0.0963592529296875,-0.08966064453125
0.5576171875,5.56243896484375,7.8485565185546875,-0.001922607421875,-0.0538482666015625,-0.065155029296875
1.1729278564453125,5.6605987548828125,7.75518798828125,-0.0072479248046875,-0.3723602294921875,-0.158905029296875
0.6318359375,5.93115234375,7.312255859375,0.0119171142578125,-0.55133056640625,-0.26116943359375
0.488189697265625,5.943115234375,7.2571868896484375,-0.0072479248046875,-0.583282470703125,-0.246246337890625
0.6246490478515625,6.0077667236328125,8.514144897460938,-0.0221710205078125,-0.5651702880859375,-0.1983184814453125
1.2327728271484375,6.105926513671875,7.7001190185546875,0.2484130859375,0.273193359375,-0.043853759765625
0.6126861572265625,5.9239654541015625,6.536529541015625,0.153594970703125,0.533111572265625,-0.06622314453125
0.478607177734375,5.8138275146484375,7.1326904296875,-0.1105804443359375,0.0164642333984375,0.016876220703125
0.6390228271484375,6.022125244140625,7.956298828125,-0.229888916015625,-0.3276214599609375,0.0903778076171875
0.552825927734375,5.9718475341796875,8.3896484375,-0.208587646484375,-0.4671630859375,0.1138153076171875
0.816192626953125,6.1873321533203125,8.787078857421875,0.110992431640625,-0.057037353515625,0.1937103271484375
1.4793853759765625,6.3142242431640625,7.3050689697265625,0.2750396728515625,0.5597381591796875,0.2469635009765625
1.587127685546875,6.0364990234375,6.335418701171875,0.052398681640625,0.61407470703125,0.03497314453125
0.7084503173828125,5.990997314453125,7.6426544189453125,-0.206451416015625,-0.2722320556640625,-0.0843353271484375
0.29425048828125,6.1131134033203125,8.5692138671875,-0.2266998291015625,-0.528961181640625,-0.1045684814453125
0.1553955078125,6.1250762939453125,8.6434326171875,-0.1180419921875,-0.4735565185546875,-0.0598297119140625
0.911956787109375,6.20648193359375,8.066421508789062,0.0950164794921875,-0.127349853515625,0.038177490234375
1.153778076171875,6.1777496337890625,7.6594085693359375,0.155731201171875,0.006866455078125,0.036041259765625
1.3261566162109375,6.149017333984375,6.97467041015625,0.15679931640625,0.124053955078125,-0.0023040771484375
1.0364532470703125,6.14422607421875,6.47906494140625,0.0161895751953125,-0.0431976318359375,-0.04278564453125
0.916748046875,6.1609954833984375,6.5509033203125,-0.0882110595703125,-0.1422576904296875,-0.041717529296875
1.0412445068359375,6.1562042236328125,8.066421508789062,-0.199005126953125,-0.2296142578125,-0.0342559814453125
0.9047698974609375,6.1298675537109375,8.047271728515625,0.0257720947265625,-0.06024169921875,-0.03106689453125
0.868865966796875,6.1250762939453125,7.7647552490234375,0.101409912109375,-0.01123046875,-0.022552490234375
0.880828857421875,6.115509033203125,7.0249481201171875,0.1365509033203125,-0.0751495361328125,-0.0150909423828125
0.7778778076171875,6.223236083984375,6.8980560302734375,-0.0072479248046875,-0.1326751708984375,-0.008697509765625
0.7874603271484375,6.211273193359375,7.386474609375,-0.1063232421875,-0.0506439208984375,-0.006561279296875
0.797027587890625,6.2208404541015625,7.994598388671875,-0.0828857421875,-0.09539794921875,-0.0268096923828125
0.9622344970703125,6.23760986328125,7.6953277587890625,0.1493377685546875,-0.2530517578125,-0.0395965576171875
0.974212646484375,6.285491943359375,7.2523956298828125,0.181304931640625,-0.2796783447265625,-0.06622314453125
1.1082763671875,6.2352142333984375,7.52294921875,0.1397552490234375,-0.6131134033203125,-0.177001953125
1.2423553466796875,6.508148193359375,7.3744964599609375,0.1546630859375,-0.57049560546875,-0.1940460205078125
1.2686920166015625,6.6254730224609375,7.1255035400390625,0.122711181640625,-0.39154052734375,-0.222808837890625
0.6031036376953125,6.6781463623046875,6.86932373046875,0.028961181640625,-0.4309539794921875,-0.238800048828125
0.7084503173828125,6.508148193359375,7.1662139892578125,0.0023345947265625,-0.6333465576171875,-0.154632568359375
1.6541595458984375,6.5799713134765625,7.2571868896484375,0.044952392578125,-0.5193634033203125,-0.1493072509765625
1.6589508056640625,6.5368804931640625,7.04888916015625,0.099273681640625,-0.331878662109375,-0.2398529052734375
0.9311065673828125,6.4459075927734375,7.0153656005859375,0.03961181640625,-0.17529296875,-0.27288818359375
0.9670257568359375,6.307037353515625,7.676177978515625,0.0257720947265625,-0.2029876708984375,-0.2047119140625
1.50811767578125,6.2567596435546875,7.8485565185546875,0.1504058837890625,-0.4053802490234375,-0.224945068359375
1.64697265625,6.338165283203125,7.2571868896484375,0.2185821533203125,-0.639739990234375,-0.341064453125
1.287841796875,6.5272979736328125,7.0560760498046875,0.2100677490234375,-0.663177490234375,-0.373016357421875
1.081939697265625,6.5105438232421875,7.03692626953125,0.153594970703125,-0.5449371337890625,-0.271820068359375
1.3955841064453125,6.30224609375,7.43914794921875,0.13336181640625,-0.57476806640625,-0.1599578857421875
1.8959808349609375,6.2088775634765625,7.58758544921875,0.167449951171875,-0.5907440185546875,-0.1865997314453125
1.6014862060546875,6.1562042236328125,7.4295654296875,0.21539306640625,-0.7516021728515625,-0.2217559814453125
2.137786865234375,6.644622802734375,5.775177001953125,0.282501220703125,-0.2349395751953125,-0.1152191162109375
1.84808349609375,6.21844482421875,5.4735107421875,0.044952392578125,0.15814208984375,-0.06622314453125
2.73394775390625,6.0771942138671875,7.5468902587890625,-0.26611328125,-0.094329833984375,0.02752685546875
2.3628387451171875,5.8976287841796875,6.325836181640625,-0.142547607421875,0.8569488525390625,0.071197509765625
1.915130615234375,5.938323974609375,5.880523681640625,-0.27783203125,1.2138214111328125,0.118072509765625
2.0372314453125,5.6534271240234375,6.4263916015625,-0.652801513671875,1.585601806640625,0.25335693359375
2.6477508544921875,5.493011474609375,8.013748168945312,-0.902069091796875,1.458831787109375,0.22991943359375
2.559173583984375,5.4475250244140625,8.62188720703125,-0.913787841796875,1.1467132568359375,0.1617431640625
1.5368499755859375,5.4810333251953125,9.364089965820312,-0.7369537353515625,0.2689208984375,0.0552215576171875
0.990966796875,5.44512939453125,9.613082885742188,-0.6378936767578125,0.1070098876953125,0.0743865966796875
1.07476806640625,5.344573974609375,9.57476806640625,-0.39288330078125,0.5725250244140625,0.2576141357421875
1.8025970458984375,5.2057037353515625,8.478225708007812,-0.142547607421875,1.2510986328125,0.324737548828125
1.44586181640625,4.8896636962890625,7.3146514892578125,-0.161712646484375,1.43646240234375,0.12872314453125
0.902374267578125,5.3014678955078125,7.3194427490234375,-0.3673095703125,0.88677978515625,-0.029998779296875
0.837738037109375,5.3110504150390625,7.8389739990234375,-0.468505859375,0.6108856201171875,-0.0598297119140625
0.8736419677734375,5.1099395751953125,8.45428466796875,-0.4748992919921875,0.3126068115234375,-0.0640869140625
0.974212646484375,4.9686737060546875,8.394439697265625,-0.4067230224609375,0.2454986572265625,-0.0598297119140625
0.7826690673828125,4.638275146484375,8.245986938476562,-0.2480010986328125,0.1528167724609375,-0.1578369140625
0.46185302734375,4.9567108154296875,8.413589477539062,-0.138275146484375,0.3594818115234375,-0.282470703125
0.4091796875,5.0740203857421875,8.384857177734375,-0.0796966552734375,0.3626708984375,-0.24945068359375
0.4402923583984375,5.272735595703125,7.8653106689453125,0.0034027099609375,0.2454986572265625,-0.1727447509765625
0.421142578125,5.165008544921875,7.48223876953125,0.018310546875,0.05694580078125,-0.07794189453125
0.7299957275390625,4.8992462158203125,7.604339599609375,-0.0178985595703125,0.1080780029296875,0.02325439453125
0.8185882568359375,4.8226318359375,7.4056243896484375,-0.10418701171875,0.159210205078125,0.013671875
0.6509857177734375,4.8417816162109375,7.455902099609375,-0.234161376953125,-0.033599853515625,-0.0576934814453125
0.61029052734375,4.901641845703125,7.8341827392578125,-0.3268280029296875,-0.05810546875,-0.0758056640625
0.5073394775390625,4.8513641357421875,8.746383666992188,-0.3992767333984375,-0.068756103515625,-0.079010009765625
0.5911407470703125,4.7148895263671875,9.112686157226562,-0.2373504638671875,-0.0069732666015625,-0.033203125
0.57916259765625,4.63348388671875,8.478225708007812,0.0108489990234375,-0.0048370361328125,0.071197509765625
0.4235382080078125,4.779541015625,8.564422607421875,0.0034027099609375,0.2433624267578125,0.0999603271484375
0.198486328125,4.8369903564453125,8.404006958007812,0.1173858642578125,0.166656494140625,0.0978240966796875
0.457061767578125,5.0093841552734375,8.155014038085938,0.2281646728515625,-0.000579833984375,0.106353759765625
0.9095611572265625,5.37091064453125,7.3266143798828125,0.1195068359375,-0.2349395751953125,0.0797271728515625
1.026885986328125,5.27752685546875,7.549285888671875,0.005523681640625,-0.4085845947265625,0.0456390380859375
0.7994232177734375,5.3062591552734375,8.05206298828125,-0.0338897705078125,-0.2818145751953125,0.0988922119140625
1.00054931640625,5.112335205078125,8.461471557617188,0.1173858642578125,-0.197662353515625,0.1692047119140625
1.59429931640625,5.050079345703125,9.016921997070312,0.3229827880859375,-0.11883544921875,0.1574859619140625
1.4362945556640625,5.3733062744140625,7.87249755859375,0.352813720703125,-0.1912689208984375,0.104217529296875
1.060394287109375,5.4044189453125,7.4104156494140625,0.1781005859375,-0.287139892578125,0.0871734619140625
1.7858428955078125,5.610321044921875,7.9443206787109375,0.02044677734375,0.0601348876953125,0.1660003662109375
2.30059814453125,5.3158416748046875,7.908416748046875,0.0385589599609375,0.6236572265625,0.21075439453125
1.6062774658203125,5.2152862548828125,7.2571868896484375,-0.0796966552734375,0.725921630859375,0.013671875
1.2950286865234375,5.3756866455078125,7.867706298828125,-0.1808929443359375,0.269989013671875,-0.0800628662109375
1.1944732666015625,5.6821441650390625,8.303451538085938,-0.0946044921875,-0.02508544921875,-0.1386566162109375
1.017303466796875,5.598358154296875,8.42315673828125,-0.0093841552734375,-0.035736083984375,-0.1482391357421875
0.9981536865234375,5.629486083984375,7.8006744384765625,0.144012451171875,0.06866455078125,-0.1152191162109375
1.05560302734375,5.572021484375,7.4295654296875,0.1514739990234375,0.0388336181640625,-0.13226318359375
1.101104736328125,5.6031494140625,8.248382568359375,0.05133056640625,-0.16143798828125,-0.24517822265625
1.19207763671875,5.7491912841796875,8.217254638671875,0.1163177490234375,-0.517242431640625,-0.26116943359375
1.4362945556640625,5.672576904296875,8.327392578125,0.25799560546875,-0.8421478271484375,-0.270751953125
1.6014862060546875,5.852142333984375,8.049667358398438,0.2995452880859375,-0.71856689453125,-0.2515716552734375
1.587127685546875,5.7803192138671875,7.803070068359375,0.1951446533203125,-0.3137664794921875,-0.238800048828125
0.89520263671875,5.646240234375,7.9227752685546875,0.1056671142578125,-0.5374755859375,-0.2973785400390625
0.5935211181640625,6.1250762939453125,8.353729248046875,0.179168701171875,-1.09674072265625,-0.250518798828125
1.2686920166015625,6.7858734130859375,7.9539031982421875,0.4678497314453125,-0.8623809814453125,0.0775909423828125
2.5160675048828125,6.31182861328125,6.883697509765625,0.455078125,0.3669281005859375,0.3396453857421875
2.5471954345703125,5.7803192138671875,7.1255035400390625,0.2654571533203125,0.4809112548828125,0.1255340576171875
1.73077392578125,5.7755279541015625,7.369720458984375,0.1663818359375,0.214599609375,-0.0395965576171875
1.134613037109375,5.619903564453125,7.7815093994140625,0.1365509033203125,-0.2999267578125,-0.100311279296875
1.0196990966796875,6.4411163330078125,7.66180419921875,0.112060546875,-0.0655670166015625,0.1553497314453125
1.481781005859375,5.9191741943359375,7.6330718994140625,-0.01470947265625,0.34136962890625,0.3385772705078125
1.6230316162109375,5.66778564453125,7.783905029296875,-0.21923828125,0.59063720703125,0.3172760009765625
1.4051666259765625,5.497802734375,8.181350708007812,-0.2831573486328125,0.5501556396484375,0.230987548828125
1.1106719970703125,5.217681884765625,8.5069580078125,-0.2810211181640625,0.4510955810546875,0.1457672119140625
0.8114013671875,5.1961212158203125,8.52850341796875,-0.1563873291015625,0.238037109375,0.0552215576171875
0.6605682373046875,5.3589324951171875,8.035308837890625,-0.0551910400390625,0.08782958984375,0.0211334228515625
0.5121307373046875,5.35174560546875,7.8006744384765625,0.0374908447265625,0.1293792724609375,0.0317840576171875
-0.16064453125,5.4642791748046875,7.81024169921875,0.0140533447265625,0.0739898681640625,-0.0012359619140625
-0.0433349609375,5.4427337646484375,7.757568359375,0.0609283447265625,-0.1582489013671875,0.095703125
0.351715087890625,5.1841583251953125,7.4295654296875,0.0268402099609375,-0.2061767578125,0.1383056640625
0.5145263671875,5.028533935546875,7.5660400390625,-0.0871429443359375,0.0047454833984375,0.1265869140625
0.5552215576171875,4.98065185546875,8.123886108398438,-0.1819610595703125,0.121917724609375,0.07012939453125
0.246368408203125,4.913604736328125,8.808624267578125,-0.1297607421875,-0.1806182861328125,-0.0481109619140625
0.045257568359375,5.0668487548828125,8.825393676757812,-0.062652587890625,-0.342529296875,-0.07794189453125
0.0739898681640625,5.2535858154296875,8.947494506835938,0.0918121337890625,-0.4650421142578125,-0.05450439453125
0.4379119873046875,5.449920654296875,8.504562377929688,0.2313690185546875,-0.3617095947265625,0.003021240234375
1.101104736328125,5.6079254150390625,6.969879150390625,0.3560028076171875,-0.0975189208984375,0.08184814453125
0.0428619384765625,5.2895050048828125,7.846160888671875,-0.19793701171875,0.0612030029296875,-0.1141510009765625
-0.388092041015625,5.42596435546875,8.607513427734375,0.097137451171875,-0.16357421875,0.01580810546875
0.311004638671875,5.583984375,7.76715087890625,0.065185546875,0.2188568115234375,0.1255340576171875
0.6198577880859375,5.4690704345703125,8.066421508789062,0.0481414794921875,0.0505523681640625,0.1255340576171875
0.6725311279296875,5.4594879150390625,8.286697387695312,0.053466796875,0.022857666015625,0.0307159423828125
0.22003173828125,5.3637237548828125,8.214874267578125,0.1269683837890625,-0.033599853515625,-0.053436279296875
-0.1893768310546875,5.610321044921875,7.7384185791015625,0.124847412109375,-0.2104339599609375,0.0115509033203125
0.004547119140625,5.658203125,7.2667694091796875,0.073699951171875,-0.047454833984375,0.0797271728515625
0.0644073486328125,5.651031494140625,7.5947723388671875,-0.03814697265625,-0.02294921875,0.0424346923828125
0.1266632080078125,5.5863800048828125,8.049667358398438,0.005523681640625,-0.25518798828125,-0.020416259765625
0.373260498046875,5.71087646484375,7.645050048828125,0.1301727294921875,-0.3489227294921875,-0.0342559814453125
-0.0265655517578125,5.7922821044921875,7.12310791015625,0.087554931640625,-0.183807373046875,-0.0118865966796875
-0.323455810546875,5.90960693359375,7.254791259765625,-0.0328216552734375,-0.0623626708984375,0.0743865966796875
0.3325653076171875,6.0245208740234375,7.4104156494140625,-0.040283203125,0.046295166015625,0.1617431640625
0.658172607421875,5.957489013671875,7.063262939453125,-0.06903076171875,0.338165283203125,0.1479034423828125
-0.3162689208984375,5.8449554443359375,8.234024047851562,-0.1244354248046875,0.2774505615234375,0.1468353271484375
-0.2851409912109375,5.885650634765625,8.344161987304688,-0.0189666748046875,0.24017333984375,0.2150115966796875
-0.1007843017578125,5.7180633544921875,8.078399658203125,0.193023681640625,0.2998199462890625,0.3875885009765625
0.22003173828125,5.768341064453125,8.08319091796875,0.282501220703125,0.3104705810546875,0.4206085205078125
0.785064697265625,5.87847900390625,8.257965087890625,0.42950439453125,0.0963592529296875,0.3396453857421875
1.026885986328125,5.9335479736328125,7.9395294189453125,0.6052703857421875,-0.1806182861328125,0.20648193359375
0.955047607421875,5.9550933837890625,7.7072906494140625,0.67877197265625,-0.2583770751953125,0.139373779296875
0.64141845703125,6.2136688232421875,7.1470489501953125,0.71392822265625,-0.1358795166015625,0.04669189453125
-0.07684326171875,6.517730712890625,7.2619781494140625,0.645751953125,0.09954833984375,0.0456390380859375
-0.1271209716796875,6.529693603515625,6.811859130859375,0.623382568359375,0.046295166015625,0.1127471923828125
-0.0672760009765625,6.4818115234375,6.5509033203125,0.5520172119140625,-0.1007232666015625,0.1468353271484375
0.181732177734375,6.5201263427734375,6.60357666015625,0.463592529296875,-0.261566162109375,0.17132568359375
0.8090057373046875,6.814605712890625,6.8453826904296875,0.3581390380859375,-0.2764892578125,0.1692047119140625
1.0795440673828125,6.9750213623046875,6.7735595703125,0.3336334228515625,-0.1465301513671875,0.1692047119140625
1.239959716796875,7.03009033203125,6.431182861328125,0.2526702880859375,0.238037109375,0.15216064453125
1.0412445068359375,6.96783447265625,6.103179931640625,0.1951446533203125,0.3019561767578125,0.1329803466796875
0.4019927978515625,6.876861572265625,6.155853271484375,0.0694427490234375,0.1059417724609375,0.108489990234375
0.5073394775390625,6.9534759521484375,6.5125885009765625,-0.0456085205078125,-0.11883544921875,0.1819915771484375
0.722808837890625,7.0205078125,6.7184906005859375,-0.0764923095703125,-0.2040557861328125,0.2054290771484375
1.08673095703125,6.8600921630859375,7.6402587890625,-0.09674072265625,-0.0282745361328125,0.1660003662109375
0.172149658203125,6.7739105224609375,7.6522369384765625,-0.028564453125,-0.0666351318359375,0.0914306640625
-0.1534576416015625,6.7691192626953125,7.7072906494140625,0.0460052490234375,-0.1806182861328125,0.1116790771484375
0.1051177978515625,7.0181121826171875,7.0249481201171875,0.256927490234375,-0.3468017578125,0.2437744140625
1.048431396484375,7.0755767822265625,6.378509521484375,0.2846221923828125,-0.1443939208984375,0.297027587890625
1.6972503662109375,7.183319091796875,6.2420501708984375,0.1269683837890625,0.25933837890625,0.1851806640625
0.7467498779296875,7.0540313720703125,6.0959930419921875,-0.0658416748046875,0.2412261962890625,0.036041259765625
0.25115966796875,6.809814453125,6.579620361328125,-0.15106201171875,0.0963592529296875,0.060546875
0.0859527587890625,7.01092529296875,7.338592529296875,-0.2149810791015625,0.0707855224609375,0.127655029296875
0.7730865478515625,7.22161865234375,7.312255859375,-0.2842254638671875,0.3456268310546875,0.3726654052734375
1.32855224609375,7.0659942626953125,6.7759552001953125,-0.26824951171875,0.0430908203125,0.400360107421875
1.0771636962890625,6.96783447265625,7.3888702392578125,-0.241607666015625,-0.389404296875,0.403564453125
0.9574432373046875,7.1330413818359375,7.783905029296875,-0.3055267333984375,-0.160369873046875,0.585723876953125
2.255096435546875,5.8258056640625,8.2412109375,-0.210723876953125,0.23590087890625,0.790252685546875
2.3460845947265625,5.821014404296875,7.973052978515625,-0.1926116943359375,0.272125244140625,0.6794586181640625
1.4793853759765625,5.78271484375,7.08001708984375,-0.199005126953125,0.2114105224609375,0.5463104248046875
2.05877685546875,5.8760833740234375,7.386474609375,-0.4663848876953125,0.088897705078125,0.7849273681640625
2.2479248046875,6.115509033203125,8.159805297851562,-0.4290924072265625,0.89849853515625,0.890380859375
1.874420166015625,5.89044189453125,8.334579467773438,-0.3971405029296875,1.240447998046875,0.924468994140625
1.4554443359375,4.8681182861328125,9.153396606445312,-0.267181396484375,1.3246002197265625,0.9415130615234375
1.651763916015625,4.446746826171875,9.512527465820312,-0.1457366943359375,1.2574920654296875,0.8871917724609375
2.317352294921875,4.279144287109375,9.249160766601562,0.144012451171875,0.9847869873046875,0.5985107421875
2.602264404296875,4.690948486328125,7.66180419921875,0.28143310546875,0.6215362548828125,0.19476318359375
2.98773193359375,4.6885528564453125,6.3234405517578125,-0.0424041748046875,0.977325439453125,-0.2057647705078125
1.905548095703125,5.90960693359375,6.5963897705078125,-0.377960205078125,1.3927764892578125,-0.417755126953125
1.462615966796875,5.38287353515625,6.8549652099609375,-0.434417724609375,1.11688232421875,-0.2281341552734375
1.0364532470703125,4.552093505859375,7.350555419921875,-0.4631805419921875,0.6630706787109375,-0.165283203125
-0.60357666015625,4.2480316162109375,8.044876098632812,-0.5196380615234375,0.225250244140625,-0.112030029296875
-0.2635955810546875,4.2552032470703125,8.293869018554688,-0.562255859375,-0.319091796875,0.252288818359375
1.57275390625,4.362945556640625,9.177337646484375,-0.50579833984375,-0.4863433837890625,0.4877166748046875
2.22637939453125,4.0229644775390625,10.115859985351562,-0.1894073486328125,0.1847686767578125,0.48345947265625
2.08990478515625,3.991851806640625,9.845321655273438,0.0151214599609375,0.7195281982421875,0.4759979248046875
1.1585540771484375,4.0110015869140625,8.973831176757812,0.29315185546875,1.390655517578125,0.4674835205078125
0.753936767578125,4.0493011474609375,8.418380737304688,0.3655853271484375,1.3512420654296875,0.4759979248046875
1.0963134765625,4.3868865966796875,7.81982421875,0.3347015380859375,0.85162353515625,0.5239410400390625
1.86724853515625,4.446746826171875,7.7480010986328125,0.235626220703125,0.4393768310546875,0.4930419921875
2.128204345703125,4.4299774169921875,7.666595458984375,0.1866302490234375,0.3903656005859375,0.4461669921875
0.868865966796875,4.71728515625,7.570831298828125,-0.2480010986328125,0.3594818115234375,0.1905059814453125
0.933502197265625,4.5281524658203125,8.691314697265625,-0.366241455078125,0.52032470703125,0.4301910400390625
0.8736419677734375,4.4491424560546875,9.344924926757812,-0.2831573486328125,0.6854400634765625,0.4738616943359375
0.87603759765625,4.36773681640625,9.311416625976562,-0.1702423095703125,0.4926300048828125,0.447235107421875
0.9095611572265625,4.33660888671875,9.14141845703125,-0.050933837890625,0.1251220703125,0.4206085205078125
0.36846923828125,4.477874755859375,8.415985107421875,0.040679931640625,0.1613311767578125,0.4525604248046875
0.2966461181640625,4.6861572265625,8.119094848632812,0.0843658447265625,0.2753143310546875,0.6464385986328125
0.82098388671875,4.9591064453125,8.990585327148438,0.0279083251953125,0.7174072265625,0.7732086181640625
0.7659149169921875,4.8202362060546875,8.964248657226562,0.1312255859375,0.83245849609375,0.8296661376953125
0.5073394775390625,4.427581787109375,8.511749267578125,0.2718505859375,0.615142822265625,0.8616180419921875
0.7922515869140625,4.6622161865234375,7.81982421875,0.3922271728515625,0.4755859375,0.9116973876953125
0.351715087890625,4.8298187255859375,8.155014038085938,0.2537384033203125,0.5277862548828125,0.8541717529296875
0.9406890869140625,4.4635009765625,9.297042846679688,0.3666534423828125,0.2689208984375,0.9191436767578125
1.725982666015625,5.2224578857421875,7.2140960693359375,0.7299041748046875,0.9837188720703125,1.0128936767578125
1.8289337158203125,4.8202362060546875,7.8485565185546875,0.4444122314453125,1.137115478515625,0.8829345703125
1.8433074951171875,4.8561553955078125,8.45428466796875,0.4721221923828125,1.022064208984375,0.76788330078125
1.4362945556640625,4.8729095458984375,9.021713256835938,0.8449554443359375,0.5576171875,0.5814666748046875
1.19207763671875,5.62469482421875,7.3577423095703125,1.192230224609375,0.418060302734375,0.5452423095703125
1.11785888671875,6.0197296142578125,5.7584228515625,0.79595947265625,0.398895263671875,0.65496826171875
1.48895263671875,5.9862213134765625,6.16064453125,0.2079315185546875,0.4127349853515625,0.766815185546875
1.7642974853515625,6.074798583984375,7.4271697998046875,-0.1691741943359375,0.34136962890625,0.778533935546875
1.6158447265625,5.943115234375,9.03607177734375,-0.173431396484375,0.1070098876953125,0.6709442138671875
1.1370086669921875,5.7659454345703125,9.596328735351562,0.2303009033203125,-0.03680419921875,0.595306396484375
1.007720947265625,5.9024200439453125,9.045654296875,0.4273681640625,0.0058135986328125,0.62939453125
1.227996826171875,6.0987396240234375,7.5420989990234375,0.557342529296875,0.132568359375,0.7732086181640625
1.5703582763671875,6.091552734375,7.053680419921875,0.496612548828125,0.1410980224609375,0.823272705078125
2.2670745849609375,6.1992950439453125,6.905242919921875,0.2739715576171875,0.0665283203125,0.8285980224609375
2.3987579345703125,6.2471771240234375,7.09197998046875,0.1365509033203125,0.01007080078125,0.7178192138671875
2.2766571044921875,6.4099884033203125,7.8078460693359375,0.1173858642578125,0.18157958984375,0.675201416015625
1.905548095703125,6.2400054931640625,7.36492919921875,0.1866302490234375,0.544830322265625,0.745513916015625
1.3524932861328125,5.6749725341796875,6.917205810546875,0.075836181640625,0.6396331787109375,0.7614898681640625
1.314178466796875,5.378082275390625,7.1566314697265625,-0.08074951171875,0.3115386962890625,0.743377685546875
1.599090576171875,5.1817626953125,7.64984130859375,-0.10418701171875,-0.10711669921875,0.6464385986328125
1.5583953857421875,5.361328125,7.4463348388671875,0.021514892578125,-0.11456298828125,0.5132904052734375
1.0149078369140625,5.646240234375,6.8669281005859375,0.0832977294921875,-0.037872314453125,0.449371337890625
0.5935211181640625,5.5815887451171875,7.03692626953125,0.144012451171875,-0.073028564453125,0.5335235595703125
0.6126861572265625,5.5432891845703125,7.163818359375,0.1738433837890625,-0.024017333984375,0.597442626953125
0.4642333984375,5.45709228515625,7.202117919921875,0.2207183837890625,0.157073974609375,0.6570892333984375
-0.0409393310546875,5.5384979248046875,7.127899169921875,0.23883056640625,0.133636474609375,0.6230010986328125
-0.4694976806640625,6.1394500732421875,7.075225830078125,0.24627685546875,0.03350830078125,0.66668701171875
-0.0744476318359375,6.031707763671875,6.2947235107421875,0.1152496337890625,0.5224609375,0.8754730224609375
-0.4862518310546875,6.0412750244140625,6.4335784912109375,-0.1222991943359375,0.7174072265625,0.9223480224609375
-0.5221710205078125,6.4099884033203125,7.4152069091796875,-0.3417510986328125,0.467071533203125,1.0800018310546875
0.5456390380859375,6.9654388427734375,7.3218231201171875,-0.3747711181640625,0.8473663330078125,1.5710906982421875
0.6605682373046875,6.6518096923828125,6.9986114501953125,-0.8072662353515625,1.6644287109375,1.793731689453125
0.0189208984375,6.189727783203125,7.7791290283203125,-1.4453582763671875,2.2641754150390625,1.861907958984375
-0.608367919921875,4.99261474609375,10.908340454101562,-1.77239990234375,1.8380584716796875,1.646728515625
-0.6586456298828125,3.6638336181640625,12.452606201171875,-0.9904937744140625,0.5874481201171875,1.4006500244140625
0.9933624267578125,4.7891082763671875,12.251495361328125,0.1195068359375,0.3445587158203125,1.3314056396484375
1.3429107666015625,5.30865478515625,10.075164794921875,0.8225860595703125,1.1530914306640625,1.2312774658203125
0.847320556640625,4.93994140625,7.7120819091796875,1.0377655029296875,1.3586883544921875,1.133270263671875
0.3876190185546875,5.1362762451171875,6.6227264404296875,0.816192626953125,1.162689208984375,1.098114013671875
0.47381591796875,5.29669189453125,6.462310791015625,0.440155029296875,0.830322265625,1.16522216796875
0.2655181884765625,5.2152862548828125,7.1446533203125,0.0481414794921875,0.5384368896484375,1.1631011962890625
0.2751007080078125,5.212890625,7.97784423828125,-0.062652587890625,0.474517822265625,1.1705474853515625
0.710845947265625,5.1266937255859375,9.064804077148438,-0.0125732421875,0.54803466796875,1.1854705810546875
0.7611236572265625,4.9519195556640625,9.222824096679688,0.122711181640625,0.6513519287109375,1.156707763671875
0.7922515869140625,5.2152862548828125,8.076004028320312,0.3687896728515625,0.8388519287109375,1.09918212890625
0.583953857421875,5.30865478515625,7.48223876953125,0.374114990234375,0.7536163330078125,1.0491180419921875
-0.0792388916015625,5.48822021484375,6.9291839599609375,0.259063720703125,0.4095458984375,1.0107574462890625
0.15777587890625,5.6175079345703125,7.4942169189453125,0.1269683837890625,0.4351043701171875,1.1322021484375
0.3708648681640625,5.2799224853515625,8.08319091796875,0.07904052734375,0.7291259765625,1.220611572265625
0.3325653076171875,4.963897705078125,8.162200927734375,0.065185546875,0.6098175048828125,1.2046356201171875
0.4139556884765625,4.7484130859375,8.78228759765625,0.0950164794921875,0.238037109375,1.1375274658203125
0.842529296875,5.0213470458984375,9.007354736328125,0.223907470703125,0.1656036376953125,1.1290130615234375
0.8784332275390625,4.91839599609375,8.52850341796875,0.5328369140625,0.7685394287109375,1.2174224853515625
0.880828857421875,5.1626129150390625,8.289093017578125,0.4593353271484375,0.9283294677734375,1.13433837890625
1.1202545166015625,4.966278076171875,9.253952026367188,0.5679931640625,0.6204681396484375,0.995849609375
1.3524932861328125,5.33978271484375,8.811019897460938,0.7213897705078125,0.4702606201171875,0.936187744140625
1.0029296875,6.15380859375,7.2883148193359375,0.81939697265625,0.5267181396484375,0.8765411376953125
0.9837799072265625,6.601531982421875,6.124725341796875,0.261199951171875,0.840972900390625,1.0011749267578125
1.4674072265625,5.916778564453125,8.957077026367188,0.341094970703125,0.7408447265625,0.996917724609375
1.5583953857421875,5.7491912841796875,8.597946166992188,0.622314453125,0.68011474609375,0.8648223876953125
1.6804962158203125,5.6175079345703125,7.4463348388671875,0.5924835205078125,0.6172637939453125,0.7817230224609375
1.3836212158203125,5.5384979248046875,8.006576538085938,0.5488128662109375,0.5384368896484375,0.7284698486328125
1.4578399658203125,5.1961212158203125,8.820602416992188,0.714996337890625,0.30621337890625,0.684783935546875
2.1713104248046875,5.1099395751953125,8.1358642578125,1.1901092529296875,-0.263702392578125,0.5111541748046875
2.602264404296875,5.7180633544921875,8.044876098632812,1.295562744140625,-0.37982177734375,0.458953857421875
2.707611083984375,5.69891357421875,8.23162841796875,1.5299224853515625,-0.3606414794921875,0.388641357421875
2.3556671142578125,4.880096435546875,7.963470458984375,1.6577606201171875,-0.1561126708984375,0.308746337890625
2.2191925048828125,5.56243896484375,6.1797943115234375,1.617279052734375,0.4915618896484375,0.1095428466796875
2.7004241943359375,6.3142242431640625,5.2508392333984375,0.660675048828125,0.09954833984375,0.38970947265625
3.320526123046875,6.3333740234375,5.911651611328125,0.3336334228515625,0.502227783203125,0.3055572509765625
2.1713104248046875,6.1945037841796875,6.21331787109375,0.1866302490234375,0.44256591796875,0.0861053466796875
1.35009765625,6.46026611328125,7.2093048095703125,0.112060546875,0.11126708984375,0.0104827880859375
1.800201416015625,6.771514892578125,8.186141967773438,0.35174560546875,-0.07940673828125,0.1095428466796875
1.6445770263671875,7.0181121826171875,6.938751220703125,0.67877197265625,0.239105224609375,0.22247314453125
1.2423553466796875,7.0635986328125,5.4232330322265625,0.660675048828125,0.521392822265625,0.41314697265625
1.9127349853515625,6.8600921630859375,5.7584228515625,0.4220428466796875,0.490509033203125,0.6240692138671875
2.88238525390625,6.6541900634765625,5.6770172119140625,0.2782440185546875,0.179443359375,0.6485748291015625
2.200042724609375,6.802642822265625,5.42083740234375,0.073699951171875,-0.026153564453125,0.5686798095703125
2.83929443359375,6.910369873046875,5.14788818359375,-0.0551910400390625,0.7525634765625,0.924468994140625
3.0954742431640625,6.3740692138671875,5.6674346923828125,-0.3513336181640625,0.97625732421875,0.9106292724609375
2.6046600341796875,6.644622802734375,7.00579833984375,-0.4514617919921875,0.786651611328125,0.9319305419921875
2.98773193359375,6.2352142333984375,7.0297393798828125,-0.35772705078125,1.002899169921875,1.0096893310546875
3.368408203125,6.1514129638671875,6.21331787109375,-0.232025146484375,1.6218109130859375,1.0224761962890625
2.7483062744140625,6.2471771240234375,5.5908203125,-0.4056549072265625,1.8625640869140625,0.9340667724609375
2.64056396484375,6.5560302734375,6.165435791015625,-0.6922149658203125,2.117156982421875,1.007568359375
2.317352294921875,6.75714111328125,6.0624847412109375,-0.974517822265625,2.6370086669921875,1.246185302734375
1.84808349609375,6.0149383544921875,6.1367034912109375,-1.385711669921875,2.6114501953125,1.417694091796875
1.196868896484375,5.102752685546875,7.657012939453125,-1.758544921875,2.325958251953125,1.2387237548828125
1.261505126953125,5.0428924560546875,10.384017944335938,-0.9116668701171875,1.3128814697265625,1.11090087890625
1.0412445068359375,5.0357208251953125,8.734405517578125,-0.40460205078125,1.2340545654296875,0.928741455078125
1.0508270263671875,5.3589324951171875,8.044876098632812,-0.262908935546875,1.068939208984375,0.9915924072265625
1.809783935546875,5.1793670654296875,7.58758544921875,-0.3289642333984375,0.8580169677734375,1.11834716796875
2.0875091552734375,5.2320404052734375,7.5157623291015625,-0.380096435546875,0.5767822265625,0.9351348876953125
1.80499267578125,5.387664794921875,8.281906127929688,-0.4535980224609375,0.3339080810546875,0.722076416015625
1.4841766357421875,5.313446044921875,9.155792236328125,-0.43548583984375,0.305145263671875,0.6815948486328125
0.868865966796875,5.3852691650390625,8.815811157226562,-0.1574554443359375,0.591705322265625,0.7061004638671875
0.658172607421875,5.430755615234375,8.238815307617188,-0.0200347900390625,0.626861572265625,0.82647705078125
1.6493682861328125,5.09796142578125,7.836578369140625,0.0151214599609375,0.6087493896484375,0.950042724609375
2.0037078857421875,4.9567108154296875,7.5253448486328125,-0.00299072265625,0.5831756591796875,0.8712158203125
1.6038818359375,4.83221435546875,7.783905029296875,-0.09674072265625,0.47772216796875,0.776397705078125
1.376434326171875,4.8681182861328125,8.439926147460938,-0.1255035400390625,0.4468231201171875,0.7945098876953125
1.4123382568359375,4.8633270263671875,8.123886108398438,-0.0242919921875,0.51287841796875,0.868011474609375
1.8337249755859375,4.8226318359375,7.9131927490234375,-0.001922607421875,0.568267822265625,0.879730224609375
2.518463134765625,4.7077178955078125,8.056854248046875,0.06304931640625,0.3584136962890625,0.7838592529296875
2.8225250244140625,4.94952392578125,8.346542358398438,0.1045989990234375,0.3925018310546875,0.7135467529296875
1.84808349609375,5.2559814453125,7.9227752685546875,0.110992431640625,0.82073974609375,0.54949951171875
0.9143524169921875,5.4116058349609375,7.4463348388671875,0.0247039794921875,0.7195281982421875,0.5463104248046875
0.90716552734375,5.20330810546875,7.929962158203125,0.0140533447265625,0.4212646484375,0.5985107421875
1.94146728515625,5.5289154052734375,8.827789306640625,0.042816162109375,0.4489593505859375,0.686920166015625
2.106658935546875,5.4475250244140625,8.985794067382812,0.088623046875,0.54376220703125,0.653900146484375
2.006103515625,5.4020233154296875,8.799057006835938,0.2292327880859375,0.5405731201171875,0.5335235595703125
1.2950286865234375,5.873687744140625,8.071212768554688,0.2750396728515625,0.3552093505859375,0.392913818359375
0.4498748779296875,6.242401123046875,7.9754486083984375,0.1706390380859375,0.250823974609375,0.4972991943359375
0.8880157470703125,5.8497467041015625,8.777511596679688,0.1184539794921875,0.4212646484375,0.6943817138671875
1.515289306640625,5.471466064453125,9.354507446289062,0.23883056640625,0.4873046875,0.7178192138671875
1.4123382568359375,5.4858245849609375,9.4359130859375,0.4358978271484375,0.4830474853515625,0.6336517333984375
1.2040557861328125,5.4954071044921875,8.181350708007812,0.602081298828125,0.4265899658203125,0.6006317138671875
1.4315032958984375,5.1003570556640625,7.5157623291015625,0.2281646728515625,0.27105712890625,0.529266357421875
1.3644561767578125,4.753204345703125,8.60272216796875,0.04388427734375,0.3360443115234375,0.416351318359375
0.4450836181640625,4.712493896484375,9.057632446289062,0.1408233642578125,0.4052886962890625,0.2949066162109375
0.3134002685546875,5.1099395751953125,8.2843017578125,0.381561279296875,0.373321533203125,0.346038818359375
0.933502197265625,5.150634765625,7.312255859375,0.5093994140625,0.319000244140625,0.4344482421875
1.34051513671875,5.1482391357421875,6.9100341796875,0.3464202880859375,0.3978271484375,0.37799072265625
0.763519287109375,5.0572662353515625,7.4535064697265625,0.064117431640625,0.239105224609375,0.209686279296875
0.1912994384765625,5.229644775390625,7.9802398681640625,-0.0551910400390625,0.1975555419921875,0.1542816162109375
-0.6969451904296875,4.7819366455078125,8.030517578125,0.0268402099609375,-0.1923370361328125,0.233123779296875
-0.25640869140625,4.7627716064453125,8.214874267578125,0.073699951171875,-0.0293426513671875,0.3854522705078125
0.7802734375,4.7723541259765625,7.8964385986328125,0.0577239990234375,0.582122802734375,0.5111541748046875
0.404388427734375,4.5616607666015625,8.24359130859375,-0.0530548095703125,0.1538848876953125,0.332183837890625
0.236785888671875,4.722076416015625,8.87567138671875,0.3538665771484375,-1.075439453125,0.368408203125
0.28228759765625,4.607147216796875,8.921157836914062,0.5157928466796875,-0.912445068359375,0.4653472900390625
0.9454803466796875,4.638275146484375,7.73602294921875,0.587158203125,-0.193389892578125,0.6464385986328125
1.462615966796875,4.5137786865234375,6.991424560546875,0.22283935546875,-0.320159912109375,0.437652587890625
2.6932373046875,4.8082733154296875,8.09515380859375,0.110992431640625,-0.6589202880859375,-0.0385284423828125
1.25433349609375,5.4379425048828125,7.551666259765625,-0.0903472900390625,-0.3840789794921875,-0.6446533203125
0.7707061767578125,5.71087646484375,7.530120849609375,-0.093536376953125,-0.3180389404296875,-0.5168304443359375
1.12744140625,5.92156982421875,7.4463348388671875,-0.034942626953125,-0.12628173828125,-0.2675628662109375
1.333343505859375,5.8449554443359375,6.73046875,-0.06158447265625,0.1134033203125,-0.112030029296875
1.12744140625,5.6175079345703125,7.1949310302734375,-0.2810211181640625,0.0047454833984375,-0.1407928466796875
1.1729278564453125,5.6222991943359375,7.740814208984375,-0.3630523681640625,-0.174224853515625,-0.165283203125
1.2639007568359375,5.583984375,8.667373657226562,-0.3534698486328125,-0.41497802734375,-0.235595703125
1.0627899169921875,5.6893310546875,8.313034057617188,-0.154266357421875,-0.228546142578125,-0.215362548828125
0.9789886474609375,5.758758544921875,7.3840789794921875,-0.0647735595703125,0.065460205078125,-0.102447509765625
1.261505126953125,5.6222991943359375,7.3361968994140625,-0.10418701171875,0.1400299072265625,-0.0523681640625
1.208831787109375,5.6653900146484375,7.276336669921875,-0.2000732421875,0.1517486572265625,-0.074737548828125
0.9287109375,5.545684814453125,7.5899810791015625,-0.27783203125,0.0377655029296875,-0.1397247314453125
0.8137969970703125,5.8712921142578125,7.76715087890625,-0.28741455078125,-0.16143798828125,-0.227081298828125
0.8401336669921875,5.9862213134765625,8.483016967773438,-0.1468048095703125,-0.037872314453125,-0.1386566162109375
1.1058807373046875,5.7276458740234375,7.6809539794921875,0.101409912109375,0.3030242919921875,0.025390625
1.37164306640625,5.641448974609375,7.0393218994140625,0.124847412109375,0.486236572265625,0.0786590576171875
1.49853515625,5.646240234375,7.2931060791015625,-0.039215087890625,0.4798431396484375,0.0072784423828125
1.239959716796875,5.5863800048828125,8.159805297851562,-0.32470703125,0.1506805419921875,-0.191925048828125
0.488189697265625,5.545684814453125,7.477447509765625,0.193023681640625,0.7014312744140625,-0.0821990966796875
0.246368408203125,5.6869354248046875,7.8341827392578125,0.167449951171875,0.69183349609375,-0.189788818359375
-0.00262451171875,5.9191741943359375,7.170989990234375,0.2249755859375,0.9432373046875,-0.25689697265625
-0.58203125,6.23760986328125,6.9938201904296875,-0.4184417724609375,0.202880859375,-0.3016510009765625
-0.5604705810546875,5.9933929443359375,8.217254638671875,-0.3715667724609375,-0.000579833984375,-0.290985107421875
-0.874114990234375,5.6917266845703125,8.880462646484375,0.0609283447265625,0.11126708984375,-0.222808837890625
-0.5915985107421875,5.583984375,9.258743286132812,0.2739715576171875,-0.42242431640625,-0.2547760009765625
-0.10797119140625,6.0604400634765625,8.81341552734375,0.477447509765625,-0.51617431640625,-0.294189453125
-0.608367919921875,6.2830963134765625,7.88446044921875,0.4806365966796875,-0.2562408447265625,-0.3005828857421875
-0.8717193603515625,5.5552520751953125,8.746383666992188,0.4135284423828125,-0.27435302734375,-0.121612548828125
-0.335418701171875,5.703704833984375,8.195709228515625,0.500885009765625,-0.7036590576171875,-0.0236053466796875
0.162567138671875,5.8593292236328125,7.9227752685546875,0.326171875,-0.7633056640625,0.082916259765625
0.68450927734375,5.524139404296875,8.698501586914062,0.144012451171875,-0.55133056640625,0.0882415771484375
0.124267578125,5.3948516845703125,8.334579467773438,0.2057952880859375,-0.37554931640625,-0.112030029296875
-0.3785247802734375,5.5432891845703125,8.11669921875,0.1717071533203125,-0.082611083984375,-0.1407928466796875
-0.3856964111328125,5.4738616943359375,7.8629150390625,0.214324951171875,-0.0314788818359375,-0.0683441162109375
0.06201171875,5.4810333251953125,7.37689208984375,0.26971435546875,-0.3276214599609375,-0.0619659423828125
0.4642333984375,5.6869354248046875,6.8932647705078125,0.2952880859375,-0.444793701171875,-0.079010009765625
0.4522705078125,5.60552978515625,7.0464935302734375,0.2643890380859375,-0.14013671875,-0.063018798828125
0.267913818359375,5.51934814453125,7.0081939697265625,0.2409515380859375,-0.0293426513671875,-0.0726165771484375
-0.07684326171875,5.3637237548828125,7.170989990234375,0.157867431640625,-0.230682373046875,-0.0992431640625
0.0644073486328125,5.356536865234375,7.5277252197265625,0.135498046875,-0.42669677734375,-0.0843353271484375
0.5671844482421875,5.4475250244140625,7.728851318359375,0.1866302490234375,-0.626953125,-0.0353240966796875
0.5384674072265625,5.514556884765625,7.285919189453125,0.233489990234375,-0.515106201171875,0.026458740234375
0.5671844482421875,5.4594879150390625,7.33380126953125,0.099273681640625,-0.295654296875,0.153228759765625
1.1370086669921875,5.2009124755859375,8.377670288085938,0.0044708251953125,-0.23175048828125,0.22247314453125
1.493743896484375,5.0692291259765625,8.880462646484375,0.0939483642578125,-0.3606414794921875,0.1574859619140625
1.1417999267578125,5.325408935546875,8.26275634765625,0.2558746337890625,-0.685546875,0.1201934814453125
1.0795440673828125,5.59356689453125,7.7743377685546875,0.2761077880859375,-0.7398834228515625,0.1574859619140625
1.714019775390625,5.7491912841796875,7.4726715087890625,0.2015380859375,-0.6003265380859375,0.2799835205078125
2.1737060546875,5.8018646240234375,6.90045166015625,0.1844940185546875,-0.4661102294921875,0.3023681640625
2.1042633056640625,5.8665008544921875,6.673004150390625,0.09820556640625,-0.08367919921875,0.2554931640625
1.19207763671875,5.732421875,6.821441650390625,-0.0754241943359375,0.1059417724609375,0.2032928466796875
1.4123382568359375,5.9622650146484375,7.0728302001953125,-0.1361541748046875,-0.04638671875,0.2554931640625
1.8696441650390625,5.8665008544921875,7.6163177490234375,-0.1670379638671875,0.02178955078125,0.277862548828125
2.1665191650390625,6.074798583984375,7.82940673828125,-0.1222991943359375,0.06439208984375,0.2320556640625
1.998931884765625,5.8018646240234375,7.4152069091796875,-0.081817626953125,0.1134033203125,0.2086181640625
