accX,accY,accZ,gyroX,gyroY,gyroZ
-0.9339752197265625,5.282318115234375,7.1566314697265625,0.08892822265625,-0.39599609375,-0.0767364501953125
-0.8190460205078125,5.423583984375,7.22845458984375,-0.0229339599609375,-0.4833526611328125,-0.1438446044921875
-1.04888916015625,5.5552520751953125,7.750396728515625,-0.081512451171875,-0.4609832763671875,-0.207763671875
-1.412811279296875,5.7396087646484375,8.056854248046875,-0.081512451171875,-0.4258270263671875,-0.239715576171875
-1.666595458984375,5.9718475341796875,8.425552368164062,-0.0634002685546875,-0.4897308349609375,-0.22906494140625
-1.8054656982421875,6.07958984375,8.427947998046875,0.0399169921875,-0.5259552001953125,-0.171539306640625
-1.82940673828125,6.0987396240234375,7.7767333984375,0.10809326171875,-0.5046539306640625,-0.084197998046875
-1.6785736083984375,6.0819854736328125,7.5420989990234375,0.078277587890625,-0.5035858154296875,-0.0479736328125
-1.3673248291015625,5.92156982421875,7.9251708984375,-0.0420989990234375,-0.521697998046875,-0.016021728515625
-1.295501708984375,5.7539825439453125,8.313034057617188,-0.0676727294921875,-0.512115478515625,-0.01495361328125
-1.1949462890625,5.5073699951171875,8.6865234375,-0.027191162109375,-0.4449920654296875,-0.0170745849609375
-1.1015625,5.2679595947265625,8.722442626953125,0.00689697265625,-0.4481964111328125,-0.0309295654296875
-0.9842529296875,5.3373870849609375,8.720046997070312,0.01861572265625,-0.498260498046875,-0.0415802001953125
-0.7328643798828125,5.6342620849609375,8.578781127929688,0.032470703125,-0.5589752197265625,-0.058624267578125
-0.7136993408203125,5.51934814453125,8.52850341796875,0.0228729248046875,-0.4971923828125,-0.0660858154296875
-0.68975830078125,5.2583770751953125,8.837356567382812,-0.0090789794921875,-0.284149169921875,-0.084197998046875
-0.514984130859375,5.37091064453125,9.572372436523438,0.0505828857421875,-0.0700225830078125,-0.05010986328125
-0.3330230712890625,4.805877685546875,9.55322265625,0.2082366943359375,0.138763427734375,-0.0224151611328125
-0.060089111328125,4.4874420166015625,9.186920166015625,0.2987823486328125,0.152618408203125,-0.082061767578125
-0.3162689208984375,4.214508056640625,8.693710327148438,0.2987823486328125,0.0919036865234375,-0.1651458740234375
-0.61553955078125,3.8889007568359375,8.138259887695312,0.1411285400390625,0.10894775390625,-0.208831787109375
-0.610748291015625,3.6255340576171875,8.691314697265625,-0.081512451171875,0.1132049560546875,-0.187530517578125
-0.4527435302734375,3.022186279296875,9.541259765625,-0.10601806640625,0.18670654296875,-0.140655517578125
0.00933837890625,2.9192352294921875,9.854888916015625,0.0910491943359375,0.2282562255859375,-0.125732421875
-0.07684326171875,3.268798828125,9.459854125976562,0.409576416015625,0.3443603515625,-0.160888671875
-0.471893310546875,3.68060302734375,9.766311645507812,0.7099761962890625,0.7811279296875,-0.046905517578125
-0.428802490234375,3.8050994873046875,9.409576416015625,0.8228912353515625,0.8972320556640625,0.0020904541015625
-0.4000701904296875,3.9487457275390625,8.832565307617188,0.8899993896484375,0.9302520751953125,0.032989501953125
-0.34979248046875,4.310272216796875,7.757568359375,0.8324737548828125,0.7576904296875,0.0351104736328125
-0.4479522705078125,4.56884765625,7.2811279296875,0.5981292724609375,0.4892425537109375,0.0031585693359375
-0.5485076904296875,4.6981353759765625,7.25958251953125,0.4681549072265625,0.3912353515625,-0.0064239501953125
-1.0441131591796875,4.9207916259765625,7.4726715087890625,0.2433929443359375,0.2697906494140625,0.0031585693359375
-1.2308502197265625,4.954315185546875,7.87249755859375,0.111297607421875,0.21014404296875,0.0809173583984375
-1.0345306396484375,4.963897705078125,7.9658660888671875,0.0942535400390625,0.1888427734375,0.1650848388671875
-0.7592010498046875,5.0093841552734375,7.7001190185546875,0.11236572265625,0.1547393798828125,0.19384765625
-0.6323089599609375,5.1003570556640625,7.561248779296875,0.109161376953125,0.1132049560546875,0.18212890625
-0.39288330078125,5.2559814453125,7.5732269287109375,0.0942535400390625,0.037567138671875,0.13311767578125
-0.1941680908203125,5.3948516845703125,6.82623291015625,0.14752197265625,0.09295654296875,0.0734710693359375
-1.54449462890625,6.3046417236328125,3.787994384765625,-0.208282470703125,0.047149658203125,0.0947723388671875
-0.409637451171875,6.0412750244140625,6.2157135009765625,-0.5928497314453125,0.051422119140625,0.1618804931640625
0.53607177734375,5.5552520751953125,8.90679931640625,-0.368072509765625,0.22930908203125,0.0691986083984375
0.3134002685546875,5.5073699951171875,9.045654296875,-0.1656646728515625,0.2932281494140625,0.0010223388671875
-1.4367523193359375,5.440338134765625,7.3409881591796875,-0.050628662109375,0.242095947265625,0.0010223388671875
-1.5684356689453125,5.5265350341796875,7.424774169921875,-0.18377685546875,0.31134033203125,0.1277923583984375
-1.30267333984375,5.7396087646484375,7.8509521484375,-0.2935028076171875,0.3145294189453125,0.2204742431640625
-1.0393218994140625,5.8186187744140625,8.016143798828125,-0.3488922119140625,0.1813812255859375,0.2513580322265625
-0.8046875,5.662994384765625,8.0736083984375,-0.3766021728515625,0.027984619140625,0.2598876953125
-0.7136993408203125,5.5959625244140625,8.18853759765625,-0.3638153076171875,0.0066680908203125,0.26947021484375
-0.629913330078125,5.5552520751953125,8.27471923828125,-0.323333740234375,0.051422119140625,0.2854461669921875
-0.431182861328125,5.5744171142578125,8.047271728515625,-0.2125396728515625,0.21759033203125,0.319549560546875
-0.4479522705078125,5.6749725341796875,7.91558837890625,-0.175262451171875,0.3379669189453125,0.3302001953125
-0.4024658203125,5.7132720947265625,8.109527587890625,-0.1805877685546875,0.38909912109375,0.3248748779296875
-0.3426055908203125,5.7707366943359375,8.327392578125,-0.173126220703125,0.411468505859375,0.314208984375
-0.5389251708984375,5.756378173828125,8.533294677734375,-0.1028289794921875,0.4636688232421875,0.2833251953125
-1.106353759765625,5.8090362548828125,8.12628173828125,-0.025054931640625,0.41253662109375,0.27374267578125
-1.3194427490234375,5.737213134765625,7.64984130859375,-0.04742431640625,0.2964324951171875,0.3227386474609375
-1.0776214599609375,5.6438446044921875,8.128677368164062,-0.1134796142578125,0.2357025146484375,0.3791961669921875
-0.6442718505859375,5.4906158447265625,8.72723388671875,-0.01226806640625,0.3188018798828125,0.4143524169921875
-0.4790802001953125,5.4116058349609375,8.310638427734375,0.1507110595703125,0.3731231689453125,0.3791961669921875
-0.704132080078125,5.3589324951171875,7.79827880859375,0.153900146484375,0.2836456298828125,0.284393310546875
-0.989044189453125,5.397247314453125,8.245986938476562,0.066558837890625,0.1962890625,0.2066192626953125
-1.0656585693359375,5.3637237548828125,8.969039916992188,0.1144866943359375,0.2474212646484375,0.1853179931640625
-1.2715606689453125,5.3900604248046875,8.8660888671875,0.2625579833984375,0.3177337646484375,0.1991729736328125
-1.369720458984375,5.483428955078125,8.401611328125,0.3307342529296875,0.3134765625,0.2204742431640625
-1.75518798828125,5.2320404052734375,8.34893798828125,0.315826416015625,0.4104156494140625,0.268402099609375
-1.951507568359375,5.0357208251953125,8.071212768554688,0.268951416015625,0.491363525390625,0.3238067626953125
-1.9706573486328125,4.8369903564453125,7.877288818359375,0.120880126953125,0.3294525146484375,0.3206024169921875
-1.9874267578125,4.690948486328125,8.037689208984375,-0.04742431640625,0.0333099365234375,0.239654541015625
-2.0161590576171875,4.638275146484375,7.8796844482421875,-0.1028289794921875,-0.098785400390625,0.188507080078125
-3.5867462158203125,4.7508087158203125,6.0265655517578125,-0.062347412109375,-0.8253021240234375,0.07452392578125
-3.12945556640625,5.270355224609375,6.5437164306640625,-0.27752685546875,-0.533416748046875,0.1618804931640625
-1.5373077392578125,4.659820556640625,8.59075927734375,-0.3595428466796875,0.1483612060546875,0.3088836669921875
-2.3657073974609375,4.3916778564453125,9.253952026367188,-0.085784912109375,0.3752593994140625,0.200225830078125
-2.554840087890625,4.54730224609375,8.624282836914062,0.165618896484375,0.1803131103515625,0.235382080078125
-2.2555694580078125,4.985443115234375,7.5157623291015625,0.2061004638671875,0.08123779296875,0.2289886474609375
-2.55963134765625,4.98065185546875,6.9938201904296875,-0.2018890380859375,-0.076416015625,0.30462646484375
-1.750396728515625,4.8848876953125,7.12310791015625,-0.2796630859375,-0.044464111328125,0.32806396484375
-1.381683349609375,4.9710693359375,7.582794189453125,-0.3169403076171875,-0.0923919677734375,0.2524261474609375
-1.1781768798828125,5.0333251953125,7.8748931884765625,-0.2583465576171875,-0.0828094482421875,0.1768035888671875
-1.264373779296875,5.2942962646484375,7.534912109375,-0.119873046875,-0.0007781982421875,0.0830535888671875
-1.36492919921875,5.3804779052734375,7.4630889892578125,-0.119873046875,0.0077362060546875,0.06707763671875
-1.4247894287109375,5.4020233154296875,7.676177978515625,-0.14862060546875,0.0077362060546875,0.0372467041015625
-1.5205535888671875,5.30865478515625,8.013748168945312,-0.151824951171875,-0.0114288330078125,0.009552001953125
-1.5373077392578125,5.3014678955078125,8.04248046875,-0.1273193359375,-0.0913238525390625,-0.00323486328125
-1.592376708984375,5.3924560546875,7.898834228515625,-0.128387451171875,-0.2425994873046875,-0.023468017578125
-1.5420989990234375,5.4786376953125,7.9802398681640625,-0.137969970703125,-0.3544464111328125,-0.03411865234375
-1.465484619140625,5.5600433349609375,8.078399658203125,-0.12945556640625,-0.3672332763671875,-0.0330657958984375
-1.4104156494140625,5.6007537841796875,8.030517578125,-0.093231201171875,-0.361907958984375,-0.03411865234375
-1.898834228515625,6.0029754638671875,6.4958343505859375,0.21356201171875,0.1004180908203125,0.0127410888671875
-1.0872039794921875,5.9335479736328125,6.4910430908203125,0.017547607421875,0.0673980712890625,0.079864501953125
-0.9555206298828125,5.576812744140625,6.9986114501953125,-0.142242431640625,-0.25006103515625,0.009552001953125
-1.089599609375,5.598358154296875,7.477447509765625,-0.24237060546875,-0.545135498046875,-0.0991058349609375
-1.0872039794921875,5.8593292236328125,7.793487548828125,-0.2689971923828125,-0.6953277587890625,-0.2003021240234375
-1.7527923583984375,5.8066558837890625,7.803070068359375,-0.2455596923828125,-0.568572998046875,-0.241851806640625
-1.8581390380859375,5.864105224609375,8.102340698242188,-0.2381134033203125,-0.5025177001953125,-0.2109527587890625
-1.8892669677734375,5.658203125,8.913970947265625,-0.1273193359375,-0.3576507568359375,-0.115081787109375
-1.582794189453125,5.737213134765625,8.703277587890625,0.11236572265625,-0.1861419677734375,-0.0224151611328125
-1.5325164794921875,5.746795654296875,8.279510498046875,0.177337646484375,-0.1531219482421875,-0.00537109375
-1.4176025390625,5.8377685546875,8.131072998046875,0.1283416748046875,-0.2330169677734375,-0.00323486328125
-1.2188873291015625,5.78509521484375,8.983413696289062,0.064422607421875,-0.2862701416015625,-0.0213470458984375
-1.2045135498046875,5.732421875,9.289871215820312,0.10064697265625,-0.2628326416015625,-0.0287933349609375
-1.273956298828125,5.6797637939453125,9.174942016601562,0.226348876953125,-0.2191619873046875,-0.0309295654296875
-1.106353759765625,5.6701812744140625,8.923553466796875,0.2987823486328125,-0.2671051025390625,-0.0415802001953125
-1.0512847900390625,5.6175079345703125,9.091140747070312,0.3477783203125,-0.1861419677734375,-0.06182861328125
-1.233245849609375,5.7228546142578125,8.952285766601562,0.433013916015625,-0.096649169921875,-0.0767364501953125
-1.3936614990234375,5.6869354248046875,8.171768188476562,0.4298095703125,-0.0721588134765625,-0.039459228515625
-1.453521728515625,5.356536865234375,8.059249877929688,0.3083648681640625,-0.063629150390625,0.0372467041015625
-1.3888702392578125,5.133880615234375,8.15740966796875,0.247650146484375,-0.04339599609375,0.07879638671875
-1.400848388671875,4.72686767578125,8.418380737304688,0.1571044921875,-0.01995849609375,0.124603271484375
-1.43914794921875,4.5760345458984375,8.530899047851562,0.1262054443359375,-0.0497894287109375,0.1299285888671875
-1.5373077392578125,4.427581787109375,8.59075927734375,0.1102294921875,-0.1627044677734375,0.145904541015625
-1.48223876953125,4.3485870361328125,8.72723388671875,0.1272735595703125,-0.1840057373046875,0.167205810546875
-1.39605712890625,4.279144287109375,7.5588531494140625,0.590667724609375,0.7225341796875,0.3120880126953125
-0.9770660400390625,4.585601806640625,6.2013397216796875,0.46282958984375,0.721466064453125,0.4239349365234375
0.014129638671875,4.2959136962890625,7.5588531494140625,0.0377960205078125,0.09295654296875,0.3664093017578125
-0.2540130615234375,4.6023712158203125,8.415985107421875,-0.069793701171875,-0.032745361328125,0.1949005126953125
-1.381683349609375,4.76995849609375,8.571609497070312,0.052703857421875,0.3262481689453125,0.1863861083984375
-2.1119232177734375,4.913604736328125,8.12628173828125,0.1602935791015625,0.65435791015625,0.37493896484375
-2.0065765380859375,4.9303741455078125,7.7767333984375,0.11981201171875,0.7054901123046875,0.6391143798828125
-1.3050689697265625,4.8729095458984375,7.70489501953125,-0.0186614990234375,0.5819244384765625,0.8404541015625
-0.97467041015625,4.6741943359375,7.836578369140625,-0.151824951171875,0.5020294189453125,0.9246063232421875
-0.9818572998046875,4.56884765625,8.044876098632812,-0.2040252685546875,0.50628662109375,0.9469757080078125
-1.010589599609375,4.3126678466796875,8.550048828125,-0.2327880859375,0.5318450927734375,0.99066162109375
-0.8501739501953125,4.14508056640625,8.7918701171875,-0.1656646728515625,0.561676025390625,1.05670166015625
-0.4431610107421875,4.0948028564453125,8.554840087890625,-0.0644683837890625,0.5883026123046875,1.10357666015625
-0.0409393310546875,4.341400146484375,8.123886108398438,-0.0069427490234375,0.6138763427734375,1.0769500732421875
-0.0936126708984375,4.6406707763671875,7.9610748291015625,-0.036773681640625,0.631988525390625,1.0172882080078125
-0.208526611328125,4.7292633056640625,8.107131958007812,-0.0921630859375,0.6287841796875,1.001312255859375
-0.79510498046875,5.2535858154296875,9.20367431640625,0.01861572265625,0.970733642578125,1.034332275390625
-1.3433837890625,4.8896636962890625,5.875732421875,0.4063720703125,1.9347991943359375,1.238861083984375
-1.2404327392578125,5.0309295654296875,6.46710205078125,-0.10601806640625,1.2274627685546875,1.3603057861328125
0.00933837890625,4.59039306640625,7.534912109375,-0.541717529296875,0.4530181884765625,1.3581695556640625
0.11468505859375,4.6406707763671875,8.384857177734375,-0.65142822265625,0.3038787841796875,1.297454833984375
-0.5844268798828125,4.2504119873046875,9.20367431640625,-0.5459747314453125,0.709747314453125,1.2697601318359375
-1.3505706787109375,4.4299774169921875,9.170150756835938,-0.3148040771484375,1.198699951171875,1.389068603515625
-0.519775390625,4.626312255859375,8.11669921875,-0.2210693359375,1.1369171142578125,1.6916046142578125
-0.0840301513671875,4.56884765625,8.351333618164062,-0.32440185546875,1.0900421142578125,1.696929931640625
-0.1941680908203125,4.5305328369140625,8.815811157226562,-0.3403778076171875,1.2327880859375,1.6820220947265625
-0.42401123046875,4.3485870361328125,8.976226806640625,-0.309478759765625,1.327606201171875,1.7129058837890625
-0.366546630859375,4.2863311767578125,8.952285766601562,-0.3030853271484375,1.304168701171875,1.7374114990234375
-0.1845855712890625,4.2552032470703125,8.935516357421875,-0.3030853271484375,1.2626190185546875,1.7576446533203125
-0.0840301513671875,4.183380126953125,8.892425537109375,-0.311614990234375,1.2200164794921875,1.739532470703125
-0.49822998046875,4.204925537109375,9.124664306640625,-0.3382415771484375,1.1955108642578125,1.7235565185546875
-0.608367919921875,4.034942626953125,9.402389526367188,-0.3520965576171875,1.0815277099609375,1.790679931640625
-0.8477783203125,4.26239013671875,10.762298583984375,-0.0559539794921875,1.565155029296875,1.865234375
-0.7735595703125,4.1043701171875,5.5142059326171875,0.4383392333984375,2.685821533203125,1.981353759765625
-0.7280731201171875,4.2480316162109375,6.36175537109375,-0.2732696533203125,1.9262847900390625,2.063385009765625
0.710845947265625,3.8505859375,7.956298828125,-0.90496826171875,0.5116119384765625,1.922760009765625
0.1553955078125,3.920013427734375,9.546051025390625,-1.110565185546875,-0.05511474609375,1.62554931640625
-1.453521728515625,3.632720947265625,10.276275634765625,-0.84423828125,0.4785919189453125,1.5893402099609375
-2.72723388671875,3.548919677734375,9.756729125976562,-0.4756622314453125,1.19976806640625,1.8183746337890625
-0.313873291015625,3.1706390380859375,8.808624267578125,-0.3499603271484375,1.0708770751953125,2.0718994140625
-0.7855377197265625,3.2400665283203125,8.437530517578125,-0.36700439453125,1.0793914794921875,1.889739990234375
-1.1662139892578125,3.3669586181640625,8.521331787109375,-0.469268798828125,1.0921783447265625,1.7917327880859375
-1.50140380859375,3.4244232177734375,9.079177856445312,-0.5353240966796875,1.1017608642578125,1.7352752685546875
-1.94671630859375,3.496246337890625,9.409576416015625,-0.5214691162109375,1.1017608642578125,1.7011871337890625
-2.4040069580078125,3.3837127685546875,9.775894165039062,-0.4309234619140625,1.1848602294921875,1.7501983642578125
-2.3776702880859375,3.48187255859375,9.706451416015625,-0.3755340576171875,1.1720733642578125,1.7917327880859375
-2.248382568359375,3.6087646484375,9.486190795898438,-0.356353759765625,1.1273345947265625,1.8290252685546875
-2.099945068359375,3.5465240478515625,9.529281616210938,-0.37872314453125,1.120941162109375,1.878021240234375
-1.8629302978515625,3.4100494384765625,9.835739135742188,-0.3733978271484375,1.1060333251953125,1.9280853271484375
-1.5780181884765625,3.3885040283203125,10.060791015625,-0.2924346923828125,1.0495758056640625,1.9440765380859375
-1.400848388671875,3.3980865478515625,9.962631225585938,-0.161407470703125,1.019744873046875,1.9280853271484375
-1.3266143798828125,3.4459686279296875,9.625045776367188,-0.036773681640625,1.0495758056640625,1.9302215576171875
-1.2140960693359375,3.390899658203125,9.074386596679688,0.0154266357421875,1.054901123046875,1.94940185546875
-1.0728302001953125,3.3932952880859375,8.9091796875,0.0015716552734375,1.0218658447265625,1.9547271728515625
-0.6969451904296875,3.400482177734375,8.94989013671875,-0.0570220947265625,0.95263671875,1.9280853271484375
-0.4383697509765625,3.443572998046875,9.2252197265625,-0.0783233642578125,0.8887176513671875,1.854583740234375
-0.345001220703125,3.4890594482421875,9.313812255859375,-0.038909912109375,0.8407745361328125,1.7693634033203125
-0.3402099609375,3.639892578125,9.146209716796875,0.029266357421875,0.8056182861328125,1.687347412109375
-0.4910430908203125,3.8266448974609375,8.923553466796875,0.0718841552734375,0.758758544921875,1.6106414794921875
-0.5748443603515625,4.0948028564453125,8.997772216796875,0.0814666748046875,0.70123291015625,1.5744171142578125
-0.335418701171875,4.0852203369140625,8.899612426757812,0.1155548095703125,0.6831207275390625,1.5680389404296875
0.0069427490234375,4.1163482666015625,8.67694091796875,0.1059722900390625,0.6128082275390625,1.51263427734375
0.1338348388671875,4.2647857666015625,8.921157836914062,0.052703857421875,0.4498291015625,1.38800048828125
-0.1175537109375,4.4012603759765625,9.131851196289062,0.0846710205078125,0.2953643798828125,1.2655029296875
-0.9076385498046875,4.5041961669921875,7.8222198486328125,0.325408935546875,0.072723388671875,1.18133544921875
-0.313873291015625,4.564056396484375,8.521331787109375,0.0718841552734375,0.2623443603515625,1.0300750732421875
-0.297119140625,4.7340545654296875,8.447097778320312,0.113433837890625,0.24102783203125,0.895843505859375
-1.00579833984375,4.9160003662109375,8.629058837890625,0.1741485595703125,0.2825775146484375,0.897979736328125
-0.957916259765625,4.99261474609375,8.30584716796875,0.212493896484375,0.2900390625,0.9022369384765625
-0.7376556396484375,5.186553955078125,8.00897216796875,0.191192626953125,0.25274658203125,0.8915863037109375
-0.5700531005859375,5.270355224609375,7.9227752685546875,0.1645660400390625,0.2367706298828125,0.886260986328125
-0.2779541015625,5.2224578857421875,7.9179840087890625,0.10809326171875,0.279388427734375,0.862823486328125
-0.239654541015625,5.124298095703125,7.94671630859375,0.0846710205078125,0.3177337646484375,0.839385986328125
-0.313873291015625,4.9902191162109375,8.224441528320312,0.03033447265625,0.3976287841796875,0.782928466796875
-0.388092041015625,4.94952392578125,8.334579467773438,0.007965087890625,0.3986968994140625,0.7584381103515625
-0.3330230712890625,4.9207916259765625,8.660186767578125,-0.027191162109375,0.3262481689453125,0.7243499755859375
0.035675048828125,4.858551025390625,8.90679931640625,0.0377960205078125,0.2825775146484375,0.6987762451171875
0.299041748046875,4.932769775390625,8.5380859375,0.19970703125,0.3646087646484375,0.6764068603515625
0.93829345703125,5.17218017578125,7.6953277587890625,0.1688232421875,0.5137481689453125,0.636993408203125
0.921539306640625,5.1626129150390625,7.8796844482421875,0.1283416748046875,0.5233306884765625,0.60076904296875
0.8305511474609375,5.2320404052734375,7.8509521484375,0.1059722900390625,0.5020294189453125,0.5826568603515625
0.7204132080078125,5.2799224853515625,7.867706298828125,0.0686798095703125,0.45941162109375,0.5709381103515625
0.65338134765625,5.19134521484375,8.205291748046875,-0.002685546875,0.3976287841796875,0.5720062255859375
0.842529296875,5.050079345703125,8.310638427734375,0.019683837890625,0.4093475341796875,0.5837249755859375
0.9478759765625,5.006988525390625,8.140640258789062,0.052703857421875,0.4306488037109375,0.578399658203125
1.0340576171875,5.0141754150390625,7.929962158203125,0.0697479248046875,0.446624755859375,0.5645599365234375
1.1058807373046875,5.1410675048828125,7.908416748046875,0.040985107421875,0.439178466796875,0.521942138671875
1.1058807373046875,5.143463134765625,8.085586547851562,0.0228729248046875,0.4381103515625,0.500640869140625
1.017303466796875,5.1195068359375,8.372879028320312,0.0463104248046875,0.457275390625,0.4739990234375
0.943084716796875,5.102752685546875,8.12628173828125,0.099578857421875,0.491363525390625,0.463348388671875
0.890411376953125,5.165008544921875,7.6641998291015625,0.0729522705078125,0.460479736328125,0.444183349609375
0.5935211181640625,5.2535858154296875,7.5253448486328125,-0.060211181640625,0.333709716796875,0.40582275390625
0.0596160888671875,5.461883544921875,8.51654052734375,-0.1592864990234375,0.2048187255859375,0.4004974365234375
-0.46710205078125,5.6749725341796875,8.332183837890625,0.0250091552734375,0.58404541015625,0.4473724365234375
1.1633453369140625,5.1626129150390625,6.991424560546875,-0.276458740234375,0.230377197265625,0.7552337646484375
1.429107666015625,5.366119384765625,7.6426544189453125,-0.4788665771484375,-0.1392669677734375,0.5507049560546875
1.12982177734375,5.20330810546875,8.068817138671875,-0.5001678466796875,-0.0955963134765625,0.4729461669921875
0.842529296875,5.2631683349609375,8.392044067382812,-0.4543609619140625,0.0556793212890625,0.428192138671875
0.119476318359375,5.3493499755859375,8.475830078125,-0.299896240234375,0.3603363037109375,0.4388580322265625
0.351715087890625,5.435546875,8.0616455078125,-0.184844970703125,0.4530181884765625,0.531524658203125
0.61029052734375,5.5073699951171875,7.8126373291015625,-0.1827239990234375,0.3283843994140625,0.531524658203125
0.5600128173828125,5.4762420654296875,7.7958831787109375,-0.2168121337890625,0.3326416015625,0.47613525390625
0.435516357421875,5.4546966552734375,7.7384185791015625,-0.2370452880859375,0.3518218994140625,0.4505767822265625
0.150604248046875,5.4690704345703125,7.9275665283203125,-0.309478759765625,0.3070831298828125,0.409027099609375
0.0739898681640625,5.4810333251953125,8.550048828125,-0.3158721923828125,0.2346343994140625,0.41009521484375
0.17694091796875,5.4642791748046875,8.5811767578125,-0.1816558837890625,0.2932281494140625,0.431396484375
0.29425048828125,5.524139404296875,8.090362548828125,-0.083648681640625,0.3305206298828125,0.431396484375
0.3780517578125,5.567230224609375,7.867706298828125,-0.0889739990234375,0.288970947265625,0.397308349609375
0.3181915283203125,5.579193115234375,7.836578369140625,-0.09429931640625,0.2836456298828125,0.36322021484375
0.014129638671875,5.5600433349609375,7.719268798828125,-0.0868377685546875,0.34649658203125,0.3536376953125
-0.08642578125,5.5073699951171875,7.8748931884765625,-0.1230621337890625,0.3422393798828125,0.376007080078125
-0.6131439208984375,5.811431884765625,7.7527923583984375,0.22528076171875,0.97393798828125,0.4143524169921875
-0.5269622802734375,6.031707763671875,5.3298492431640625,0.2891998291015625,1.34039306640625,0.56561279296875
0.10272216796875,5.6917266845703125,6.3162689208984375,-0.3041534423828125,0.3912353515625,0.5496368408203125
0.8449249267578125,5.4858245849609375,7.159027099609375,-0.55023193359375,-0.099853515625,0.4857177734375
0.193695068359375,5.4331512451171875,9.27789306640625,-0.3744659423828125,0.1323699951171875,0.1661376953125
-0.620330810546875,5.5337066650390625,8.964248657226562,-0.046356201171875,0.5457000732421875,0.2630767822265625
-0.5269622802734375,5.60552978515625,8.5380859375,0.0569610595703125,0.586181640625,0.3419189453125
0.2224273681640625,5.7228546142578125,7.8126373291015625,0.0686798095703125,0.3954925537109375,0.406890869140625
0.6007080078125,5.789886474609375,7.7264556884765625,0.0132904052734375,0.2666015625,0.3813323974609375
0.7730865478515625,5.8329925537109375,7.9323577880859375,-0.069793701171875,0.1419677734375,0.2716064453125
0.3445281982421875,5.7515869140625,8.250778198242188,-0.0676727294921875,0.18670654296875,0.19384765625
0.023712158203125,5.737213134765625,8.4207763671875,-0.0303802490234375,0.2037506103515625,0.1778564453125
0.141021728515625,5.756378173828125,8.607513427734375,-0.026123046875,0.10467529296875,0.1853179931640625
0.4235382080078125,5.7539825439453125,9.004959106445312,-0.0101470947265625,0.0109405517578125,0.159759521484375
0.3038330078125,5.799468994140625,9.194091796875,0.0803985595703125,0.0652618408203125,0.1043548583984375
0.18890380859375,5.8808746337890625,9.103118896484375,0.1272735595703125,0.0897674560546875,0.0915679931640625
-0.1199493408203125,5.8880462646484375,9.749557495117188,0.18798828125,0.1579437255859375,0.0851898193359375
-1.2883148193359375,5.497802734375,7.1039581298828125,0.715301513671875,1.55450439453125,0.17999267578125
-1.956298828125,5.48822021484375,5.8517913818359375,0.417022705078125,1.395782470703125,0.3025054931640625
-1.24761962890625,4.3701324462890625,7.8078460693359375,-0.346771240234375,0.09722900390625,0.305694580078125
-0.742431640625,3.3932952880859375,10.419921875,-0.6610260009765625,-0.5621795654296875,-0.0330657958984375
-1.4918212890625,3.43878173828125,10.522872924804688,-0.483123779296875,-0.3182373046875,-0.1438446044921875
-3.119873046875,3.7620086669921875,9.89080810546875,-0.084716796875,0.222930908203125,-0.1065673828125
-3.524505615234375,3.7476348876953125,9.48858642578125,0.0569610595703125,0.3518218994140625,0.0159454345703125
-2.700897216796875,4.0732421875,8.806228637695312,0.238067626953125,0.3859100341796875,0.3088836669921875
-1.29071044921875,4.27435302734375,7.96826171875,0.1144866943359375,0.425323486328125,0.39837646484375
-1.6474456787109375,4.171417236328125,8.471054077148438,-0.0069427490234375,0.37738037109375,0.40582275390625
-1.666595458984375,4.0181732177734375,8.81341552734375,-0.0570220947265625,0.2719268798828125,0.430328369140625
-1.5899810791015625,4.0325469970703125,8.897216796875,-0.048492431640625,0.2261199951171875,0.432464599609375
-1.42718505859375,4.1043701171875,8.478225708007812,0.019683837890625,0.209075927734375,0.406890869140625
-1.338592529296875,4.1953582763671875,8.097549438476562,0.03033447265625,0.2154693603515625,0.3781280517578125
-1.3673248291015625,4.2504119873046875,7.8078460693359375,-0.03570556640625,0.2133331298828125,0.30462646484375
-1.180572509765625,4.2647857666015625,8.415985107421875,-0.081512451171875,0.1941680908203125,0.237518310546875
-0.969879150390625,4.427581787109375,8.396820068359375,0.040985107421875,0.2080078125,0.1384429931640625
-0.936370849609375,4.5808258056640625,8.023330688476562,0.0985107421875,0.1930999755859375,0.0724029541015625
-1.0201568603515625,4.985443115234375,7.5157623291015625,0.0836029052734375,0.0460968017578125,-0.072479248046875
-1.5037994384765625,5.145843505859375,7.6211090087890625,0.029266357421875,-0.05511474609375,-0.150238037109375
-1.7144775390625,5.1817626953125,7.64984130859375,0.031402587890625,-0.04339599609375,-0.1438446044921875
-1.855743408203125,5.224853515625,7.6378631591796875,0.0516357421875,0.0205230712890625,-0.0948486328125
-1.728851318359375,5.282318115234375,7.6857452392578125,0.045257568359375,0.0066680908203125,-0.0628814697265625
-1.7097015380859375,5.38287353515625,7.6259002685546875,0.0047760009765625,-0.1019744873046875,-0.084197998046875
-1.84136962890625,5.461883544921875,7.750396728515625,-0.061279296875,-0.22662353515625,-0.09271240234375
-1.79827880859375,5.361328125,8.035308837890625,-0.0634002685546875,-0.2543182373046875,-0.0554351806640625
-1.654632568359375,5.8258056640625,6.4599151611328125,0.07720947265625,-0.4971923828125,-0.03839111328125
-1.03692626953125,5.89044189453125,6.4886474609375,-0.049560546875,-0.2532501220703125,-0.00537109375
-0.67779541015625,5.514556884765625,7.2260589599609375,-0.1209259033203125,-0.0487213134765625,-0.072479248046875
-0.8717193603515625,5.143463134765625,8.902008056640625,-0.140106201171875,-0.112640380859375,-0.219482421875
-1.0441131591796875,5.38287353515625,9.438308715820312,0.01861572265625,-0.29266357421875,-0.25250244140625
-0.8477783203125,5.509765625,9.402389526367188,0.123016357421875,-0.246856689453125,-0.2386627197265625
-1.0177764892578125,5.4020233154296875,8.638641357421875,0.2785491943359375,-0.1722869873046875,-0.267425537109375
-1.30267333984375,5.449920654296875,8.404006958007812,0.2284698486328125,-0.2532501220703125,-0.2972412109375
-1.168609619140625,5.440338134765625,9.0145263671875,0.13153076171875,-0.4332733154296875,-0.3153533935546875
-1.3146514892578125,5.51934814453125,8.143035888671875,0.3360748291015625,-0.6378173828125,-0.40057373046875
-2.0281219482421875,5.6749725341796875,7.4008331298828125,0.442596435546875,-0.9467315673828125,-0.43359375
-1.0728302001953125,6.0341033935546875,7.5636444091796875,0.1411285400390625,-0.40557861328125,-0.323883056640625
-0.6993408203125,5.483428955078125,8.202896118164062,0.07720947265625,-0.19891357421875,-0.3047027587890625
-1.1733856201171875,4.83221435546875,8.916366577148438,0.1453857421875,-0.00823974609375,-0.3302764892578125
-1.1255035400390625,5.076416015625,8.471054077148438,0.1411285400390625,-0.0455169677734375,-0.34197998046875
-1.1662139892578125,4.7244720458984375,8.650619506835938,-0.0325164794921875,-0.23406982421875,-0.380340576171875
-1.094390869140625,4.4180145263671875,8.911575317382812,-0.1209259033203125,-0.385345458984375,-0.4101715087890625
-1.0584716796875,4.066070556640625,8.897216796875,-0.085784912109375,-0.3768157958984375,-0.4186859130859375
-0.8932647705078125,4.1067657470703125,8.667373657226562,0.00689697265625,-0.28094482421875,-0.3984527587890625
-0.6753997802734375,4.2528076171875,8.583572387695312,0.0516357421875,-0.246856689453125,-0.3845977783203125
-0.409637451171875,4.415618896484375,8.384857177734375,0.1262054443359375,-0.1733551025390625,-0.3792724609375
-0.2588043212890625,4.6095428466796875,8.078399658203125,0.123016357421875,-0.0721588134765625,-0.3824615478515625
-0.1534576416015625,4.7196807861328125,8.298660278320312,0.0623016357421875,-0.05511474609375,-0.378204345703125
-0.1534576416015625,4.765167236328125,8.377670288085938,0.0399169921875,-0.0700225830078125,-0.368621826171875
-0.3641510009765625,4.73883056640625,8.0616455078125,0.0164947509765625,-0.098785400390625,-0.354766845703125
-0.704132080078125,4.6191253662109375,7.877288818359375,-0.0676727294921875,-0.111572265625,-0.307891845703125
-0.756805419921875,4.5568695068359375,8.303451538085938,-0.1592864990234375,-0.1381988525390625,-0.239715576171875
-0.366546630859375,4.3078765869140625,8.746383666992188,-0.069793701171875,-0.170166015625,-0.1885833740234375
-0.060089111328125,4.34619140625,7.94671630859375,0.0825347900390625,-0.1637725830078125,-0.22906494140625
-0.0409393310546875,4.468292236328125,7.6953277587890625,0.0942535400390625,-0.164825439453125,-0.2620849609375
-0.06488037109375,4.779541015625,7.70489501953125,0.067626953125,-0.1499176025390625,-0.3270721435546875
-0.0888214111328125,4.9830474853515625,8.092758178710938,0.087860107421875,-0.076416015625,-0.3611602783203125
-0.25640869140625,5.1314849853515625,7.982635498046875,0.169891357421875,-0.0007781982421875,-0.3643646240234375
-0.431182861328125,5.1961212158203125,7.5851898193359375,0.165618896484375,-0.007171630859375,-0.3558349609375
-0.6873626708984375,5.287109375,7.609130859375,0.076141357421875,-0.1062469482421875,-0.345184326171875
-0.8334197998046875,5.334991455078125,7.6259002685546875,0.0345916748046875,-0.133941650390625,-0.3260040283203125
-2.1693878173828125,5.9550933837890625,4.8701629638671875,-0.1006927490234375,-0.0018463134765625,-0.19818115234375
-1.0393218994140625,5.4642791748046875,7.443939208984375,-0.365936279296875,0.2389068603515625,0.0361785888671875
-0.2731781005859375,5.399627685546875,8.3154296875,-0.333984375,0.15155029296875,0.06707763671875
0.0428619384765625,5.3230133056640625,8.511749267578125,-0.17205810546875,-0.077484130859375,-0.0298614501953125
-0.42401123046875,5.461883544921875,7.9610748291015625,-0.1017608642578125,-0.1531219482421875,-0.084197998046875
-0.756805419921875,5.5552520751953125,7.127899169921875,-0.0889739990234375,-0.1296844482421875,-0.06182861328125
-0.5915985107421875,5.6821441650390625,7.5732269287109375,-0.1582183837890625,0.0130615234375,0.0127410888671875
-0.3856964111328125,5.6821441650390625,8.071212768554688,-0.1582183837890625,0.1909637451171875,0.0830535888671875
-0.409637451171875,5.662994384765625,8.4327392578125,-0.118804931640625,0.183502197265625,0.075592041015625
-0.7113189697265625,5.6151123046875,8.6865234375,-0.050628662109375,0.2197265625,0.07666015625
-1.063262939453125,5.4906158447265625,9.040863037109375,0.0164947509765625,0.321990966796875,0.1086273193359375
-1.1087493896484375,5.514556884765625,9.388031005859375,0.0985107421875,0.3763275146484375,0.17041015625
-0.90045166015625,5.5863800048828125,9.364089965820312,0.1688232421875,0.3677978515625,0.20556640625
-0.8358154296875,5.7755279541015625,9.304229736328125,0.19012451171875,0.3166656494140625,0.19384765625
-1.096771240234375,5.868896484375,9.35211181640625,0.23486328125,0.3166656494140625,0.21514892578125
-1.089599609375,5.5384979248046875,8.70806884765625,0.233795166015625,0.3997650146484375,0.2566986083984375
-1.190155029296875,5.176971435546875,8.27471923828125,0.10809326171875,0.4530181884765625,0.239654541015625
-1.6905364990234375,4.5808258056640625,7.9969940185546875,-0.1156005859375,0.434906005859375,0.15869140625
-2.030517578125,4.2911224365234375,8.056854248046875,-0.2455596923828125,0.345428466796875,0.0958404541015625
-2.3704986572265625,4.02056884765625,8.2100830078125,-0.36700439453125,0.211212158203125,0.0276641845703125
-3.028900146484375,3.750030517578125,9.052841186523438,-0.506561279296875,-0.088134765625,-0.0778045654296875
-3.1629791259765625,3.6087646484375,9.8692626953125,-0.3531646728515625,-0.1850738525390625,-0.0554351806640625
-2.7296295166015625,3.7045440673828125,9.625045776367188,0.033538818359375,-0.0678863525390625,0.02020263671875
-2.5189361572265625,3.8098907470703125,9.27789306640625,0.2274169921875,0.027984619140625,0.0511016845703125
-2.3657073974609375,4.130706787109375,8.011367797851562,0.485198974609375,0.1813812255859375,0.0841217041015625
-2.4135894775390625,4.552093505859375,6.9818572998046875,0.442596435546875,0.119598388671875,0.0937042236328125
-2.5380859375,4.817840576171875,6.790313720703125,0.20184326171875,-0.0465850830078125,0.0969085693359375
-2.660186767578125,4.817840576171875,7.3146514892578125,-0.027191162109375,-0.1414031982421875,0.1192779541015625
-2.9570770263671875,4.5664520263671875,7.7815093994140625,-0.1038818359375,-0.089202880859375,0.1757354736328125
-3.0169219970703125,4.5089874267578125,7.7144775390625,-0.1028289794921875,-0.044464111328125,0.21514892578125
-3.1222686767578125,4.44195556640625,7.2404327392578125,-0.1464996337890625,-0.030609130859375,0.2790679931640625
-2.87567138671875,4.446746826171875,7.096771240234375,-0.297760009765625,-0.176544189453125,0.3323211669921875
-2.174163818359375,4.3701324462890625,7.4319610595703125,-0.39044189453125,-0.272430419921875,0.35150146484375
-1.285919189453125,4.4658966064453125,7.3984375,-0.358489990234375,-0.199981689453125,0.2652130126953125
-1.1135406494140625,4.607147216796875,7.5061798095703125,-0.344635009765625,-0.22235107421875,0.14483642578125
-1.0872039794921875,4.7412261962890625,7.4056243896484375,-0.333984375,-0.282012939453125,0.0106201171875
-1.264373779296875,5.0692291259765625,7.27154541015625,-0.391510009765625,-0.3576507568359375,-0.1236114501953125
-1.5253448486328125,5.1314849853515625,7.3888702392578125,-0.4415740966796875,-0.39599609375,-0.172607421875
-1.91558837890625,5.1003570556640625,7.601959228515625,-0.4895172119140625,-0.4236907958984375,-0.197113037109375
-2.427947998046875,5.0357208251953125,8.3154296875,-0.5204010009765625,-0.430084228515625,-0.149169921875
-2.480621337890625,4.944732666015625,8.674560546875,-0.47991943359375,-0.39599609375,-0.093780517578125
-2.3178253173828125,4.8824920654296875,8.916366577148438,-0.299896240234375,-0.2639007568359375,0.03192138671875
-1.846160888671875,4.87530517578125,8.497390747070312,-0.1582183837890625,-0.1957244873046875,0.11181640625
-1.59716796875,4.9160003662109375,8.461471557617188,-0.1326446533203125,-0.223419189453125,0.12139892578125
-1.273956298828125,4.9998016357421875,8.511749267578125,-0.096435546875,-0.3011932373046875,0.101165771484375
-0.926788330078125,5.093170166015625,8.669769287109375,-0.026123046875,-0.336334228515625,0.0851898193359375
-0.6801910400390625,5.076416015625,8.42315673828125,0.08892822265625,-0.3086395263671875,0.066009521484375
-0.5389251708984375,5.1482391357421875,8.076004028320312,0.113433837890625,-0.2969207763671875,0.0148773193359375
-0.641876220703125,5.251190185546875,8.636245727539062,0.0718841552734375,-0.3182373046875,-0.046905517578125
-0.6179351806640625,5.1410675048828125,9.064804077148438,0.13580322265625,-0.2319488525390625,-0.0639495849609375
-0.4335784912109375,5.0883941650390625,8.885238647460938,0.1826629638671875,-0.225555419921875,-0.0969696044921875
-0.23486328125,5.0620574951171875,8.7918701171875,0.1294097900390625,-0.317169189453125,-0.183258056640625
-0.36175537109375,4.8465728759765625,9.368865966796875,0.05377197265625,-0.350189208984375,-0.2940521240234375
-0.8860931396484375,4.765167236328125,10.012908935546875,0.132598876953125,-0.24578857421875,-0.3611602783203125
-1.22845458984375,4.75799560546875,9.71124267578125,0.261505126953125,-0.164825439453125,-0.3270721435546875
-1.211700439453125,4.8034820556640625,9.332962036132812,0.30303955078125,-0.164825439453125,-0.2738037109375
-1.0728302001953125,4.796295166015625,9.048049926757812,0.2764129638671875,-0.1381988525390625,-0.20562744140625
-1.010589599609375,4.5999755859375,8.969039916992188,0.2423248291015625,-0.1041107177734375,-0.164093017578125
-0.63470458984375,4.1666259765625,9.100723266601562,0.1613616943359375,-0.063629150390625,-0.0969696044921875
-0.8382110595703125,3.675811767578125,9.471817016601562,0.71636962890625,0.906829833984375,-0.0522308349609375
-0.9986114501953125,4.0445098876953125,5.7368621826171875,0.5959930419921875,0.6639404296875,0.0042266845703125
-0.15106201171875,3.6734161376953125,7.98980712890625,-0.049560546875,-0.4354095458984375,-0.039459228515625
0.7371826171875,3.6207427978515625,7.731231689453125,-0.0559539794921875,-0.3192901611328125,-0.219482421875
-0.483856201171875,3.7620086669921875,8.250778198242188,-0.0431671142578125,-0.0252838134765625,-0.312164306640625
-1.04888916015625,3.788330078125,8.626663208007812,-0.014404296875,0.540374755859375,-0.3036346435546875
-0.87890625,4.152252197265625,9.143814086914062,0.0505828857421875,0.606414794921875,-0.1427764892578125
-0.371337890625,4.2121124267578125,9.25634765625,0.1421966552734375,0.472198486328125,-0.0287933349609375
-0.1797943115234375,4.37969970703125,8.353729248046875,0.2039794921875,0.382720947265625,0.0159454345703125
-0.46710205078125,4.5041961669921875,7.676177978515625,0.031402587890625,0.2612762451171875,0.04364013671875
-0.57244873046875,4.37969970703125,8.439926147460938,-0.19976806640625,0.119598388671875,0.120330810546875
-0.5868072509765625,4.0684661865234375,9.21563720703125,-0.194427490234375,0.173919677734375,0.2183380126953125
-0.4910430908203125,3.8912811279296875,9.086349487304688,-0.04742431640625,0.3635406494140625,0.2875823974609375
-0.409637451171875,4.0852203369140625,8.7918701171875,0.10064697265625,0.31134033203125,0.260955810546875
0.0596160888671875,4.236053466796875,8.317825317382812,0.1219482421875,0.1419677734375,0.1874542236328125
0.215240478515625,4.2767486572265625,8.0616455078125,0.1187591552734375,0.0886993408203125,0.1267242431640625
0.2391815185546875,4.477874755859375,7.757568359375,0.10064697265625,0.0641937255859375,-0.0074920654296875
-0.0146026611328125,4.657440185546875,7.6905364990234375,0.0985107421875,0.140899658203125,-0.115081787109375
-0.2803497314453125,4.753204345703125,7.8174285888671875,0.10809326171875,0.2026824951171875,-0.1470489501953125
-0.787933349609375,5.0309295654296875,7.84136962890625,0.1613616943359375,0.347564697265625,-0.1331939697265625
-0.926788330078125,5.155426025390625,7.551666259765625,0.1645660400390625,0.378448486328125,-0.10443115234375
-1.00579833984375,5.23443603515625,7.238037109375,0.11981201171875,0.3507537841796875,-0.0788726806640625
-1.096771240234375,5.2631683349609375,7.21649169921875,-0.08258056640625,0.1675262451171875,-0.0628814697265625
-1.40802001953125,5.2009124755859375,7.8437652587890625,-0.233856201171875,0.0226593017578125,-0.0426483154296875
-1.465484619140625,5.186553955078125,8.133468627929688,-0.2562255859375,0.0109405517578125,-0.0106964111328125
-1.3721160888671875,5.08599853515625,8.660186767578125,-0.1358489990234375,-0.0828094482421875,0.0691986083984375
-1.8629302978515625,5.102752685546875,8.23162841796875,0.144317626953125,-0.272430419921875,0.0724029541015625
-1.4319610595703125,5.81622314453125,6.2109222412109375,0.1049041748046875,0.347564697265625,0.26202392578125
-0.8477783203125,5.509765625,6.2372589111328125,-0.046356201171875,0.4072113037109375,0.329132080078125
-0.23486328125,5.1410675048828125,7.5803985595703125,-0.335052490234375,0.3646087646484375,0.2993011474609375
-0.0984039306640625,4.83221435546875,8.224441528320312,-0.3393096923828125,0.21759033203125,0.2332611083984375
-0.4024658203125,5.27752685546875,8.808624267578125,-0.2114715576171875,0.1249237060546875,0.0915679931640625
-0.6849822998046875,5.198516845703125,8.487808227539062,-0.1369171142578125,0.131317138671875,0.0585479736328125
-0.979461669921875,5.4116058349609375,8.00897216796875,-0.1219940185546875,0.0663299560546875,0.0287322998046875
-1.2356414794921875,5.5001983642578125,8.3896484375,-0.186981201171875,0.035430908203125,0.04364013671875
-1.2691650390625,5.583984375,8.765533447265625,-0.1827239990234375,0.0439605712890625,0.0702667236328125
-1.2045135498046875,5.60552978515625,9.0025634765625,-0.0911102294921875,0.0993499755859375,0.1395111083984375
-0.895660400390625,5.619903564453125,8.624282836914062,0.0026397705078125,0.1121368408203125,0.19171142578125
-0.6753997802734375,5.598358154296875,8.535690307617188,-0.0335845947265625,0.0407562255859375,0.188507080078125
-0.419219970703125,5.4666748046875,9.0767822265625,0.087860107421875,0.0418243408203125,0.2012939453125
-0.45751953125,5.471466064453125,8.753570556640625,0.1144866943359375,0.027984619140625,0.181060791015625
-0.5604705810546875,5.41400146484375,8.978622436523438,0.0867919921875,-0.0455169677734375,0.1512298583984375
-0.8022918701171875,5.145843505859375,9.210861206054688,0.1304779052734375,-0.044464111328125,0.12139892578125
-1.180572509765625,4.8633270263671875,9.007354736328125,0.2199554443359375,0.025848388671875,0.1277923583984375
-1.2715606689453125,4.6622161865234375,8.693710327148438,0.2401885986328125,0.0535430908203125,0.1395111083984375
-1.412811279296875,4.3174591064453125,8.183746337890625,0.1847991943359375,0.0428924560546875,0.1288604736328125
-1.561248779296875,4.1953582763671875,8.040084838867188,0.120880126953125,0.0322418212890625,0.1075592041015625
-1.94671630859375,4.1115570068359375,8.202896118164062,-0.0293121337890625,-0.054046630859375,0.0617523193359375
-2.3465576171875,4.0900115966796875,8.638641357421875,-0.1092071533203125,-0.225555419921875,0.0574798583984375
-2.6099090576171875,4.5401153564453125,9.993759155273438,0.0505828857421875,-0.120086669921875,0.120330810546875
-2.8636932373046875,4.2073211669921875,8.131072998046875,0.4127655029296875,0.5137481689453125,0.2247314453125
-2.3345794677734375,4.6837615966796875,6.2013397216796875,0.42767333984375,0.756622314453125,0.428192138671875
-1.211700439453125,4.2025299072265625,7.233245849609375,-0.005889892578125,-0.006103515625,0.442047119140625
-1.3792877197265625,4.130706787109375,8.9403076171875,-0.2913665771484375,-0.509979248046875,-0.01495361328125
-2.33697509765625,4.21929931640625,8.669769287109375,-0.1038818359375,-0.1062469482421875,0.0223388671875
-2.59075927734375,4.2384490966796875,8.353729248046875,-0.027191162109375,0.0886993408203125,0.1895751953125
-1.771942138671875,4.3078765869140625,7.920379638671875,-0.036773681640625,0.0343780517578125,0.3206024169921875
-0.9507293701171875,4.33660888671875,7.6689910888671875,-0.1230621337890625,-0.076416015625,0.3110198974609375
-0.7448272705078125,4.300689697265625,7.6785736083984375,-0.173126220703125,-0.0913238525390625,0.2747955322265625
-0.5341339111328125,4.1905670166015625,8.0616455078125,-0.2700653076171875,-0.0391387939453125,0.178924560546875
-0.6275177001953125,4.245635986328125,8.878067016601562,-0.2817840576171875,-0.01995849609375,0.0724029541015625
-0.67779541015625,4.425201416015625,9.177337646484375,-0.1102752685546875,-0.1062469482421875,-0.0319976806640625
-0.76397705078125,4.511383056640625,9.0025634765625,0.0250091552734375,-0.110504150390625,-0.09271240234375
-0.9962158203125,4.7148895263671875,8.384857177734375,0.1049041748046875,-0.0923919677734375,-0.1310577392578125
-1.15423583984375,4.7891082763671875,8.128677368164062,0.097442626953125,-0.1158294677734375,-0.1417236328125
-1.2883148193359375,4.848968505859375,8.025726318359375,0.0250091552734375,-0.1935882568359375,-0.1417236328125
-1.0919952392578125,4.9351654052734375,8.308242797851562,-0.0175933837890625,-0.24578857421875,-0.1225433349609375
-0.524566650390625,4.913604736328125,8.310638427734375,0.064422607421875,-0.225555419921875,-0.15130615234375
-0.63470458984375,5.1147308349609375,8.751174926757812,0.099578857421875,-0.2404632568359375,-0.2226715087890625
-1.6043548583984375,5.2368316650390625,7.2188720703125,0.5160980224609375,0.4753875732421875,-0.1928558349609375
-1.6785736083984375,5.430755615234375,5.9308013916015625,0.5384674072265625,0.6266632080078125,-0.12786865234375
-1.312255859375,5.2057037353515625,6.3521728515625,0.1049041748046875,0.082305908203125,-0.0756683349609375
-0.6586456298828125,5.028533935546875,6.842987060546875,-0.1102752685546875,-0.2543182373046875,-0.0991058349609375
0.2176361083984375,4.93994140625,7.9395294189453125,-0.381927490234375,-0.68255615234375,-0.312164306640625
-1.2140960693359375,5.1266937255859375,8.607513427734375,-0.21893310546875,-0.383209228515625,-0.51348876953125
-1.69293212890625,5.1410675048828125,8.396820068359375,-0.0666046142578125,-0.1872100830078125,-0.4144287109375
-1.2093048095703125,5.2368316650390625,8.267547607421875,0.0271453857421875,-0.1605682373046875,-0.2834014892578125
-0.589202880859375,5.3302001953125,7.7480010986328125,0.052703857421875,-0.2202301025390625,-0.2716827392578125
-0.4862518310546875,5.366119384765625,7.59716796875,0.0164947509765625,-0.258575439453125,-0.3142852783203125
-0.75201416015625,5.3493499755859375,7.898834228515625,-0.085784912109375,-0.3299560546875,-0.4069671630859375
-1.2404327392578125,5.270355224609375,8.396820068359375,-0.11773681640625,-0.3683013916015625,-0.427215576171875
-1.2931060791015625,5.217681884765625,8.712860107421875,-0.0687255859375,-0.3800201416015625,-0.368621826171875
-1.0584716796875,5.2895050048828125,8.894821166992188,0.0271453857421875,-0.3778839111328125,-0.3281402587890625
-0.9770660400390625,5.1817626953125,8.787078857421875,0.165618896484375,-0.3342132568359375,-0.319610595703125
-1.0129852294921875,5.133880615234375,8.473434448242188,0.2284698486328125,-0.3086395263671875,-0.3206787109375
-0.93157958984375,5.11712646484375,7.836578369140625,0.22314453125,-0.3235626220703125,-0.331329345703125
-0.8238372802734375,5.1195068359375,8.164596557617188,0.10064697265625,-0.4364776611328125,-0.36541748046875
-0.7376556396484375,5.071624755859375,8.755950927734375,0.097442626953125,-0.4737548828125,-0.399505615234375
-0.86932373046875,4.9878387451171875,8.636245727539062,0.2178192138671875,-0.359771728515625,-0.4261474609375
-1.001007080078125,4.985443115234375,8.444717407226562,0.25830078125,-0.3001251220703125,-0.4389190673828125
-1.08001708984375,5.1051483154296875,8.327392578125,0.2551116943359375,-0.293731689453125,-0.4538421630859375
-1.0464935302734375,5.212890625,8.427947998046875,0.224212646484375,-0.3352813720703125,-0.4644927978515625
-1.010589599609375,5.409210205078125,8.741592407226562,0.1858673095703125,-0.4375457763671875,-0.4985809326171875
-1.8964385986328125,5.9024200439453125,8.87567138671875,0.4564361572265625,-0.1041107177734375,-0.49432373046875
-2.267547607421875,6.0724029541015625,6.072052001953125,0.58001708984375,0.504150390625,-0.289794921875
-1.6426544189453125,5.588775634765625,6.7544097900390625,0.0708160400390625,-0.12115478515625,-0.1790008544921875
-0.86932373046875,5.2631683349609375,7.5277252197265625,-0.1507568359375,-0.4812164306640625,-0.175811767578125
-0.3162689208984375,5.186553955078125,8.794265747070312,-0.3052215576171875,-0.7230377197265625,-0.313232421875
-0.6059722900390625,4.9950103759765625,9.026504516601562,-0.255157470703125,-0.578155517578125,-0.3483734130859375
-1.25,4.8896636962890625,9.103118896484375,-0.0889739990234375,-0.2308807373046875,-0.319610595703125
-1.2356414794921875,4.5879974365234375,9.198883056640625,0.1528472900390625,-0.0497894287109375,-0.1118927001953125
-0.2731781005859375,4.532928466796875,8.344161987304688,0.153900146484375,-0.088134765625,-0.140655517578125
-0.4479522705078125,4.6502532958984375,8.123886108398438,0.040985107421875,-0.2436676025390625,-0.227996826171875
-0.5652618408203125,4.62152099609375,8.363311767578125,-0.0218658447265625,-0.3011932373046875,-0.2482452392578125
-0.5604705810546875,4.520965576171875,8.815811157226562,-0.025054931640625,-0.2713623046875,-0.2130889892578125
-0.1893768310546875,4.5496978759765625,8.626663208007812,0.019683837890625,-0.2873382568359375,-0.1811370849609375
-0.0481109619140625,4.7412261962890625,10.156570434570312,0.06549072265625,-0.2766876220703125,-0.184326171875
-0.8645477294921875,4.6287078857421875,7.238037109375,0.7344818115234375,0.75555419921875,-0.1001739501953125
-0.9219970703125,5.018951416015625,5.3921051025390625,0.6876068115234375,0.8279876708984375,-0.023468017578125
-0.4694976806640625,4.722076416015625,6.3689422607421875,-0.01654052734375,-0.1296844482421875,0.0361785888671875
0.4019927978515625,4.6670074462890625,7.1087493896484375,-0.278594970703125,-0.5035858154296875,0.0265960693359375
0.57916259765625,4.542510986328125,8.514144897460938,-0.4298553466796875,-0.610107421875,-0.148101806640625
0.129058837890625,4.5544891357421875,8.973831176757812,-0.20721435546875,-0.0583038330078125,-0.1811370849609375
-1.0824127197265625,4.57843017578125,8.7918701171875,-0.0793914794921875,0.1472930908203125,-0.1310577392578125
-1.238037109375,4.62152099609375,8.468658447265625,0.033538818359375,0.2389068603515625,0.042572021484375
-0.428802490234375,4.712493896484375,7.7958831787109375,-0.00054931640625,0.1132049560546875,0.136322021484375
0.04046630859375,4.8226318359375,7.5995635986328125,-0.058074951171875,0.072723388671875,0.1277923583984375
0.10272216796875,4.87530517578125,7.530120849609375,-0.0911102294921875,0.0897674560546875,0.10968017578125
0.0428619384765625,4.8417816162109375,7.63067626953125,-0.1816558837890625,0.13983154296875,0.0809173583984375
0.0691986083984375,4.8346099853515625,8.121490478515625,-0.2572784423828125,0.119598388671875,0.0585479736328125
-0.03375244140625,4.9040374755859375,8.523712158203125,-0.2370452880859375,0.1132049560546875,0.03192138671875
-0.3066864013671875,5.05487060546875,8.523712158203125,-0.1678009033203125,0.1771240234375,0.0233917236328125
-0.598785400390625,5.155426025390625,8.38006591796875,-0.1347808837890625,0.183502197265625,0.0383148193359375
-0.7280731201171875,5.2009124755859375,8.360916137695312,-0.1369171142578125,0.1376953125,0.07879638671875
-0.6849822998046875,5.2416229248046875,8.2412109375,-0.1124114990234375,0.1206512451171875,0.1395111083984375
-0.5628662109375,5.198516845703125,7.8341827392578125,-0.10601806640625,0.1547393798828125,0.190643310546875
-0.46710205078125,5.1195068359375,8.181350708007812,-0.1656646728515625,0.2815093994140625,0.2673492431640625
-0.3856964111328125,5.1530303955078125,8.226837158203125,-0.1454315185546875,0.28790283203125,0.272674560546875
-0.2468414306640625,5.1626129150390625,8.174163818359375,-0.1006927490234375,0.2900390625,0.2630767822265625
-0.3258514404296875,5.150634765625,8.214874267578125,-0.0687255859375,0.2847137451171875,0.1959686279296875
-0.52935791015625,5.2009124755859375,8.327392578125,-0.003753662109375,0.3677978515625,0.202362060546875
-0.6394805908203125,5.2368316650390625,8.341766357421875,0.0356597900390625,0.4178619384765625,0.2194061279296875
-0.725677490234375,5.334991455078125,8.2100830078125,0.087860107421875,0.4753875732421875,0.2673492431640625
-0.682586669921875,5.3852691650390625,8.107131958007812,0.0867919921875,0.458343505859375,0.2886505126953125
-0.6011810302734375,5.409210205078125,8.399215698242188,0.0633544921875,0.3763275146484375,0.314208984375
-0.43597412109375,5.44512939453125,8.401611328125,0.13580322265625,0.3880462646484375,0.33978271484375
-0.239654541015625,5.4666748046875,7.9275665283203125,0.1954498291015625,0.4636688232421875,0.3440399169921875
-0.218109130859375,5.4594879150390625,7.728851318359375,0.1805419921875,0.4849853515625,0.329132080078125
-0.297119140625,5.5025787353515625,7.6402587890625,0.0846710205078125,0.4381103515625,0.2747955322265625
-0.440765380859375,5.524139404296875,8.097549438476562,-0.0453033447265625,0.310272216796875,0.21514892578125
-0.5604705810546875,5.4954071044921875,8.52850341796875,-0.0772552490234375,0.255950927734375,0.19171142578125
-0.7184906005859375,5.48822021484375,9.09832763671875,-0.01654052734375,0.2506256103515625,0.1629486083984375
-0.895660400390625,5.4666748046875,8.966644287109375,0.12408447265625,0.32305908203125,0.15869140625
-1.00579833984375,5.449920654296875,8.377670288085938,0.1709442138671875,0.3443603515625,0.159759521484375
-1.0776214599609375,5.4331512451171875,8.279510498046875,0.109161376953125,0.3188018798828125,0.1533660888671875
-1.1662139892578125,5.3804779052734375,8.303451538085938,0.078277587890625,0.3251953125,0.1490936279296875
-1.3146514892578125,5.3373870849609375,8.313034057617188,0.052703857421875,0.3401031494140625,0.1427154541015625
-1.7958831787109375,5.1362762451171875,8.176559448242188,0.00689697265625,0.3251953125,0.124603271484375
-2.1693878173828125,5.0213470458984375,7.994598388671875,-0.0644683837890625,0.2346343994140625,0.143768310546875
-2.183746337890625,4.7938995361328125,8.085586547851562,-0.1241302490234375,0.197357177734375,0.200225830078125
-2.12628173828125,4.6622161865234375,8.143035888671875,-0.12945556640625,0.22186279296875,0.2311248779296875
-2.0903778076171875,4.3701324462890625,8.310638427734375,-0.1102752685546875,0.2836456298828125,0.272674560546875
-2.12628173828125,4.3126678466796875,8.418380737304688,-0.0974884033203125,0.28790283203125,0.2790679931640625
-2.1693878173828125,4.2863311767578125,8.820602416992188,-0.0751190185546875,0.242095947265625,0.2854461669921875
-2.104736328125,4.2599945068359375,9.081573486328125,-0.0080108642578125,0.1898956298828125,0.2971649169921875
-2.0616455078125,4.1761932373046875,8.846939086914062,0.0803985595703125,0.173919677734375,0.296112060546875
-2.20050048828125,4.1905670166015625,8.42315673828125,0.1262054443359375,0.15155029296875,0.28118896484375
-2.437530517578125,4.331817626953125,8.0736083984375,0.099578857421875,0.0982818603515625,0.27374267578125
-2.499786376953125,4.477874755859375,7.9012298583984375,0.0164947509765625,-0.0039825439453125,0.284393310546875
-2.6937103271484375,4.76995849609375,7.4367523193359375,0.1070404052734375,-0.2766876220703125,0.2897186279296875
-2.617095947265625,5.0740203857421875,5.8254547119140625,0.052703857421875,0.1920318603515625,0.395172119140625
-1.6905364990234375,4.6837615966796875,6.31866455078125,-0.241302490234375,0.4029541015625,0.44097900390625
-1.127899169921875,4.3773040771484375,7.4678802490234375,-0.469268798828125,0.3145294189453125,0.3227386474609375
-1.3721160888671875,4.140289306640625,8.5380859375,-0.541717529296875,0.0194549560546875,0.10968017578125
-1.5660400390625,4.5449066162109375,8.959457397460938,-0.4905853271484375,-0.1307373046875,0.0340576171875
-1.5947723388671875,4.5879974365234375,8.983413696289062,-0.309478759765625,-0.06683349609375,0.0159454345703125
-1.688140869140625,4.839385986328125,8.799057006835938,-0.1156005859375,0.0641937255859375,0.0138092041015625
-1.7384185791015625,4.944732666015625,8.301055908203125,0.009033203125,0.1483612060546875,0.0361785888671875
-1.8006744384765625,5.1051483154296875,7.9060211181640625,-0.01654052734375,0.0215911865234375,0.040435791015625
-1.7312469482421875,5.1697845458984375,7.9371337890625,-0.062347412109375,-0.09027099609375,0.0383148193359375
-1.4990081787109375,5.29669189453125,8.186141967773438,-0.0974884033203125,-0.2308807373046875,0.0223388671875
-1.78631591796875,5.5001983642578125,7.7695465087890625,0.0345916748046875,-0.3661651611328125,0.0010223388671875
-1.973052978515625,5.7635498046875,6.3737335205078125,0.0729522705078125,0.1654052734375,0.07666015625
-1.2308502197265625,5.2631683349609375,7.3050689697265625,-0.1134796142578125,0.0716552734375,0.10223388671875
-1.15423583984375,5.27752685546875,7.9706573486328125,-0.1688690185546875,-0.2425994873046875,-0.0405120849609375
-1.5325164794921875,5.3421783447265625,8.375274658203125,-0.1124114990234375,-0.2617645263671875,-0.140655517578125
-1.9850311279296875,5.4738616943359375,8.360916137695312,0.0250091552734375,-0.1488494873046875,-0.1566314697265625
-1.961090087890625,5.5744171142578125,8.076004028320312,0.1219482421875,-0.1488494873046875,-0.1182861328125
-1.771942138671875,5.6558074951171875,7.58758544921875,0.11981201171875,-0.21063232421875,-0.0969696044921875
-1.69293212890625,5.7013092041015625,7.98980712890625,0.0377960205078125,-0.2543182373046875,-0.107635498046875
-1.60675048828125,5.5911712646484375,8.360916137695312,0.032470703125,-0.30438232421875,-0.1204071044921875
-1.52294921875,5.4642791748046875,8.34893798828125,0.0399169921875,-0.3661651611328125,-0.15130615234375
-1.4056243896484375,5.3110504150390625,8.784683227539062,0.01861572265625,-0.4268951416015625,-0.1928558349609375
-1.3577423095703125,5.2200775146484375,9.201278686523438,0.0367279052734375,-0.41943359375,-0.20989990234375
-1.24761962890625,4.9950103759765625,9.45745849609375,0.1752166748046875,-0.3075714111328125,-0.24078369140625
-1.3433837890625,5.16021728515625,9.143814086914062,0.2859954833984375,-0.2734832763671875,-0.2961883544921875
-1.3721160888671875,5.176971435546875,8.574005126953125,0.43194580078125,-0.044464111328125,-0.1790008544921875
-1.1302947998046875,4.966278076171875,8.308242797851562,0.35205078125,-0.0135650634765625,-0.0948486328125
-0.979461669921875,4.84417724609375,8.24359130859375,0.2902679443359375,-0.016754150390625,-0.06182861328125
-0.65625,4.638275146484375,8.20050048828125,0.1528472900390625,-0.0476531982421875,-0.0287933349609375
-0.610748291015625,4.44195556640625,8.16937255859375,0.0814666748046875,-0.077484130859375,-0.0319976806640625
-0.450347900390625,4.135498046875,8.269927978515625,-0.0442352294921875,-0.2074432373046875,-0.0639495849609375
-0.292327880859375,3.8889007568359375,8.408798217773438,-0.069793701171875,-0.2639007568359375,-0.105499267578125
-0.1103668212890625,3.96551513671875,8.346542358398438,-0.013336181640625,-0.1637725830078125,-0.148101806640625
-0.134307861328125,4.1331024169921875,8.279510498046875,0.0601654052734375,-0.056182861328125,-0.1811370849609375
-0.1941680908203125,4.2336578369140625,8.040084838867188,0.1155548095703125,-0.009307861328125,-0.1907196044921875
-0.23486328125,4.4228057861328125,7.846160888671875,0.1070404052734375,0.00347900390625,-0.1811370849609375
-0.1295166015625,4.489837646484375,7.9131927490234375,0.052703857421875,-0.0124969482421875,-0.1438446044921875
-0.0361480712890625,4.5305328369140625,7.9586944580078125,0.0271453857421875,-0.0252838134765625,-0.1204071044921875
0.1601715087890625,4.5257568359375,7.929962158203125,-0.0090789794921875,-0.0359344482421875,-0.09271240234375
-0.016998291015625,4.51617431640625,7.9060211181640625,-0.0559539794921875,-0.017822265625,-0.095916748046875
-0.514984130859375,4.542510986328125,7.89404296875,-0.1337127685546875,-0.06256103515625,-0.0905914306640625
-0.9603118896484375,4.5089874267578125,9.835739135742188,0.13153076171875,0.2058868408203125,-0.058624267578125
-1.329010009765625,4.5879974365234375,7.3673248291015625,0.3999786376953125,0.789642333984375,0.03192138671875
-1.0441131591796875,4.8633270263671875,5.6841888427734375,0.07720947265625,0.3965606689453125,0.1959686279296875
0.7707061767578125,4.42041015625,7.1302947998046875,-0.506561279296875,-0.5366058349609375,0.15869140625
0.3972015380859375,4.7412261962890625,8.885238647460938,-0.2839202880859375,-0.1168975830078125,-0.2599639892578125
-0.9124298095703125,4.9734649658203125,8.128677368164062,-0.060211181640625,0.32305908203125,-0.207763671875
-0.6921539306640625,5.1362762451171875,7.82940673828125,-0.083648681640625,0.2495574951171875,-0.0479736328125
0.13623046875,5.16021728515625,8.00897216796875,-0.175262451171875,0.0801849365234375,-0.00323486328125
0.1074981689453125,5.17218017578125,7.98980712890625,-0.2125396728515625,0.1014862060546875,-0.0767364501953125
-0.2013397216796875,5.1674041748046875,7.9969940185546875,-0.243438720703125,0.1302490234375,-0.1023101806640625
-0.546112060546875,5.1626129150390625,8.396820068359375,-0.321197509765625,0.0950927734375,-0.0831298828125
-0.5269622802734375,5.09796142578125,8.6865234375,-0.3307952880859375,0.072723388671875,-0.0522308349609375
-0.122344970703125,4.944732666015625,8.99298095703125,-0.1795196533203125,0.1472930908203125,0.03192138671875
-0.00262451171875,4.94952392578125,8.796661376953125,-0.1156005859375,0.197357177734375,0.0383148193359375
0.0644073486328125,4.892059326171875,8.320205688476562,-0.071929931640625,0.232513427734375,0.0042266845703125
-0.0265655517578125,4.858551025390625,8.250778198242188,-0.0985565185546875,0.2197265625,-0.0309295654296875
-0.2899322509765625,4.8729095458984375,8.533294677734375,-0.173126220703125,0.1494140625,-0.091644287109375
-0.356964111328125,4.8968505859375,8.81341552734375,-0.1827239990234375,0.1323699951171875,-0.103363037109375
-0.5173797607421875,4.9255828857421875,9.026504516601562,-0.104949951171875,0.176055908203125,-0.0969696044921875
-0.503021240234375,4.923187255859375,9.019317626953125,-0.04742431640625,0.218658447265625,-0.082061767578125
-0.45513916015625,4.8944549560546875,8.899612426757812,0.0825347900390625,0.29962158203125,-0.0522308349609375
-0.31866455078125,5.006988525390625,8.437530517578125,0.1741485595703125,0.310272216796875,-0.0532989501953125
-0.3473968505859375,5.0788116455078125,8.234024047851562,0.1826629638671875,0.28790283203125,-0.0671539306640625
-0.5317535400390625,5.2224578857421875,8.150222778320312,0.144317626953125,0.220794677734375,-0.0863189697265625
-0.4766845703125,5.33978271484375,8.322601318359375,0.1411285400390625,0.152618408203125,-0.0565032958984375
-0.428802490234375,5.3589324951171875,8.26275634765625,0.158172607421875,0.1494140625,-0.049041748046875
-0.376129150390625,5.409210205078125,8.281906127929688,0.177337646484375,0.1781768798828125,-0.0405120849609375
-0.397674560546875,5.3469696044921875,8.70806884765625,0.2071685791015625,0.2197265625,-0.03839111328125
-0.49822998046875,5.387664794921875,8.937911987304688,0.3115692138671875,0.27618408203125,-0.027740478515625
-0.6586456298828125,5.423583984375,8.552444458007812,0.397857666015625,0.333709716796875,-0.0298614501953125
-0.967498779296875,5.4666748046875,8.5692138671875,0.34033203125,0.242095947265625,-0.0671539306640625
-1.1566314697265625,5.3373870849609375,9.086349487304688,0.2742767333984375,0.09295654296875,-0.0980377197265625
-1.2787322998046875,5.0955657958984375,9.239593505859375,0.30303955078125,0.023712158203125,-0.1246795654296875
-1.455902099609375,4.8992462158203125,8.947494506835938,0.3669586181640625,-0.0124969482421875,-0.1417236328125
-1.57562255859375,4.8609466552734375,8.564422607421875,0.3989105224609375,-0.0465850830078125,-0.1417236328125
-1.6426544189453125,4.7292633056640625,7.877288818359375,0.3669586181640625,-0.088134765625,-0.150238037109375
-1.6426544189453125,4.6861572265625,7.69293212890625,0.30303955078125,-0.12115478515625,-0.1683502197265625
-1.676177978515625,4.607147216796875,7.76715087890625,0.10809326171875,-0.213836669921875,-0.2578277587890625
-3.4430999755859375,5.313446044921875,6.7735595703125,0.0580291748046875,-0.2777557373046875,-0.3153533935546875
-4.307403564453125,4.927978515625,5.183807373046875,0.079345703125,0.437042236328125,-0.037322998046875
-1.9275665283203125,4.6933441162109375,7.613922119140625,-0.2040252685546875,-0.0583038330078125,0.1182098388671875
-0.9986114501953125,4.14508056640625,8.765533447265625,-0.27752685546875,-0.6740264892578125,-0.0671539306640625
