accX,accY,accZ,gyroX,gyroY,gyroZ
-3.7329530715942383,4.865602016448975,7.272061824798584,0.043650683015584946,-0.07665485888719559,-0.022357666864991188
-3.7856063842773438,4.84456205368042,6.874634265899658,0.02342231757938862,-0.12349949777126312,-0.005323254037648439
-3.6251375675201416,4.961455821990967,6.914971828460693,-0.10220648348331451,-0.203348308801651,0.019163714721798897
-3.48569917678833,5.072661876678467,7.5689239501953125,-0.1714087873697281,-0.17779669165611267,-0.005323254037648439
-3.3186795711517334,5.085227012634277,7.914311408996582,-0.1437278687953949,-0.11391764134168625,-0.015969762578606606
-3.3871922492980957,5.074586868286133,7.911150932312012,-0.08091346174478531,-0.09049531817436218,-0.03726277872920036
-3.565253734588623,4.9038615226745605,7.679191589355469,-0.02555162087082863,-0.10220648348331451,-0.02555162087082863
-3.7146613597869873,4.810985565185547,7.3635783195495605,-0.038327429443597794,-0.12030554562807083,0.01171115878969431
-3.496137857437134,4.877841472625732,7.209074974060059,-0.09368927031755447,-0.14798647165298462,0.03619812801480293
-3.2540934085845947,4.95503044128418,7.1841278076171875,-0.140533909201622,-0.17992599308490753,-0.008517206646502018
-3.429607629776001,4.9268646240234375,7.4071044921875,-0.22889992594718933,-0.20973621308803558,-0.043650683015584946
-3.4259495735168457,4.767966270446777,8.270655632019043,-0.1852492392063141,-0.18631389737129211,-0.022357666864991188
-3.475471258163452,4.798276901245117,8.122434616088867,-0.08197811245918274,-0.19163715839385986,0.021293016150593758
-3.1296143531799316,4.873272895812988,7.8838090896606445,-0.04684463515877724,-0.16182692348957062,0.006387905217707157
-3.1430888175964355,4.8276777267456055,7.325873851776123,-0.09155996888875961,-0.12137019634246826,-0.03193952515721321
-3.3221848011016846,4.755334377288818,7.448734760284424,-0.18418459594249725,-0.15330971777439117,-0.03406882658600807
-3.2196171283721924,4.791410446166992,7.803498268127441,-0.21505947411060333,-0.1650208830833435,-0.02342231757938862
-3.1310508251190186,4.794704914093018,8.19701862335205,-0.15330971777439117,-0.19696040451526642,-0.042586032301187515
-3.1764256954193115,4.647806167602539,8.196779251098633,-0.09262461960315704,-0.16608552634716034,-0.06387905031442642
-3.1860790252685547,4.658110618591309,7.879825115203857,-0.09581857919692993,-0.14266321063041687,-0.048973940312862396
-3.17745041847229,4.644359111785889,7.825265884399414,-0.09794788062572479,-0.15969762206077576,-0.038327429443597794
-3.1372182369232178,4.657019138336182,7.736441612243652,-0.07878416031599045,-0.23635248839855194,-0.038327429443597794
-3.1414127349853516,4.695010185241699,8.108749389648438,-0.05642649531364441,-0.27467992901802063,-0.05323254317045212
-3.1456172466278076,4.577857494354248,8.215128898620605,-0.03087487444281578,-0.22357667982578278,-0.06068509817123413
-3.2424769401550293,4.469677925109863,8.15691089630127,0.009581857360899448,-0.18311993777751923,0.012775810435414314
-3.0879647731781006,4.548743724822998,8.146788597106934,0.044715333729982376,-0.19908970594406128,0.039392080157995224
-3.0585639476776123,4.545938014984131,8.047630310058594,0.06174974888563156,-0.2108008712530136,0.040456730872392654
-3.037207841873169,4.610773086547852,8.000502586364746,0.0841074138879776,-0.25445154309272766,0.04684463515877724
-2.865332841873169,4.5965895652771,7.812691688537598,0.06494370102882385,-0.23741713166236877,0.044715333729982376
-2.7961020469665527,4.645871639251709,7.5347442626953125,-0.014905111864209175,-0.21931807696819305,0.02874557301402092
-2.808523178100586,4.696734428405762,7.698785781860352,-0.06174974888563156,-0.23209388554096222,0.03087487444281578
-2.813474416732788,4.618127822875977,8.126677513122559,-0.07984881103038788,-0.2565808594226837,0.03406882658600807
-2.9147489070892334,4.511499404907227,8.388324737548828,-0.010646508075296879,-0.3044901490211487,0.042586032301187515
-2.9478657245635986,4.51265811920166,8.493401527404785,0.03726277872920036,-0.3225892186164856,0.05855579674243927
-2.5847036838531494,4.691505432128906,8.557087898254395,0.12456414848566055,-0.27574455738067627,0.044715333729982376
-2.4937527179718018,4.781967639923096,7.740626335144043,0.1054004356265068,-0.17673203349113464,0.009581857360899448
-2.500906467437744,4.7707343101501465,7.48611307144165,0.015969762578606606,-0.24274039268493652,0.02768092229962349
-2.356574535369873,4.855709075927734,8.056584358215332,-0.018099064007401466,-0.3055547773838043,-0.0021293016616255045
-2.4531564712524414,4.8340654373168945,8.349261283874512,-0.004258603323251009,-0.3044901490211487,-0.02874557301402092
-2.608253002166748,4.6549506187438965,8.539294242858887,0.06174974888563156,-0.27148595452308655,-0.03300417587161064
-2.3856687545776367,4.70564079284668,8.093886375427246,0.09688322991132736,-0.24806363880634308,-0.02342231757938862
-2.2629899978637695,4.826777935028076,7.65838098526001,0.05110324174165726,-0.2693566679954529,-0.05216789245605469
-2.221273183822632,4.8583526611328125,7.433919429779053,0.018099064007401466,-0.32152456045150757,-0.07133160531520844
-2.1406078338623047,4.890377521514893,7.653755187988281,-0.014905111864209175,-0.5174202919006348,-0.12137019634246826
-2.1679208278656006,4.833107948303223,7.848681449890137,-0.009581857360899448,-0.5908812284469604,-0.14159856736660004
-2.125620126724243,4.823253631591797,8.3001708984375,0.010646508075296879,-0.659018874168396,-0.16608552634716034
-2.2121753692626953,4.70950984954834,8.532169342041016,0.024486970156431198,-0.6047216653823853,-0.1788613349199295
-2.214090585708618,4.537615776062012,8.773150444030762,0.03406882658600807,-0.506773829460144,-0.16076228022575378
-2.0854358673095703,4.571622371673584,8.630072593688965,0.02874557301402092,-0.3151366412639618,-0.13521066308021545
-1.9997905492782593,4.764566898345947,8.278909683227539,0.005323254037648439,-0.27467992901802063,-0.0841074138879776
-1.8683297634124756,4.736324787139893,8.33004093170166,0.040456730872392654,-0.3332357108592987,-0.08836601674556732
-1.9561299085617065,4.534455299377441,8.501972198486328,0.11072368919849396,-0.36198127269744873,-0.10433578491210938
-1.8356631994247437,4.5532732009887695,8.429668426513672,0.09688322991132736,-0.30981338024139404,-0.09262461960315704
-1.7256735563278198,4.662248134613037,8.33194637298584,0.02661627158522606,-0.21293017268180847,-0.042586032301187515
-1.766327142715454,4.702336311340332,8.44697380065918,0.0010646508308127522,-0.18844319880008698,-0.020228365436196327
-1.7084448337554932,4.74929141998291,8.628703117370605,-0.014905111864209175,-0.13840460777282715,-0.019163714721798897
-1.6500166654586792,4.656186103820801,8.512028694152832,-0.02342231757938862,-0.018099064007401466,-0.05003859102725983
-1.7088087797164917,4.653284072875977,8.225912094116211,-0.021293016150593758,-0.038327429443597794,-0.024486970156431198
-1.6910630464553833,4.653016090393066,8.246722221374512,0.004258603323251009,-0.12562879920005798,0.008517206646502018
-1.6624666452407837,4.748219013214111,8.42160415649414,0.015969762578606606,-0.15863297879695892,0.0010646508308127522
-1.4509532451629639,4.918504238128662,8.506043434143066,0.014905111864209175,-0.09901253134012222,-0.02981022372841835
-1.5492591857910156,4.830732822418213,8.433757781982422,0.008517206646502018,-0.07239625602960587,-0.0734609067440033
-1.486425757408142,4.796275615692139,8.278162956237793,0.013840461149811745,-0.04684463515877724,-0.08943066745996475
-1.7102835178375244,4.69050931930542,8.519144058227539,-0.02342231757938862,-0.09794788062572479,-0.09155996888875961
-1.5784971714019775,4.743000030517578,8.64184284210205,-0.05855579674243927,0.017034413293004036,-0.10007718205451965
-1.677741527557373,4.631075859069824,8.399185180664062,-0.03087487444281578,0.02981022372841835,-0.0841074138879776
-1.695228934288025,4.594195365905762,8.590903282165527,0.039392080157995224,-0.020228365436196327,-0.08091346174478531
-1.6834303140640259,4.672131538391113,8.6580171585083,0.06813765317201614,0.05536184459924698,-0.0734609067440033
-1.5831706523895264,4.677695274353027,8.458207130432129,0.01171115878969431,0.18418459594249725,-0.07239625602960587
-1.6512616872787476,4.698966026306152,8.453859329223633,-0.0074525559321045876,0.23741713166236877,-0.08517206460237503
-1.8054674863815308,4.672313690185547,8.451148986816406,-0.008517206646502018,0.25445154309272766,-0.0841074138879776
-2.079392910003662,4.536600589752197,8.344290733337402,-0.0021293016616255045,0.27467992901802063,-0.044715333729982376
-1.954386830329895,4.548025608062744,8.111248970031738,-0.02661627158522606,0.2278352826833725,0.0031939526088535786
-1.9552870988845825,4.675741672515869,8.464699745178223,-0.024486970156431198,0.20228366553783417,-0.018099064007401466
-2.256180763244629,4.490047454833984,8.397154808044434,0.0074525559321045876,0.20547761023044586,-0.012775810435414314
-2.243194580078125,4.427089691162109,8.287232398986816,0.044715333729982376,0.1820552945137024,0.06174974888563156
-1.873989462852478,4.798468589782715,8.276745796203613,0.012775810435414314,0.16927948594093323,0.05429719388484955
-1.9263651371002197,4.749483585357666,8.517372131347656,-0.0021293016616255045,0.22677062451839447,0.009581857360899448
-2.3218777179718018,4.474456310272217,8.256376266479492,0.02981022372841835,0.23635248839855194,0.039392080157995224
-2.429396390914917,4.62148904800415,8.022586822509766,0.08623671531677246,0.12562879920005798,0.13946926593780518
-2.442018747329712,4.7468976974487305,8.063910484313965,0.16927948594093323,-0.03726277872920036,0.11285299062728882
-1.7551029920578003,5.232901573181152,8.297019958496094,0.07984881103038788,0.08943066745996475,-0.006387905217707157
-1.9209829568862915,4.922066688537598,8.234684944152832,0.012775810435414314,0.1543743759393692,-0.06174974888563156
-2.630988359451294,4.512284755706787,7.737734317779541,0.0947539210319519,0.03300417587161064,0.03087487444281578
-1.9720752239227295,4.74831485748291,7.528193950653076,0.11285299062728882,-0.06174974888563156,0.05003859102725983
-2.0299766063690186,4.814499855041504,7.53344202041626,-0.06600835174322128,-0.05429719388484955,0.004258603323251009
-2.234795570373535,4.70299768447876,8.049009323120117,-0.1788613349199295,-0.05642649531364441,0.0031939526088535786
-2.256659746170044,4.7119903564453125,8.83961296081543,-0.12030554562807083,0.0074525559321045876,0.02555162087082863
-2.2390382289886475,4.735596656799316,8.816686630249023,0.039392080157995224,0.02874557301402092,0.06494370102882385
-2.238616943359375,4.859492301940918,8.697617530822754,0.16289158165454865,-0.07452555745840073,0.06600835174322128
-1.7453155517578125,5.0464887619018555,8.615840911865234,0.2565808594226837,-0.06707300245761871,-0.009581857360899448
-1.8855583667755127,5.026176452636719,7.86690616607666,0.140533909201622,0.05216789245605469,-0.0596204474568367
-1.9922151565551758,4.9326395988464355,7.662479400634766,0.06281439960002899,0.06813765317201614,-0.06600835174322128
-2.169424533843994,4.6946563720703125,7.6790571212768555,0.0,0.019163714721798897,-0.04684463515877724
-2.286261558532715,4.697079181671143,7.62762975692749,-0.009581857360899448,-0.09368927031755447,-0.010646508075296879
-2.0489003658294678,4.882696628570557,7.697205066680908,-0.039392080157995224,-0.12775810062885284,-0.019163714721798897
-1.9717974662780762,4.869585990905762,8.059198379516602,-0.11178833991289139,-0.14159856736660004,-0.05749114602804184
-2.21274995803833,4.737541198730469,8.442261695861816,-0.1085943877696991,-0.09581857919692993,-0.06387905031442642
-2.29048490524292,4.663196086883545,8.462756156921387,-0.08304276317358017,-0.08836601674556732,-0.03726277872920036
-2.2200188636779785,4.738220691680908,8.489581108093262,-0.021293016150593758,-0.08517206460237503,0.012775810435414314
-2.098383903503418,4.716615676879883,8.382157325744629,0.019163714721798897,-0.06494370102882385,0.014905111864209175
-2.0836260318756104,4.684437274932861,8.112120628356934,0.012775810435414314,-0.06068509817123413,0.020228365436196327
-1.9691256284713745,4.865860939025879,8.098156929016113,-0.02342231757938862,-0.07452555745840073,0.02661627158522606
-1.8677071332931519,4.862000942230225,8.312448501586914,-0.040456730872392654,-0.020228365436196327,-0.008517206646502018
-1.9417263269424438,4.851255893707275,8.226131439208984,-0.040456730872392654,-0.017034413293004036,-0.010646508075296879
-1.9157826900482178,4.8214335441589355,8.179158210754395,-0.02342231757938862,-0.07665485888719559,-0.0031939526088535786
-1.8927217721939087,4.839217662811279,8.205839157104492,-0.01171115878969431,-0.08730136603116989,-0.03726277872920036
-2.1354362964630127,4.713541507720947,8.111296653747559,-0.042586032301187515,-0.08197811245918274,-0.02981022372841835
-2.0802738666534424,4.748439311981201,8.219313621520996,-0.05323254317045212,-0.09155996888875961,-0.012775810435414314
-2.0277931690216064,4.7578535079956055,8.521404266357422,-0.040456730872392654,-0.06281439960002899,-0.017034413293004036
-1.9586963653564453,4.759346961975098,8.557585716247559,0.004258603323251009,-0.018099064007401466,-0.017034413293004036
-1.9726402759552002,4.715648651123047,8.208673477172852,0.017034413293004036,-0.03406882658600807,0.0031939526088535786
-1.9126416444778442,4.757116317749023,8.281380653381348,0.0031939526088535786,-0.0351334773004055,-0.0010646508308127522
-1.9596061706542969,4.778366565704346,8.319467544555664,0.0,-0.02768092229962349,-0.0031939526088535786
-1.9822553396224976,4.748497009277344,8.348676681518555,0.020228365436196327,-0.03619812801480293,0.006387905217707157
-2.060497760772705,4.673539161682129,8.322139739990234,0.0596204474568367,-0.06600835174322128,0.024486970156431198
-1.9661281108856201,4.790931701660156,8.235173225402832,0.070266954600811,-0.022357666864991188,0.03619812801480293
-1.838670253753662,4.826902389526367,8.131360054016113,0.047909289598464966,-0.018099064007401466,0.044715333729982376
-1.7477576732635498,4.9425129890441895,8.165731430053711,0.03726277872920036,-0.019163714721798897,0.02874557301402092
-1.7816882133483887,4.929910182952881,8.188657760620117,0.02342231757938862,-0.02768092229962349,0.0031939526088535786
-1.9761837720870972,4.818417072296143,8.288390159606934,0.03406882658600807,0.0,0.006387905217707157
-1.9803590774536133,4.804204940795898,8.247325897216797,0.03300417587161064,-0.0021293016616255045,0.022357666864991188
-1.8542134761810303,4.862585544586182,8.184799194335938,0.039392080157995224,-0.014905111864209175,0.02342231757938862
-1.8460731506347656,4.916445255279541,8.248570442199707,0.03406882658600807,-0.022357666864991188,0.022357666864991188
-1.889092206954956,4.87998628616333,8.2781343460083,0.03300417587161064,-0.019163714721798897,0.024486970156431198
-1.865849256515503,4.85371732711792,8.233036994934082,0.039392080157995224,-0.017034413293004036,0.03193952515721321
-1.8190091848373413,4.915315628051758,8.278603553771973,0.04684463515877724,-0.005323254037648439,0.03619812801480293
-1.8235580921173096,4.915870666503906,8.316144943237305,0.05003859102725983,0.024486970156431198,0.02874557301402092
-1.9066847562789917,4.903172016143799,8.48279094696045,0.05642649531364441,0.06068509817123413,0.02874557301402092
-1.844502568244934,4.917537212371826,8.452488899230957,0.08943066745996475,0.11711159348487854,0.043650683015584946
-1.9136087894439697,4.92494010925293,8.308061599731445,0.12349949777126312,0.10433578491210938,0.07665485888719559
-2.036900520324707,4.864184379577637,8.2154541015625,0.14798647165298462,0.1192408949136734,0.08730136603116989
-2.1663119792938232,4.7452311515808105,7.8736677169799805,0.1362753063440323,0.11817624419927597,0.1362753063440323
-1.8600457906723022,5.082334995269775,7.9563727378845215,0.08304276317358017,0.10114183276891708,0.1788613349199295
-1.763971209526062,5.295073509216309,8.147276878356934,0.044715333729982376,0.126693457365036,0.11498229205608368
-1.7428255081176758,5.125353813171387,8.374783515930176,0.06387905031442642,0.16608552634716034,0.07665485888719559
-1.8542996644973755,5.202724456787109,8.418376922607422,0.10433578491210938,0.19802506268024445,0.09049531817436218
-1.7973368167877197,5.195666313171387,8.371575355529785,0.1511804163455963,0.23954643309116364,0.08091346174478531
-1.8733670711517334,5.186540126800537,8.444463729858398,0.19696040451526642,0.3790156841278076,0.07665485888719559
-1.9700065851211548,5.231924533843994,8.263415336608887,0.2001543641090393,0.4939979910850525,0.09794788062572479
-2.0786938667297363,5.203299522399902,8.056632041931152,0.19696040451526642,0.506773829460144,0.11285299062728882
-2.2166666984558105,5.173994064331055,7.935945510864258,0.19589576125144958,0.5195496082305908,0.1298874020576477
-2.178694725036621,5.147677421569824,7.799322605133057,0.19589576125144958,0.5184849500656128,0.12137019634246826
-2.4906017780303955,5.213776588439941,7.641669273376465,0.1330813616514206,0.558941662311554,0.15969762206077576
-2.4885141849517822,5.204649925231934,7.653956413269043,0.09901253134012222,0.5706528425216675,0.1852492392063141
-2.34767746925354,5.34502649307251,7.896737575531006,0.08197811245918274,0.6121742129325867,0.20867156982421875
-2.3057408332824707,5.79092264175415,7.875439167022705,0.07559020817279816,0.7771950960159302,0.11178833991289139
-2.831296682357788,5.509642124176025,7.6034674644470215,0.0841074138879776,0.8006174564361572,0.09794788062572479
-2.3726441860198975,5.541092872619629,7.082757472991943,0.05323254317045212,0.9741555452346802,0.1682148277759552
-2.8147385120391846,5.508818626403809,7.6501641273498535,-0.02342231757938862,0.8953713774681091,0.12349949777126312
-2.72019624710083,5.729430198669434,7.4995880126953125,-0.014905111864209175,0.9858666658401489,0.06707300245761871
-3.0958175659179688,5.5216898918151855,7.33394718170166,0.006387905217707157,0.9730908870697021,0.02661627158522606
-3.14432430267334,5.452803611755371,7.223718166351318,0.043650683015584946,0.9219876527786255,0.021293016150593758
-3.1455788612365723,5.534398555755615,6.9993720054626465,0.06707300245761871,0.8378801941871643,-0.006387905217707157
-3.3344812393188477,5.514756202697754,6.885130405426025,0.06600835174322128,0.8048760294914246,-0.03193952515721321
-3.5662975311279297,5.407304763793945,6.823340892791748,0.02555162087082863,0.7793244123458862,-0.03406882658600807
-3.4059627056121826,5.562736511230469,7.1207098960876465,-0.005323254037648439,0.7771950960159302,-0.05536184459924698
-3.365443229675293,5.729611873626709,7.300093173980713,-0.010646508075296879,0.8006174564361572,-0.08517206460237503
-3.6495869159698486,5.652317523956299,7.568253517150879,0.018099064007401466,0.8847248554229736,-0.13840460777282715
-4.087467193603516,5.35702657699585,7.252841472625732,0.06920230388641357,1.01248300075531,-0.13414600491523743
-4.283121585845947,5.008172035217285,6.550775527954102,0.07984881103038788,1.0838145017623901,-0.05855579674243927
-4.07088041305542,5.828683853149414,2.1475894451141357,-0.0021293016616255045,0.5770407319068909,-0.047909289598464966
-4.432318210601807,4.941191673278809,6.8353118896484375,-0.12030554562807083,-0.3790156841278076,-0.10752973705530167
-4.061657905578613,6.274484157562256,7.766618251800537,-0.1362753063440323,0.02981022372841835,-0.17247343063354492
-4.872267723083496,5.70271110534668,8.218844413757324,-0.0021293016616255045,0.33536502718925476,-0.19057250022888184
-4.955557346343994,5.094535827636719,6.866771697998047,0.1820552945137024,0.328977108001709,-0.08836601674556732
-5.0049638748168945,4.809328556060791,4.6914191246032715,0.20547761023044586,-0.08091346174478531,0.08304276317358017
-4.385870933532715,5.001381874084473,4.492719650268555,0.0947539210319519,-0.6174975037574768,0.16182692348957062
-3.7915823459625244,5.590250492095947,5.503340721130371,-0.06600835174322128,-0.8879188299179077,0.09794788062572479
-3.507716178894043,5.80945348739624,6.7814226150512695,-0.18418459594249725,-0.8261690735816956,-0.021293016150593758
-3.7067699432373047,5.8425798416137695,7.5631585121154785,-0.20547761023044586,-0.6675360798835754,-0.11072368919849396
-3.742798089981079,5.820630073547363,7.93786096572876,-0.17034412920475006,-0.45354124903678894,-0.12456414848566055
-3.826212167739868,5.392642498016357,7.522802352905273,-0.06068509817123413,-0.38114500045776367,-0.12243484705686569
-4.052703380584717,5.108891010284424,6.713456630706787,-0.015969762578606606,-0.4237310290336609,-0.07878416031599045
-3.946199893951416,5.243895530700684,6.808994770050049,-0.0734609067440033,-0.48973938822746277,-0.06174974888563156
-3.797548532485962,5.242554664611816,6.993013381958008,-0.1054004356265068,-0.46738171577453613,-0.07452555745840073
-3.5696685314178467,5.352611541748047,7.472169399261475,-0.14905111491680145,-0.357722669839859,-0.12030554562807083
-3.767324209213257,5.3104448318481445,7.53753137588501,-0.1575683206319809,-0.24274039268493652,-0.13414600491523743
-3.8481333255767822,5.239193439483643,7.547040939331055,-0.1362753063440323,-0.24061109125614166,-0.11391764134168625
-3.9797089099884033,5.2492780685424805,7.50393533706665,-0.03193952515721321,-0.3151366412639618,-0.048973940312862396
-3.8867948055267334,5.116418361663818,7.274322032928467,0.048973940312862396,-0.41947242617607117,-0.012775810435414314
-3.7838730812072754,5.12550687789917,7.160808086395264,0.06387905031442642,-0.45460590720176697,0.0021293016616255045
-3.5856809616088867,5.19430685043335,6.945138454437256,0.02874557301402092,-0.4769635796546936,0.0031939526088535786
-3.400925397872925,5.266697883605957,6.838634967803955,-0.0596204474568367,-0.4737696349620819,-0.008517206646502018
-3.3721086978912354,5.25669002532959,7.142794609069824,-0.1575683206319809,-0.5440365672111511,-0.040456730872392654
-3.5234603881835938,5.057674407958984,7.239089012145996,-0.16289158165454865,-0.5759761333465576,-0.02661627158522606
-2.8091933727264404,4.73626708984375,6.727467060089111,-0.18099063634872437,-0.6771179437637329,-0.03087487444281578
-3.4630212783813477,5.183704853057861,7.353867053985596,-0.19802506268024445,-0.8293629884719849,0.03406882658600807
-2.9057180881500244,5.206651210784912,7.807769298553467,-0.2278352826833725,-0.832556962966919,0.02981022372841835
-2.6955838203430176,5.156210422515869,8.195859909057617,-0.19376645982265472,-0.7314151525497437,0.06281439960002899
-2.3863584995269775,5.216486930847168,8.519584655761719,-0.11178833991289139,-0.6909583806991577,-0.008517206646502018
-2.392918348312378,5.073668003082275,8.53979206085205,-0.06387905031442642,-0.6877644658088684,-0.038327429443597794
-2.422434091567993,4.906561851501465,8.610037803649902,0.040456730872392654,-0.6100449562072754,-0.02981022372841835
-2.4329111576080322,4.8321213722229,8.46342658996582,0.07133160531520844,-0.5291314721107483,-0.006387905217707157
-2.4444894790649414,4.794360160827637,8.150351524353027,0.06174974888563156,-0.39817941188812256,0.048973940312862396
-2.3173763751983643,4.954848289489746,8.023994445800781,0.0,-0.3364296555519104,0.09049531817436218
-2.034726619720459,5.106391429901123,8.355352401733398,0.006387905217707157,-0.2917143404483795,0.06494370102882385
-1.9810678958892822,5.157685279846191,8.268969535827637,0.06068509817123413,-0.27574455738067627,0.0
-2.1456546783447266,5.034537315368652,8.043128967285156,0.07878416031599045,-0.2768092155456543,-0.03726277872920036
-2.3559136390686035,4.898737907409668,7.975986003875732,0.0734609067440033,-0.26509806513786316,0.012775810435414314
-2.2170979976654053,5.041623592376709,7.9534711837768555,0.07771950960159302,-0.30023154616355896,0.11711159348487854
-1.6493655443191528,5.344604969024658,8.307784080505371,0.12456414848566055,-0.3673045337200165,0.10327113419771194
-1.6587316989898682,5.299297332763672,8.468741416931152,0.15969762206077576,-0.24806363880634308,-0.0074525559321045876
-1.9570013284683228,5.093194961547852,8.261087417602539,0.1192408949136734,-0.1054004356265068,-0.009581857360899448
-1.8690766096115112,5.078111171722412,8.098999977111816,0.07984881103038788,-0.009581857360899448,0.04684463515877724
-1.5763518810272217,5.290036678314209,7.918783664703369,0.07239625602960587,-0.010646508075296879,0.040456730872392654
-1.5561257600784302,5.343523025512695,7.8636884689331055,0.06600835174322128,-0.03087487444281578,0.0031939526088535786
-2.0377912521362305,4.966397762298584,7.532369136810303,0.047909289598464966,-0.15224507451057434,-0.006387905217707157
-2.0891611576080322,5.097274303436279,7.80043363571167,0.07559020817279816,-0.3012961745262146,0.1085943877696991
-1.779906988143921,5.103834629058838,7.829824924468994,0.08197811245918274,-0.3406882584095001,0.11178833991289139
-1.5602821111679077,5.46450662612915,8.384571075439453,0.06174974888563156,-0.252322256565094,0.048973940312862396
-1.4709879159927368,5.3269453048706055,8.529698371887207,0.047909289598464966,-0.08517206460237503,-0.015969762578606606
-1.6422021389007568,5.179587364196777,8.301185607910156,0.05216789245605469,0.03619812801480293,-0.013840461149811745
-1.759326457977295,5.179664134979248,8.019695281982422,0.05749114602804184,0.06174974888563156,0.010646508075296879
-1.8188366889953613,5.190131187438965,7.85432243347168,0.0596204474568367,0.0021293016616255045,0.05749114602804184
-1.7977485656738281,5.174703121185303,7.789429664611816,0.05323254317045212,-0.021293016150593758,0.06813765317201614
-1.6196391582489014,5.282480239868164,7.868467330932617,0.045779984444379807,-0.07452555745840073,0.07665485888719559
-1.5303066968917847,5.368125915527344,8.12246322631836,0.041521381586790085,-0.08091346174478531,0.045779984444379807
-1.5521705150604248,5.382768630981445,8.129042625427246,0.040456730872392654,-0.05749114602804184,0.022357666864991188
-1.7051408290863037,5.33354377746582,8.215761184692383,0.06813765317201614,-0.09688322991132736,0.012775810435414314
-1.4965006113052368,5.334607124328613,8.261221885681152,0.1298874020576477,-0.10220648348331451,0.010646508075296879
-1.5249437093734741,5.309554100036621,7.947792053222656,0.126693457365036,-0.05216789245605469,0.0021293016616255045
-1.5794836282730103,5.289126873016357,7.657299041748047,0.06174974888563156,-0.02342231757938862,0.019163714721798897
-1.48208749294281,5.3837456703186035,7.741277694702148,-0.015969762578606606,-0.017034413293004036,0.014905111864209175
-1.4882357120513916,5.484254360198975,7.980688571929932,-0.05855579674243927,0.005323254037648439,-0.02874557301402092
-1.6702909469604492,5.356279373168945,8.101643562316895,-0.06707300245761871,0.03087487444281578,-0.03726277872920036
-1.4459542036056519,5.33349609375,8.283985137939453,-0.02874557301402092,0.05216789245605469,-0.009581857360899448
-1.5367039442062378,5.359085559844971,8.208309173583984,0.0,0.06707300245761871,-0.014905111864209175
-1.5201361179351807,5.301088333129883,8.158855438232422,0.005323254037648439,0.1575683206319809,-0.042586032301187515
-1.7852795124053955,5.1640825271606445,8.065778732299805,0.019163714721798897,0.1469218134880066,-0.014905111864209175
-2.2876405715942383,4.996162414550781,6.779067516326904,0.06707300245761871,-0.021293016150593758,0.02981022372841835
-1.7827705144882202,5.3931884765625,7.949917793273926,0.05003859102725983,-0.25445154309272766,0.0596204474568367
-1.4015369415283203,5.520799160003662,8.670380592346191,-0.0074525559321045876,-0.12349949777126312,0.010646508075296879
-1.5536357164382935,5.347650527954102,8.209755897521973,0.06174974888563156,0.05003859102725983,0.024486970156431198
-1.4252203702926636,5.442757606506348,7.8852362632751465,0.09262461960315704,0.03726277872920036,0.010646508075296879
-1.5890315771102905,5.369734764099121,7.551254749298096,0.03726277872920036,0.08091346174478531,-0.015969762578606606
-1.7408432960510254,5.267205715179443,7.2080888748168945,-0.08197811245918274,-0.09688322991132736,0.014905111864209175
-1.5741876363754272,5.367551326751709,7.727745532989502,-0.1543743759393692,-0.15543901920318604,-0.019163714721798897
-1.5562885999679565,5.367847919464111,8.24385929107666,-0.1575683206319809,-0.13733996450901031,-0.02981022372841835
-1.6736140251159668,5.366966724395752,8.535550117492676,-0.13521066308021545,-0.10752973705530167,-0.022357666864991188
-1.6266206502914429,5.256488800048828,8.447260856628418,-0.06600835174322128,-0.006387905217707157,0.0
-1.5436663627624512,5.361020088195801,8.364027976989746,-0.0074525559321045876,-0.013840461149811745,0.020228365436196327
-1.5344151258468628,5.26614236831665,8.203712463378906,0.03300417587161064,0.010646508075296879,0.0031939526088535786
-1.639166235923767,5.238408088684082,7.985812187194824,0.02768092229962349,0.0,0.013840461149811745
-1.516018033027649,5.284482002258301,8.02108383178711,0.015969762578606606,0.01171115878969431,0.017034413293004036
-1.4829014539718628,5.316027641296387,7.792963981628418,-0.008517206646502018,-0.015969762578606606,0.006387905217707157
-1.5486558675765991,5.382443428039551,7.996729373931885,-0.02768092229962349,-0.045779984444379807,-0.014905111864209175
-1.658224105834961,5.342555522918701,8.195764541625977,-0.004258603323251009,0.012775810435414314,0.0010646508308127522
-1.6134333610534668,5.293551445007324,8.07868766784668,0.02555162087082863,0.006387905217707157,0.0074525559321045876
-1.5980051755905151,5.266199588775635,7.9432525634765625,0.03087487444281578,-0.005323254037648439,0.008517206646502018
-1.5236316919326782,5.3130974769592285,7.9348344802856445,0.012775810435414314,-0.03300417587161064,0.004258603323251009
-1.5754804611206055,5.288417816162109,8.132537841796875,0.0021293016616255045,-0.022357666864991188,-0.014905111864209175
-1.7251659631729126,5.199210166931152,8.064495086669922,0.0074525559321045876,-0.0074525559321045876,0.0074525559321045876
-1.6733076572418213,5.197649002075195,7.955137252807617,0.017034413293004036,-0.03726277872920036,0.039392080157995224
-1.5952661037445068,5.307389736175537,7.988522052764893,-0.0031939526088535786,-0.044715333729982376,0.03193952515721321
-1.4571782350540161,5.3428144454956055,8.061391830444336,-0.014905111864209175,-0.021293016150593758,0.019163714721798897
-1.5684607028961182,5.345677852630615,8.021523475646973,-0.01171115878969431,-0.019163714721798897,0.014905111864209175
-1.6816489696502686,5.364084243774414,8.111862182617188,-0.0031939526088535786,-0.03406882658600807,0.02874557301402092
-1.6277602910995483,5.354459762573242,8.131810188293457,0.02661627158522606,-0.03193952515721321,0.05110324174165726
-1.4656344652175903,5.323450088500977,8.062742233276367,0.03193952515721321,-0.020228365436196327,0.03300417587161064
-1.3813681602478027,5.291645526885986,7.900616645812988,0.005323254037648439,-0.008517206646502018,0.015969762578606606
-1.3659685850143433,5.320155620574951,8.031512260437012,-0.005323254037648439,-0.022357666864991188,0.017034413293004036
-1.3668018579483032,5.311651229858398,8.034232139587402,0.0010646508308127522,-0.02342231757938862,0.012775810435414314
-1.532633900642395,5.34409761428833,8.09878921508789,0.017034413293004036,-0.0351334773004055,0.0074525559321045876
-1.6292829513549805,5.334712505340576,8.122052192687988,0.02768092229962349,-0.038327429443597794,0.014905111864209175
-1.5723775625228882,5.26486873626709,8.133065223693848,0.03406882658600807,-0.02874557301402092,0.039392080157995224
-1.4035192728042603,5.262206554412842,8.02536392211914,0.038327429443597794,-0.009581857360899448,0.045779984444379807
-1.3579912185668945,5.385325908660889,8.012195587158203,0.02342231757938862,-0.02661627158522606,0.019163714721798897
-1.459036111831665,5.3919243812561035,7.872518062591553,0.017034413293004036,-0.008517206646502018,0.005323254037648439
-1.4711220264434814,5.37014627456665,7.865287780761719,0.0031939526088535786,-0.0351334773004055,0.009581857360899448
-1.4532995223999023,5.351309299468994,7.887467861175537,-0.018099064007401466,-0.03300417587161064,0.017034413293004036
-1.4113723039627075,5.3866376876831055,8.049860954284668,-0.03619812801480293,-0.05323254317045212,0.020228365436196327
-1.3503105640411377,5.381428241729736,8.278671264648438,-0.0074525559321045876,-0.022357666864991188,0.0021293016616255045
-1.4107402563095093,5.368508815765381,8.092842102050781,0.0031939526088535786,-0.0074525559321045876,0.0074525559321045876
-1.3736971616744995,5.352237701416016,8.045533180236816,0.009581857360899448,-0.0031939526088535786,0.005323254037648439
-1.397342324256897,5.360426425933838,7.909503936767578,0.0021293016616255045,-0.0031939526088535786,-0.0031939526088535786
-1.3577805757522583,5.434253692626953,7.915824890136719,-0.02342231757938862,-0.013840461149811745,-0.0074525559321045876
-1.278494119644165,5.41720724105835,7.877957820892334,-0.048973940312862396,-0.015969762578606606,-0.03726277872920036
-1.3661985397338867,5.409631729125977,8.148655891418457,-0.05749114602804184,-0.005323254037648439,-0.05536184459924698
-1.4877569675445557,5.269140243530273,8.234674453735352,-0.0351334773004055,0.010646508075296879,-0.044715333729982376
-1.549651861190796,5.263240814208984,8.087958335876465,-0.006387905217707157,0.0074525559321045876,-0.018099064007401466
-1.5538655519485474,5.26508903503418,8.074148178100586,-0.005323254037648439,0.012775810435414314,-0.0074525559321045876
-1.466314435005188,5.346673965454102,7.842169284820557,-0.01171115878969431,-0.004258603323251009,-0.02342231757938862
-1.5927762985229492,5.325135707855225,8.040657997131348,-0.02981022372841835,-0.022357666864991188,-0.014905111864209175
-1.4476876258850098,5.22799825668335,8.075690269470215,-0.022357666864991188,-0.004258603323251009,-0.0031939526088535786
-1.4410316944122314,5.334367752075195,8.056038856506348,-0.02981022372841835,-0.010646508075296879,-0.005323254037648439
-1.3369989395141602,5.328248023986816,8.19332218170166,-0.02342231757938862,0.0,-0.008517206646502018
-1.3333404064178467,5.279578685760498,8.142929077148438,-0.015969762578606606,0.006387905217707157,-0.017034413293004036
-1.4240998029708862,5.328305721282959,8.035688400268555,-0.012775810435414314,-0.004258603323251009,-0.02661627158522606
-1.4331116676330566,5.323297023773193,8.039806365966797,-0.018099064007401466,-0.004258603323251009,-0.02768092229962349
-1.4360325336456299,5.30560827255249,7.914225101470947,-0.038327429443597794,0.0010646508308127522,-0.0351334773004055
-1.410223126411438,5.3177809715271,8.029501914978027,-0.05323254317045212,-0.005323254037648439,-0.03300417587161064
-1.4500339031219482,5.3304314613342285,8.297891616821289,-0.039392080157995224,0.009581857360899448,-0.04684463515877724
-1.4814075231552124,5.258643627166748,8.494110107421875,-0.019163714721798897,0.03087487444281578,-0.043650683015584946
-1.6402866840362549,5.101191520690918,8.386582374572754,0.044715333729982376,0.0351334773004055,-0.005323254037648439
-1.6300108432769775,5.08481502532959,8.248763084411621,0.08623671531677246,0.04684463515877724,0.041521381586790085
-1.5286691188812256,5.11005973815918,8.191023826599121,0.07452555745840073,0.06707300245761871,0.06068509817123413
-1.3518620729446411,5.251882553100586,8.312572479248047,-0.004258603323251009,0.203348308801651,0.0841074138879776
-1.0761457681655884,5.322817802429199,8.49911880493164,-0.05429719388484955,0.4173431396484375,0.09368927031755447
-1.4428513050079346,5.407975196838379,8.554338455200195,-0.09901253134012222,0.6835058331489563,0.1469218134880066
-1.8324452638626099,5.39798641204834,8.76046085357666,-0.05749114602804184,0.8517206907272339,0.10752973705530167
-2.0615129470825195,5.272013187408447,8.604924201965332,-0.010646508075296879,0.9336987733840942,0.09368927031755447
-2.0707545280456543,5.142266750335693,7.900252819061279,0.07559020817279816,0.9326341152191162,0.10433578491210938
-1.9184067249298096,5.336915016174316,7.270002841949463,0.03406882658600807,0.9603150486946106,0.18631389737129211
-1.8600457906723022,5.359650611877441,7.7571563720703125,-0.045779984444379807,0.8165872097015381,0.07559020817279816
-2.7656285762786865,5.51839542388916,7.469238758087158,-0.040456730872392654,0.9730908870697021,-0.041521381586790085
-2.6828560829162598,5.4742655754089355,7.466299057006836,0.008517206646502018,0.8038113713264465,-0.05110324174165726
-3.2447657585144043,5.08814811706543,7.611147880554199,0.12775810062885284,0.5674588680267334,-0.05536184459924698
-3.3239660263061523,4.970439434051514,7.191090106964111,0.13201670348644257,0.5504244565963745,0.022357666864991188
-3.2501096725463867,5.081932544708252,6.854158878326416,0.03726277872920036,0.5365840196609497,0.09794788062572479
-2.9777259826660156,5.3195905685424805,7.020776271820068,0.0074525559321045876,0.46525242924690247,0.10007718205451965
-2.8471176624298096,5.649454116821289,7.799092769622803,0.0596204474568367,0.40137335658073425,0.0074525559321045876
-3.0805716514587402,5.513367652893066,7.795990467071533,0.10965903848409653,0.41521382331848145,-0.02981022372841835
-3.316227912902832,5.331437110900879,7.681633472442627,0.11817624419927597,0.4407654404640198,-0.005323254037648439
-3.340160369873047,5.083828449249268,7.304556369781494,0.11817624419927597,0.5227435827255249,0.06707300245761871
-3.276628017425537,5.1132965087890625,6.123208999633789,0.03193952515721321,0.5674588680267334,0.10433578491210938
-2.9941983222961426,5.559537410736084,6.566864490509033,-0.12030554562807083,0.3513347804546356,0.03300417587161064
-3.2399487495422363,5.62191104888916,8.24247932434082,-0.11817624419927597,0.4205370843410492,-0.05536184459924698
-3.5611069202423096,5.750987529754639,7.921513080596924,0.02342231757938862,0.5206142663955688,-0.06707300245761871
-3.657104730606079,5.7830023765563965,6.652078628540039,0.11498229205608368,0.30023154616355896,-0.07878416031599045
-3.818004608154297,5.442403316497803,6.1019487380981445,0.19057250022888184,-0.05429719388484955,-0.08091346174478531
-3.4588935375213623,5.194374084472656,6.314793109893799,0.11817624419927597,-0.1362753063440323,-0.044715333729982376
-3.56972599029541,5.684582233428955,6.493716716766357,-0.09688322991132736,-0.022357666864991188,-0.09794788062572479
-3.5232019424438477,5.42596960067749,6.479830265045166,-0.15224507451057434,-0.14159856736660004,-0.1298874020576477
-3.122220993041992,5.771347522735596,6.897867679595947,-0.21293017268180847,-0.3364296555519104,-0.11285299062728882
-2.7318320274353027,5.631468772888184,7.69471549987793,-0.17460273206233978,-0.2704213261604309,-0.24486969411373138
-3.485909938812256,5.205885410308838,7.2501983642578125,-0.12775810062885284,-0.23954643309116364,-0.3012961745262146
-3.9043874740600586,5.1797404289245605,7.363615989685059,-0.2171887755393982,-0.2278352826833725,-0.21505947411060333
-3.6774556636810303,4.92239236831665,7.69503116607666,-0.22889992594718933,-0.13095206022262573,-0.1756673902273178
-3.676085948944092,4.838528156280518,7.434321880340576,-0.19376645982265472,-0.12562879920005798,-0.13414600491523743
-3.6628987789154053,4.973408222198486,7.65546989440918,-0.16608552634716034,-0.1788613349199295,-0.1054004356265068
-3.613990068435669,4.976951599121094,8.136186599731445,-0.1054004356265068,-0.14266321063041687,-0.09581857919692993
-3.5084726810455322,4.997426986694336,8.003461837768555,-0.07452555745840073,0.03619812801480293,-0.08943066745996475
-3.64807391166687,4.946228981018066,7.628597259521484,-0.07984881103038788,0.11285299062728882,-0.05749114602804184
-3.6246681213378906,5.014176845550537,7.389320373535156,-0.05110324174165726,0.040456730872392654,-0.019163714721798897
-3.360060930252075,5.052732944488525,7.595058917999268,-0.017034413293004036,-0.07452555745840073,-0.008517206646502018
-3.343425989151001,5.030514717102051,7.652797222137451,-0.03406882658600807,0.06068509817123413,-0.043650683015584946
-3.5012710094451904,4.981826305389404,7.490020275115967,-0.07984881103038788,0.13840460777282715,-0.040456730872392654
-3.731009006500244,4.969491004943848,7.383756160736084,-0.07133160531520844,0.0947539210319519,-0.015969762578606606
-3.635183572769165,4.90980863571167,7.4988884925842285,-0.03619812801480293,0.03619812801480293,0.009581857360899448
-3.406987190246582,5.185946464538574,7.534926414489746,-0.02342231757938862,0.0,0.0031939526088535786
-3.357015609741211,5.0405802726745605,7.6808576583862305,0.020228365436196327,-0.03406882658600807,-0.05855579674243927
-3.671278476715088,4.986739158630371,7.660870552062988,0.05536184459924698,-0.043650683015584946,-0.05429719388484955
-3.5619304180145264,4.898967742919922,7.5336432456970215,0.044715333729982376,0.0021293016616255045,-0.03087487444281578
-3.5822718143463135,4.999840259552002,7.396388053894043,0.01171115878969431,0.045779984444379807,-0.038327429443597794
-3.457782745361328,4.924872875213623,7.505870342254639,0.02768092229962349,0.0021293016616255045,-0.042586032301187515
-3.504833459854126,5.000635147094727,7.5277533531188965,0.018099064007401466,0.0,-0.045779984444379807
-3.7033510208129883,4.8973588943481445,7.649378776550293,0.0021293016616255045,0.10007718205451965,-0.047909289598464966
-3.8482673168182373,4.747912406921387,7.27349853515625,-0.0021293016616255045,0.09901253134012222,0.022357666864991188
-3.2308411598205566,5.0615434646606445,7.628644943237305,-0.06920230388641357,0.15224507451057434,-0.017034413293004036
-3.164339780807495,5.046785831451416,8.13985538482666,-0.07878416031599045,0.2108008712530136,-0.03726277872920036
-3.6190943717956543,4.8512749671936035,9.101212501525879,-0.03193952515721321,0.6249500513076782,-0.06494370102882385
-4.114177227020264,5.12193489074707,7.801477432250977,0.05323254317045212,0.9805434346199036,-0.020228365436196327
-4.384195327758789,4.456873416900635,5.679419994354248,0.2768092155456543,0.013840461149811745,-0.047909289598464966
-3.9087257385253906,4.210682392120361,5.947062969207764,0.2352878302335739,-0.10433578491210938,0.06174974888563156
-3.549480676651001,5.588191509246826,7.038071632385254,-0.03406882658600807,-0.004258603323251009,-0.02342231757938862
-3.796840190887451,5.432280540466309,8.565170288085938,-0.11391764134168625,0.34494686126708984,-0.13733996450901031
-4.106592178344727,5.235984802246094,8.580426216125488,0.013840461149811745,0.3960501253604889,-0.126693457365036
-4.081137180328369,4.769804954528809,6.652739524841309,0.20760691165924072,0.2831971347332001,-0.0841074138879776
-3.897568941116333,4.950088977813721,5.0734758377075195,0.12030554562807083,-0.13946926593780518,0.0031939526088535786
-3.5812182426452637,5.076349258422852,5.501511573791504,-0.09262461960315704,-0.5376486778259277,-0.0734609067440033
-3.708484411239624,5.053949356079102,6.3048906326293945,-0.18631389737129211,-0.6025923490524292,-0.126693457365036
-3.9054696559906006,4.914012908935547,8.128247261047363,-0.20973621308803558,-0.5142263770103455,-0.1362753063440323
-4.069961071014404,4.853659629821777,8.428470611572266,-0.08623671531677246,-0.31087803840637207,-0.09581857919692993
-4.175353527069092,4.802826404571533,8.19532299041748,-0.022357666864991188,-0.24061109125614166,-0.0596204474568367
-4.131779193878174,4.615790843963623,7.724135398864746,0.024486970156431198,-0.1543743759393692,0.0074525559321045876
-3.9561214447021484,4.674248218536377,7.382185459136963,0.02342231757938862,-0.1437278687953949,0.06281439960002899
-3.6510043144226074,4.976099014282227,7.562450408935547,0.004258603323251009,-0.15863297879695892,0.05749114602804184
-3.6127068996429443,4.96401309967041,7.8013434410095215,0.022357666864991188,-0.0734609067440033,0.038327429443597794
-3.6075639724731445,4.932840824127197,7.54281759262085,0.039392080157995224,-0.05323254317045212,0.043650683015584946
-3.709825277328491,4.955844402313232,7.212465763092041,0.03193952515721321,-0.09262461960315704,0.06494370102882385
-3.5801360607147217,5.023609638214111,7.562459468841553,0.041521381586790085,-0.1543743759393692,0.05855579674243927
-3.4785261154174805,5.0859832763671875,7.630962371826172,0.045779984444379807,-0.126693457365036,0.03726277872920036
-3.487365484237671,5.078973293304443,7.646572589874268,0.04684463515877724,-0.08197811245918274,0.0021293016616255045
-3.606424331665039,5.0092926025390625,7.428374290466309,0.047909289598464966,-0.05216789245605469,-0.005323254037648439
-3.6554574966430664,4.935225486755371,7.350955486297607,0.042586032301187515,-0.05323254317045212,0.006387905217707157
-3.6013102531433105,4.973618507385254,7.280968189239502,0.022357666864991188,-0.07771950960159302,0.019163714721798897
-3.6550650596618652,4.941603660583496,7.452354907989502,0.038327429443597794,-0.14798647165298462,0.02555162087082863
-3.7818617820739746,4.910689353942871,7.569843292236328,0.06813765317201614,-0.1756673902273178,0.047909289598464966
-3.6867928504943848,4.980964183807373,7.637714385986328,0.05003859102725983,-0.09262461960315704,0.07665485888719559
-3.5939457416534424,5.019022464752197,7.556694507598877,0.0351334773004055,-0.05749114602804184,0.09049531817436218
-3.5477375984191895,5.018850326538086,7.531928539276123,0.09581857919692993,-0.11711159348487854,0.10220648348331451
-3.4879019260406494,4.99819278717041,7.418041706085205,0.1330813616514206,-0.17992599308490753,0.12137019634246826
-3.3486740589141846,5.073965072631836,7.2908711433410645,0.12137019634246826,-0.18844319880008698,0.12456414848566055
-3.3653664588928223,5.158786773681641,7.344903469085693,0.06920230388641357,-0.23635248839855194,0.03406882658600807
-3.2739078998565674,5.133675575256348,7.295027256011963,0.014905111864209175,-0.1543743759393692,0.05429719388484955
-3.3527634143829346,5.256067276000977,7.545048713684082,0.005323254037648439,-0.1788613349199295,0.07665485888719559
-3.1536617279052734,5.20042610168457,7.719682216644287,0.05110324174165726,-0.16395622491836548,0.05536184459924698
-3.1821718215942383,5.1477251052856445,7.6759538650512695,0.047909289598464966,-0.1054004356265068,0.039392080157995224
-3.21378493309021,5.155520439147949,7.587215900421143,0.042586032301187515,-0.07559020817279816,0.039392080157995224
-3.193673610687256,5.1491618156433105,7.560295581817627,0.03300417587161064,-0.07559020817279816,0.04684463515877724
-3.106553316116333,5.139776229858398,7.448657989501953,0.041521381586790085,-0.09049531817436218,0.03726277872920036
-3.2041122913360596,5.176599025726318,7.372264385223389,0.0351334773004055,-0.13733996450901031,0.020228365436196327
-3.2214462757110596,5.206124305725098,7.411040306091309,0.02342231757938862,-0.1511804163455963,0.017034413293004036
-3.156237840652466,5.152858257293701,7.5837202072143555,0.0031939526088535786,-0.13201670348644257,0.013840461149811745
-3.1471493244171143,5.121484756469727,7.617229461669922,0.0010646508308127522,-0.11817624419927597,0.019163714721798897
-3.1442763805389404,5.224684715270996,7.716904640197754,0.0074525559321045876,-0.09155996888875961,0.02874557301402092
-3.0695486068725586,5.250302314758301,7.669566631317139,0.018099064007401466,-0.06281439960002899,0.024486970156431198
-3.0424463748931885,5.210319519042969,7.573721885681152,0.024486970156431198,-0.05216789245605469,0.010646508075296879
-3.0697975158691406,5.17432975769043,7.377684593200684,0.0031939526088535786,-0.05536184459924698,0.006387905217707157
-3.021214246749878,5.2490668296813965,7.48488712310791,-0.014905111864209175,-0.09901253134012222,0.010646508075296879
-2.9308860301971436,5.252753734588623,7.7064948081970215,0.010646508075296879,-0.11498229205608368,-0.01171115878969431
-3.0571274757385254,5.196030616760254,7.705996513366699,0.021293016150593758,-0.08623671531677246,-0.020228365436196327
-3.0801596641540527,5.1991143226623535,7.653707504272461,0.012775810435414314,-0.04684463515877724,-0.008517206646502018
-2.999321699142456,5.18950891494751,7.5205512046813965,-0.02874557301402092,-0.06387905031442642,-0.018099064007401466
-3.0773823261260986,5.220834255218506,7.558140754699707,-0.05003859102725983,-0.06707300245761871,-0.015969762578606606
-3.0189926624298096,5.187602996826172,7.653295516967773,-0.05429719388484955,-0.07239625602960587,-0.0031939526088535786
-2.9108223915100098,5.266918182373047,7.831692218780518,-0.02555162087082863,-0.08197811245918274,-0.015969762578606606
-2.879927635192871,5.256000518798828,7.802166938781738,-0.010646508075296879,-0.07239625602960587,-0.02981022372841835
-2.9067142009735107,5.1805830001831055,7.638250350952148,0.0021293016616255045,-0.07878416031599045,-0.03619812801480293
-2.9681012630462646,5.151000499725342,7.615428924560547,-0.0010646508308127522,-0.09155996888875961,-0.03406882658600807
-3.0442752838134766,5.1175103187561035,7.5984392166137695,-0.0074525559321045876,-0.09049531817436218,-0.020228365436196327
-2.972583293914795,5.1404852867126465,7.57369327545166,-0.008517206646502018,-0.09581857919692993,-0.019163714721798897
-2.9335484504699707,5.188857555389404,7.60884952545166,-0.022357666864991188,-0.09688322991132736,-0.03300417587161064
-2.982198476791382,5.179031848907471,7.61720085144043,-0.02981022372841835,-0.08623671531677246,-0.03300417587161064
-2.926039934158325,5.115068435668945,7.626729488372803,-0.040456730872392654,-0.09581857919692993,-0.022357666864991188
-2.87302303314209,5.190916538238525,7.722507476806641,-0.02981022372841835,-0.12243484705686569,-0.010646508075296879
-2.870293378829956,5.177489757537842,7.868093967437744,-0.0021293016616255045,-0.12562879920005798,-0.02555162087082863
-2.9307615756988525,5.077364444732666,7.6962571144104,-0.008517206646502018,-0.08091346174478531,-0.019163714721798897
-2.9109947681427,5.138473987579346,7.733491897583008,-0.02342231757938862,-0.06281439960002899,-0.0074525559321045876
-2.8917646408081055,5.137487888336182,7.747435569763184,-0.022357666864991188,-0.0596204474568367,-0.006387905217707157
-2.8993113040924072,5.144746780395508,7.6593194007873535,-0.018099064007401466,-0.08091346174478531,-0.008517206646502018
-2.8438711166381836,5.101459503173828,7.584007263183594,-0.012775810435414314,-0.1298874020576477,-0.0010646508308127522
-2.7633299827575684,5.132210731506348,7.602538585662842,-0.022357666864991188,-0.17460273206233978,-0.006387905217707157
-2.7645175457000732,5.193521499633789,7.682571887969971,-0.03300417587161064,-0.17992599308490753,-0.005323254037648439
-2.7141916751861572,5.1030402183532715,7.839095115661621,-0.044715333729982376,-0.16182692348957062,-0.01171115878969431
-2.722485065460205,5.207302570343018,8.125920295715332,-0.041521381586790085,-0.10007718205451965,-0.020228365436196327
-2.741590738296509,5.1029438972473145,8.099335670471191,-0.02555162087082863,-0.06387905031442642,-0.019163714721798897
-2.7687602043151855,5.038865566253662,7.8403401374816895,0.005323254037648439,-0.05536184459924698,-0.004258603323251009
-2.760993480682373,5.14024543762207,7.767642498016357,-0.009581857360899448,-0.05003859102725983,-0.0010646508308127522
-2.828883409500122,5.022881984710693,7.841067790985107,-0.02342231757938862,-0.03300417587161064,0.010646508075296879
-2.827446699142456,5.015086650848389,7.898595809936523,-0.009581857360899448,-0.03619812801480293,0.03087487444281578
-2.730165719985962,5.128083229064941,7.839756011962891,-0.0010646508308127522,-0.048973940312862396,0.039392080157995224
-2.6327216625213623,5.1323065757751465,7.901200771331787,0.0074525559321045876,-0.048973940312862396,0.02768092229962349
-2.7182424068450928,5.104543685913086,7.94943904876709,0.013840461149811745,-0.010646508075296879,0.013840461149811745
-2.6763248443603516,5.1460394859313965,7.905088901519775,0.020228365436196327,0.010646508075296879,0.02981022372841835
-2.6486763954162598,5.131789684295654,7.856362342834473,0.040456730872392654,0.0031939526088535786,0.024486970156431198
-2.6404309272766113,5.134872913360596,7.658993721008301,0.043650683015584946,-0.018099064007401466,0.01171115878969431
-2.7022972106933594,5.119166851043701,7.669806003570557,0.018099064007401466,-0.02874557301402092,0.015969762578606606
-2.700582981109619,5.151154041290283,7.825256824493408,-0.009581857360899448,0.006387905217707157,0.018099064007401466
-2.6471827030181885,5.16593074798584,7.773110866546631,-0.004258603323251009,0.015969762578606606,0.014905111864209175
-2.672886610031128,5.1497650146484375,7.852502822875977,0.013840461149811745,-0.010646508075296879,0.014905111864209175
-2.6823678016662598,5.114646911621094,7.855366230010986,0.024486970156431198,-0.004258603323251009,0.012775810435414314
-2.7044613361358643,5.104236602783203,7.768657684326172,0.013840461149811745,0.004258603323251009,0.017034413293004036
-2.733680486679077,5.098912239074707,7.611359119415283,0.004258603323251009,-0.013840461149811745,0.03087487444281578
-2.6413025856018066,5.146010875701904,7.616903781890869,0.0031939526088535786,-0.039392080157995224,0.03193952515721321
-2.6138267517089844,5.181311130523682,7.60206937789917,0.0,-0.070266954600811,0.02555162087082863
-2.6638176441192627,5.144000053405762,7.739190101623535,-0.006387905217707157,-0.0841074138879776,0.006387905217707157
-2.7101407051086426,5.123457431793213,7.726663589477539,-0.012775810435414314,-0.07665485888719559,0.010646508075296879
-2.7338144779205322,5.09030294418335,7.707883358001709,-0.019163714721798897,-0.07452555745840073,0.024486970156431198
-2.729475975036621,5.10601806640625,7.642167568206787,-0.03619812801480293,-0.09581857919692993,0.04684463515877724
-2.7784039974212646,5.024538516998291,7.6629204750061035,-0.021293016150593758,-0.19483110308647156,0.06494370102882385
-2.7880189418792725,5.018591403961182,7.641429901123047,-0.008517206646502018,-0.24486969411373138,0.08304276317358017
-2.7135403156280518,5.146298408508301,7.8435959815979,-0.0074525559321045876,-0.28958502411842346,0.10965903848409653
-2.62368106842041,5.1982526779174805,7.856534481048584,-0.012775810435414314,-0.2704213261604309,0.11391764134168625
-2.5621118545532227,5.2219929695129395,7.952743053436279,-0.010646508075296879,-0.27467992901802063,0.11391764134168625
-2.5642571449279785,5.151642322540283,8.132509231567383,0.03406882658600807,-0.2842617630958557,0.11817624419927597
-2.4672632217407227,5.109734058380127,8.153932571411133,0.05429719388484955,-0.280003160238266,0.1330813616514206
-2.2136213779449463,5.18928861618042,8.189386367797852,0.08730136603116989,-0.25125759840011597,0.15011577308177948
-2.1047236919403076,5.216860294342041,8.180058479309082,0.09794788062572479,-0.1927018016576767,0.1362753063440323
-2.1191651821136475,5.25017786026001,7.9557600021362305,0.08623671531677246,-0.1085943877696991,0.11178833991289139
-2.1178150177001953,5.264313697814941,7.787600517272949,0.05855579674243927,-0.08091346174478531,0.10752973705530167
-2.0351767539978027,5.323737144470215,7.822910785675049,0.02555162087082863,-0.06813765317201614,0.10646508634090424
-1.96683669090271,5.3312835693359375,8.101873397827148,0.05216789245605469,-0.17992599308490753,0.05429719388484955
-2.0475499629974365,5.401979923248291,8.064178466796875,0.12349949777126312,-0.1469218134880066,0.03619812801480293
-1.9520500898361206,5.2820210456848145,7.91357421875,0.13095206022262573,-0.15863297879695892,0.041521381586790085
-1.9653427600860596,5.354402542114258,7.732553005218506,0.09581857919692993,-0.09049531817436218,0.02342231757938862
-2.1331570148468018,5.4007248878479,7.728971481323242,0.039392080157995224,-0.07133160531520844,0.006387905217707157
-2.0623557567596436,5.332911968231201,7.850951194763184,0.02981022372841835,-0.07984881103038788,0.017034413293004036
-2.0440640449523926,5.341789722442627,7.890608787536621,0.03726277872920036,-0.09368927031755447,0.021293016150593758
-1.9561299085617065,5.3789381980896,7.796267509460449,0.04684463515877724,-0.10114183276891708,0.02342231757938862
-1.9276676177978516,5.31114387512207,7.64464807510376,0.009581857360899448,-0.070266954600811,0.006387905217707157
-1.9518394470214844,5.3238139152526855,7.640491008758545,-0.02874557301402092,-0.04684463515877724,-0.0021293016616255045
-1.943957805633545,5.398044109344482,7.718925476074219,-0.0841074138879776,-0.02768092229962349,-0.008517206646502018
-1.863752007484436,5.417321681976318,7.805997371673584,-0.10007718205451965,-0.03619812801480293,-0.03406882658600807
-1.914786696434021,5.404670715332031,8.053826332092285,-0.07878416031599045,-0.07665485888719559,-0.05429719388484955
-2.0548763275146484,5.362542629241943,8.354193687438965,-0.020228365436196327,-0.06813765317201614,-0.05536184459924698
-2.092513084411621,5.224091053009033,8.013680458068848,0.019163714721798897,-0.015969762578606606,-0.022357666864991188
-2.0393617153167725,5.239700794219971,7.7094831466674805,0.008517206646502018,-0.047909289598464966,0.004258603323251009
-1.882828950881958,5.330527305603027,7.674508094787598,-0.05429719388484955,-0.0841074138879776,-0.0351334773004055
-1.9481236934661865,5.304947853088379,7.72872257232666,-0.07239625602960587,-0.09049531817436218,-0.042586032301187515
-1.995193600654602,5.270586013793945,7.8777947425842285,-0.09155996888875961,-0.10007718205451965,-0.03619812801480293
-1.8216522932052612,5.353559494018555,8.093914985656738,-0.07771950960159302,-0.09901253134012222,-0.0351334773004055
-1.863560438156128,5.260961532592773,8.027825355529785,-0.06068509817123413,-0.09794788062572479,-0.06600835174322128
-1.9264129400253296,5.220020294189453,8.058327674865723,-0.05536184459924698,-0.0734609067440033,-0.09155996888875961
-1.8705323934555054,5.252351760864258,8.104583740234375,-0.02981022372841835,-0.08943066745996475,-0.07665485888719559
-1.8719784021377563,5.2590460777282715,8.071016311645508,-0.03406882658600807,-0.05536184459924698,-0.0841074138879776
-1.856713056564331,5.198970794677734,8.062685012817383,-0.042586032301187515,-0.006387905217707157,-0.09368927031755447
-1.8718634843826294,5.115623474121094,8.028668403625488,-0.04684463515877724,-0.015969762578606606,-0.07665485888719559
-1.9506901502609253,5.186319828033447,8.161642074584961,-0.021293016150593758,-0.040456730872392654,-0.05749114602804184
-1.7285561561584473,5.345179557800293,8.261249542236328,0.006387905217707157,-0.009581857360899448,-0.0734609067440033
-1.6464637517929077,5.332566738128662,8.38404369354248,0.021293016150593758,0.017034413293004036,-0.09688322991132736
-1.8729840517044067,5.169043064117432,8.315138816833496,0.02342231757938862,0.16076228022575378,-0.1330813616514206
-2.168217658996582,5.036509990692139,7.7587361335754395,0.014905111864209175,0.15543901920318604,-0.045779984444379807
-1.9673442840576172,5.188962936401367,7.928877830505371,0.024486970156431198,0.06813765317201614,-0.03726277872920036
-2.0299477577209473,5.168765544891357,8.067856788635254,0.019163714721798897,0.10220648348331451,-0.06920230388641357
-2.1717324256896973,5.122950077056885,8.12708854675293,0.014905111864209175,0.14798647165298462,-0.0596204474568367
-2.143394708633423,5.135495662689209,8.04647159576416,0.013840461149811745,0.16715018451213837,-0.045779984444379807
-2.1209468841552734,5.252208232879639,8.044211387634277,0.015969762578606606,0.1682148277759552,-0.03619812801480293
-2.161121368408203,5.1861186027526855,7.9991044998168945,0.022357666864991188,0.18311993777751923,-0.042586032301187515
-2.2992188930511475,5.068007946014404,7.8239827156066895,0.02555162087082863,0.16927948594093323,-0.02555162087082863
-2.2614290714263916,5.011677265167236,7.578625202178955,-0.0031939526088535786,0.1650208830833435,0.006387905217707157
-2.2278335094451904,5.055490493774414,7.472140789031982,-0.06387905031442642,0.09155996888875961,0.015969762578606606
-2.2362802028656006,5.241395950317383,8.394186973571777,-0.09262461960315704,0.11391764134168625,-0.006387905217707157
-2.330467939376831,5.106640815734863,8.423213958740234,-0.0021293016616255045,0.15224507451057434,0.0031939526088535786
-2.4424304962158203,5.092419147491455,7.535395622253418,0.10646508634090424,0.020228365436196327,0.048973940312862396
-2.2441043853759766,5.320605278015137,7.798594951629639,0.11817624419927597,-0.18631389737129211,0.041521381586790085
-1.7801368236541748,5.493773460388184,8.221421241760254,0.05110324174165726,-0.015969762578606606,-0.02874557301402092
-2.081451892852783,5.415665149688721,8.106757164001465,0.024486970156431198,0.11498229205608368,-0.11178833991289139
-2.2563722133636475,5.282403945922852,7.934412956237793,0.05749114602804184,0.07665485888719559,-0.10965903848409653
-2.4022843837738037,5.156286716461182,7.602107524871826,0.0947539210319519,-0.02555162087082863,-0.06600835174322128
-2.2915477752685547,5.02321720123291,7.246079921722412,0.047909289598464966,-0.09581857919692993,-0.03726277872920036
-2.5080602169036865,4.950826168060303,7.183974742889404,-0.044715333729982376,-0.16395622491836548,-0.018099064007401466
-2.3421804904937744,5.261171817779541,7.731040000915527,-0.14479251205921173,-0.1714087873697281,0.012775810435414314
-2.171196222305298,5.208796501159668,8.55195426940918,-0.0010646508308127522,-0.070266954600811,-0.04684463515877724
-2.406661033630371,5.03954553604126,8.24537181854248,0.06494370102882385,-0.040456730872392654,-0.018099064007401466
-2.460559368133545,4.958841800689697,7.9073967933654785,0.07133160531520844,-0.039392080157995224,0.012775810435414314
-2.3185927867889404,4.985494136810303,7.539024829864502,0.05216789245605469,-0.1192408949136734,0.08304276317358017
-1.9256277084350586,5.378909111022949,7.813640117645264,-0.009581857360899448,-0.10646508634090424,0.06494370102882385
-1.8757803440093994,5.348062515258789,7.992946624755859,-0.02555162087082863,-0.0841074138879776,0.0351334773004055
-2.1554996967315674,5.109006404876709,7.964474678039551,-0.018099064007401466,-0.043650683015584946,-0.0031939526088535786
-2.223705768585205,5.209773540496826,8.099996566772461,-0.013840461149811745,-0.07133160531520844,0.018099064007401466
-1.99543297290802,5.219522476196289,8.214151382446289,0.01171115878969431,-0.019163714721798897,0.02342231757938862
-1.9865458011627197,5.245935440063477,8.015997886657715,0.014905111864209175,0.03193952515721321,0.0010646508308127522
-2.096832275390625,5.212856769561768,7.819395542144775,0.0074525559321045876,0.0351334773004055,0.0021293016616255045
-2.081059217453003,5.172452449798584,7.7800445556640625,-0.010646508075296879,-0.02342231757938862,0.006387905217707157
-2.162548303604126,5.124692916870117,7.9817609786987305,-0.012775810435414314,-0.02768092229962349,0.006387905217707157
-2.0406930446624756,5.2065558433532715,7.926990985870361,-0.012775810435414314,-0.02342231757938862,0.009581857360899448
-2.0081799030303955,5.2874603271484375,8.168001174926758,-0.0074525559321045876,-0.041521381586790085,-0.014905111864209175
-2.150404930114746,5.125057220458984,8.054553985595703,0.017034413293004036,0.018099064007401466,-0.018099064007401466
-2.191412925720215,5.0606818199157715,7.907933235168457,0.017034413293004036,0.010646508075296879,-0.0010646508308127522
-2.236825942993164,5.119616985321045,7.836653232574463,0.0031939526088535786,-0.017034413293004036,0.02768092229962349
-2.043393611907959,5.164340972900391,7.917816638946533,-0.009581857360899448,-0.02342231757938862,0.02874557301402092
-2.0103249549865723,5.220432281494141,8.038675308227539,-0.013840461149811745,-0.018099064007401466,0.013840461149811745
-2.1128735542297363,5.210606575012207,8.119743347167969,-0.010646508075296879,0.02874557301402092,0.0031939526088535786
-2.1026549339294434,5.168602466583252,7.888291358947754,-0.006387905217707157,0.022357666864991188,0.017034413293004036
-2.036642074584961,5.234673023223877,7.896929740905762,-0.009581857360899448,0.004258603323251009,0.012775810435414314
-1.942827582359314,5.223832130432129,7.945014476776123,-0.015969762578606606,-0.010646508075296879,-0.005323254037648439
-2.043997049331665,5.232508659362793,8.008134841918945,-0.017034413293004036,0.0031939526088535786,-0.02555162087082863
-2.137514591217041,5.168257713317871,7.952905654907227,-0.010646508075296879,-0.004258603323251009,-0.017034413293004036
-2.145721912384033,5.178150653839111,7.885734558105469,-0.005323254037648439,-0.013840461149811745,-0.008517206646502018
-2.1483170986175537,5.131176471710205,7.8558454513549805,-0.018099064007401466,-0.03087487444281578,-0.0074525559321045876
-2.1644253730773926,5.095426082611084,7.943434715270996,-0.018099064007401466,-0.044715333729982376,-0.0021293016616255045
-2.1333296298980713,5.139211654663086,8.052648544311523,-0.012775810435414314,-0.05855579674243927,0.014905111864209175
-2.063380479812622,5.14164400100708,8.155330657958984,-0.0021293016616255045,-0.038327429443597794,0.022357666864991188
-2.059664726257324,5.170977592468262,8.013382911682129,0.015969762578606606,-0.02874557301402092,0.0351334773004055
-2.018264055252075,5.1998515129089355,7.914349555969238,0.024486970156431198,-0.03619812801480293,0.03619812801480293
-2.056514024734497,5.16742467880249,7.947782039642334,0.02874557301402092,-0.05642649531364441,0.03087487444281578
-2.0384902954101562,5.204075336456299,7.97833251953125,0.03087487444281578,-0.05536184459924698,0.024486970156431198
-1.944522738456726,5.241060733795166,7.916006565093994,0.008517206646502018,-0.03300417587161064,0.01171115878969431
-1.9283761978149414,5.216888904571533,8.088159561157227,0.043650683015584946,-0.09368927031755447,0.022357666864991188
-1.9163191318511963,5.181014060974121,8.011822700500488,0.042586032301187515,-0.0841074138879776,0.01171115878969431
-1.9187132120132446,5.199947834014893,7.9461164474487305,0.03087487444281578,-0.07133160531520844,0.0
-2.0201220512390137,5.277826309204102,7.851660251617432,-0.0010646508308127522,-0.048973940312862396,-0.015969762578606606
-1.882283091545105,5.20877742767334,8.110491752624512,0.015969762578606606,-0.07984881103038788,0.02768092229962349
-1.880789041519165,4.659356117248535,7.74456262588501,0.008517206646502018,-0.08517206460237503,0.048973940312862396
-2.3934834003448486,5.317560195922852,8.442970275878906,0.02874557301402092,-0.024486970156431198,0.21293017268180847
-1.6912832260131836,5.284396171569824,8.508983612060547,0.10752973705530167,-0.024486970156431198,0.16927948594093323
-1.589194416999817,5.349891662597656,7.98555326461792,0.20867156982421875,-0.0841074138879776,0.09901253134012222
-1.8681763410568237,5.348780632019043,7.727535247802734,0.17353808879852295,-0.08836601674556732,0.05642649531364441
-1.787386417388916,5.341483116149902,7.69691801071167,0.09794788062572479,-0.038327429443597794,0.05642649531364441
-1.725031852722168,5.4429779052734375,7.682648658752441,0.06387905031442642,-0.07452555745840073,0.05855579674243927
-1.6002174615859985,5.515627861022949,7.664510250091553,0.03406882658600807,-0.11178833991289139,0.02768092229962349
-1.5541625022888184,5.482338905334473,7.844889163970947,-0.009581857360899448,-0.070266954600811,-0.009581857360899448
-1.6364655494689941,5.454930305480957,8.079741477966309,-0.02981022372841835,-0.02555162087082863,-0.015969762578606606
-1.8266993761062622,5.276044845581055,7.892361164093018,-0.02768092229962349,0.0021293016616255045,0.0021293016616255045
-1.73887038230896,5.333400249481201,7.927460670471191,-0.02768092229962349,-0.0031939526088535786,0.0010646508308127522
-1.721900224685669,5.405092239379883,7.915230751037598,-0.03300417587161064,0.0010646508308127522,-0.02874557301402092
-1.8483237028121948,5.348876476287842,8.057723999023438,-0.040456730872392654,0.01171115878969431,-0.018099064007401466
-1.8305778503417969,5.3082804679870605,8.208213806152344,-0.020228365436196327,0.042586032301187515,0.012775810435414314
-1.7439652681350708,5.338820934295654,8.095303535461426,0.019163714721798897,0.04684463515877724,0.021293016150593758
-1.7715177536010742,5.294700622558594,8.097113609313965,0.018099064007401466,0.08517206460237503,0.017034413293004036
-1.7729254961013794,5.250197410583496,8.093541145324707,0.012775810435414314,0.1469218134880066,0.02555162087082863
-1.7351258993148804,5.417159080505371,8.028486251831055,0.0031939526088535786,0.18311993777751923,0.017034413293004036
-1.7244861125946045,5.40084981918335,8.062713623046875,0.02661627158522606,0.1895078420639038,0.004258603323251009
-1.8167107105255127,5.34436559677124,7.851707935333252,0.05003859102725983,0.18311993777751923,-0.0031939526088535786
-1.9619333744049072,5.386427402496338,7.945234775543213,0.02981022372841835,0.17247343063354492,0.005323254037648439
-1.9779553413391113,5.355436325073242,8.048012733459473,0.03300417587161064,0.20228366553783417,0.015969762578606606
-1.8510147333145142,5.418595790863037,8.031033515930176,0.06494370102882385,0.2139948159456253,0.006387905217707157
-2.0505666732788086,5.336302280426025,8.008269309997559,0.10007718205451965,0.20441296696662903,0.0
-2.1980302333831787,5.232259750366211,7.594972610473633,0.12030554562807083,0.18311993777751923,0.02768092229962349
-2.285677194595337,5.313279151916504,7.585118293762207,0.10327113419771194,0.06707300245761871,0.045779984444379807
-2.2057013511657715,5.367877006530762,7.120738983154297,0.06600835174322128,-0.039392080157995224,0.07559020817279816
-2.0225448608398438,5.482291221618652,7.296578407287598,0.03193952515721321,-0.09901253134012222,0.08197811245918274
-1.624465823173523,5.672304153442383,7.907444953918457,-0.010646508075296879,-0.07452555745840073,0.019163714721798897
-1.6443281173706055,5.81587028503418,8.17892837524414,0.0021293016616255045,0.005323254037648439,-0.043650683015584946
-1.7841687202453613,5.844313621520996,7.92725944519043,0.009581857360899448,0.020228365436196327,-0.07559020817279816
-1.8048354387283325,5.402688503265381,7.124138832092285,0.008517206646502018,-0.06068509817123413,-0.09368927031755447
-2.0901668071746826,5.434090614318848,7.239490985870361,-0.05855579674243927,-0.20441296696662903,-0.06068509817123413
-1.9385946989059448,5.469180107116699,7.674948692321777,-0.08623671531677246,-0.22357667982578278,-0.05855579674243927
-1.9878002405166626,5.444711208343506,8.293783187866211,-0.08836601674556732,-0.12775810062885284,-0.10007718205451965
-2.3404088020324707,5.226925373077393,8.242000579833984,-0.03300417587161064,-0.05536184459924698,-0.043650683015584946
-2.3230462074279785,5.195178031921387,7.909657001495361,0.02768092229962349,-0.08623671531677246,0.02555162087082863
-2.0900232791900635,5.323708534240723,7.645107269287109,0.02661627158522606,-0.11285299062728882,0.038327429443597794
-2.0260884761810303,5.360167503356934,7.7699408531188965,-0.013840461149811745,-0.1192408949136734,0.05642649531364441
-2.0303595066070557,5.415646076202393,7.832784175872803,-0.019163714721798897,-0.12243484705686569,0.07771950960159302
-1.7987828254699707,5.530404567718506,7.982632160186768,-0.0074525559321045876,-0.14905111491680145,0.08517206460237503
-1.5284870862960815,5.55903959274292,8.161642074584961,0.014905111864209175,-0.11285299062728882,0.05323254317045212
-1.7055144309997559,5.479389190673828,7.955615997314453,0.024486970156431198,-0.05003859102725983,0.02342231757938862
-1.97484290599823,5.428191184997559,7.625360012054443,0.01171115878969431,-0.05749114602804184,0.042586032301187515
-1.9931058883666992,5.381964206695557,7.690568447113037,-0.004258603323251009,-0.12882275879383087,0.07239625602960587
-1.6566822528839111,5.415933132171631,7.87535285949707,0.0021293016616255045,-0.16608552634716034,0.07239625602960587
-1.582222580909729,5.463740825653076,8.119121551513672,0.0021293016616255045,-0.10965903848409653,0.03300417587161064
-1.6383618116378784,5.450084209442139,8.035161018371582,-0.0010646508308127522,-0.0596204474568367,0.03406882658600807
-1.6004664897918701,5.411182880401611,7.976790428161621,0.008517206646502018,-0.14266321063041687,0.019163714721798897
-1.533840537071228,5.621968746185303,7.793691635131836,0.020228365436196327,-0.070266954600811,0.03300417587161064
-1.5249724388122559,5.56959342956543,7.773762226104736,-0.019163714721798897,-0.09794788062572479,-0.017034413293004036
-1.6051973104476929,5.405436992645264,7.7131218910217285,-0.05110324174165726,-0.09049531817436218,-0.02661627158522606
-1.6356611251831055,5.470109462738037,7.908613204956055,-0.06920230388641357,-0.0947539210319519,-0.020228365436196327
-1.4956003427505493,5.550056457519531,7.973936557769775,-0.07665485888719559,-0.06600835174322128,-0.044715333729982376
-1.4388673305511475,5.491886615753174,8.071361541748047,-0.06920230388641357,-0.07452555745840073,-0.07133160531520844
-1.4463372230529785,5.428775787353516,8.01414966583252,-0.05429719388484955,-0.06387905031442642,-0.08091346174478531
-1.4409072399139404,5.430030345916748,7.899285793304443,-0.043650683015584946,-0.06600835174322128,-0.0841074138879776
-1.6058582067489624,5.400917053222656,8.017539978027344,-0.05749114602804184,-0.06494370102882385,-0.07984881103038788
-1.8260672092437744,5.414535045623779,8.440777778625488,-0.05642649531364441,0.012775810435414314,-0.0947539210319519
-1.8478448390960693,5.336704254150391,8.546313285827637,-0.03087487444281578,0.044715333729982376,-0.08304276317358017
-1.6771478652954102,5.227452278137207,8.114130973815918,0.03406882658600807,0.10220648348331451,-0.03193952515721321
-1.7648906707763672,5.2340312004089355,7.69282865524292,0.07133160531520844,-0.008517206646502018,0.0031939526088535786
-1.629761815071106,5.36574125289917,7.684564113616943,0.05110324174165726,-0.05429719388484955,-0.017034413293004036
-1.998076319694519,5.3661627769470215,8.044795036315918,-0.012775810435414314,-0.044715333729982376,-0.024486970156431198
-1.8463988304138184,5.351490497589111,8.098186492919922,-0.02555162087082863,-0.0074525559321045876,-0.0010646508308127522
-1.478180170059204,5.3317437171936035,8.001288414001465,-0.004258603323251009,-0.004258603323251009,0.022357666864991188
-1.5422968864440918,5.386475086212158,7.822843074798584,0.040456730872392654,-0.07452555745840073,0.010646508075296879
-1.6345311403274536,5.426994800567627,7.8134002685546875,0.045779984444379807,-0.09794788062572479,0.0031939526088535786
-1.5256428718566895,5.4394731521606445,7.835858345031738,0.01171115878969431,-0.06813765317201614,0.0010646508308127522
-1.417635440826416,5.437107563018799,7.937228679656982,-0.014905111864209175,-0.047909289598464966,-0.009581857360899448
-1.4791473150253296,5.431485652923584,8.045475959777832,-0.05216789245605469,0.041521381586790085,-0.03726277872920036
-1.794492483139038,5.4567975997924805,7.9751434326171875,-0.05429719388484955,0.038327429443597794,-0.018099064007401466
-1.5058858394622803,5.248856544494629,8.380462646484375,0.07878416031599045,-0.0010646508308127522,0.006387905217707157
-1.7437736988067627,5.102982521057129,8.114677429199219,0.15330971777439117,0.05749114602804184,-0.0074525559321045876
-2.110565423965454,5.232365131378174,7.680599212646484,0.22357667982578278,0.02555162087082863,0.02342231757938862
-1.508327841758728,5.712890625,7.656139850616455,0.15224507451057434,-0.23954643309116364,0.03406882658600807
-1.1801691055297852,5.776193141937256,8.19626235961914,0.08197811245918274,-0.1895078420639038,0.009581857360899448
-0.9901365041732788,5.747520446777344,8.673139572143555,-0.009581857360899448,0.06174974888563156,-0.05110324174165726
-1.4586626291275024,5.625942707061768,8.036406517028809,-0.006387905217707157,0.1192408949136734,-0.03300417587161064
-1.5523045063018799,5.342364311218262,7.259056568145752,0.0031939526088535786,-0.009581857360899448,-0.014905111864209175
-1.5223292112350464,5.097935676574707,7.0389723777771,-0.0031939526088535786,-0.010646508075296879,-0.03300417587161064
-1.9066752195358276,5.2803544998168945,6.5789313316345215,-0.07239625602960587,-0.1788613349199295,-0.019163714721798897
-1.5980051755905151,5.563033103942871,7.8035078048706055,-0.2065422683954239,-0.280003160238266,-0.020228365436196327
-1.289133906364441,5.498015880584717,8.81343936920166,-0.22144737839698792,-0.07878416031599045,-0.08623671531677246
-1.54182767868042,5.305953025817871,8.651036262512207,-0.12030554562807083,0.06813765317201614,-0.08730136603116989
-1.9420326948165894,5.323948383331299,8.239108085632324,-0.013840461149811745,0.012775810435414314,-0.02874557301402092
-1.6155881881713867,5.280182361602783,7.962607383728027,0.0351334773004055,-0.013840461149811745,0.0074525559321045876
-1.4571877717971802,5.323670387268066,7.785149097442627,0.0021293016616255045,-0.024486970156431198,0.0074525559321045876
-1.5360240936279297,5.43005895614624,8.003117561340332,-0.047909289598464966,-0.013840461149811745,-0.021293016150593758
-1.5225399732589722,5.422062397003174,8.084051132202148,-0.05642649531364441,0.0010646508308127522,-0.024486970156431198
-1.5016241073608398,5.330105781555176,8.01136302947998,-0.03619812801480293,0.012775810435414314,-0.019163714721798897
-1.5081171989440918,5.402554035186768,7.990878105163574,-0.022357666864991188,-0.02342231757938862,-0.014905111864209175
-1.5035203695297241,5.4214301109313965,8.014925003051758,-0.017034413293004036,-0.02874557301402092,-0.022357666864991188
-1.5318102836608887,5.3564229011535645,8.038743019104004,-0.02768092229962349,0.0021293016616255045,-0.03193952515721321
-1.6431597471237183,5.310875415802002,7.988579750061035,-0.03619812801480293,0.02342231757938862,-0.020228365436196327
-1.5845304727554321,5.365108966827393,8.055703163146973,-0.03193952515721321,0.0031939526088535786,-0.014905111864209175
-1.5381309986114502,5.269647598266602,8.10669994354248,-0.019163714721798897,0.009581857360899448,-0.02342231757938862
-1.6032723188400269,5.2288312911987305,7.9724907875061035,-0.014905111864209175,-0.0021293016616255045,-0.0074525559321045876
-1.6757783889770508,5.26944637298584,8.04291820526123,-0.022357666864991188,-0.010646508075296879,0.0021293016616255045
-1.6418286561965942,5.267914295196533,7.991184711456299,-0.019163714721798897,0.0021293016616255045,0.009581857360899448
-1.575183629989624,5.368882179260254,7.982814311981201,-0.021293016150593758,-0.021293016150593758,0.010646508075296879
-1.4329584836959839,5.353224277496338,8.065893173217773,-0.015969762578606606,-0.018099064007401466,-0.006387905217707157
-1.5078778266906738,5.351624965667725,8.156336784362793,-0.015969762578606606,0.012775810435414314,-0.017034413293004036
-1.5214002132415771,5.290237903594971,7.990111827850342,-0.017034413293004036,0.03726277872920036,-0.0074525559321045876
-1.505483627319336,5.321649551391602,7.884518146514893,-0.02981022372841835,0.021293016150593758,-0.020228365436196327
-1.5451411008834839,5.255502223968506,7.953633785247803,-0.05536184459924698,0.015969762578606606,-0.03619812801480293
-1.53426194190979,5.227059364318848,8.103759765625,-0.06387905031442642,0.020228365436196327,-0.0351334773004055
-1.519044280052185,5.227816104888916,8.107772827148438,-0.05003859102725983,0.07133160531520844,-0.040456730872392654
-1.7974612712860107,5.243320941925049,7.999995231628418,-0.047909289598464966,0.041521381586790085,-0.024486970156431198
-1.7051312923431396,5.207618713378906,8.08816909790039,-0.04684463515877724,0.03087487444281578,-0.0031939526088535786
-1.6702430248260498,5.192180633544922,8.225289344787598,-0.039392080157995224,0.05536184459924698,0.0010646508308127522
-1.6801166534423828,5.2005414962768555,8.14393424987793,-0.03087487444281578,0.11285299062728882,0.012775810435414314
-1.6241306066513062,5.162856578826904,8.07433032989502,-0.03726277872920036,0.12137019634246826,0.02768092229962349
-1.5358612537384033,5.174846649169922,8.227788925170898,-0.040456730872392654,0.14266321063041687,0.02661627158522606
-1.5822416543960571,5.201546669006348,8.484323501586914,-0.010646508075296879,0.26190412044525146,0.03087487444281578
-1.7308449745178223,5.211372375488281,8.5297269821167,0.0074525559321045876,0.3683691918849945,0.05216789245605469
-1.790929913520813,5.158173561096191,8.374974250793457,0.022357666864991188,0.40776127576828003,0.07452555745840073
-1.8685691356658936,5.126158237457275,8.15926742553711,0.05003859102725983,0.4482180178165436,0.09262461960315704
-1.9864882230758667,5.243627548217773,7.916360855102539,0.03300417587161064,0.4727049767971039,0.07133160531520844
-2.0130832195281982,5.308835983276367,7.880840301513672,0.019163714721798897,0.46418777108192444,0.06707300245761871
-1.900153398513794,5.359755992889404,8.06309700012207,0.02981022372841835,0.46844637393951416,0.07878416031599045
-1.9225056171417236,5.313911437988281,8.142536163330078,0.03619812801480293,0.5472305417060852,0.09049531817436218
-2.0259830951690674,5.293455600738525,8.117311477661133,0.02768092229962349,0.5866225957870483,0.07239625602960587
-2.438293218612671,5.045014381408691,8.15491008758545,0.012775810435414314,0.7069281339645386,0.12775810062885284
-2.4711034297943115,5.177116394042969,8.048166275024414,-0.044715333729982376,0.8762076497077942,0.18631389737129211
-2.8201684951782227,5.392853260040283,7.350093841552734,0.012775810435414314,0.7314151525497437,0.05323254317045212
-3.3494021892547607,4.961207389831543,6.781729698181152,0.014905111864209175,0.583428680896759,0.12243484705686569
-2.956963539123535,5.1559038162231445,6.90805721282959,-0.024486970156431198,0.2736152708530426,0.2065422683954239
-2.9749391078948975,5.403311252593994,7.143043518066406,-0.020228365436196327,0.13521066308021545,0.1575683206319809
-3.3094475269317627,4.940138339996338,6.806112289428711,-0.0031939526088535786,-0.08091346174478531,0.19483110308647156
-2.7793617248535156,5.352687835693359,6.664231777191162,-0.02981022372841835,-0.4035026729106903,0.2672273516654968
-2.1090810298919678,5.749464988708496,7.584390640258789,-0.10220648348331451,-0.40456733107566833,0.17779669165611267
-2.162442922592163,5.484053134918213,7.9578857421875,-0.05855579674243927,-0.38753291964530945,0.039392080157995224
-2.572608232498169,5.486246109008789,7.922815322875977,-0.018099064007401466,-0.4492826461791992,0.038327429443597794
-2.2980315685272217,5.419007301330566,8.084721565246582,0.07452555745840073,-0.4971919357776642,0.05536184459924698
-2.2486820220947266,5.454805850982666,7.870085716247559,0.0947539210319519,-0.4386361539363861,0.009581857360899448
-2.2880043983459473,5.40094518661499,7.806399822235107,0.06813765317201614,-0.4162784814834595,0.0
-2.0488333702087402,5.397449970245361,7.86492395401001,0.08304276317358017,-0.4109552204608917,-0.006387905217707157
-1.888555884361267,5.428728103637695,7.799983501434326,0.05855579674243927,-0.34494686126708984,-0.03726277872920036
-2.003084897994995,5.362513542175293,7.738471508026123,0.0010646508308127522,-0.26083946228027344,-0.06068509817123413
-2.168715715408325,5.315060615539551,7.949927806854248,-0.014905111864209175,-0.22570598125457764,-0.05855579674243927
-2.135446071624756,5.397699356079102,7.995024681091309,-0.013840461149811745,-0.17673203349113464,-0.04684463515877724
-1.9835195541381836,5.3581085205078125,8.175930976867676,-0.0010646508308127522,-0.11391764134168625,-0.03193952515721321
-1.8774563074111938,5.341186046600342,8.035669326782227,0.0031939526088535786,-0.0596204474568367,-0.0351334773004055
-2.125131845474243,5.335095405578613,7.8004913330078125,-0.020228365436196327,-0.05003859102725983,-0.045779984444379807
-2.225592613220215,5.208806037902832,7.94701623916626,-0.005323254037648439,-0.06387905031442642,-0.02661627158522606
-2.130542755126953,5.207695484161377,7.82599401473999,0.0010646508308127522,-0.06068509817123413,-0.0074525559321045876
-2.017488479614258,5.385823726654053,7.989901542663574,-0.024486970156431198,-0.070266954600811,-0.0074525559321045876
-2.0582377910614014,5.338590621948242,7.822728633880615,-0.012775810435414314,0.009581857360899448,-0.019163714721798897
-2.095165967941284,5.392029285430908,7.908173084259033,-0.013840461149811745,-0.0010646508308127522,-0.018099064007401466
-1.9959405660629272,5.423077583312988,8.124455451965332,0.01171115878969431,0.03406882658600807,-0.038327429443597794
-2.0092906951904297,5.440210342407227,8.069561004638672,0.02342231757938862,0.08943066745996475,-0.044715333729982376
-2.036680221557617,5.365281581878662,7.837486267089844,0.021293016150593758,0.10752973705530167,-0.041521381586790085
-2.072516918182373,5.358012676239014,8.002006530761719,0.040456730872392654,0.05642649531364441,-0.043650683015584946
-2.1996583938598633,5.378660202026367,7.2888503074646,0.040456730872392654,0.21612411737442017,-0.05429719388484955
-2.488284111022949,5.266822338104248,6.779622554779053,-0.02661627158522606,0.11285299062728882,-0.05110324174165726
-2.4015567302703857,5.321869850158691,7.394262313842773,-0.08197811245918274,-0.05323254317045212,-0.01171115878969431
-1.9623355865478516,5.506740570068359,8.472237586975098,-0.05749114602804184,0.0021293016616255045,-0.020228365436196327
-2.0390264987945557,5.461547374725342,8.471835136413574,0.03726277872920036,0.03726277872920036,-0.038327429443597794
-2.0961906909942627,5.38329553604126,8.185526847839355,0.13521066308021545,0.014905111864209175,-0.039392080157995224
-2.028453826904297,5.268718719482422,7.411337375640869,0.140533909201622,0.05110324174165726,-0.042586032301187515
-2.4598026275634766,5.184643745422363,7.021082401275635,0.05536184459924698,-0.07239625602960587,-0.02768092229962349
-2.3725390434265137,5.358366966247559,7.668101787567139,-0.042586032301187515,-0.0947539210319519,0.019163714721798897
-2.1450705528259277,5.386494159698486,8.252449035644531,-0.05749114602804184,-0.05749114602804184,0.04684463515877724
-2.1012184619903564,5.456213474273682,8.210387229919434,0.02768092229962349,-0.018099064007401466,0.03193952515721321
-2.103679656982422,5.3763041496276855,7.875295639038086,0.06813765317201614,-0.0031939526088535786,0.02661627158522606
-1.9534484148025513,5.501176357269287,7.761005878448486,-0.02874557301402092,0.015969762578606606,0.005323254037648439
-1.9480661153793335,5.481764316558838,7.918410301208496,-0.024486970156431198,0.020228365436196327,-0.015969762578606606
-2.075140953063965,5.366191387176514,7.78305196762085,-0.010646508075296879,0.06600835174322128,-0.039392080157995224
-2.107290029525757,5.334654808044434,7.950406074523926,-0.03300417587161064,0.09368927031755447,-0.043650683015584946
-2.110795259475708,5.388715744018555,8.204977989196777,-0.020228365436196327,0.1788613349199295,-0.05110324174165726
-2.207195281982422,5.411709785461426,8.115386009216309,0.0010646508308127522,0.24274039268493652,-0.048973940312862396
-2.232593059539795,5.3797712326049805,8.02073860168457,0.009581857360899448,0.2938436269760132,-0.02768092229962349
-2.547689199447632,5.1687846183776855,7.430203914642334,-0.05855579674243927,0.4588645100593567,0.014905111864209175
-2.613319158554077,5.291319847106934,7.366565704345703,-0.15543901920318604,0.50357985496521,0.042586032301187515
-2.469580888748169,5.392125606536865,7.346866607666016,-0.1682148277759552,0.406696617603302,0.03087487444281578
-2.4588546752929688,5.385488986968994,7.492166042327881,-0.14266321063041687,0.30981338024139404,0.012775810435414314
-2.5564041137695312,5.363451957702637,7.840627670288086,-0.09049531817436218,0.22570598125457764,0.006387905217707157
-2.547621965408325,5.405216693878174,8.07793140411377,-0.06387905031442642,0.24699899554252625,0.02555162087082863
-2.871366262435913,5.221131324768066,7.485777854919434,-0.005323254037648439,0.3683691918849945,0.03300417587161064
-2.8925211429595947,5.291540145874023,7.646151542663574,0.042586032301187515,0.2672273516654968,0.022357666864991188
-2.9032185077667236,5.279904365539551,7.503744125366211,0.05749114602804184,0.24806363880634308,0.012775810435414314
-2.9455385208129883,5.325088024139404,7.394769668579102,0.02661627158522606,0.2768092155456543,0.014905111864209175
-2.9346303939819336,5.389204502105713,7.330327033996582,-0.008517206646502018,0.28213247656822205,0.0031939526088535786
-2.847644329071045,5.51668119430542,7.475636005401611,-0.015969762578606606,0.24699899554252625,-0.02661627158522606
-2.7781455516815186,5.521268367767334,7.514958381652832,-0.017034413293004036,0.2629687488079071,-0.05429719388484955
-2.8262975215911865,5.485249996185303,7.466959476470947,-0.03087487444281578,0.27893853187561035,-0.07878416031599045
-3.124366283416748,5.399422645568848,7.51884651184082,-0.07239625602960587,0.32152456045150757,-0.09581857919692993
-3.1345081329345703,5.329339981079102,7.866312503814697,-0.044715333729982376,0.32152456045150757,-0.070266954600811
-3.3947577476501465,5.24371337890625,8.101404190063477,0.02661627158522606,0.405631959438324,-0.07239625602960587
-3.4843008518218994,5.217348575592041,7.833808422088623,0.039392080157995224,0.5248728394508362,-0.022357666864991188
-3.674429178237915,5.140954494476318,7.806773662567139,0.07665485888719559,0.5898165702819824,0.020228365436196327
-3.8162906169891357,5.078446865081787,7.22031831741333,0.12456414848566055,0.6132388710975647,0.08517206460237503
-3.6090195178985596,5.217137813568115,6.869395732879639,0.14266321063041687,0.48973938822746277,0.10433578491210938
-3.6063191890716553,5.270423412322998,6.754138469696045,0.11817624419927597,0.4035026729106903,0.0947539210319519
-3.697672128677368,5.369409084320068,7.151729583740234,0.042586032301187515,0.43331289291381836,0.09049531817436218
-3.4527549743652344,5.714595794677734,7.329666614532471,0.09581857919692993,0.49186867475509644,0.03193952515721321
-3.8434503078460693,5.3682026863098145,6.960509300231934,0.140533909201622,0.48867473006248474,0.0021293016616255045
-3.942005157470703,5.258873462677002,6.40641450881958,0.038327429443597794,0.6451784372329712,0.01171115878969431
-3.693333625793457,5.749464988708496,6.937190055847168,-0.08836601674556732,0.7186393141746521,-0.03087487444281578
-4.759529113769531,4.968638896942139,4.127067565917969,0.10965903848409653,0.8772723078727722,-0.0031939526088535786
-4.808830738067627,4.339136123657227,4.486293315887451,-0.039392080157995224,-0.6707300543785095,0.06813765317201614
-3.5033490657806396,6.722899436950684,8.202859878540039,-0.20441296696662903,0.07133160531520844,0.0031939526088535786
-3.9384043216705322,6.1904096603393555,8.494254112243652,-0.048973940312862396,0.506773829460144,-0.3023608326911926
-4.866109371185303,5.368183135986328,6.823513031005859,0.15863297879695892,0.41521382331848145,-0.22144737839698792
-4.84935998916626,4.695805072784424,5.039775371551514,0.20121900737285614,0.13946926593780518,-0.11178833991289139
-5.014348983764648,4.724296569824219,3.248088836669922,-0.017034413293004036,-0.4035026729106903,-0.015969762578606606
-4.885397434234619,4.801590919494629,3.5013859272003174,-0.3364296555519104,-1.0508103370666504,0.11711159348487854
-4.138933181762695,5.831001281738281,7.041270732879639,-0.48867473006248474,-1.2403181791305542,0.13521066308021545
-3.449374198913574,5.736315727233887,9.481316566467285,-0.22357667982578278,-1.0007717609405518,-0.013840461149811745
-3.467254161834717,5.913525104522705,9.8311767578125,-0.10114183276891708,-0.7835830450057983,-0.08304276317358017
-4.0779290199279785,5.477588653564453,8.595834732055664,0.06707300245761871,-0.23635248839855194,-0.12456414848566055
-4.5352888107299805,5.023523330688477,7.018669605255127,0.1085943877696991,-0.11498229205608368,-0.0596204474568367
-4.567265033721924,4.916924476623535,6.3723015785217285,0.09049531817436218,-0.15011577308177948,-0.004258603323251009
-4.163966655731201,5.024405002593994,5.9214067459106445,-0.004258603323251009,-0.3438822329044342,0.070266954600811
-3.759624481201172,5.31449556350708,6.443027019500732,-0.08836601674556732,-0.45779985189437866,0.03300417587161064
-3.675875186920166,5.233638763427734,6.896009922027588,-0.11285299062728882,-0.5014505386352539,-0.03619812801480293
-3.811032772064209,5.430863380432129,7.276745319366455,-0.10433578491210938,-0.5504244565963745,-0.044715333729982376
-3.6913132667541504,5.267004489898682,7.306078910827637,-0.05642649531364441,-0.4631231129169464,-0.047909289598464966
-3.691772937774658,5.188340187072754,6.8756303787231445,-0.0596204474568367,-0.5717175006866455,0.0021293016616255045
-3.4220612049102783,5.361335754394531,7.297651290893555,-0.044715333729982376,-0.7186393141746521,0.01171115878969431
-3.1405222415924072,5.215184211730957,7.68900728225708,-0.02981022372841835,-0.6558248996734619,-0.041521381586790085
-3.1652112007141113,5.180899620056152,7.768312931060791,-0.03726277872920036,-0.5695881843566895,-0.06600835174322128
-3.435842275619507,5.022096633911133,7.397125720977783,-0.1054004356265068,-0.39392080903053284,-0.070266954600811
-3.476170063018799,5.03861665725708,7.129233360290527,-0.15969762206077576,-0.5983337759971619,0.070266954600811
-3.196699619293213,5.1637091636657715,7.898289680480957,-0.039392080157995224,-0.8229750990867615,0.09581857919692993
-2.9686951637268066,5.241166114807129,8.28304672241211,0.08836601674556732,-0.8261690735816956,0.06920230388641357
-2.9069247245788574,5.216563701629639,8.335384368896484,0.11285299062728882,-0.7250272035598755,0.04684463515877724
-2.727311849594116,5.100310325622559,8.045964241027832,0.070266954600811,-0.45034730434417725,0.02768092229962349
-2.9563698768615723,5.106420516967773,7.1784586906433105,-0.18737854063510895,0.03406882658600807,0.010646508075296879
-2.9668469429016113,5.086788177490234,7.47590446472168,-0.281067818403244,-0.13201670348644257,0.08304276317358017
-2.446625232696533,4.955068588256836,7.160386562347412,-0.25764551758766174,-0.28213247656822205,0.05429719388484955
-3.002664089202881,5.208968639373779,7.40279483795166,-0.21931807696819305,-0.6473076939582825,0.06707300245761871
-2.4688241481781006,5.197122573852539,7.825860023498535,-0.14905111491680145,-0.7431262731552124,0.020228365436196327
-1.9973005056381226,5.064531326293945,7.456894397735596,-0.18311993777751923,-0.6558248996734619,-0.12243484705686569
-1.7157998085021973,5.165241241455078,6.493927478790283,-0.36304593086242676,-0.756966769695282,-0.24061109125614166
-1.5573995113372803,5.4471821784973145,6.75662899017334,-0.5759761333465576,-1.0976550579071045,-0.33536502718925476
-1.376273274421692,5.24978494644165,8.352651596069336,-0.6494370102882385,-1.2871628999710083,-0.46525242924690247
-1.8077946901321411,4.533679485321045,9.70809555053711,-0.5525537729263306,-1.101913571357727,-0.5706528425216675
-2.493072748184204,3.7408251762390137,10.044221878051758,-0.50357985496521,-0.48973938822746277,-0.4514119625091553
-2.4198100566864014,3.791677951812744,9.936387062072754,-0.38114500045776367,-0.27148595452308655,-0.07665485888719559
-1.7963982820510864,4.157205581665039,9.92815113067627,-0.1330813616514206,-0.2352878302335739,0.15650367736816406
-1.3820863962173462,4.424513816833496,9.611263275146484,0.19589576125144958,-0.16395622491836548,0.10752973705530167
-1.6144006252288818,4.554499626159668,8.646506309509277,0.34494686126708984,-0.27148595452308655,0.0
-1.851589322090149,4.396051406860352,8.380060195922852,0.3428175747394562,-0.39498546719551086,-0.021293016150593758
-1.8295435905456543,4.218851566314697,8.503409385681152,0.2842617630958557,-0.2736152708530426,0.021293016150593758
-1.4794251918792725,4.361057758331299,8.386045455932617,0.23315852880477905,-0.17247343063354492,0.038327429443597794
-1.4277678728103638,4.789725303649902,8.33586311340332,0.13095206022262573,-0.09155996888875961,0.048973940312862396
-1.2795284986495972,4.752701282501221,8.668763160705566,0.10752973705530167,-0.047909289598464966,0.019163714721798897
-1.3298641443252563,4.7064738273620605,8.794142723083496,0.11178833991289139,0.024486970156431198,0.009581857360899448
-1.3616878986358643,4.775292873382568,8.490614891052246,0.09262461960315704,0.14266321063041687,0.02555162087082863
-1.2103838920593262,4.865410804748535,8.158567428588867,0.0596204474568367,0.1469218134880066,-0.0010646508308127522
-1.1556907892227173,4.836479187011719,8.05001449584961,0.03193952515721321,0.140533909201622,-0.038327429443597794
-1.561335563659668,4.6384782791137695,7.964235305786133,-0.042586032301187515,0.12030554562807083,-0.07559020817279816
-1.8824459314346313,4.418489933013916,8.131082534790039,-0.08836601674556732,0.08091346174478531,-0.02768092229962349
-1.7874343395233154,4.470415115356445,8.409594535827637,-0.11817624419927597,0.07452555745840073,0.017034413293004036
-1.7017219066619873,4.518318176269531,8.424870491027832,-0.14159856736660004,0.11498229205608368,0.02874557301402092
-1.8921375274658203,4.720829486846924,8.481679916381836,-0.08091346174478531,0.08623671531677246,-0.004258603323251009
-1.9658981561660767,4.818512916564941,8.895512580871582,-0.01171115878969431,-0.0351334773004055,-0.005323254037648439
-1.6193901300430298,4.64739465713501,9.018766403198242,0.09581857919692993,-0.014905111864209175,0.038327429443597794
-1.5282572507858276,4.728806972503662,8.472199440002441,0.0947539210319519,0.03726277872920036,0.06387905031442642
-1.3318369388580322,4.688804626464844,8.232367515563965,0.040456730872392654,0.0947539210319519,0.041521381586790085
-1.6842920780181885,4.608914852142334,7.982048511505127,0.047909289598464966,0.022357666864991188,0.010646508075296879
-1.676582932472229,4.640815258026123,7.9661030769348145,0.04684463515877724,-0.04684463515877724,0.010646508075296879
-1.616584062576294,4.655908107757568,8.365599632263184,0.005323254037648439,-0.06707300245761871,0.008517206646502018
-1.5890412330627441,4.718808650970459,8.498333930969238,-0.03087487444281578,0.02661627158522606,-0.0021293016616255045
-1.6809978485107422,4.660217761993408,8.38509750366211,-0.006387905217707157,0.004258603323251009,0.018099064007401466
-1.6472203731536865,4.71286153793335,8.407641410827637,0.03193952515721321,-0.03300417587161064,0.015969762578606606
-1.602036952972412,4.638890266418457,8.559453010559082,0.038327429443597794,-0.024486970156431198,0.009581857360899448
-1.646128535270691,4.575242519378662,8.410265922546387,0.041521381586790085,0.013840461149811745,0.01171115878969431
-1.6680021286010742,4.540268421173096,8.12202262878418,0.02874557301402092,-0.022357666864991188,0.03300417587161064
-1.5113351345062256,4.668137550354004,8.072510719299316,-0.018099064007401466,-0.05003859102725983,0.041521381586790085
-1.401019811630249,4.806235313415527,8.413435935974121,-0.05749114602804184,-0.015969762578606606,0.021293016150593758
-1.5252692699432373,4.691591262817383,8.560755729675293,-0.048973940312862396,0.03300417587161064,-0.008517206646502018
-1.8383829593658447,4.478765964508057,8.742647171020508,-0.010646508075296879,0.047909289598464966,0.017034413293004036
-1.9282900094985962,4.430288314819336,8.963824272155762,0.03087487444281578,0.15969762206077576,0.06920230388641357
-1.6936007738113403,4.6100544929504395,8.93544864654541,0.047909289598464966,0.2842617630958557,0.11178833991289139
-0.995011031627655,4.949379920959473,8.79382610321045,0.10433578491210938,0.3928561508655548,0.12243484705686569
-1.7508413791656494,4.730032920837402,8.755125999450684,0.12349949777126312,0.39179152250289917,-0.021293016150593758
-1.7572386264801025,4.582042694091797,8.127280235290527,0.1437278687953949,0.4269249737262726,0.02874557301402092
-1.86099374294281,4.894255638122559,8.175432205200195,0.10646508634090424,0.43011894822120667,0.0841074138879776
-1.8161553144454956,4.82578182220459,8.156728744506836,0.09581857919692993,0.4173431396484375,0.09262461960315704
-1.958715558052063,4.8152756690979,8.398438453674316,0.0947539210319519,0.4524766206741333,0.10646508634090424
-2.1940557956695557,4.692568302154541,8.612076759338379,0.11817624419927597,0.5131617188453674,0.1682148277759552
-2.2289443016052246,4.8629302978515625,8.642311096191406,0.1895078420639038,0.505709171295166,0.23635248839855194
-2.1392288208007812,4.8802642822265625,8.372906684875488,0.31726595759391785,0.5908812284469604,0.20867156982421875
-2.285581588745117,4.884803771972656,7.800356864929199,0.2970375716686249,0.6153681874275208,0.22357667982578278
-2.4228076934814453,4.981960296630859,7.5791707038879395,0.25445154309272766,0.6185621619224548,0.22144737839698792
-2.455780506134033,5.08775520324707,7.436083793640137,0.1650208830833435,0.5993984341621399,0.21293017268180847
-2.381138801574707,5.2462897300720215,7.480280876159668,0.10327113419771194,0.5844933390617371,0.16927948594093323
-2.4019205570220947,5.268939018249512,7.572304725646973,0.0841074138879776,0.5451012253761292,0.1511804163455963
-2.3569862842559814,5.291204929351807,7.938732624053955,0.10965903848409653,0.484416127204895,0.11072368919849396
-2.7094414234161377,5.121302604675293,8.354107856750488,0.2352878302335739,0.4492826461791992,0.1192408949136734
-2.860649585723877,5.78754186630249,3.334864616394043,0.11498229205608368,0.3896622061729431,0.10433578491210938
-2.3865020275115967,5.383553981781006,8.335747718811035,-0.11604694277048111,-0.16182692348957062,0.03300417587161064
-2.1047332286834717,5.937208652496338,8.662700653076172,0.02555162087082863,0.0031939526088535786,-0.05216789245605469
-2.333101511001587,5.560217380523682,8.007177352905273,0.23741713166236877,-0.021293016150593758,-0.1511804163455963
-2.876298189163208,5.109829425811768,6.610543727874756,0.19376645982265472,-0.039392080157995224,-0.1362753063440323
-3.129068374633789,5.021359443664551,6.051593780517578,-0.09155996888875961,-0.07559020817279816,-0.02661627158522606
