accX,accY,accZ,gyroX,gyroY,gyroZ
-0.6075238585472107,2.0185513496398926,9.027796745300293,0.018744835630059242,0.06058037653565407,-0.01630137488245964
-0.6424025893211365,1.9910467863082886,9.186197280883789,0.1108807697892189,0.10403907299041748,-0.03263765573501587
-0.7086070775985718,2.0227460861206055,9.200974464416504,0.04043927788734436,0.07543312758207321,-0.027646014466881752
-0.7601877450942993,2.004856586456299,9.36194133758545,0.009110618382692337,0.05778785049915314,-0.016720253974199295
-0.725270688533783,1.9574130773544312,9.53276252746582,0.026232298463582993,0.0518537312746048,-0.008342674002051353
-0.7222827672958374,1.9780415296554565,9.422151565551758,0.04543092101812363,0.030595621094107628,-0.00923279207199812
-0.7520091533660889,2.0198538303375244,9.386670112609863,-0.0027925267349928617,0.003752457909286022,0.00457276264205575
-0.6872986555099487,2.0226502418518066,9.386457443237305,-0.009878563694655895,-0.0005410520825535059,0.0040317103266716
-0.7931510806083679,2.0021941661834717,9.530329704284668,0.04813618212938309,0.03881612420082092,-0.0253421813249588
-0.7512813210487366,1.9953947067260742,9.548392295837402,0.07468263804912567,0.056182149797677994,-0.02197369560599327
-0.7168622612953186,2.001523733139038,9.460487365722656,0.09463175386190414,0.06991788744926453,-0.0247662216424942
-0.7897130250930786,2.0916128158569336,9.337740898132324,0.08925613760948181,0.03527310490608215,-0.032847095280885696
-0.8555248379707336,2.1268362998962402,9.322427749633789,0.076602503657341,0.03125884756445885,-0.02888519875705242
-1.0778312683105469,2.1900432109832764,7.854551792144775,0.043999750167131424,-0.06721262633800507,-0.016231561079621315
-1.1412105560302734,2.1578269004821777,8.54725170135498,-0.03986331820487976,-0.09238027781248093,0.009756390936672688
-0.5756043791770935,2.2634973526000977,9.096692085266113,-0.2655867636203766,0.07965682446956635,0.02143264375627041
-1.0175069570541382,2.0152089595794678,10.239530563354492,-0.2655518352985382,0.02330014482140541,0.006440265104174614
-0.8204833269119263,1.7291977405548096,10.340892791748047,0.13348278403282166,-0.08131489157676697,0.04584980010986328
-0.5218784809112549,1.9017717838287354,9.4975004196167,0.24640558660030365,-0.007749261800199747,0.027436574921011925
-0.6741305589675903,2.12081241607666,8.746641159057617,0.12290608882904053,-0.0239110104739666,-0.00296705961227417
-0.8665094375610352,2.256103992462158,8.706092834472656,-0.015254177153110504,-0.0682772770524025,0.005777040030807257
-0.7766311168670654,2.2449758052825928,8.96323013305664,-0.11135200411081314,-0.046268679201602936,0.03029891662299633
-0.724284291267395,2.1019270420074463,9.285548210144043,-0.17430603504180908,-0.03300417587161064,0.03190461918711662
-0.6605889797210693,1.9201209545135498,9.680935859680176,-0.15299555659294128,-0.04075343906879425,0.031171580776572227
-0.8167387843132019,1.9946955442428589,9.512258529663086,0.08227481693029404,-0.006859143730252981,-0.011239920742809772
-0.7581191658973694,2.0272278785705566,9.222312927246094,0.06829473376274109,-0.01251401100307703,0.002199114765971899
-0.6948739290237427,2.0080552101135254,9.426307678222656,-0.046792276203632355,-0.010698867961764336,0.004625122528523207
-0.5934459567070007,2.077362537384033,9.569029808044434,-0.11126474291086197,0.021711895242333412,0.013718287460505962
-0.7594119906425476,2.0018208026885986,9.768352508544922,-0.11122982949018478,-0.04281292483210564,-0.0027925267349928617
-0.8890340924263,1.8534568548202515,9.917712211608887,0.0045553091913461685,-0.1284562349319458,0.02330014482140541
-0.5958401560783386,1.9339115619659424,9.557930946350098,0.069725900888443,-0.12100367993116379,0.03249803185462952
-0.66647869348526,2.023674964904785,9.01762580871582,0.012007865123450756,-0.10981611907482147,0.0020420351065695286
-0.6892427802085876,2.0803122520446777,9.149345397949219,-0.06901031732559204,-0.13802063465118408,0.015550883486866951
-0.5409650802612305,1.9739234447479248,9.318979263305664,-0.13522811233997345,-0.08993681520223618,0.039043016731739044
-0.4570818245410919,1.896370530128479,9.516070365905762,-0.14728833734989166,-0.08976228535175323,0.035761795938014984
-0.4676258862018585,1.838287115097046,9.623359680175781,-0.12840387225151062,-0.0912981703877449,0.025830872356891632
-0.3915477395057678,1.8221310377120972,9.63399887084961,0.003298672381788492,-0.03551745042204857,0.009948376566171646
-0.4172710180282593,1.8253201246261597,9.567911148071289,0.013072515837848186,-0.03141592815518379,0.005375613924115896
-0.4585374891757965,1.8405951261520386,9.47536849975586,0.01607448235154152,-0.028501227498054504,0.002234021434560418
-0.46494436264038086,1.898237943649292,9.379793167114258,0.0013264502631500363,-0.027646014466881752,-0.00019198621157556772
-0.49057191610336304,1.9083510637283325,9.403284072875977,-0.014154620468616486,-0.0239110104739666,0.005078908056020737
-0.4624544084072113,1.898889183998108,9.42569351196289,-0.023143066093325615,-0.02644173800945282,0.014974924735724926
-0.421465665102005,1.8585612773895264,9.492579460144043,-0.02324778586626053,-0.017243852838873863,0.01745329238474369
-0.3920648694038391,1.8440237045288086,9.50408935546875,-0.01958259381353855,-0.010629055090248585,0.015760323032736778
-0.37557360529899597,1.8500570058822632,9.532352447509766,-0.011327186599373817,-0.012810716405510902,0.005864306353032589
-0.37048834562301636,1.8119029998779297,9.489044189453125,-0.0018500490114092827,0.0010821041651070118,0.0020769417751580477
-0.4273649752140045,1.8224279880523682,9.42663288116455,-0.009738937020301819,8.726646046852693e-05,-0.00041887903353199363
-0.4557410776615143,1.8706567287445068,9.498085021972656,-0.02165953628718853,-0.00020943951676599681,-0.00012217304902151227
-0.46393880248069763,1.8728690147399902,9.533185005187988,-0.012444197200238705,-0.0075747291557490826,0.0046774824149906635
-0.3964989483356476,1.8476150035858154,9.510009765625,-0.0027925267349928617,-0.013561207801103592,0.00830776710063219
-0.36728009581565857,1.8196793794631958,9.489562034606934,-0.0033684854861348867,-0.004642575979232788,0.005445427261292934
-0.3772878646850586,1.8255499601364136,9.476432800292969,0.015062191523611546,-0.00376991112716496,0.0005235987482592463
-0.3692816495895386,1.8132821321487427,9.454634666442871,0.016598081216216087,0.014678219333291054,-0.004502949304878712
-0.4320480525493622,1.8574790954589844,9.416980743408203,0.002251474652439356,0.020298179239034653,-0.006771877408027649
-0.363822877407074,1.8003151416778564,9.520590782165527,0.014625859446823597,-0.0031590459402650595,0.009424777701497078
-0.30332618951797485,1.8082447052001953,9.414077758789062,0.01235693134367466,0.009372417815029621,-0.004485496319830418
-0.42168593406677246,1.8262873888015747,9.419679641723633,-0.007941247895359993,0.017837265506386757,-0.016894787549972534
-0.5807088017463684,1.8748130798339844,9.488767623901367,-0.01432915311306715,0.0009075712296180427,-0.0024958208668977022
-0.44279322028160095,1.8406909704208374,9.492444038391113,0.0047996556386351585,-0.00045378561480902135,0.0006632251315750182
-0.3348051607608795,1.878557562828064,9.064580917358398,0.06716027110815048,0.19626227021217346,0.006998770404607058
-0.24016715586185455,1.8160498142242432,8.812529563903809,-0.06169738993048668,0.15332716703414917,0.014713125303387642
-0.8342547416687012,1.857316255569458,10.442750930786133,-0.2232101559638977,-0.17638297379016876,-0.03375466912984848
-0.5080016851425171,1.687720537185669,10.547856330871582,0.08075638115406036,-0.12335987389087677,0.0224623866379261
-0.23810814321041107,1.5968749523162842,10.226430892944336,0.246580109000206,-0.018325956538319588,0.03171263262629509
0.01907699927687645,1.6977474689483643,9.191895484924316,0.3448247015476227,0.14077825844287872,0.016423547640442848
-0.2659479081630707,1.9028252363204956,8.4923095703125,0.07881906628608704,0.0832347497344017,-0.04567526653409004
-0.6616902947425842,1.9656394720077515,9.006363868713379,-0.11965977400541306,-0.026319565251469612,-0.04773475602269173
-0.7184998989105225,2.0281760692596436,9.606399536132812,-0.07990117371082306,0.022043507546186447,-0.008412486873567104
-0.6521709561347961,1.9128042459487915,9.670928001403809,-0.010000736452639103,0.0587652362883091,0.028640853241086006
-0.4546205699443817,1.798323154449463,9.644916534423828,-0.008656833320856094,-0.001518436474725604,0.027611108496785164
-0.2874765694141388,1.6945583820343018,9.725438117980957,0.01401499379426241,-0.010262535884976387,0.00012217304902151227
-0.48199108242988586,1.9107931852340698,9.43350887298584,0.083514004945755,0.03588397055864334,-0.026720991358160973
-0.5897110104560852,1.9872543811798096,9.29625415802002,0.038065630942583084,0.009669124148786068,-0.015515976585447788
-0.5630587339401245,1.9497803449630737,9.351597785949707,0.0055850534699857235,-0.004747295752167702,-0.0028623400721699
-0.5534053444862366,1.9044629335403442,9.371288299560547,0.0016929693520069122,-0.0008552113431505859,-0.002460914198309183
-0.6610390543937683,1.9844675064086914,9.215656280517578,0.035674531012773514,0.006143558770418167,0.020786872133612633
-0.2722494602203369,2.136537551879883,9.131342887878418,-0.1955990493297577,0.14121459424495697,0.03267256170511246
-0.5973150134086609,1.6353929042816162,9.988839149475098,-0.3004060685634613,-0.009197885170578957,-0.014905111864209175
-0.6582713723182678,1.5702706575393677,10.693816184997559,-0.07002261281013489,-0.12023573368787766,-0.010943214409053326
-0.45154643058776855,1.5785162448883057,10.282904624938965,0.24401448667049408,-0.06764896214008331,0.009983283467590809
-0.27821579575538635,1.8372911214828491,9.22553825378418,0.3364645838737488,0.0005759586347267032,0.013945180922746658
-0.6609911918640137,2.096468210220337,8.726558685302734,-0.14131930470466614,-0.05347688868641853,-0.003036872949451208
-0.5781805515289307,1.982140302658081,9.467843055725098,-0.13746212422847748,-0.004345869645476341,0.03499384969472885
-0.41234853863716125,1.8279058933258057,9.726799964904785,-0.11932816356420517,-0.006370451766997576,0.03907792270183563
-0.2989208698272705,1.6833727359771729,9.92100715637207,-0.07045894116163254,-0.02701769582927227,0.018151424825191498
-0.30935001373291016,1.6697736978530884,9.914590835571289,0.03132865950465202,-0.021013764664530754,-0.004834562074393034
-0.3608061671257019,1.7666717767715454,9.672114372253418,0.10913543403148651,0.0019373154500499368,-0.013648474588990211
-0.5179136991500854,1.931459903717041,9.207064628601074,0.09264207631349564,0.01342158205807209,-0.018675023689866066
-0.5609230995178223,1.9821786880493164,9.170166015625,-0.002234021434560418,-0.022619467228651047,-0.0011519172694534063
-0.478725403547287,1.9400502443313599,9.288804054260254,-0.04352851212024689,1.7453292457503267e-05,0.01377064734697342
-0.3959434926509857,1.834571361541748,9.443296432495117,-0.060039326548576355,0.00020943951676599681,0.013665927574038506
-0.4201057553291321,1.8984198570251465,9.307745933532715,0.009285151958465576,-0.009110618382692337,0.00027925267932005227
-0.4172710180282593,1.8257702589035034,9.505451202392578,0.02272418700158596,-0.0017627825727686286,5.2359879191499203e-05
-0.41568127274513245,1.8696894645690918,9.430731773376465,0.01516691129654646,-0.0034732052590698004,-0.0008203047327697277
-0.4449096918106079,1.8815455436706543,9.425483703613281,-0.00296705961227417,-0.00019198621157556772,-0.004520402755588293
-0.3757460117340088,1.8286720514297485,9.532264709472656,0.0016406094655394554,-0.005532693583518267,-0.00024434609804302454
-0.4202781617641449,1.8633304834365845,9.490557670593262,0.005445427261292934,-0.0011693706037476659,-0.006352998316287994
-0.503031313419342,1.861415147781372,9.430673599243164,-0.0052534411661326885,0.0013089969288557768,-0.0021816615480929613
-0.4908113181591034,1.8538877964019775,9.454387664794922,-0.013299409300088882,-0.0036128314677625895,0.006806783843785524
-0.44674843549728394,1.834571361541748,9.456062316894531,-0.016458455473184586,-0.008133234456181526,0.009791296906769276
-0.36542218923568726,1.8267757892608643,9.569653511047363,-0.00427605677396059,0.0017802357906475663,-0.002251474652439356
-0.43900081515312195,1.8252243995666504,9.547003746032715,0.002687806962057948,0.005148721393197775,-0.007906341925263405
-0.4909645617008209,1.8605436086654663,9.479900360107422,0.005166174378246069,-0.0027576202992349863,-0.0006457717972807586
-0.4780167043209076,1.865446925163269,9.466769218444824,0.0034208453726023436,-0.003508111694827676,0.00753982225432992
-0.4009425640106201,1.8027093410491943,9.50408935546875,-0.016196655109524727,0.005497787147760391,-0.007278022821992636
-0.4727015793323517,1.8153506517410278,9.516510963439941,-0.005567600484937429,-1.7453292457503267e-05,-0.0019024088978767395
-0.38424062728881836,1.8501336574554443,9.558314323425293,0.0034208453726023436,0.011693705804646015,0.0008377580670639873
-0.43783244490623474,1.8160977363586426,9.555135726928711,0.011571533046662807,0.0039618974551558495,-0.00205948855727911
-0.4343847930431366,1.8299074172973633,9.505794525146484,0.022444933652877808,-0.0006108652451075613,-0.0025656339712440968
-0.43291953206062317,1.8323590755462646,9.44546127319336,0.0228987205773592,0.014643312431871891,-0.0017802357906475663
-0.4600410461425781,1.8322633504867554,9.372897148132324,0.005829399451613426,0.014102260582149029,-0.007208209950476885
-0.5106831789016724,1.8948956727981567,9.43574047088623,-0.021642083302140236,0.00015707963029854,-0.011257373727858067
-0.5624937415122986,1.8564351797103882,9.373778343200684,0.021642083302140236,-0.02342231757938862,-0.0011693706037476659
-0.41774988174438477,1.8808465003967285,9.275520324707031,0.116378553211689,0.13227850198745728,0.04326671361923218
-0.22221064567565918,1.9414293766021729,9.032337188720703,-0.15547393262386322,0.07208209484815598,0.009354964829981327
-0.6869922280311584,1.9681390523910522,9.243782997131348,-0.14091788232326508,-0.04536110535264015,-0.007958701811730862
-0.5181339383125305,1.9540132284164429,9.652587890625,-0.090425506234169,0.02830924093723297,0.03141592815518379
-0.42039307951927185,1.824324131011963,9.706199645996094,-0.06148795038461685,0.0005235987482592463,0.028902651742100716
-0.3556442856788635,1.691034197807312,9.783723831176758,-0.032131511718034744,-0.042987458407878876,0.014067353680729866
-0.28807035088539124,1.691158652305603,9.743691444396973,0.037140607833862305,-0.019425515085458755,-0.0012042771559208632
-0.3420739471912384,1.7751760482788086,9.454693794250488,0.07923794537782669,0.004852015525102615,-0.011100294068455696
-0.388665109872818,1.917621374130249,9.261844635009766,0.03595378249883652,0.0046774824149906635,-0.014224433340132236
-0.4644559621810913,1.9362962245941162,9.298859596252441,-0.018587756901979446,-0.008185594342648983,-0.009738937020301819
-0.4772314131259918,1.8828767538070679,9.428959846496582,-0.035360369831323624,-0.0014137167017906904,0.0005410520825535059
-0.48513227701187134,1.8289401531219482,9.504137992858887,-0.03897320106625557,0.0022165682166814804,0.013037609867751598
-0.43958500027656555,1.8072295188903809,9.59432315826416,-0.03162536770105362,-0.019163714721798897,0.014206980355083942
-0.36100730299949646,1.770588755607605,9.59965705871582,-0.007627088576555252,-0.01595230959355831,0.006649704650044441
-0.3478870689868927,1.7586463689804077,9.513599395751953,0.010349802672863007,-0.006195918656885624,-0.0016755161341279745
-0.3976864516735077,1.831008791923523,9.43274211883545,0.004590216092765331,-0.008918632753193378,-0.008517206646502018
-0.44560879468917847,1.8620089292526245,9.464346885681152,-0.00708603672683239,-0.0008203047327697277,-0.0038397242315113544
-0.4381197392940521,1.8615779876708984,9.446965217590332,-0.009773843921720982,-0.0009250245057046413,0.004956734832376242
-0.39648935198783875,1.8412176370620728,9.482284545898438,-0.014346606098115444,-0.0050090947188436985,0.006946410518139601
-0.3763110339641571,1.7995967864990234,9.486823081970215,-0.014503685757517815,-0.0027052604127675295,0.006422811653465033
-0.3613712191581726,1.8046246767044067,9.521662712097168,-0.010978121310472488,0.0025307273026555777,0.0023911010939627886
-0.3921031951904297,1.7984284162521362,9.514203071594238,-0.008691739290952682,0.0017278759041801095,-0.003403391921892762
-0.40912115573883057,1.8168734312057495,9.524249076843262,-0.007853982038795948,-0.0075747291557490826,-0.005777040030807257
-0.41351693868637085,1.8155804872512817,9.505468368530273,-0.0007679448463022709,-0.007627088576555252,-0.0016231562476605177
-0.4455321729183197,1.7762677669525146,9.451264381408691,-0.027890361845493317,-0.03234095126390457,0.007382742594927549
-0.35825875401496887,1.7626782655715942,9.532264709472656,-0.02874557301402092,-0.032131511718034744,0.004817108623683453
-0.34533005952835083,1.7710484266281128,9.624499320983887,-0.016929693520069122,-0.042271874845027924,0.0012042771559208632
-0.3449661433696747,1.7978825569152832,9.511550903320312,-0.0010122909443452954,0.0011344640515744686,0.0011693706037476659
-0.37185782194137573,1.8155709505081177,9.471932411193848,-0.013526301831007004,-0.0018500490114092827,-0.00022689280740451068
-0.38259342312812805,1.7869937419891357,9.485702514648438,-0.014608405530452728,-0.00923279207199812,0.002024581888690591
-0.35191890597343445,1.7837281227111816,9.515495300292969,-0.009843656793236732,-0.006248278543353081,0.0017802357906475663
-0.37588006258010864,1.7864861488342285,9.324151039123535,-0.023230332881212234,-0.020001472905278206,0.0024958208668977022
-0.3673088252544403,1.8085415363311768,9.538825035095215,-0.046355944126844406,-0.013002702966332436,-0.00376991112716496
-0.3845853805541992,1.7628411054611206,9.52964973449707,-0.036651913076639175,-0.00563741335645318,0.012287117540836334
-0.31617826223373413,1.7391576766967773,9.61405086517334,-0.014870204962790012,-0.009512044489383698,0.007417649496346712
-0.3246345818042755,1.7162977457046509,9.548641204833984,-0.005358160939067602,-0.011885692365467548,0.0032114058267325163
-0.3132764995098114,1.7178587913513184,9.508621215820312,-0.0017104226863011718,-0.0040317103266716,-0.0005061454721726477
-0.3398425579071045,1.7202625274658203,9.482293128967285,-0.005166174378246069,-0.002251474652439356,-0.005986479111015797
-0.28902801871299744,1.7599393129348755,9.737746238708496,0.008412486873567104,0.06639232486486435,-0.005078908056020737
-0.34080982208251953,1.8339488506317139,8.977048873901367,-0.13845697045326233,0.010698867961764336,-0.01021017599850893
-0.681638777256012,1.793458104133606,10.21426773071289,-0.23729495704174042,-0.17002996802330017,-0.03220132365822792
-0.6979385018348694,1.7161540985107422,10.433087348937988,-0.15189599990844727,-0.1944296807050705,0.0024085543118417263
-0.2405502200126648,1.6267929077148438,10.373950958251953,0.12967796623706818,-0.07674212753772736,0.04811872914433479
-0.589835524559021,2.034515857696533,9.541640281677246,-0.09409070014953613,0.0023387412074953318,-0.030054569244384766
-0.5966159105300903,1.907201886177063,9.664022445678711,-0.009267698042094707,0.050073496997356415,0.005916666239500046
-0.4380527138710022,1.689655065536499,9.561809539794922,-0.004764748737215996,0.0161268413066864,0.021380282938480377
-0.2775645852088928,1.6417040824890137,9.624384880065918,0.003089232835918665,-0.0028972465079277754,0.0018325956771150231
-0.3048584759235382,1.6909383535385132,9.632237434387207,0.03865904361009598,0.030106930062174797,-0.02569124661386013
-0.5986365675926208,1.8457953929901123,9.455257415771484,0.03207915276288986,0.01342158205807209,-0.009564404375851154
-0.5461844205856323,1.839139461517334,9.394569396972656,0.023457225412130356,0.009442231617867947,-0.0019896754529327154
-0.5231235027313232,1.8114529848098755,9.409796714782715,-0.0034732052590698004,0.0009599310578778386,0.002007128670811653
-0.4235534071922302,1.811405062675476,9.507491111755371,-0.016929693520069122,0.0023561944253742695,0.005166174378246069
-0.4769536852836609,1.814766526222229,9.502721786499023,0.01539380382746458,0.00031415926059708,-0.007173303049057722
-0.6884862184524536,1.8100355863571167,9.353226661682129,0.0915948823094368,-0.05000368133187294,0.009477137587964535
-0.2393243908882141,2.0477893352508545,9.208185195922852,-0.029356438666582108,0.08339183032512665,0.0342782661318779
-0.4032697379589081,1.7231930494308472,9.608007431030273,-0.21607175469398499,0.0057246801443398,-0.011135200969874859
-0.5206909775733948,1.6278272867202759,9.990246772766113,0.1460666060447693,-0.03654719516634941,0.004049163777381182
-0.3040444552898407,1.8001140356063843,9.323700904846191,0.22198842465877533,0.03160791099071503,0.002548180753365159
-0.4494299590587616,1.9660513401031494,8.778236389160156,0.049357909709215164,-0.0007330382941290736,-0.02422516979277134
-0.6322128772735596,1.956560730934143,9.045820236206055,-0.08806931227445602,-0.05469861999154091,-0.004433136433362961
-0.47708776593208313,1.9502304792404175,9.447576522827148,-0.08948303014039993,-0.014695672318339348,0.027262043207883835
-0.3545142114162445,1.8160593509674072,9.626174926757812,-0.07244861871004105,0.01235693134367466,0.02560397982597351
-0.3351116180419922,1.6837749481201172,9.780458450317383,-0.057299159467220306,-0.013072515837848186,0.012374384328722954
-0.3402352035045624,1.6445482969284058,9.835275650024414,0.010646508075296879,-0.02206096239387989,-0.001745329238474369
-0.542957067489624,1.9299945831298828,9.256232261657715,-0.009651671163737774,-0.013002702966332436,-0.0009599310578778386
-0.503242015838623,1.867793321609497,9.361223220825195,-0.032759830355644226,-0.015446163713932037,0.012950343079864979
-0.3984430432319641,1.8095759153366089,9.466443061828613,-0.0431968979537487,0.0012391837080940604,0.01507964450865984
-0.37173330783843994,1.7396938800811768,9.58542537689209,-0.03984586521983147,-0.006248278543353081,0.003717551240697503
-0.2041679322719574,1.7652543783187866,9.685369491577148,-0.0691150352358818,-0.09428268671035767,-0.004468042869120836
-0.16466361284255981,1.72268545627594,9.763544082641602,-0.01202531810849905,-0.049183379858732224,0.004066617228090763
-0.19999244809150696,1.6767072677612305,9.568167686462402,0.0230383463203907,-0.044802602380514145,-0.005916666239500046
-0.1734359711408615,1.6993372440338135,9.458361625671387,0.018587756901979446,-0.0789063349366188,-0.005951572675257921
-0.17309120297431946,1.757411003112793,9.459567070007324,5.2359879191499203e-05,-0.06525786221027374,-0.011344640515744686
-0.2502802610397339,1.7321377992630005,9.420915603637695,-0.006265731994062662,-0.0200189258903265,-0.0013089969288557768
-0.19901561737060547,1.7427680492401123,9.378087997436523,-0.019600046798586845,-0.004398229531943798,0.0019024088978767395
-0.188787579536438,1.7348097562789917,9.44964599609375,-0.04820599406957626,-0.01748819835484028,-0.005096361506730318
-0.12175951898097992,1.696148157119751,9.57169246673584,-0.05447172746062279,-0.03848451003432274,-0.011972958222031593
-0.20943517982959747,1.6383713483810425,9.622957229614258,-0.018483037129044533,-0.1287180334329605,-0.05323254317045212
-0.17356045544147491,1.694414734840393,9.721962928771973,0.0063355453312397,-0.11486011743545532,-0.05173156037926674
-0.0730997622013092,1.7847623825073242,9.869760513305664,0.09585348516702652,0.07534586638212204,-0.04012512043118477
-0.2780817151069641,1.6412826776504517,9.06576919555664,0.165928453207016,0.18699458241462708,0.013055062852799892
-0.17723795771598816,1.902681589126587,9.034682273864746,-0.07175048440694809,-0.0990823432803154,-0.03710569813847542
-0.366533100605011,1.7441949844360352,9.836797714233398,-0.16139060258865356,-0.17990854382514954,-0.046268679201602936
-0.3523881733417511,1.8466285467147827,9.376699447631836,-0.0008552113431505859,0.028989918529987335,-0.016196655109524727
-0.3170880675315857,1.8335179090499878,9.677669525146484,0.034086279571056366,0.08354891091585159,-0.004206243436783552
-0.3550792634487152,1.8474617004394531,9.619749069213867,0.09025097638368607,0.16643460094928741,0.007435102481395006
-0.4138425290584564,1.806530475616455,9.476757049560547,0.09684831649065018,0.16133823990821838,0.014556045643985271
-0.39430585503578186,1.82245671749115,9.394952774047852,0.07803367078304291,0.08829620480537415,0.0015358896926045418
-0.39363548159599304,1.8928844928741455,9.408149719238281,0.04879940673708916,0.03626793995499611,-0.014660765416920185
-0.44329121708869934,1.8995020389556885,9.417409896850586,0.029775317758321762,0.047507863491773605,-0.011065387167036533
-0.5448819994926453,1.858704924583435,9.58285903930664,0.13990558683872223,0.024294983595609665,-0.0014486232539638877
-0.30663976073265076,2.117786169052124,9.15648078918457,0.006928957067430019,0.13323843479156494,0.0037350046914070845
-0.5665925741195679,1.9295828342437744,9.448343276977539,-0.1341983675956726,0.033999014645814896,-0.010384708642959595
-0.5936279296875,1.8280878067016602,9.81206226348877,-0.1131846010684967,-0.015777776017785072,-0.0013788101496174932
-0.36469435691833496,1.7443865537643433,10.039548873901367,0.03419100120663643,0.049759335815906525,0.014451325871050358
-0.5955145359039307,2.1432700157165527,9.076074600219727,0.11009536683559418,0.04187044873833656,-0.02099631167948246
-0.6150991320610046,2.1372270584106445,9.03829288482666,0.022183135151863098,0.02099631167948246,-0.005358160939067602
-0.5522177815437317,2.0728423595428467,9.168614387512207,-0.04310963302850723,0.012775810435414314,0.0002617993741296232
-0.5585384964942932,2.0088212490081787,9.416385650634766,-0.06745697557926178,0.018500490114092827,0.004258603323251009
-0.5210644602775574,1.9259628057479858,9.621912956237793,-0.04876450076699257,0.007365289609879255,0.008429939858615398
-0.4793287515640259,1.9155144691467285,9.662489891052246,-0.009285151958465576,-0.002548180753365159,0.0040317103266716
-0.4762737452983856,1.8946466445922852,9.609663963317871,0.025970499962568283,-0.007661995477974415,-0.004869468510150909
-0.5694847702980042,2.034745693206787,9.339982032775879,0.008796459063887596,-0.01589994877576828,0.00020943951676599681
-0.5728654265403748,2.0494749546051025,9.333047866821289,-0.016894787549972534,-0.027227135375142097,0.006056292448192835
-0.49788859486579895,2.0279173851013184,9.396647453308105,-0.035238198935985565,-0.03265510872006416,0.01473057921975851
-0.4540938436985016,1.9663673639297485,9.489686965942383,-0.03640756756067276,-0.026389379054307938,0.011379546485841274
-0.4453502297401428,1.932771921157837,9.530359268188477,-0.021118484437465668,-0.027436574921011925,0.005462880712002516
-0.5061629414558411,2.0069825649261475,9.452202796936035,-8.726646046852693e-05,-0.020874137058854103,0.0019896754529327154
-0.4679706394672394,1.9837013483047485,9.410418510437012,-0.0003316125657875091,-0.018133969977498055,0.005358160939067602
-0.4742242991924286,1.9554210901260376,9.394272804260254,-0.012775810435414314,-0.016423547640442848,0.0018500490114092827
-0.4431571364402771,1.9873310327529907,9.433767318725586,-0.021781709045171738,-0.021729348227381706,0.004485496319830418
-0.43609902262687683,1.9749194383621216,9.499340057373047,-0.016022123396396637,-0.01713913306593895,6.981316983001307e-05
-0.44727516174316406,1.9391788244247437,9.520523071289062,-0.0038920841179788113,-0.010576695203781128,-0.0008028514566831291
-0.5120718479156494,1.943268060684204,9.501063346862793,-0.00041887903353199363,-0.008674286305904388,-0.0016929693520069122
-0.07294653356075287,1.7577557563781738,9.499770164489746,-0.15025539696216583,-0.07241371273994446,0.015498523600399494
-0.06754521280527115,1.7672368288040161,9.664846420288086,-0.11278317868709564,-0.027977628633379936,0.009040805511176586
-0.06466259807348251,1.7624963521957397,9.794678688049316,-0.06244787946343422,-0.025795966386795044,-0.0010471974965184927
-0.08534850180149078,1.7456603050231934,10.01215934753418,0.0019373154500499368,-0.0026354470755904913,-0.006649704650044441
-0.35960906744003296,1.695726752281189,8.631538391113281,0.20196950435638428,0.3765198886394501,0.04813618212938309
-0.24745510518550873,1.8441481590270996,8.825583457946777,-0.21476276218891144,-0.13723523914813995,-0.026389379054307938
-0.45033973455429077,1.65920090675354,10.40783405303955,-0.27895596623420715,-0.28499481081962585,-0.05581562966108322
-0.432766318321228,1.88782799243927,9.695204734802246,0.07182029634714127,0.18310248851776123,0.015533430501818657
-0.386874258518219,1.8274270296096802,9.517784118652344,0.07162830978631973,0.1353677362203598,0.011431906372308731
-0.3827275037765503,1.8114337921142578,9.538164138793945,0.06646213680505753,0.07857472449541092,-0.002199114765971899
-0.38844484090805054,1.893133521080017,9.48392105102539,0.08127998560667038,0.0682598277926445,-0.016231561079621315
-0.4488074481487274,1.9955861568450928,9.406224250793457,0.07244861871004105,0.05794493108987808,-0.023003440350294113
-0.4949197769165039,2.021721363067627,9.295784950256348,0.04461061581969261,0.03710569813847542,-0.012915436178445816
-0.48953762650489807,2.007423162460327,9.352718353271484,0.011588986031711102,0.03199188411235809,-0.005497787147760391
-0.43187567591667175,1.9558902978897095,9.431411743164062,-0.0013962633674964309,0.02892010472714901,-0.0019896754529327154
-0.3903123140335083,1.9266332387924194,9.463397979736328,-0.00890117883682251,0.034487705677747726,-0.008482299745082855
-0.4112376570701599,1.9351756572723389,9.536718368530273,-0.00188495556358248,0.029426250606775284,-0.017034413293004036
-0.4893556535243988,1.9411803483963013,9.523052215576172,0.018413223326206207,0.020263273268938065,-0.02586578018963337
-0.5459449887275696,1.9505752325057983,9.484659194946289,0.024347342550754547,0.02874557301402092,-0.01970476657152176
-0.6175986528396606,1.964796781539917,9.433911323547363,0.019111355766654015,0.01136209350079298,-0.006405358202755451
-0.6669575572013855,1.784551739692688,10.294886589050293,0.07136651128530502,-0.08436921238899231,-0.008813912980258465
-0.4303242266178131,1.8493292331695557,9.721243858337402,0.2621484398841858,-0.019198622554540634,0.027436574921011925
-0.21347659826278687,2.0415549278259277,8.790244102478027,0.17592918872833252,0.014521139673888683,6.981316983001307e-05
-0.4490181505680084,2.0936431884765625,8.674365043640137,-0.011536626145243645,-0.03429571911692619,-0.02042035199701786
-0.5537500977516174,2.095146656036377,9.19442367553711,-0.09353219717741013,-0.011414453387260437,0.00296705961227417
-0.37090012431144714,1.9185121059417725,9.509674072265625,0.09623745828866959,0.023719023913145065,-0.02094395086169243
-0.46744391322135925,1.968043327331543,9.345948219299316,0.08520697057247162,0.02719222940504551,-0.02502802200615406
-0.6151853203773499,2.066148042678833,9.1832857131958,0.03012438304722309,-0.00041887903353199363,-0.013753194361925125
-0.5530893206596375,2.102003574371338,9.283488273620605,-0.01219985168427229,-0.01794198527932167,0.005148721393197775
-0.4718683958053589,2.0326101779937744,9.367697715759277,-0.03553490340709686,-0.014608405530452728,0.009861109778285027
-0.34993651509284973,1.934524416923523,9.501139640808105,-0.04131194204092026,-0.010175269097089767,0.006422811653465033
-0.563441812992096,1.827216386795044,10.439361572265625,-0.2243446260690689,-0.03928736224770546,-0.006841690745204687
-0.5856121182441711,1.736830472946167,10.969810485839844,0.05841616913676262,-0.08431685715913773,0.008185594342648983
-0.3296815752983093,1.6313611268997192,10.103713035583496,0.3577401340007782,-0.019722219556570053,0.02015855349600315
-0.15331509709358215,1.7628601789474487,9.46866512298584,0.40711548924446106,0.028326693922281265,0.00989601667970419
-0.24127806723117828,2.0482683181762695,8.372244834899902,0.3582288324832916,0.060929443687200546,-0.01335176918655634
-0.520231306552887,2.1075007915496826,9.208444595336914,0.10218902677297592,0.030630528926849365,-0.017819812521338463
-0.5166878700256348,2.132228136062622,9.11407470703125,0.032271139323711395,0.03804817795753479,-0.006649704650044441
-0.4471123516559601,1.9246125221252441,9.844803810119629,0.12463396042585373,0.2001543641090393,-0.02511528693139553
-0.5720609426498413,1.9539462327957153,9.697636604309082,0.19682078063488007,0.2583087384700775,-0.02338741160929203
-0.6395582556724548,2.0667896270751953,9.446802139282227,0.22914427518844604,0.26394614577293396,-0.026651177555322647
-0.714017927646637,2.1756396293640137,9.298772811889648,0.20731021463871002,0.1762782484292984,-0.03719296678900719
-0.8393687605857849,2.2321715354919434,9.1788330078125,0.18102554976940155,0.14535102248191833,-0.038379788398742676
-0.9403083324432373,2.2719345092773438,8.958154678344727,0.12697270512580872,0.09391617029905319,-0.028448866680264473
-0.9230796098709106,2.3360226154327393,8.930401802062988,0.03228859230875969,0.03972369432449341,-0.016109388321638107
-0.8640673756599426,2.3022546768188477,9.14078426361084,-0.03769911080598831,0.021031217649579048,-0.0025830871891230345
-0.7475559115409851,2.218859910964966,9.478471755981445,-0.044540803879499435,0.035150930285453796,0.0006806784076616168
-0.6946919560432434,2.14909291267395,9.623772621154785,-0.006667157635092735,0.055257122963666916,-0.007958701811730862
-0.7513387799263,2.135857582092285,9.593825340270996,0.03640756756067276,0.05173156037926674,-0.01855284906923771
-0.7962348461151123,2.172201633453369,9.470953941345215,0.06822492182254791,0.06478662043809891,-0.021362829953432083
-0.9865164160728455,2.2462687492370605,9.092689514160156,0.04832816496491432,0.02370157092809677,-0.007592182140797377
-0.799625039100647,2.359830379486084,9.123268127441406,-0.04361577704548836,0.08906415104866028,-0.002809980185702443
-0.8489168286323547,2.2304956912994385,9.517143249511719,-0.06579891592264175,0.14042918384075165,0.0021293016616255045
-1.0249481201171875,2.3443925380706787,8.997458457946777,0.15371114015579224,0.03410373255610466,-0.009442231617867947
-0.9801191091537476,2.305568218231201,9.273412704467773,-0.0025307273026555777,-0.05052728205919266,0.009197885170578957
-0.9457479119300842,2.3089680671691895,9.193399429321289,-0.033737216144800186,-0.04221951588988304,0.008604473434388638
-0.9837678670883179,2.2717716693878174,9.226057052612305,-0.06016149744391441,-0.04394739121198654,0.007731808349490166
-1.004616618156433,2.2944111824035645,9.29155158996582,-0.07639306038618088,-0.05256931856274605,0.011571533046662807
-1.0301674604415894,2.2555007934570312,9.404184341430664,-0.08220500499010086,-0.08979719132184982,0.022532200440764427
-0.9652846455574036,2.259685754776001,9.438249588012695,-0.07321656495332718,-0.13343042135238647,0.02715732343494892
-0.8590490818023682,2.2313191890716553,9.480971336364746,-0.06005677953362465,-0.1318770796060562,0.02869321219623089
-0.8700528740882874,2.179757833480835,9.45213508605957,-0.03790855035185814,-0.13098695874214172,0.024015730246901512
-0.7762576341629028,2.1852738857269287,9.471213340759277,-0.02701769582927227,-0.10768681764602661,0.021467549726366997
-0.7381132245063782,2.1803994178771973,9.376863479614258,-0.025883233174681664,-0.07176794111728668,0.01408480666577816
-0.6844160556793213,2.1290390491485596,9.639754295349121,-0.02932153083384037,-0.04040437191724777,8.726646046852693e-05
-0.7570752501487732,2.1199698448181152,9.581413269042969,0.008255407214164734,-0.03164282068610191,-0.00013962633966002613
-0.7211718559265137,2.0783584117889404,9.461434364318848,0.03314380347728729,-0.0357094369828701,0.008412486873567104
-0.6482540369033813,2.1026549339294434,9.18820858001709,0.031555552035570145,-0.01302015595138073,0.004014257341623306
-0.6478422284126282,2.131481170654297,9.300573348999023,0.018273597583174706,-0.003996803890913725,0.0011868239380419254
-0.6790817379951477,2.2083637714385986,9.327743530273438,-0.01722639985382557,-0.008726646192371845,-0.007295476272702217
-0.6321075558662415,2.1038520336151123,9.384284019470215,-0.012566370889544487,-0.013613567687571049,-0.001972222002223134
-0.7184807658195496,2.179020404815674,9.446063995361328,-0.01776745170354843,-0.012967796064913273,-0.002373647876083851
-0.7832773923873901,2.1569936275482178,9.44494342803955,-0.010332348756492138,-0.02200860157608986,0.008482299745082855
-0.7255292534828186,2.1201324462890625,9.385031700134277,-0.006265731994062662,-0.04420918971300125,0.018238689750432968
-0.684234082698822,2.1469380855560303,9.355563163757324,-0.011327186599373817,-0.048572514206171036,0.014398965984582901
-0.6648027300834656,2.126568078994751,9.37075138092041,-0.027174776419997215,-0.05541420355439186,0.013875367119908333
-0.56754070520401,2.1687252521514893,9.354155540466309,-0.049357909709215164,-0.06888814270496368,0.0013613568153232336
-0.6569880843162537,2.10286545753479,9.241340637207031,-0.07120943069458008,-0.09546951204538345,-0.0027576202992349863
-0.8146606087684631,2.1024632453918457,9.24488353729248,-0.1368163526058197,-0.1809208244085312,0.021275563165545464
-0.6654252409934998,2.133999824523926,9.438105583190918,-0.15718434751033783,-0.18193311989307404,0.03473205119371414
-0.5832658410072327,2.0029795169830322,9.546792984008789,-0.14039428532123566,-0.16179202497005463,0.04682718217372894
-0.33614590764045715,1.9204177856445312,9.563887596130371,-0.09384635090827942,-0.11660544574260712,0.0501258559525013
-0.306936651468277,1.9106398820877075,9.496341705322266,-0.08115781098604202,-0.11107275635004044,0.03286454826593399
-0.3169827163219452,1.9197474718093872,9.502299308776855,-0.07609635591506958,-0.13571679592132568,-0.0015533430268988013
-0.32792899012565613,1.9198049306869507,9.419479370117188,-0.08653342723846436,-0.15538665652275085,-0.01005309633910656
-0.3463068902492523,1.9494259357452393,9.350947380065918,-0.10918779671192169,-0.18093828856945038,-0.018011797219514847
-0.3707085847854614,1.9026241302490234,9.509156227111816,-0.11323696374893188,-0.1414240300655365,-0.004345869645476341
-0.2722015678882599,1.8233665227890015,9.626731872558594,-0.07791149616241455,-0.07969173043966293,0.02200860157608986
-0.13706324994564056,1.7938315868377686,9.672123908996582,-0.03207915276288986,-0.07227408140897751,0.015777776017785072
-0.15363112092018127,1.784254789352417,9.605364799499512,-0.017749998718500137,-0.10328858345746994,-0.02122320421040058
-0.2189832478761673,1.7680891752243042,9.597990036010742,-0.00890117883682251,-0.10992083698511124,-0.028099801391363144
-0.23281216621398926,1.859049677848816,9.568216323852539,0.015568336471915245,-0.08667305111885071,-0.024661501869559288
-0.2005862146615982,1.881871223449707,9.523378372192383,0.03906046971678734,-0.047769661992788315,-0.014974924735724926
-0.15514425933361053,1.8599690198898315,9.401905059814453,0.038693949580192566,-0.035587262362241745,-0.02684316411614418
-0.1886630803346634,1.900938630104065,9.339628219604492,0.0038397242315113544,-0.025220006704330444,-0.002809980185702443
-0.20385190844535828,1.8808081150054932,9.412957191467285,-0.030752701684832573,-0.020647244527935982,-0.00251327408477664
-0.20919576287269592,1.8362376689910889,9.489791870117188,-0.03759439289569855,-0.020786872133612633,0.0009773843921720982
-0.17256447672843933,1.8033318519592285,9.567756652832031,-0.016266468912363052,-0.006300638429820538,0.009093165397644043
-0.10163864493370056,1.806578278541565,9.548891067504883,0.0008377580670639873,0.0027925267349928617,0.0075747291557490826
-0.10686758160591125,1.8358067274093628,9.546764373779297,0.006667157635092735,0.005969026125967503,-0.005148721393197775
-0.17366580665111542,1.8536100387573242,9.518092155456543,0.007173303049057722,0.005619960371404886,-0.009861109778285027
-0.2146928459405899,1.85624361038208,9.490758895874023,0.010419615544378757,0.00010471975838299841,-0.007557275705039501
-0.21796812117099762,1.8642882108688354,9.460620880126953,0.009162978269159794,-0.009442231617867947,-0.00031415926059708
-0.1724974364042282,1.8729552030563354,9.417898178100586,-0.00040142572834156454,-0.013089969754219055,0.0033859387040138245
-0.16995000839233398,1.8567991256713867,9.46236515045166,-0.016632987186312675,-0.013124875724315643,-0.0005585053586401045
-0.07128016650676727,1.9889590740203857,9.307805061340332,0.06098180264234543,0.20753709971904755,0.0005759586347267032
-0.2984803318977356,1.8071337938308716,8.983973503112793,0.023230332881212234,0.15995942056179047,0.041922807693481445
-0.2562657594680786,1.926163911819458,9.679622650146484,-0.19306832551956177,-0.17345082759857178,-0.007347836159169674
-0.2143576592206955,1.7143441438674927,10.359739303588867,-0.1270425170660019,-0.20182988047599792,-0.031555552035570145
0.07877881079912186,1.7328944206237793,9.52894115447998,0.29450684785842896,0.13350023329257965,0.0040317103266716
-0.006694187875837088,2.0092713832855225,9.011957168579102,0.17893114686012268,0.20916025340557098,-0.03476695716381073
-0.4982333481311798,1.994235873222351,8.882277488708496,-0.023020893335342407,0.02497566118836403,-0.04567526653409004
-0.5334376692771912,2.040625810623169,9.389283180236816,-0.09061749279499054,-0.0821002870798111,-0.01621410809457302
-0.36854425072669983,2.013667106628418,9.660478591918945,-0.04553563892841339,-0.004171337001025677,0.028588492423295975
-0.21545898914337158,1.8943880796432495,9.542635917663574,-0.0006981316837482154,0.024504423141479492,0.049933869391679764
-0.07389463484287262,1.7982752323150635,9.453485488891602,-0.01661553420126438,-0.027174776419997215,0.02617993950843811
-0.09796115010976791,1.758502721786499,9.501858711242676,-0.03614576905965805,-0.06562437862157822,-0.004450589418411255
-0.2692614793777466,1.937531590461731,9.411052703857422,-0.002373647876083851,-0.03122393973171711,0.006213372107595205
-0.23088721930980682,1.889025092124939,9.294061660766602,-0.03890338912606239,-0.08822639286518097,0.009075712412595749
-0.13995544612407684,1.851780891418457,9.311136245727539,-0.08854055404663086,-0.16240288317203522,-0.0040317103266716
-0.07934384047985077,1.8689137697219849,9.42747688293457,-0.13782864809036255,-0.20455259084701538,-0.021362829953432083
-0.1324663907289505,1.865437388420105,9.332884788513184,-0.1575508713722229,-0.2607347369194031,-0.04499458894133568
-0.0022218190133571625,1.847672462463379,9.580493927001953,-0.1822996437549591,-0.24879668653011322,-0.05722934752702713
0.0013790600933134556,1.6445674896240234,9.555919647216797,-0.16945402324199677,-0.18592992424964905,-0.01235693134367466
0.15376520156860352,1.636149525642395,9.656227111816406,-0.1255764365196228,-0.13234831392765045,0.0005235987482592463
0.2906081974506378,1.643437385559082,9.636662483215332,-0.09089674800634384,-0.051661744713783264,-0.021066123619675636
0.1580556184053421,1.6361111402511597,9.530397415161133,0.09349729120731354,0.304699569940567,-0.007208209950476885
0.12493901699781418,1.929640293121338,9.383957862854004,0.2226865589618683,0.26515042781829834,0.01722639985382557
-0.11925996840000153,1.899435043334961,9.12073040008545,0.08422958850860596,0.20045106112957,0.00062831852119416
-0.2627396881580353,1.806760311126709,9.2518949508667,-0.033370696008205414,0.028134707361459732,-0.0028623400721699
-0.15577633678913116,1.7948180437088013,9.631979942321777,-0.04066617041826248,0.015934856608510017,0.0006108652451075613
-0.07108863443136215,1.7429978847503662,9.76771068572998,0.03942698612809181,0.11269591003656387,0.012932890094816685
-0.016242263838648796,1.7505731582641602,9.697005271911621,0.1195375993847847,0.18990927934646606,0.015097098425030708
-0.07923849672079086,1.8219108581542969,9.472036361694336,0.12974777817726135,0.20472711324691772,-0.009197885170578957
-0.9453552961349487,2.212270975112915,9.387243270874023,0.4346219003200531,0.3720692992210388,-0.0679805725812912
-1.2843167781829834,2.375488519668579,9.04749584197998,0.35587263107299805,0.21764256060123444,-0.059323739260435104
-2.0279271602630615,2.107443332672119,8.431965827941895,0.3271794319152832,-0.31675979495048523,-0.022689281031489372
-0.5828253030776978,3.1160151958465576,8.150369644165039,0.00593411922454834,0.02068215236067772,0.026947883889079094
-0.7210952043533325,2.6512813568115234,9.28456974029541,-0.2793399393558502,0.2128254473209381,-0.009634217247366905
-0.9104478359222412,2.3340017795562744,10.371077537536621,-0.2240828275680542,0.3062005639076233,-0.03907792270183563
-1.7283741235733032,1.7389469146728516,9.976532936096191,0.05174901336431503,0.02759365551173687,0.008639379404485226
-1.1745187044143677,2.3924968242645264,9.499493598937988,0.232757106423378,-0.13590878248214722,0.01401499379426241
-0.9880199432373047,2.5693421363830566,8.857636451721191,0.12086404860019684,-0.08531169593334198,0.013212142512202263
-1.058342456817627,2.465893507003784,8.625848770141602,-0.0070685832761228085,-0.0987856388092041,0.007609635591506958
-0.9888914823532104,2.4516050815582275,8.739803314208984,-0.09339256584644318,-0.08859290927648544,0.02321287989616394
-0.9183008074760437,2.4762747287750244,8.828139305114746,-0.143448606133461,-0.07562511414289474,0.02028072625398636
-0.9281744956970215,2.3703553676605225,9.244406700134277,-0.20717057585716248,-0.07251843065023422,0.014381512999534607
-0.9176687598228455,2.2911360263824463,9.627142906188965,-0.17352063953876495,-0.10012953728437424,0.01572541706264019
-0.8804053664207458,2.2276418209075928,9.74143123626709,-0.09868091344833374,-0.11503464728593826,0.012164944782853127
-0.8669595718383789,2.2114665508270264,9.596784591674805,-0.05225515738129616,-0.09794788062572479,0.011676252819597721
-0.844770073890686,2.195387125015259,9.50499153137207,-0.029827676713466644,-0.08194320648908615,0.01342158205807209
-0.8334311246871948,2.434213399887085,7.790502071380615,-0.1886700987815857,0.015830136835575104,0.01136209350079298
-0.9700347185134888,1.8497889041900635,11.150314331054688,-0.24099506437778473,-0.2021963894367218,0.03529055789113045
