accX,accY,accZ,gyroX,gyroY,gyroZ
-2.758254289627075,5.151881217956543,9.014618873596191,-0.438967764377594,0.4761781692504883,0.06719517707824707
-3.3259387016296387,4.833395004272461,9.314306259155273,-0.6407103538513184,0.3986506462097168,-0.0019198621157556772
-3.7561957836151123,4.558703422546387,9.85010051727295,-0.8148941993713379,0.13618804514408112,-0.021240657195448875
-3.6860456466674805,4.080725193023682,10.084683418273926,-0.7762351632118225,-0.08384561538696289,-0.015847589820623398
-3.58534574508667,3.7751963138580322,9.845052719116211,-0.4792150557041168,-0.0408930629491806,0.049933869391679764
-3.6715943813323975,3.536044120788574,9.621798515319824,-0.11301007121801376,0.19491836428642273,0.08290313929319382
-4.281244277954102,3.4436089992523193,9.020767211914062,0.6354219913482666,0.3761184513568878,0.304210901260376
-4.173686981201172,3.438743829727173,8.443487167358398,0.6211626529693604,0.1149124801158905,0.2641904950141907
-3.9558913707733154,3.697049379348755,7.680005073547363,0.49357911944389343,0.06976080685853958,0.1829279512166977
-4.4326629638671875,4.151229381561279,7.108279228210449,0.2932327687740326,0.16119861602783203,0.20844466984272003
-4.303481578826904,4.660102844238281,5.580865859985352,0.6316346526145935,-0.8010886907577515,-0.15201817452907562
-3.0425896644592285,6.106248378753662,4.950586318969727,-0.1457698941230774,0.2768092155456543,0.1685289889574051
-3.8884801864624023,3.9503560066223145,8.072999000549316,-0.2822895646095276,0.5478065013885498,0.2367888242006302
-3.795259714126587,4.370978832244873,9.252163887023926,0.1290321946144104,-0.15887732803821564,0.03516838327050209
-3.232450008392334,4.8711466789245605,8.014235496520996,0.31525883078575134,-0.3314729332923889,-0.03207915276288986
-3.529005289077759,5.116715431213379,7.483766555786133,0.2810852825641632,-0.4251098334789276,-0.02666863054037094
-3.456087589263916,5.364017009735107,6.356624603271484,-0.14826571941375732,-0.4991292655467987,0.01432915311306715
-3.2117257118225098,5.186022758483887,6.994382381439209,-0.31813862919807434,-0.315154105424881,0.06967354565858841
-3.1425139904022217,4.978387832641602,7.745931625366211,-0.2280970811843872,-0.31726595759391785,0.05722934752702713
-2.986335515975952,5.277088642120361,7.293130874633789,-0.31695178151130676,-0.48377037048339844,0.002024581888690591
-2.7268519401550293,5.221811294555664,7.766608238220215,-0.32761573791503906,-0.4758291244506836,-0.017837265506386757
-2.6034739017486572,5.111026763916016,8.080430030822754,-0.21643827855587006,-0.4418126344680786,-0.08157669007778168
-2.7802042961120605,5.457094192504883,8.105809211730957,-0.13905037939548492,-0.5048539638519287,-0.11056660860776901
-2.6557250022888184,5.605611324310303,7.776146411895752,-0.179768905043602,-0.5874080061912537,-0.05672319978475571
-2.4845588207244873,5.482616424560547,8.114466667175293,-0.22506020963191986,-0.5783672332763672,-0.06274458765983582
-2.441549301147461,5.42447566986084,8.475301742553711,-0.22418753802776337,-0.6678676605224609,-0.10039133578538895
-2.2760908603668213,5.551790714263916,8.29230785369873,-0.18301522731781006,-0.7450286746025085,-0.09358455240726471
-2.102396249771118,5.6058030128479,8.52235221862793,0.03265510872006416,-0.23795819282531738,0.011920598335564137
-2.1195578575134277,5.433104038238525,8.441380500793457,0.18961256742477417,-0.133657306432724,0.09354964643716812
-2.1399757862091064,5.27164888381958,8.31293773651123,0.20991075038909912,-0.08499753475189209,0.10691887140274048
-2.011349678039551,5.1577229499816895,8.50168514251709,0.21146409213542938,-0.10590657591819763,0.056670840829610825
-2.1165125370025635,5.234624862670898,8.565170288085938,0.21645572781562805,-0.22703242301940918,-0.006405358202755451
-1.9457963705062866,5.468222618103027,8.531240463256836,0.19079940021038055,-0.32792991399765015,-0.004590216092765331
-1.371599793434143,6.186980724334717,6.625033378601074,0.543129026889801,0.7822042107582092,-0.03263765573501587
-2.65377140045166,5.515704154968262,9.403006553649902,0.13432054221630096,0.6253688931465149,0.1714087873697281
-2.524972915649414,4.642471790313721,9.835189819335938,-0.32813936471939087,-0.4406607151031494,0.1621585339307785
-1.9423104524612427,3.912719249725342,9.310274124145508,-0.34946727752685547,-0.5925043821334839,-0.034086279571056366
-2.0581226348876953,4.126856803894043,9.12883186340332,0.35013049840927124,0.3070557713508606,-0.07211700081825256
-1.844004511833191,4.167108058929443,8.963306427001953,0.3712315261363983,0.11831586807966232,-0.027663469314575195
-1.2575783729553223,4.078551292419434,8.63213062286377,0.362417608499527,0.05279621109366417,-0.038432151079177856
-1.070677399635315,4.16528844833374,8.333115577697754,0.3491356670856476,0.13028882443904877,-0.07007496803998947
-1.1665029525756836,4.418757438659668,8.200447082519531,0.27199211716651917,0.2520604431629181,-0.024172810837626457
-1.1484888792037964,4.366209506988525,8.370023727416992,0.1843242198228836,0.34238123893737793,0.0007330382941290736
-1.310442328453064,4.3139967918396,8.54307746887207,0.09639453142881393,0.35503488779067993,-0.024120450019836426
-1.7623335123062134,4.448206424713135,8.243456840515137,-0.09176941215991974,0.2843141257762909,-0.060266219079494476
-2.0162911415100098,4.3961181640625,8.256021499633789,-0.3491007685661316,0.2188817411661148,-0.08510225266218185
-1.9918321371078491,4.317664623260498,8.84428596496582,-0.41238638758659363,0.1874832659959793,-0.10266026854515076
-2.037609100341797,4.250560283660889,9.219219207763672,-0.18093828856945038,0.2099805623292923,-0.09962339699268341
-2.1228716373443604,4.407112121582031,8.91429328918457,0.16454963386058807,0.20697858929634094,-0.06808529049158096
-1.9761452674865723,4.882179260253906,7.833042144775391,0.25335198640823364,0.20902062952518463,-0.024591689929366112
-1.7230015993118286,4.985857963562012,8.21186351776123,0.07799876481294632,0.28668779134750366,-0.06743951886892319
-1.793573021888733,4.960766792297363,8.341743469238281,0.15646876394748688,0.25502750277519226,-0.04237659275531769
-1.989284634590149,5.3635478019714355,8.288361549377441,-0.2272593230009079,-0.2568601071834564,-0.13158036768436432
-1.98267662525177,5.687368392944336,8.073535919189453,-0.2523396909236908,-0.3415783941745758,-0.11417943984270096
-1.9368228912353516,5.616030693054199,7.471316814422607,-0.16950637102127075,-0.11192796379327774,-0.0483979806303978
-1.942837119102478,5.650689125061035,7.8177289962768555,0.11194542050361633,0.13484413921833038,0.03956661373376846
-1.8742672204971313,5.666519641876221,7.434925079345703,0.0694291964173317,0.07986626774072647,0.07051130384206772
-1.6484365463256836,5.514277458190918,7.236819267272949,-0.08335692435503006,0.05373868718743324,0.08457865566015244
-1.4163330793380737,5.351960182189941,7.589475631713867,-0.17875662446022034,0.11681488901376724,0.045465826988220215
-1.5771372318267822,5.353846549987793,8.201040267944336,-0.11683233827352524,0.2148500233888626,0.013473941944539547
-1.7948945760726929,5.483287811279297,8.534649848937988,0.03839724510908127,0.25595253705978394,0.020612338557839394
-1.9768826961517334,5.673079967498779,8.413397789001465,0.10690141469240189,0.20655971765518188,0.03649483621120453
-2.1337890625,5.840520858764648,8.29496955871582,0.0501258559525013,0.09794788062572479,0.06581636518239975
-2.1932802200317383,5.843595027923584,8.405926704406738,0.007609635591506958,0.031695179641246796,0.0886976346373558
-2.090358257293701,5.7593092918396,8.64000415802002,-0.007365289609879255,-0.06888814270496368,0.11307988315820694
-1.8731467723846436,5.868801116943359,8.618972778320312,0.32534682750701904,0.18399260938167572,0.267279714345932
-2.138127326965332,5.874020576477051,8.58733081817627,0.18339920043945312,0.08023278415203094,0.2869321405887604
-2.204456329345703,5.543821811676025,8.59555721282959,-0.039269909262657166,-0.04274311289191246,0.26164230704307556
-2.7615296840667725,4.964108943939209,8.647722244262695,-0.08405505865812302,0.0114493602886796,0.1244245246052742
-2.8445796966552734,4.751589775085449,8.511808395385742,-0.02972295694053173,0.12346459180116653,0.15083135664463043
-2.8723812103271484,4.537308692932129,8.703920364379883,-0.01633628085255623,0.11534880846738815,0.14943508803844452
-2.9063212871551514,4.194650650024414,9.169744491577148,0.042987458407878876,-0.05670574679970741,0.10578440874814987
-2.8566081523895264,4.217051029205322,8.968938827514648,0.17634806036949158,-0.24699899554252625,0.06174974888563156
-2.822744607925415,4.8055267333984375,7.390162944793701,-0.09213592857122421,-0.26202628016471863,0.18044959008693695
-2.4720609188079834,4.353328704833984,7.934671401977539,-0.25787240266799927,-0.3197443187236786,0.14130185544490814
-2.3806025981903076,4.263287544250488,8.323308944702148,-0.18903660774230957,-0.3099181056022644,0.04016002640128136
-2.391615867614746,4.513711452484131,7.996709823608398,-0.05305800959467888,-0.2761983573436737,0.011170106939971447
-2.093604803085327,4.6857686042785645,7.4643354415893555,-0.008883725851774216,-0.18709929287433624,0.016947146505117416
-1.7280293703079224,4.739676475524902,7.322100639343262,-0.02157226949930191,-0.07581710070371628,-0.008848818950355053
-1.6002748012542725,4.777677059173584,7.749819755554199,-0.027296949177980423,-0.015341443940997124,-0.07246606796979904
-1.8105909824371338,5.0166473388671875,8.219343185424805,-0.014660765416920185,-0.23261748254299164,-0.17355553805828094
-1.7995202541351318,5.134615421295166,7.914981365203857,-0.03389429301023483,-0.29160961508750916,-0.21036453545093536
-1.9831937551498413,5.273525714874268,7.724460601806641,-0.12088150531053543,-0.26457446813583374,-0.2231752574443817
-2.1713876724243164,5.333975791931152,7.467830657958984,-0.25912904739379883,-0.25417229533195496,-0.22563616931438446
-3.0526835918426514,5.680310249328613,9.894632339477539,-0.089884452521801,0.21223203837871552,0.002914699725806713
-2.444230794906616,4.9251790046691895,9.20173168182373,-0.5021137595176697,-0.9775239825248718,-0.19622737169265747
-1.95192551612854,4.88069486618042,7.697991371154785,-0.432073712348938,-0.9485864639282227,-0.4334525167942047
-2.4200589656829834,5.453895568847656,7.113795280456543,-0.1428551971912384,-0.33534756302833557,-0.41151371598243713
-2.9679863452911377,5.999505519866943,7.492912292480469,0.07579965144395828,0.08590510487556458,-0.17535322904586792
-2.6389846801757812,5.956601142883301,7.780800819396973,0.19195130467414856,0.16437511146068573,0.04766494035720825
-2.27821683883667,5.820064544677734,7.806447505950928,0.12459905445575714,0.02972295694053173,0.12985248863697052
-2.0065038204193115,5.597671985626221,7.713111877441406,-0.11102039366960526,-0.22305308282375336,0.12074187397956848
-1.593954086303711,5.445085048675537,7.87532377243042,-0.2883283793926239,-0.3229033648967743,0.04331907257437706
-1.4726064205169678,5.396780490875244,8.061593055725098,-0.2249205857515335,-0.21277308464050293,-0.00563741335645318
-1.6979007720947266,5.474456787109375,8.040677070617676,-0.0481012724339962,0.01616174913942814,0.004258603323251009
-1.8195549249649048,5.533105373382568,7.868026256561279,0.026249751448631287,0.1587376892566681,0.04286528751254082
-1.8253872394561768,5.543275833129883,7.776251792907715,-0.025848325341939926,0.15769049525260925,0.04916592314839363
-2.0928962230682373,5.76611852645874,7.963028430938721,0.040770892053842545,0.2578025758266449,0.006300638429820538
-2.3812825679779053,5.786325454711914,7.997581481933594,0.05864306166768074,0.33283427357673645,0.032271139323711395
-2.578143358230591,5.863150596618652,8.428050994873047,-0.0037000980228185654,0.2209063172340393,0.041695915162563324
-2.4559240341186523,5.953335285186768,8.806621551513672,-0.014346606098115444,0.006981316953897476,0.062029000371694565
-2.412541151046753,5.946842670440674,8.748720169067383,0.07096508890390396,-0.10894345492124557,0.06984807550907135
-2.411008834838867,6.082440376281738,8.398686408996582,0.13154546916484833,-0.09848892688751221,0.11198032647371292
-2.1217222213745117,6.154544353485107,8.420876502990723,0.12142255902290344,-0.012566370889544487,0.19640189409255981
-1.8726869821548462,5.89348030090332,8.646075248718262,0.10890854150056839,0.060702551156282425,0.24532347917556763
-2.0634284019470215,5.381648063659668,8.608083724975586,0.054541539400815964,0.15599752962589264,0.22509510815143585
-2.5871741771698,4.833280086517334,9.02358341217041,-0.03021164983510971,0.1388409435749054,0.16631242632865906
-2.9908366203308105,4.704778671264648,9.392779350280762,-0.05784020945429802,-0.06525786221027374,0.13901548087596893
-2.5911102294921875,4.822439193725586,8.759004592895508,0.0437903106212616,-0.1417032778263092,0.21898646652698517
-2.172412395477295,4.724564075469971,8.062378883361816,0.18064157664775848,0.10602875053882599,0.30283206701278687
-2.1393914222717285,4.5998454093933105,8.175652503967285,0.23952898383140564,0.4047069549560547,0.31895890831947327
-2.313622236251831,4.45485258102417,8.699782371520996,0.19100883603096008,0.4346567988395691,0.29939377307891846
-2.148585319519043,4.455379486083984,8.507048606872559,0.17643533647060394,0.5204920768737793,0.5634795427322388
-1.7169969081878662,4.181195259094238,8.74094295501709,0.18210765719413757,0.49186867475509644,0.534035861492157
-2.7406809329986572,4.907423973083496,8.363664627075195,-0.18130479753017426,0.3427477478981018,0.41547563672065735
-2.5779995918273926,4.998336315155029,7.99137544631958,-0.04675737023353577,0.4795292019844055,0.497139573097229
-2.515108823776245,5.173065185546875,7.844161033630371,-0.00945968460291624,0.5474923253059387,0.5359557271003723
-2.4920382499694824,5.238493919372559,7.6798996925354,-0.05394812673330307,0.5534788370132446,0.6161361336708069
-2.3065545558929443,5.270212173461914,7.598477840423584,-0.203348308801651,0.5184151530265808,0.6856176853179932
-2.106370687484741,4.996277332305908,8.125824928283691,-0.32279863953590393,0.4530351161956787,0.7151835560798645
-1.9109559059143066,4.914127349853516,8.398849487304688,-0.3479662835597992,0.34983378648757935,0.6893701553344727
-1.939456582069397,5.067691802978516,8.226974487304688,-0.3412467837333679,0.34238123893737793,0.7062649130821228
-2.1426572799682617,5.087936878204346,8.15047550201416,-0.34468507766723633,0.44174283742904663,0.7959399223327637
-2.356832981109619,5.019002914428711,8.236503601074219,-0.35498252511024475,0.5511226058006287,0.9202597737312317
-2.479243755340576,4.718100070953369,8.440508842468262,-0.36512288451194763,0.6106557846069336,1.015729308128357
-2.3161792755126953,4.659997463226318,8.843425750732422,-0.3344748914241791,0.6018418669700623,1.0509151220321655
-2.276770830154419,4.872726917266846,8.530233383178711,-0.2269975244998932,0.9386904239654541,1.2600055932998657
-2.226090431213379,4.461757659912109,8.84691047668457,-0.4974711835384369,0.7753276228904724,1.2531464099884033
-2.681553602218628,4.457696914672852,8.525196075439453,-0.5662895441055298,0.7014129161834717,1.2527275085449219
-2.7626595497131348,4.424283504486084,8.463052749633789,-0.5969724059104919,0.708097517490387,1.28213632106781
-2.7603325843811035,4.408606052398682,8.537771224975586,-0.5844409465789795,0.6998072266578674,1.2708964347839355
-2.7344367504119873,4.543878555297852,8.37332820892334,-0.5340707302093506,0.6599264144897461,1.2418540716171265
-2.51678466796875,4.556472301483154,8.256290435791016,-0.4158945083618164,0.6895097494125366,1.2214163541793823
-2.992579698562622,4.518145561218262,7.814108848571777,-0.3836582601070404,0.7605795860290527,0.9974905848503113
-3.185523509979248,4.521085739135742,8.531794548034668,-0.46910959482192993,0.609329342842102,0.9877690672874451
-3.106562852859497,4.4839372634887695,8.603554725646973,-0.3536560535430908,0.5896071195602417,1.0080323219299316
-2.957451820373535,5.140829563140869,6.757145404815674,0.09681341052055359,1.3259615898132324,1.0341598987579346
-3.4321932792663574,4.770293235778809,8.806649208068848,-0.2381850779056549,1.0160783529281616,1.1128568649291992
-3.2826132774353027,4.55256462097168,8.2939453125,-0.6726673245429993,0.3110700249671936,0.9438391327857971
-3.139162302017212,4.652565956115723,7.963066577911377,-0.7664264440536499,0.3336196839809418,0.8234114050865173
-3.6582345962524414,4.88258171081543,8.242766380310059,-0.5603554248809814,0.5437573194503784,0.8580561876296997
-3.9213478565216064,5.174118518829346,8.046538352966309,-0.36337754130363464,0.700383186340332,0.9849241971969604
-3.679840087890625,5.209648609161377,7.568512916564941,-0.23296654224395752,0.9052673578262329,1.1232938766479492
-3.4773192405700684,4.777351379394531,7.848327159881592,-0.44745007157325745,0.9150761365890503,1.0364463329315186
-3.758934736251831,4.835224151611328,8.479726791381836,-0.5815960764884949,0.6991265416145325,0.9655336141586304
-3.9177565574645996,4.830531597137451,8.422812461853027,-0.5184151530265808,0.6466270089149475,0.9848020076751709
-4.077919006347656,4.775503158569336,8.362601280212402,-0.35554102063179016,0.7842985987663269,1.0597115755081177
-4.122278690338135,4.760898590087891,8.295975685119629,-0.23024383187294006,0.8878315091133118,1.1455817222595215
-3.925504207611084,4.708044052124023,8.138935089111328,-0.19491836428642273,0.9145350456237793,1.1902971267700195
-3.7169883251190186,4.856992244720459,8.119139671325684,-0.20486675202846527,0.8512145280838013,1.1984652280807495
-3.5796091556549072,4.914912700653076,7.827755928039551,-0.24260076880455017,0.7693062424659729,1.1952015161514282
-3.4296841621398926,4.928013801574707,7.5147857666015625,-0.30487412214279175,0.7659726738929749,1.2073315382003784
-3.297696590423584,4.746456623077393,8.195390701293945,-0.31293752789497375,0.554176926612854,1.199268102645874
-3.209455966949463,4.848928451538086,8.169791221618652,-0.2580120265483856,0.5046270489692688,1.150398850440979
-3.3626561164855957,4.86000919342041,8.060166358947754,-0.22603759169578552,0.481047660112381,1.1066957712173462
-3.3382928371429443,4.9392571449279785,8.241215705871582,-0.1583711802959442,0.413625568151474,1.0613347291946411
-3.2540454864501953,4.938912391662598,8.0257568359375,-0.10777407884597778,0.38954004645347595,1.02065110206604
-3.070917844772339,5.297420024871826,8.33488655090332,-0.16512559354305267,0.31442105770111084,0.9332799315452576
-2.8063204288482666,5.3954386711120605,8.52867317199707,-0.06319837272167206,0.3162711262702942,0.8909207582473755
-2.7333545684814453,5.42645788192749,8.45565128326416,0.043214350938797,0.39760345220565796,0.8583703637123108
-3.3248276710510254,4.863993167877197,9.19257640838623,0.10060077905654907,0.22174407541751862,0.8106530904769897
-2.3033559322357178,6.284118175506592,7.167292594909668,-0.17153096199035645,0.54621821641922,0.8328885436058044
-3.1183135509490967,4.958507537841797,9.055761337280273,-0.1543918251991272,0.35383060574531555,0.8058708906173706
-2.958390474319458,5.005164623260498,8.713860511779785,-0.07583455741405487,0.2523047924041748,0.7784692049026489
-2.6064810752868652,5.373919486999512,8.24683666229248,-0.03726277872920036,0.32328733801841736,0.8207410573959351
-2.6505823135375977,4.975304126739502,8.061123847961426,0.029949849471449852,0.36418038606643677,0.8363094329833984
-1.2275550365447998,4.371294975280762,8.522909164428711,-0.30750957131385803,0.32649874687194824,0.9085660576820374
-1.2286276817321777,4.368603706359863,8.295516967773438,-0.3023957312107086,0.4435230791568756,0.9134355187416077
-1.4661707878112793,4.335851192474365,8.37714958190918,-0.31183797121047974,0.5526410341262817,0.9714153409004211
-1.4273655414581299,4.2456183433532715,8.463598251342773,-0.35100317001342773,0.5909859538078308,1.0378774404525757
-1.1816725730895996,4.064301013946533,8.88695240020752,-0.395823210477829,0.512219250202179,1.0395005941390991
-0.9145562648773193,3.99064564704895,9.144442558288574,-0.33604568243026733,0.39069196581840515,0.9985726475715637
-0.7052168846130371,4.153862953186035,8.818965911865234,-0.22155208885669708,0.36915460228919983,0.9801594614982605
-0.5423345565795898,4.323612213134766,8.304969787597656,-0.14470525085926056,0.44279003143310547,0.982096791267395
-0.314780056476593,4.354430198669434,8.236197471618652,-0.1708153784275055,0.5252394080162048,0.9390046000480652
-0.4968159794807434,4.462159633636475,8.593613624572754,-0.22947588562965393,0.4806811213493347,0.8374962210655212
-0.8887372016906738,4.664795398712158,8.651534080505371,-0.28729864954948425,0.3677408695220947,0.7831816077232361
-1.1148169040679932,4.7056498527526855,8.530808448791504,-0.2796191871166229,0.3605850338935852,0.7922747731208801
-1.0374171733856201,4.672092914581299,8.430060386657715,-0.22012092173099518,0.4274834990501404,0.7952418327331543
-1.2157851457595825,4.850614070892334,8.042584419250488,-0.23863886296749115,0.4757592976093292,0.7861312031745911
-1.2307345867156982,4.88289737701416,8.108145713806152,-0.3902730643749237,0.4698426425457001,0.7682590484619141
-1.101313591003418,4.693918228149414,8.633807182312012,-0.46907469630241394,0.4095589518547058,0.7038912773132324
-1.188270926475525,5.068141937255859,8.597406387329102,-0.22912682592868805,0.3856130540370941,0.6544984579086304
-0.8640961050987244,5.087218761444092,7.999584197998047,-0.18486528098583221,0.39933133125305176,0.6340780854225159
-0.8699187636375427,5.807835102081299,6.259861469268799,0.24094270169734955,1.388863205909729,0.6746744513511658
-1.5526779890060425,5.416325569152832,9.4888334274292,-0.12138764560222626,0.7492000460624695,0.7098777890205383
-1.1033151149749756,4.921367645263672,8.371661186218262,-0.6050707697868347,-0.18992672860622406,0.5085715055465698
-0.7838233113288879,5.103106498718262,7.853020668029785,-0.7232819199562073,-0.23312363028526306,0.4412541389465332
-1.018081545829773,5.086328029632568,8.144441604614258,-0.5694311261177063,0.1886875480413437,0.38001054525375366
-1.4929571151733398,5.2361955642700195,8.974100112915039,-0.2584308981895447,0.47075021266937256,0.49151962995529175
-1.348127007484436,5.175555229187012,8.855385780334473,-0.02356194518506527,0.5442460179328918,0.6167120933532715
-1.0102477073669434,4.993596076965332,8.582475662231445,-0.07019714266061783,0.5137900114059448,0.59213787317276
-0.8287001848220825,4.972440719604492,9.127050399780273,-0.23523548245429993,0.2942974269390106,0.4829674959182739
-0.9105148911476135,5.058603286743164,9.39791202545166,-0.25790730118751526,0.04764748737215996,0.3813020884990692
-1.0532475709915161,5.240227222442627,8.954476356506348,-0.12870058417320251,0.05843362212181091,0.3617892861366272
-1.3011431694030762,5.290448188781738,8.638672828674316,-0.01616174913942814,0.20352284610271454,0.3847927451133728
-1.5299235582351685,5.376524448394775,8.580963134765625,0.009843656793236732,0.2509085237979889,0.40737730264663696
-1.4969793558120728,5.529322624206543,8.675562858581543,0.0019547687843441963,0.24218188226222992,0.43802526593208313
-1.3993533849716187,6.475788593292236,7.291904926300049,0.29571112990379333,0.8011759519577026,0.4874180853366852
-1.9128808975219727,5.753697395324707,9.354395866394043,-0.04038691893219948,0.35039231181144714,0.5454851984977722
-1.5510404109954834,5.17393684387207,8.262849807739258,-0.36311575770378113,-0.12693779170513153,0.293791264295578
-1.9072784185409546,5.362465858459473,8.345823287963867,-0.12253956496715546,0.22596777975559235,0.30604347586631775
-1.9818626642227173,5.582080841064453,8.29368782043457,0.08817403018474579,0.4995132386684418,0.4568573832511902
-1.6106655597686768,5.2234296798706055,8.273423194885254,0.10608111321926117,0.6112317442893982,0.5089729428291321
-1.6605416536331177,4.893824577331543,8.51929759979248,0.016109388321638107,0.5898863673210144,0.43797293305397034
-1.8853858709335327,4.867699146270752,8.745577812194824,-0.16638223826885223,0.4417777359485626,0.34093260765075684
-3.833327531814575,4.171532154083252,9.776885986328125,-0.21622884273529053,0.19627973437309265,0.3850719928741455
-3.4806041717529297,4.369667053222656,9.16579818725586,-0.014364060014486313,0.0771959125995636,0.5186944007873535
-2.934908151626587,4.085743427276611,8.131139755249023,0.15625932812690735,0.5501976013183594,0.6703286170959473
-3.146277666091919,4.034430980682373,8.666387557983398,-0.15161675214767456,0.25104814767837524,0.5673890709877014
-3.4100422859191895,4.050500869750977,8.93086051940918,-0.2940530776977539,-0.024905849248170853,0.4787438213825226
-3.687070369720459,3.8697288036346436,7.451923847198486,-0.020263273268938065,-0.10620328783988953,0.47998300194740295
-2.016319990158081,4.2407917976379395,8.075479507446289,-0.2720968425273895,-0.15102334320545197,0.5379977226257324
-2.179527997970581,4.594616413116455,8.154508590698242,-0.12608258426189423,0.03228859230875969,0.444081574678421
-2.4321162700653076,5.007338523864746,8.047017097473145,0.09002408385276794,0.10567968338727951,0.49581313133239746
-2.4217445850372314,5.1655473709106445,7.558963775634766,0.1794372946023941,0.17922785878181458,0.5916142463684082
-2.1490066051483154,5.200655937194824,7.170145511627197,0.15084880590438843,0.25136232376098633,0.6415132284164429
-2.081451892852783,5.055069446563721,7.2842912673950195,0.022130774334073067,0.2804918587207794,0.6286675930023193
-2.16326642036438,4.878233432769775,7.839190483093262,-0.14091788232326508,0.14582225680351257,0.5489409565925598
-2.2519476413726807,4.949073314666748,7.892705917358398,-0.23888321220874786,-0.017156586050987244,0.4838401675224304
-2.1900815963745117,5.086396217346191,7.865296840667725,-0.21729348599910736,-0.03663446009159088,0.4743281304836273
-1.9697767496109009,5.173314094543457,7.893481731414795,-0.1287354826927185,0.0581892766058445,0.4634372889995575
-1.9055737257003784,5.224186420440674,8.128180503845215,-0.03562216833233833,0.11102039366960526,0.3974463641643524
-1.9700927734375,5.400418758392334,8.252708435058594,-0.01748819835484028,0.0553094856441021,0.292011022567749
-2.0982398986816406,5.677609443664551,8.325510025024414,-0.028536133468151093,-0.040735986083745956,0.22432716190814972
-2.097425937652588,5.859550952911377,8.24466323852539,-0.014957471750676632,-0.06642723083496094,0.21359339356422424
-2.080197334289551,5.858094215393066,8.434111595153809,0.012496557086706161,0.0003490658418741077,0.21956242620944977
-2.211064338684082,5.741113662719727,8.947592735290527,0.07672467082738876,0.01342158205807209,0.19402825832366943
-2.2207751274108887,5.825312614440918,9.02341079711914,0.11472049355506897,-0.08187339454889297,0.16926203668117523
-2.1578938961029053,5.9117913246154785,8.8900728225708,0.07771950960159302,-0.24235641956329346,0.14388494193553925
-1.8805495500564575,6.1569671630859375,8.861294746398926,0.05953317880630493,-0.3582986295223236,0.12610003352165222
-1.5614982843399048,6.159217834472656,8.781866073608398,0.08829620480537415,-0.3243345320224762,0.12044516950845718
-1.256113052368164,6.129979610443115,8.751927375793457,0.18160150945186615,-0.13032373785972595,0.12784536182880402
-1.1290576457977295,5.942255020141602,8.823437690734863,0.27118927240371704,0.0901637077331543,0.12917181849479675
-1.3918930292129517,5.560647964477539,9.234675407409668,0.24671974778175354,0.1016828790307045,0.12451178580522537
-1.5360047817230225,5.181694030761719,9.460352897644043,0.12255702167749405,-0.1664520502090454,0.08306021988391876
-1.1534593105316162,4.906676769256592,9.03676986694336,0.03991568088531494,-0.3707253932952881,0.030421089380979538
-0.6559537649154663,4.595727443695068,8.610085487365723,0.08574802428483963,-0.24932028353214264,-0.009337511844933033
-0.6387921571731567,4.102646350860596,8.808307647705078,0.47829002141952515,0.2663721442222595,-0.0601964071393013
-0.906904399394989,4.20813512802124,8.559979438781738,0.4711690843105316,0.2119876891374588,-0.08731882274150848
-0.9562057852745056,4.34602165222168,8.356195449829102,0.3621383607387543,0.05504768341779709,-0.08838347345590591
-1.1934232711791992,5.083311557769775,6.675465106964111,0.4483925402164459,1.1416373252868652,0.12657128274440765
-1.604316234588623,4.969807147979736,9.78104305267334,0.037664204835891724,0.21249383687973022,0.14981906116008759
-0.7386207580566406,4.789916515350342,7.570551872253418,-0.4173605740070343,-0.6094689965248108,-0.2157401442527771
-1.1529037952423096,5.278707027435303,7.689600944519043,-0.07370525598526001,-0.022846359759569168,-0.110008105635643
-0.709143340587616,5.192898750305176,7.72222900390625,0.30059805512428284,0.31663763523101807,0.0889943391084671
-0.5940014123916626,5.268986701965332,7.583461284637451,0.11622147262096405,0.13646729290485382,0.03354522958397865
-0.4492384195327759,5.26751184463501,7.532886028289795,-0.09138543903827667,-0.011623892933130264,-0.01748819835484028
-0.4621192216873169,5.275900840759277,7.613082408905029,-0.16264723241329193,0.011728612706065178,-0.0377340167760849
-0.5676077604293823,5.284989356994629,7.79974365234375,-0.11447614431381226,0.17350317537784576,-0.023579398170113564
-0.7226945161819458,5.193119049072266,8.17119026184082,-0.015289084054529667,0.2647838890552521,-0.008621926419436932
-0.9036770462989807,5.437394618988037,7.4621806144714355,-0.054192472249269485,0.18165387213230133,-0.07419394701719284
-1.0000771284103394,5.525367259979248,7.484254837036133,-0.16441000998020172,0.1282118856906891,-0.11199777573347092
-0.9465427994728088,5.592107772827148,7.649014472961426,-0.16123351454734802,0.1480213701725006,-0.150360107421875
-1.293108344078064,5.7713093757629395,7.719241142272949,-0.06761405616998672,0.2047969400882721,-0.17505651712417603
-1.6910532712936401,6.165461540222168,7.7004899978637695,-0.07866198569536209,0.17894861102104187,-0.1342507302761078
-1.6879312992095947,6.338255882263184,8.037622451782227,-0.2347642332315445,0.1526290476322174,0.04225442185997963
-1.6421445608139038,6.156890392303467,8.288679122924805,-0.14522884786128998,0.15542156994342804,0.10259045660495758
-1.5022369623184204,6.319917678833008,8.241004943847656,-0.04075343906879425,0.18587756156921387,0.1693492978811264
-1.1975891590118408,6.336963176727295,8.019301414489746,0.013508847914636135,0.27115434408187866,0.24841271340847015
-1.269108772277832,6.268125057220459,7.869951248168945,-0.04398229718208313,0.40303143858909607,0.2712765336036682
-1.668768048286438,6.280986785888672,8.094441413879395,-0.20036379992961884,0.41437608003616333,0.2558303475379944
-3.095108985900879,4.108842372894287,9.107542991638184,-0.2546609938144684,-0.05129522830247879,0.22361157834529877
-3.0446391105651855,4.136653423309326,8.84908390045166,-0.25446900725364685,-0.13210396468639374,0.1967335194349289
-3.132918119430542,4.278869152069092,8.579602241516113,-0.2165953665971756,-0.1655968427658081,0.20128881931304932
-3.17948055267334,4.346405982971191,8.454654693603516,-0.18795450031757355,-0.11020009219646454,0.26220080256462097
-3.0083048343658447,4.050539016723633,8.540164947509766,-0.17819811403751373,-0.010890854522585869,0.33311355113983154
-3.015544891357422,3.8685414791107178,8.706226348876953,-0.27324873208999634,0.0034732052590698004,0.28530895709991455
-2.646991014480591,4.314389705657959,8.375041961669922,-0.20587903261184692,-0.12770573794841766,0.20268508791923523
-2.2409534454345703,4.546684741973877,7.844161033630371,0.001745329238474369,0.053616516292095184,0.3038792610168457
-1.8254255056381226,4.596244812011719,7.593286991119385,0.07260569930076599,0.19753636419773102,0.3341432809829712
-1.7004960775375366,4.566642761230469,8.075977325439453,0.06812020391225815,0.1454208344221115,0.2831622064113617
-1.686044692993164,4.522168159484863,8.157954216003418,0.06763150542974472,0.0535816065967083,0.24612632393836975
-1.6769753694534302,4.668597221374512,8.030755043029785,0.07609635591506958,-0.07468263804912567,0.1808859258890152
-1.9031507968902588,4.873598575592041,8.114274978637695,0.0012391837080940604,0.07216936349868774,0.2820626497268677
-2.0470423698425293,4.753237247467041,8.446188926696777,-0.06501351296901703,-0.021467549726366997,0.21359339356422424
-2.222604274749756,4.872928142547607,8.459711074829102,-0.06342526525259018,-0.1468694508075714,0.1469043642282486
-2.4838693141937256,4.789437294006348,6.73358678817749,0.2945941090583801,-0.0673871636390686,0.08475318551063538
-2.2589004039764404,6.26511812210083,6.681182384490967,0.18533651530742645,0.6505365967750549,0.3836931884288788
-2.1493704319000244,5.534292697906494,8.483624458312988,-0.04132939502596855,0.11958996206521988,0.3476172387599945
-1.3501189947128296,5.158318042755127,8.251299858093262,-0.12418017536401749,-0.103672556579113,0.2237686663866043
-1.9530746936798096,5.733978748321533,8.114581108093262,-0.12688542902469635,-0.13590878248214722,-0.006702064536511898
-2.352858543395996,5.945817947387695,7.987487316131592,-0.05408775433897972,-0.036250486969947815,-0.010873401537537575
-2.5529372692108154,6.3276448249816895,7.766435623168945,-0.02082177810370922,0.09007643908262253,0.13603095710277557
-2.4771368503570557,6.337480545043945,7.754427433013916,0.01401499379426241,0.20099212229251862,0.2341533750295639
-2.178713798522949,6.156229496002197,7.776510238647461,0.08607963472604752,0.47369980812072754,0.37398916482925415
-2.142350673675537,5.843211650848389,8.280144691467285,0.06487388908863068,0.5788908004760742,0.3937811851501465
-2.1593878269195557,5.69753885269165,8.93415641784668,-0.011484266258776188,0.3433586359024048,0.34342843294143677
-2.035818338394165,6.017902374267578,8.29465389251709,0.05942846089601517,0.10552260279655457,0.3237934708595276
-2.017545700073242,6.038664817810059,8.046643257141113,0.1008102148771286,0.3753854036331177,0.41381755471229553
-1.811529517173767,5.818580150604248,8.56618595123291,0.09047786891460419,0.5455899238586426,0.41812852025032043
-1.461573839187622,5.570253849029541,9.4480562210083,0.08845328539609909,0.49436450004577637,0.3323281407356262
-2.3450629711151123,4.179806709289551,8.651639938354492,0.5586100816726685,0.17592918872833252,0.1276359260082245
-2.118619441986084,4.368814468383789,8.047438621520996,0.5231449604034424,0.18469074368476868,0.1806066632270813
-1.7971068620681763,4.184489727020264,8.390355110168457,0.41631338000297546,0.13784609735012054,0.16947147250175476
-1.6488866806030273,4.021636009216309,8.792792320251465,0.3955090641975403,-0.008133234456181526,0.028204521164298058
-2.407982587814331,3.2358686923980713,12.141830444335938,1.0173872709274292,-1.3616360425949097,-0.1932952105998993
-0.9067224264144897,6.1508283615112305,3.8653714656829834,0.3835884630680084,0.15577062964439392,0.000715585018042475
-2.284116268157959,4.517858505249023,6.430366039276123,-0.3415434658527374,0.4101523756980896,0.2897246479988098
-2.041727304458618,4.114875793457031,9.086761474609375,-0.581910252571106,-0.37658968567848206,-0.0875457152724266
-1.457120656967163,4.447555065155029,8.842046737670898,-0.5805314183235168,-0.42439424991607666,-0.12599532306194305
-2.1752853393554688,4.273784160614014,8.897648811340332,-0.38028979301452637,-0.5456946492195129,-0.20057323575019836
-2.254868745803833,4.708561420440674,8.383957862854004,-0.18966493010520935,-0.6191381216049194,-0.18081611394882202
-2.008878707885742,5.04777193069458,7.555113792419434,-0.1388060301542282,-0.5545434355735779,-0.0673871636390686
-1.3551276922225952,5.02634859085083,7.36716890335083,-0.17835520207881927,-0.3445628881454468,-0.0020420351065695286
-0.9811151027679443,4.937016010284424,7.828771114349365,-0.16835445165634155,-0.21422171592712402,-0.0076445420272648335
-0.8219102621078491,4.876049995422363,8.08238410949707,-0.14700908958911896,-0.14966198801994324,-0.049270644783973694
-1.037771463394165,4.622044563293457,8.257782936096191,-0.1302364617586136,0.011135200969874859,0.14933037757873535
-1.135866641998291,4.906580924987793,8.275165557861328,-0.1773952692747116,-0.008203047327697277,0.060213860124349594
-1.2904651165008545,5.084613800048828,8.237432479858398,-0.16208872199058533,0.016580628231167793,0.08653342723846436
-1.205901861190796,5.024289608001709,8.19937515258789,-0.14076080918312073,0.04747295379638672,0.11754792183637619
-1.038432240486145,5.047321796417236,8.193437576293945,-0.13112658262252808,0.07548549026250839,0.0858527421951294
-0.860686719417572,5.148653984069824,7.592951774597168,0.45786967873573303,0.4839797914028168,-0.03396410867571831
-1.7644212245941162,6.183667182922363,7.609787940979004,0.21741566061973572,0.747035801410675,0.18711674213409424
-1.8231366872787476,5.232920169830322,8.33204174041748,-0.35068899393081665,-0.03460988029837608,0.18243926763534546
-0.7509652972221375,4.9803032875061035,8.031952857971191,-0.41407936811447144,-0.17317156493663788,-0.018081611022353172
-1.5229038000106812,5.382586479187012,8.37119197845459,-0.15372860431671143,0.18135716021060944,-0.01745329238474369
-1.574886679649353,5.6840739250183105,8.371345520019531,0.1616174876689911,0.2678382396697998,0.2843490540981293
-1.3344513177871704,5.6969451904296875,8.010682106018066,0.13376203179359436,0.29736918210983276,0.2920459508895874
-1.3812053203582764,6.008890628814697,8.361662864685059,-0.023684117943048477,0.18655824661254883,0.26652923226356506
-1.4299895763397217,6.1922287940979,7.5294575691223145,0.47624799609184265,0.32848840951919556,0.16395622491836548
-2.1715407371520996,6.940723419189453,8.288784980773926,0.057560957968235016,0.7090399861335754,0.48464301228523254
-1.7723891735076904,5.474073886871338,8.806486129760742,-0.4948183000087738,-0.1241278126835823,0.3225892186164856
-2.170755624771118,5.439367294311523,8.896768569946289,-0.26604053378105164,0.2850646376609802,0.3326772153377533
-2.6900675296783447,5.237555503845215,9.169275283813477,-0.14768975973129272,0.5023930072784424,0.4466821253299713
-2.637730121612549,4.815486431121826,9.307612419128418,-0.13409364223480225,0.5285205841064453,0.49986228346824646
-2.681448221206665,4.650602340698242,9.4628324508667,-0.09243264049291611,0.48830822110176086,0.4429296553134918
-3.0487093925476074,4.779678821563721,9.533662796020508,-0.04014257341623306,0.35843825340270996,0.4101698398590088
-3.0886638164520264,4.875992774963379,9.32310676574707,0.06747443228960037,0.22912682592868805,0.4844684898853302
-2.923703193664551,4.948939323425293,8.6510648727417,0.20607101917266846,0.23287928104400635,0.5987526774406433
-2.781104564666748,4.95003080368042,8.110529899597168,0.26684337854385376,0.34238123893737793,0.7331953644752502
-2.712161064147949,4.766462802886963,7.840493202209473,0.16894787549972534,0.4035550355911255,0.8295375108718872
-2.5522379875183105,4.271734714508057,7.871569633483887,-0.04879940673708916,0.37456509470939636,0.8126078248023987
-2.7510430812835693,3.977640390396118,8.136954307556152,-0.2586228847503662,0.26631978154182434,0.7174175977706909
-3.1040537357330322,4.086088180541992,8.07758617401123,-0.37655478715896606,0.17660987377166748,0.692354679107666
-3.014625310897827,4.084670543670654,7.956678867340088,-0.41149628162384033,0.21868975460529327,0.7342600226402283
-2.3658447265625,3.968714714050293,8.231082916259766,-0.35185837745666504,0.2735803723335266,0.7293381690979004
-1.7189888954162598,3.9616949558258057,8.420733451843262,-0.15627677738666534,0.2528109550476074,0.6171483993530273
-1.727866530418396,4.674439430236816,8.075593948364258,-0.25155431032180786,0.13065534830093384,0.36847391724586487
-1.9126415252685547,5.084853172302246,7.058470249176025,0.4224918484687805,-0.25368359684944153,0.06881833076477051
-1.956608533859253,6.280881404876709,6.509853363037109,-0.00296705961227417,0.6231697797775269,0.348559707403183
-2.0322749614715576,4.23092794418335,8.83415412902832,-0.627428412437439,0.12828169763088226,0.18687240779399872
-1.6037607192993164,5.396472930908203,9.447300910949707,-0.7078008055686951,-0.5822418332099915,-0.14494960010051727
-1.9695085287094116,5.430738925933838,8.858277320861816,-0.41697660088539124,-0.43706536293029785,-0.18975219130516052
-2.2017557621002197,6.00223445892334,8.41773509979248,-0.04021238535642624,-0.09098401665687561,0.010768681764602661
-1.9685604572296143,5.893250465393066,8.377503395080566,0.24169319868087769,0.2269800752401352,0.2162986546754837
-1.6493079662322998,5.786785125732422,8.293573379516602,0.19107864797115326,0.2237686663866043,0.2500707805156708
-1.4670134782791138,5.513166427612305,8.849505424499512,-0.010646508075296879,-0.06236061453819275,0.13732250034809113
-1.4867992401123047,5.379847526550293,9.213290214538574,-0.07328637689352036,-0.32683035731315613,0.008482299745082855
-1.540812373161316,5.591552257537842,8.976408004760742,0.037664204835891724,-0.29738664627075195,-0.017470745369791985
-1.7672368288040161,5.8210129737854,8.607653617858887,0.15187855064868927,-0.09094911068677902,0.049096111208200455
-1.7565683126449585,5.56366491317749,8.964486122131348,0.19168950617313385,0.04951499029994011,0.07770206034183502
-1.714554786682129,5.490612983703613,9.397787094116211,0.1595579981803894,-0.1114741787314415,0.016929693520069122
-1.408738613128662,6.608283519744873,6.835369110107422,0.7825183868408203,0.7452206611633301,0.013631021603941917
-2.317462682723999,6.302218437194824,9.480130195617676,0.37192967534065247,0.5988399386405945,0.2318844497203827
-1.4049654006958008,5.253452777862549,9.582381248474121,-0.31758010387420654,-0.4528082311153412,0.10739010572433472
-1.1217409372329712,4.0966033935546875,8.894085884094238,-0.3695036470890045,-0.25356143712997437,-0.31611403822898865
-2.064682960510254,4.619085311889648,9.238678932189941,-0.2653424143791199,-0.08309512585401535,-0.2813994288444519
-2.6278374195098877,4.745566368103027,9.575935363769531,-0.044401176273822784,0.029077185317873955,-0.08529423922300339
-2.150778293609619,4.341338634490967,9.220673561096191,0.2517113983631134,0.20802579820156097,0.07693411409854889
-1.9334709644317627,4.234825611114502,9.01006031036377,0.40941932797431946,0.3047868609428406,0.08859290927648544
-1.9342658519744873,4.287364959716797,8.405744552612305,0.24415411055088043,0.14018484950065613,0.0521329827606678
-2.0240581035614014,4.207139015197754,8.586641311645508,0.2900388240814209,0.23020893335342407,0.13590878248214722
-1.9712706804275513,4.181329250335693,8.576394081115723,0.2977880835533142,0.24089033901691437,0.16697564721107483
-1.808618187904358,4.160231590270996,8.403715133666992,0.2784498333930969,0.23486895859241486,0.20945696532726288
-1.7883919477462769,4.1730265617370605,8.258109092712402,0.25712189078330994,0.23296654224395752,0.21755528450012207
-1.8423477411270142,4.282968044281006,7.988311290740967,0.1814618855714798,0.19891516864299774,0.21963223814964294
-1.9773423671722412,4.330737113952637,7.8914031982421875,0.044087015092372894,0.13320352137088776,0.2278527319431305
-1.9068666696548462,4.3623504638671875,7.937870025634766,-0.02782054804265499,0.11643091589212418,0.2560746967792511
-1.7421072721481323,4.409793853759766,7.969339370727539,0.0443488173186779,0.19015362858772278,0.2891661524772644
-1.765963077545166,4.572187423706055,7.671625137329102,0.14899875223636627,0.3225542902946472,0.32501521706581116
-1.7118158340454102,4.7218828201293945,7.452134609222412,0.13318607211112976,0.43821725249290466,0.35585516691207886
-1.6054271459579468,4.659355640411377,7.681251049041748,0.005078908056020737,0.4442211985588074,0.3184702396392822
-1.6285455226898193,4.726747512817383,8.370684623718262,-0.09091419726610184,0.31899383664131165,0.2508387267589569
-1.6066625118255615,4.698630332946777,8.563943862915039,-0.08363617956638336,0.23916245996952057,0.21491985023021698
-1.767342209815979,4.867431163787842,8.255561828613281,-0.0055850534699857235,0.1624377965927124,0.17613862454891205
-1.197560429573059,6.27523136138916,5.589302062988281,0.020210912451148033,0.313338965177536,0.18067649006843567
-1.6962822675704956,5.393705368041992,7.529773712158203,-0.32133257389068604,0.44827035069465637,0.37089991569519043
-1.824324131011963,4.083799362182617,8.42419147491455,-0.3272492289543152,0.35294046998023987,0.2630211114883423
-1.394574522972107,5.688508033752441,8.236878395080566,-0.30948176980018616,0.09136798232793808,0.20268508791923523
-1.5491538047790527,4.9969096183776855,8.27900505065918,-0.29447194933891296,0.08147197216749191,0.21554815769195557
-1.440801739692688,5.4090471267700195,8.192747116088867,-0.2696184515953064,0.0613483227789402,0.18332938849925995
-1.5185846090316772,5.448359966278076,8.186015129089355,-0.3085218369960785,-0.034348078072071075,0.18182839453220367
-1.2931848764419556,5.401730537414551,8.148341178894043,-0.3283662497997284,-0.07754497975111008,0.1632755547761917
-1.1073278188705444,5.386733531951904,8.400861740112305,-0.2609616219997406,-0.03738495334982872,0.1284736841917038
-1.2942862510681152,5.575013160705566,8.363089561462402,-0.1627170443534851,-0.011135200969874859,0.12812462449073792
-1.2925528287887573,5.685682773590088,8.275750160217285,-0.1281595230102539,-0.0012217304902151227,0.1567131131887436
-1.1168088912963867,5.619076251983643,8.152236938476562,-0.10197959095239639,0.05256931856274605,0.19175931811332703
-0.8970019817352295,5.459555149078369,8.389533042907715,-0.035412728786468506,0.15908676385879517,0.18673276901245117
-0.9162322282791138,5.422895431518555,8.621319770812988,0.017749998718500137,0.1751437932252884,0.16870352625846863
-1.144169807434082,5.686305522918701,8.478700637817383,0.07351326942443848,0.1117534339427948,0.16261231899261475
-1.2206789255142212,5.932218551635742,8.042037010192871,0.019495327025651932,0.07379251718521118,0.19858355820178986
-0.9522410035133362,6.801591396331787,6.218277931213379,0.5327792167663574,1.1762995719909668,0.3084869384765625
-1.8480459451675415,6.228065490722656,9.069695472717285,0.23170991241931915,0.7862359285354614,0.44259804487228394
-1.2573580741882324,5.664997100830078,9.429276466369629,-0.3488738536834717,-0.502829372882843,0.22499039769172668
-1.083558201789856,5.4080610275268555,7.835302352905273,-0.49872782826423645,-0.6708871126174927,0.03118903376162052
-1.6080702543258667,5.983895301818848,7.518051624298096,-0.2571393549442291,-0.05829399824142456,0.07436847686767578
-2.03872013092041,6.2774434089660645,8.457497596740723,0.031869713217020035,0.3249104917049408,0.33082714676856995
-1.647833228111267,6.0150675773620605,8.571212768554688,0.31209978461265564,0.4481481909751892,0.4947659373283386
-1.5250681638717651,5.887131214141846,8.075718879699707,0.342119425535202,0.47017425298690796,0.5064771175384521
-1.484500765800476,5.846123218536377,8.118967056274414,0.10211921483278275,0.35295793414115906,0.4496142566204071
-1.5031180381774902,5.65802526473999,8.598355293273926,-0.14981906116008759,0.17823302745819092,0.35554102063179016
-1.8230887651443481,5.310051918029785,9.072875022888184,-0.16898277401924133,0.18730872869491577,0.2793399393558502
-2.3827285766601562,5.249181747436523,9.275041580200195,-0.021851522848010063,0.2762856185436249,0.27434831857681274
-2.6864092350006104,5.312436580657959,9.180777549743652,0.10103710740804672,0.30740484595298767,0.32756340503692627
-2.649548053741455,4.980983257293701,8.879700660705566,0.054855696856975555,0.16149531304836273,0.3735004663467407
-2.7686355113983154,5.04970645904541,8.953691482543945,0.08087855577468872,0.04394739121198654,0.4173082113265991
-2.6351253986358643,4.922679424285889,8.571184158325195,0.2364746630191803,0.07932521402835846,0.5222024917602539
-3.0270848274230957,5.758485794067383,6.442298412322998,0.3247010409832001,1.1281110048294067,0.8117875456809998
-2.736093521118164,3.963438034057617,8.297672271728516,-0.3481582701206207,0.27317893505096436,0.7238404154777527
-2.137179374694824,3.700200319290161,8.445796012878418,-0.8085935711860657,-0.42032763361930847,0.28216737508773804
-2.1718759536743164,4.095684051513672,8.392318725585938,-0.8246331810951233,-0.4504345655441284,0.17879152297973633
-2.4973247051239014,4.606999397277832,8.354422569274902,-0.5110149383544922,-0.19799014925956726,0.12681561708450317
-1.9932878017425537,5.162271976470947,7.830696105957031,0.1832072138786316,0.32930871844291687,0.3511078953742981
-1.5649938583374023,5.434981346130371,6.312331676483154,0.3327121138572693,0.42071160674095154,0.346744567155838
-1.4944605827331543,5.159475803375244,7.9012579917907715,-0.5464625954627991,-0.3442138433456421,0.1776919662952423
-1.6437535285949707,5.347123622894287,7.6406636238098145,-0.7192850708961487,-0.41371285915374756,0.017261305823922157
-2.214425802230835,5.315520286560059,7.886164665222168,-0.45380306243896484,-0.002234021434560418,0.05930628627538681
-2.694195032119751,5.531879425048828,8.264937400817871,-0.1595754474401474,0.2845235764980316,0.2280970811843872
-2.403184652328491,5.393551826477051,8.03495979309082,-0.01202531810849905,0.29194122552871704,0.32510247826576233
-1.9718931913375854,5.322750568389893,7.595144748687744,-0.07291985303163528,0.1831548511981964,0.266180157661438
-1.6488866806030273,5.4167280197143555,7.7334818840026855,-0.15774285793304443,0.044226642698049545,0.15601497888565063
-1.5888592004776,5.598878860473633,7.629927635192871,-0.12606513500213623,0.006894050631672144,0.06688101589679718
-1.8777340650558472,5.8758015632629395,7.522073745727539,-0.04366813600063324,0.07710864394903183,0.06616543233394623
-1.9823797941207886,6.039737224578857,8.122770309448242,-0.0578925721347332,0.014905111864209175,0.11215485632419586
-2.051562547683716,6.039028644561768,8.228229522705078,-0.07004006206989288,-0.061365775763988495,0.10478956997394562
-1.9543676376342773,6.313586235046387,7.944161891937256,0.13704325258731842,-0.13957397639751434,0.11426670849323273
-1.965333104133606,6.28654146194458,8.229973793029785,0.1687558889389038,-0.03274237737059593,0.12273155152797699
-1.9126031398773193,6.337940216064453,8.481449127197266,0.20041616261005402,0.011938052251935005,0.14208725094795227
-1.5848369598388672,6.349843978881836,8.438612937927246,0.19132299721240997,0.048031460493803024,0.1742536723613739
-1.4358218908309937,5.9134674072265625,8.380778312683105,0.12856094539165497,0.10822786390781403,0.14105750620365143
-1.813492774963379,5.636075019836426,8.754916191101074,-0.03577924892306328,0.08824384957551956,0.07236135005950928
-2.2916626930236816,4.686275959014893,6.730388164520264,0.16870352625846863,0.10864674299955368,-0.012479104101657867
-1.8788162469863892,6.291377544403076,6.687905311584473,0.2289697378873825,0.4954116940498352,0.07639306038618088
-1.7428638935089111,4.570435047149658,9.931598663330078,0.16250760853290558,0.30143582820892334,0.11999138444662094
-1.6312557458877563,4.461767196655273,8.954648971557617,0.1129053458571434,-0.08686503767967224,-0.12159708887338638
