accX,accY,accZ,gyroX,gyroY,gyroZ
-0.33173099160194397,6.817728519439697,7.248119831085205,-0.08717919886112213,0.13182471692562103,-0.25453880429267883
0.12728533148765564,5.953996181488037,7.242421627044678,-0.1382824331521988,0.11053170263767242,-0.10229374468326569
0.23917116224765778,6.2390594482421875,7.983503341674805,-0.1702219545841217,-0.010821041651070118,-0.04906120523810387
0.5616317987442017,6.062099456787109,7.971982479095459,-0.17240361869335175,-0.10934487730264664,-0.13498376309871674
0.537115216255188,5.675502777099609,8.128132820129395,-0.14165091514587402,-0.05057964101433754,-0.29684558510780334
-0.014671667478978634,5.533871173858643,8.525856971740723,0.15135495364665985,-0.01532399095594883,-0.2986083924770355
-0.5617371797561646,5.616231918334961,8.14158821105957,0.4590913951396942,-0.23469442129135132,-0.23478169739246368
-0.6176465749740601,5.946967124938965,7.406156063079834,0.5039288997650146,-0.40245547890663147,-0.08796459436416626
-0.13495635986328125,5.845577239990234,6.762355327606201,0.31213468313217163,-0.03511602431535721,0.08230973035097122
0.042166680097579956,5.836546421051025,7.662508010864258,-0.09290387481451035,-0.10775662958621979,0.05651376023888588
0.17790833115577698,5.891038417816162,7.864923477172852,-0.04747295379638672,-0.09276425093412399,0.04265584796667099
0.38484397530555725,5.922536373138428,7.811657428741455,-0.0020943949930369854,-0.06375687569379807,-0.0328296422958374
0.09409212321043015,6.005002498626709,7.71396541595459,-0.0809483677148819,-0.05035274848341942,-0.10384708642959595
-0.19746416807174683,5.946181774139404,8.01050090789795,-0.1448448747396469,-0.07970918715000153,-0.0743161216378212
-0.17647181451320648,5.951487064361572,8.224092483520508,-0.1333955079317093,-0.12685053050518036,-0.05050982907414436
0.05997953936457634,5.997331142425537,8.206154823303223,-0.015603243373334408,-0.07878416031599045,0.0024434609804302454
0.3209666609764099,5.975400447845459,8.033734321594238,0.10412634164094925,0.055292028933763504,-0.012461651116609573
0.05825571343302727,6.014339923858643,8.00726318359375,0.1252797394990921,0.10203194618225098,-0.013037609867751598
0.14805743098258972,5.947847843170166,8.210866928100586,0.13533282279968262,0.06916739791631699,-0.014119713567197323
0.12319603562355042,6.068994522094727,7.769777774810791,0.15906931459903717,0.16715018451213837,-0.06380923837423325
0.10834240913391113,6.042696475982666,7.922412872314453,0.19216075539588928,0.1480388194322586,-0.07079055160284042
-0.18282122910022736,5.941891193389893,8.270970344543457,0.2762157917022705,-0.22394318878650665,-0.04352851212024689
-0.10970231890678406,6.054619789123535,6.53184175491333,0.31496211886405945,-0.19977039098739624,0.066811203956604
0.29315561056137085,6.040589809417725,6.661827564239502,0.22225022315979004,0.09819222241640091,0.07953465729951859
0.3897760212421417,6.1168975830078125,7.242383003234863,0.022113321349024773,0.37683403491973877,-0.10808824002742767
-0.3935205638408661,6.214073657989502,7.887870788574219,-0.02816961333155632,0.2745228409767151,-0.12831661105155945
-0.26127442717552185,6.199230670928955,7.448638916015625,0.028117254376411438,0.011344640515744686,-0.06492624431848526
0.01482489611953497,6.021388530731201,7.157101631164551,0.03902556374669075,-0.0263544712215662,-0.10260790586471558
-0.003083731746301055,5.933674335479736,7.680953025817871,-0.0322536826133728,0.05836381018161774,-0.12189379334449768
-0.015811307355761528,6.078944683074951,7.982229709625244,-0.0656592845916748,0.10271262377500534,-0.1319119781255722
0.05898354947566986,6.021244525909424,7.979165077209473,0.023841196671128273,0.15458381175994873,-0.09381144493818283
-0.5860622525215149,5.889908313751221,7.271190166473389,0.2785196304321289,0.3401995897293091,-0.07105235010385513
-0.9841700792312622,6.420999526977539,8.013114929199219,0.2511179745197296,-0.24851742386817932,-0.061453044414520264
-0.2647891342639923,6.324724197387695,7.618971824645996,0.08515461534261703,-0.36735689640045166,0.01630137488245964
-0.14262737333774567,6.408865928649902,7.780599594116211,-0.04403465613722801,-0.4439070522785187,-0.02900737151503563
-0.18161456286907196,6.204793930053711,7.362514495849609,-0.0743161216378212,-0.36245253682136536,-0.019250981509685516
-0.19259914755821228,6.227299213409424,8.444291114807129,0.05253440886735916,-0.47221627831459045,-0.09201376140117645
0.5724056959152222,6.413481712341309,6.968869686126709,0.18446384370326996,-0.6521422863006592,-0.060126591473817825
0.9828006029129028,6.359870910644531,6.590997695922852,0.03738495334982872,-0.4461061656475067,0.0371580608189106
1.3627794981002808,6.244374752044678,6.805604457855225,-0.2713288962841034,-0.0748920813202858,0.009040805511176586
1.0195276737213135,6.586505889892578,7.435901641845703,-0.43329542875289917,0.28647834062576294,0.03848451003432274
0.8007934093475342,6.276610374450684,8.519001007080078,-0.3968704044818878,0.15419983863830566,0.059637900441884995
0.5050520300865173,6.404977798461914,8.44101619720459,-0.21265091001987457,-0.12505283951759338,0.13056808710098267
0.801253080368042,5.921032905578613,8.229378700256348,5.2359879191499203e-05,-0.05129522830247879,0.2070658653974533
1.6564044952392578,4.715935707092285,5.704970836639404,0.2733709216117859,0.91837477684021,0.03577924892306328
0.8210004568099976,6.684179782867432,8.067473411560059,0.012950343079864979,0.6305874586105347,-0.09738937020301819
0.44362640380859375,6.48798942565918,8.042008399963379,-0.28991663455963135,0.1226791962981224,-0.019774580374360085
0.36586272716522217,6.213958740234375,8.17483901977539,-0.29415780305862427,-0.2932153046131134,0.05340707674622536
0.949540376663208,5.63317346572876,7.094565391540527,-0.06270968168973923,-0.06909758597612381,0.029356438666582108
0.9096912741661072,6.049572944641113,7.692042827606201,0.029129544273018837,0.18776251375675201,-0.05026548355817795
0.6745519638061523,5.965325832366943,7.639820575714111,0.0038920841179788113,0.09789551794528961,-0.05572836101055145
0.5725493431091309,5.949676990509033,7.6565704345703125,-0.004188789986073971,0.0944921225309372,-0.0371580608189106
0.5004743337631226,6.029882907867432,7.759607315063477,0.014224433340132236,0.12458160519599915,0.01251401100307703
0.5561730265617371,5.991891860961914,7.932248592376709,0.08105309307575226,0.14624114334583282,0.010035643354058266
0.5048125982284546,5.898144245147705,8.411951065063477,0.18821629881858826,0.08346164226531982,-0.012409291230142117
0.4550994038581848,6.171504974365234,7.196156024932861,0.22315779328346252,-0.22806216776371002,0.02560397982597351
0.880692720413208,6.159409046173096,6.714452266693115,0.0025307273026555777,0.11013027280569077,0.07614871859550476
0.6791200637817383,6.200531959533691,7.757156848907471,-0.14194762706756592,0.27492424845695496,0.016371188685297966
0.2545323669910431,6.066438674926758,8.211853981018066,-0.08489281684160233,-0.08623671531677246,0.03911282867193222
0.6958890557289124,6.106123924255371,7.567553997039795,-0.059149209409952164,-0.1564164012670517,0.06494370102882385
1.0471471548080444,6.070316314697266,7.677409648895264,-0.01864011585712433,0.17100736498832703,0.0033859387040138245
0.5957443714141846,6.06675386428833,8.195908546447754,0.08862782269716263,0.1966986060142517,-0.02045525796711445
0.5051478147506714,6.076895236968994,7.37441873550415,0.01408480666577816,0.018622662872076035,0.038781214505434036
0.6279799342155457,6.056870460510254,7.611818313598633,-0.019774580374360085,0.06138322874903679,0.050108402967453
0.6460800766944885,6.062827110290527,7.880878448486328,0.022305307909846306,0.07428121566772461,0.028134707361459732
0.5555505156517029,6.139949321746826,7.769136428833008,0.03258529677987099,0.014905111864209175,0.005044001620262861
0.493559867143631,6.13564920425415,7.831079006195068,0.017156586050987244,-0.02652900479733944,0.005515240598469973
0.7562804222106934,6.079586505889893,7.560640811920166,0.04602433368563652,0.025220006704330444,0.020123645663261414
0.6706158518791199,6.172605991363525,7.660975933074951,0.035098571330308914,0.11849040538072586,0.001745329238474369
0.5320586562156677,6.236799240112305,7.825926780700684,0.027611108496785164,0.06173229590058327,0.013596114702522755
0.5085954666137695,6.162128925323486,7.717843055725098,0.013194689527153969,-0.014206980355083942,0.017680184915661812
0.5733346939086914,6.141289710998535,7.612173557281494,0.00905825849622488,-0.03361504152417183,0.008831365965306759
0.5469505786895752,6.151096343994141,7.643393039703369,0.008796459063887596,-0.03263765573501587,-0.009197885170578957
0.5575329661369324,6.126034259796143,7.668282985687256,0.03078760765492916,0.0154810706153512,5.2359879191499203e-05
0.6672927141189575,6.154180526733398,7.671079158782959,0.06209881603717804,0.09204866737127304,0.0015533430268988013
0.5624170899391174,6.170547008514404,7.701294422149658,0.09063494950532913,0.0815243273973465,0.010995574295520782
0.40430402755737305,6.236301422119141,7.8546857833862305,0.10039133578538895,-0.01603957638144493,0.043999750167131424
0.48569729924201965,6.229760646820068,7.653400421142578,0.11198032647371292,-0.05612978711724281,0.09007643908262253
0.7508599162101746,6.160031795501709,7.411710739135742,0.10869910567998886,0.07154104858636856,0.08731882274150848
0.7704349160194397,6.270787715911865,7.591410160064697,0.0763232484459877,0.1175130158662796,0.05391322076320648
0.6037410497665405,6.267024040222168,7.541782855987549,0.030613074079155922,0.09691813588142395,0.04075343906879425
0.38209542632102966,6.206459999084473,7.881626605987549,0.014538592658936977,0.044366270303726196,0.024836035445332527
0.6046316623687744,6.2014994621276855,7.536046504974365,0.08995427191257477,0.08508480340242386,0.06318091601133347
0.785872757434845,5.950194358825684,6.7025580406188965,0.25244441628456116,0.5545085668563843,0.01710422709584236
0.6228275895118713,6.532339572906494,7.967395305633545,0.13433799147605896,0.3318394422531128,-0.056409042328596115
0.3429645895957947,6.583585262298584,7.7459797859191895,-0.0437728576362133,0.13589133322238922,-0.031154127791523933
0.2366141527891159,6.630243301391602,7.634562969207764,-0.12582078576087952,-0.03389429301023483,0.027209682390093803
0.38144418597221375,6.046939373016357,7.4218058586120605,-0.07353071868419647,0.09063494950532913,0.003996803890913725
0.27196213603019714,6.2761311531066895,7.883875846862793,-0.05578072369098663,-0.012531463988125324,-0.023195425048470497
0.31764352321624756,6.285037994384766,7.695777893066406,-0.050108402967453,-0.04016002640128136,-0.02782054804265499
0.49861642718315125,6.222472667694092,7.471728801727295,-0.1831548511981964,-0.22825415432453156,-0.06632251292467117
0.5045157670974731,6.355848789215088,7.395228862762451,-0.2695311903953552,-0.26539477705955505,-0.0368788056075573
0.5611338019371033,6.220519065856934,7.700106620788574,-0.3160093128681183,-0.23134338855743408,-0.02595304511487484
0.5690059661865234,6.0922088623046875,7.975985527038574,-0.2653074860572815,-0.226945161819458,-0.019076447933912277
0.6334770321846008,5.795001983642578,7.910394191741943,-0.1621759980916977,-0.20210912823677063,-0.05614724010229111
0.6747817993164062,5.923532485961914,7.540959358215332,-0.09824458509683609,-0.14447835087776184,-0.05682792142033577
0.7467610836029053,5.9909820556640625,7.424821376800537,-0.11917108297348022,-0.08194320648908615,-0.04769985005259514
0.5840798616409302,6.006965637207031,7.7451653480529785,-0.1422966867685318,-0.09745918214321136,-0.025359634310007095
0.5494980216026306,5.863112449645996,7.9338765144348145,-0.11325441300868988,-0.10808824002742767,-0.006440265104174614
0.6942801475524902,5.900050163269043,7.952072620391846,-0.07012733072042465,-0.0947713777422905,-0.0009250245057046413
0.8040112257003784,5.836919784545898,7.84597110748291,-0.0205948855727911,-0.051225412636995316,-0.0131772356107831
0.7040101885795593,5.854493141174316,7.606081485748291,-0.03911282867193222,-0.005899212788790464,0.003036872949451208
0.6655976176261902,5.9542646408081055,7.459585189819336,-0.13098695874214172,0.011571533046662807,-0.0019024088978767395
0.6813227534294128,5.892522811889648,7.507785320281982,-0.21012018620967865,0.019390607252717018,-0.020315632224082947
0.7242555618286133,5.7840752601623535,7.665515422821045,-0.23828980326652527,0.06785839796066284,-0.015620696358382702
0.692355215549469,5.873436450958252,8.072893142700195,-0.23029619455337524,0.09824458509683609,-0.0020769417751580477
0.8083016276359558,5.891411781311035,8.456750869750977,0.05682792142033577,0.3404613733291626,-0.06340780854225159
0.7154831886291504,5.359391689300537,7.63920783996582,0.21762509644031525,0.23523548245429993,0.051626838743686676
0.8017414808273315,5.519965648651123,8.094308853149414,0.3481582701206207,0.39706239104270935,0.06276203691959381
0.13472650945186615,6.282835006713867,8.180383682250977,0.12424998730421066,0.1814444214105606,0.03436553105711937
0.11358092725276947,6.216076374053955,6.381303787231445,0.2888345420360565,0.3572165369987488,0.028710665181279182
0.20077773928642273,6.4180402755737305,8.037123680114746,-0.09395107626914978,0.0002617993741296232,-0.023684117943048477
0.13430513441562653,6.277021884918213,7.140907287597656,0.1298874020576477,0.0780511274933815,-0.01621410809457302
0.08604760468006134,6.245303630828857,7.271602153778076,0.043650683015584946,0.12089895457029343,-0.022427480667829514
0.21659862995147705,6.354507923126221,7.199594020843506,-0.03824016451835632,0.09810495376586914,-0.020228365436196327
0.06649176776409149,6.3295698165893555,7.479188919067383,-0.12807226181030273,0.07908086478710175,-0.0114493602886796
-0.019038690254092216,6.275729179382324,7.9017462730407715,-0.10276498645544052,0.05337216705083847,-0.008115780539810658
-0.034869153052568436,6.261153221130371,8.011371612548828,-0.0316777266561985,-0.028047440573573112,-0.004258603323251009
0.041649531573057175,6.236617565155029,7.891872882843018,0.03942698612809181,-0.028291787952184677,-0.0003490658418741077
0.09626606106758118,6.290218830108643,7.767183780670166,0.08660323917865753,-0.003630284918472171,0.004136430099606514
0.15483780205249786,6.250082492828369,7.607699871063232,0.086411252617836,0.047193702310323715,-0.0010646508308127522
0.05330450460314751,6.256594657897949,7.535098552703857,0.059602994471788406,0.04478514939546585,-0.009075712412595749
0.004146757069975138,6.301913261413574,7.622553825378418,0.049637164920568466,0.0016231562476605177,-0.004328416660428047
-0.09683109074831009,6.341023921966553,7.738337516784668,0.07473500072956085,-0.0774751678109169,0.00027925267932005227
0.08501330763101578,6.283792972564697,7.660563945770264,0.13091714680194855,-0.08405505865812302,-0.00013962633966002613
0.143862783908844,6.336484432220459,7.651054382324219,0.15807446837425232,-0.04789183288812637,-0.01886700838804245
0.05769068002700806,6.479638576507568,7.574037551879883,0.14943508803844452,-0.05037020146846771,-0.014521139673888683
0.06864655017852783,6.499261379241943,7.487798690795898,0.10752973705530167,-0.07963937520980835,0.007958701811730862
0.057029880583286285,6.467341899871826,7.512747287750244,0.08129743486642838,-0.11105529963970184,0.010419615544378757
0.0215669684112072,6.486495494842529,7.503763198852539,0.07787659019231796,-0.048921577632427216,0.01638864167034626
0.10418608039617538,6.374236106872559,7.483383655548096,0.10850711911916733,-0.046129051595926285,0.024731315672397614
0.2731592357158661,6.387433052062988,7.306509494781494,0.10266026854515076,-0.059952057898044586,0.021153390407562256
0.2859634459018707,6.393696308135986,7.347594261169434,0.1051211804151535,-0.010314895771443844,0.0028448866214603186
0.24133552610874176,6.405686378479004,7.417657852172852,0.10920525342226028,0.04703662171959877,-0.0076445420272648335
0.054875101894140244,6.55661678314209,7.5144219398498535,0.11225957423448563,0.09269443899393082,-0.023369958624243736
0.0238175168633461,6.620474815368652,7.324016094207764,0.10913543403148651,-0.09342747181653976,-0.003543018363416195
0.23063823580741882,6.573941230773926,7.217129230499268,0.09805259853601456,-0.08977973461151123,0.025586526840925217
0.31163886189460754,6.677026271820068,7.160099506378174,0.030770154669880867,-0.018675023689866066,0.03467969223856926
0.26472207903862,6.65362024307251,7.396368503570557,-0.011641345918178558,-0.03406882658600807,0.03769911080598831
0.25606465339660645,6.615121364593506,7.5230889320373535,0.03813544288277626,-0.09599310904741287,0.010227628983557224
0.22289058566093445,6.646092891693115,7.352363109588623,0.06007423251867294,-0.07311183959245682,-0.005986479111015797
0.3475518822669983,6.581660270690918,7.234894275665283,0.03691371530294418,0.02595304511487484,0.0021293016616255045
0.36185961961746216,6.5512824058532715,7.220212936401367,0.002548180753365159,0.06663667410612106,0.010768681764602661
0.2704490125179291,6.543946743011475,7.277453422546387,-0.04968952387571335,0.012705996632575989,0.014957471750676632
0.21232737600803375,6.541054725646973,7.420645713806152,-0.0388859361410141,-0.019774580374360085,-0.00996582955121994
0.16008590161800385,6.545412063598633,7.354240417480469,-0.033108897507190704,-0.10873401165008545,-0.0017278759041801095
0.31805533170700073,6.514229774475098,7.221524715423584,-0.05740387737751007,-0.10190977156162262,0.003089232835918665
0.35879504680633545,6.523643970489502,7.288313388824463,-0.08473573625087738,-0.01581268385052681,0.006073745898902416
0.43264180421829224,6.554030895233154,7.57177734375,-0.07091272622346878,0.0740194097161293,-0.008325220085680485
0.22689369320869446,6.601149082183838,7.839564323425293,0.015044738538563251,0.06347762793302536,-0.01886700838804245
0.1065228208899498,6.6038498878479,7.620178699493408,0.07878416031599045,-0.09241518378257751,-0.006003932561725378
0.4012586176395416,6.556358337402344,7.062157154083252,0.08463101834058762,-0.2566157579421997,0.01794198527932167
0.5419802069664001,6.607028961181641,6.940225601196289,-0.026773350313305855,0.043737951666116714,0.019652407616376877
0.2810409665107727,6.5435638427734375,7.509078025817871,-0.05400048568844795,0.13491395115852356,-0.020699605345726013
0.04626554995775223,6.5488786697387695,7.412677764892578,-0.03759439289569855,0.021240657195448875,0.027436574921011925
0.3782646954059601,6.474974632263184,7.488574028015137,-0.004712388850748539,0.09609782695770264,0.03963642567396164
0.4766663908958435,6.476975917816162,7.3943190574646,0.02785545401275158,0.14355333149433136,0.0006108652451075613
0.25785550475120544,6.584274768829346,7.376161575317383,0.027296949177980423,0.08740609139204025,-0.023195425048470497
0.12176909297704697,6.632426738739014,7.24958610534668,-0.012758356519043446,0.007400196045637131,-0.00015707963029854
0.22099438309669495,6.484312057495117,7.453494548797607,0.0037350046914070845,-0.0016755161341279745,-0.004520402755588293
0.2292591631412506,6.563885688781738,7.250063896179199,-0.01160643994808197,-0.004817108623683453,0.01136209350079298
0.29286831617355347,6.552738189697266,7.3726372718811035,-0.05403539165854454,0.0012391837080940604,0.01096066739410162
0.2929545044898987,6.561692714691162,7.427886009216309,-0.07274532318115234,-0.014119713567197323,0.004241149872541428
0.21858103573322296,6.590423107147217,7.5494537353515625,-0.06487388908863068,-0.05005604401230812,0.00024434609804302454
0.37226003408432007,6.522935390472412,7.496370792388916,-0.006230825558304787,0.008499753661453724,0.00663225119933486
0.22363758087158203,6.474409580230713,7.388975620269775,0.04029965400695801,0.015603243373334408,0.0019024088978767395
0.2602688670158386,6.533507823944092,7.29712438583374,-0.010646508075296879,0.04483750835061073,0.014137166552245617
0.2911923825740814,6.460916042327881,7.302228927612305,-0.036250486969947815,0.07962191849946976,0.017016960307955742
0.18984103202819824,6.4890618324279785,7.516873836517334,-0.010227628983557224,0.08258897811174393,0.029199358075857162
0.31388941407203674,6.419122695922852,7.446772575378418,0.019338248297572136,0.03810053691267967,0.018186330795288086
0.23773464560508728,6.544808864593506,7.193964004516602,0.013980086892843246,0.06009168550372124,0.008569566532969475
0.3482414186000824,6.538421154022217,7.363271236419678,-0.01727875880897045,0.063372902572155,0.011065387167036533
0.2680548131465912,6.440756797790527,7.444578170776367,-0.04335397854447365,0.03885103017091751,-0.010838494636118412
0.1668088138103485,6.426947116851807,7.549396514892578,-0.054541539400815964,0.05031784251332283,-0.010629055090248585
0.10580455511808395,6.528250217437744,7.770017147064209,-0.05066690966486931,0.06525786221027374,-0.007435102481395006
0.1745373010635376,6.587157249450684,7.861983299255371,0.015411256812512875,0.0685390830039978,0.0026354470755904913
0.15896540880203247,6.3123602867126465,7.5968017578125,0.1653001308441162,0.15990707278251648,0.01441641990095377
-0.11527601629495621,6.944525241851807,7.177854537963867,0.07117452472448349,-0.12562879920005798,-0.020804325118660927
0.2734752893447876,6.795482635498047,7.324628829956055,-0.07808603346347809,-0.23362977802753448,0.02609267272055149
0.30791348218917847,6.485729217529297,7.208040714263916,-0.09546951204538345,-0.14474014937877655,0.0005410520825535059
0.15348747372627258,6.367264270782471,7.549061298370361,-0.05351179465651512,-0.08009316027164459,-0.008325220085680485
0.09697473794221878,6.535068988800049,7.7871503829956055,0.012740903533995152,-0.16409584879875183,0.00017453292093705386
0.41837236285209656,6.575195789337158,7.3084917068481445,0.011379546485841274,-0.19879299402236938,-0.0044156829826533794
0.4353999197483063,6.560054779052734,7.192296504974365,0.0020943949930369854,-0.11388273537158966,0.0063355453312397
0.37367740273475647,6.401424884796143,7.216554641723633,0.041573744267225266,-0.010402162559330463,0.0025307273026555777
0.2748734951019287,6.481841087341309,7.155971527099609,0.0518362782895565,0.055972710251808167,-0.006422811653465033
0.2362789660692215,6.5658488273620605,7.181723594665527,0.037629298865795135,0.05265658348798752,-0.0039618974551558495
0.30749210715293884,6.549846172332764,7.196845531463623,0.0009773843921720982,0.05112069472670555,-0.0017802357906475663
0.2909625470638275,6.549194812774658,7.408042907714844,-0.02741912193596363,0.06838200241327286,0.005201081279665232
0.30187052488327026,6.527464866638184,7.445182800292969,-0.017243852838873863,0.05496041849255562,0.005759586580097675
0.2920446991920471,6.570916175842285,7.544177055358887,0.008691739290952682,0.051574479788541794,0.015411256812512875
0.3721163868904114,6.506070613861084,7.1739091873168945,0.07860963046550751,0.11316715180873871,0.01377064734697342
0.13741759955883026,6.411068439483643,7.460150241851807,0.10993828624486923,0.21132446825504303,-0.03968878835439682
-0.08386409282684326,6.8430399894714355,7.369036674499512,-0.013613567687571049,0.03223622962832451,-0.017749998718500137
0.16827405989170074,6.625665664672852,7.717996120452881,-0.08932594954967499,-0.21245892345905304,0.009773843921720982
0.239717036485672,6.6173529624938965,7.190649509429932,-0.056356679648160934,-0.1967509686946869,0.0009250245057046413
0.21535365283489227,6.368001461029053,7.452498435974121,-0.007976154796779156,-0.08442157506942749,-0.026232298463582993
0.11555374413728714,6.663130283355713,7.542807579040527,-0.03825761750340462,-0.18769270181655884,-0.02157226949930191
0.29391220211982727,6.648927688598633,7.6630730628967285,-0.04386012256145477,-0.3003886044025421,-0.012234757654368877
0.33942118287086487,6.627485275268555,7.398657321929932,0.018325956538319588,-0.37344810366630554,-0.016423547640442848
0.3953497111797333,6.604950904846191,7.604558944702148,0.09299114346504211,-0.3064623475074768,-0.06407103687524796
0.2634675204753876,6.541629314422607,7.444808006286621,0.18917623162269592,-0.4953593611717224,-0.08246680349111557
1.3195210695266724,6.950492858886719,7.260627269744873,0.10890854150056839,-0.3159045875072479,-0.023003440350294113
1.4232091903686523,6.484014987945557,6.903258800506592,0.2594955563545227,-0.39472365379333496,-0.06904522329568863
1.4154807329177856,7.191061019897461,6.423269271850586,0.1644972860813141,-0.21280799806118011,0.01961750164628029
1.6754909753799438,7.287691116333008,6.4690752029418945,-0.10096729546785355,0.15365879237651825,0.0015009831404313445
1.3015071153640747,7.0226240158081055,7.037497043609619,-0.2598446309566498,0.3444581925868988,0.018308503553271294
1.0350133180618286,6.614767074584961,7.5924153327941895,-0.1396961510181427,0.3130771517753601,0.04654793068766594
0.944359302520752,6.723865985870361,7.404720783233643,0.009843656793236732,0.20783381164073944,0.06068509817123413
1.0500776767730713,6.624392032623291,7.049908638000488,0.06984807550907135,0.27551767230033875,0.033719759434461594
0.9019532203674316,6.76345682144165,6.946191787719727,0.06419321149587631,0.27431339025497437,-0.0021816615480929613
0.798753559589386,6.8888936042785645,6.727035999298096,-0.0035604715812951326,0.22746875882148743,0.014817845076322556
0.8461108207702637,6.732322692871094,6.664748668670654,-0.05136504024267197,0.24664993584156036,0.04124213010072708
0.7875295281410217,6.67389440536499,6.954868316650391,-0.06588617712259293,0.2672273516654968,0.0391826406121254
0.7638556361198425,6.728376865386963,7.3685479164123535,-0.053930673748254776,0.1731017529964447,0.04244640842080116
0.6960518956184387,6.832342624664307,7.61718225479126,-0.03836233541369438,0.0017976891249418259,0.028187068179249763
0.7564144730567932,6.806399345397949,7.2842912673950195,0.02076941728591919,-0.07279768586158752,0.04056145250797272
1.1465544700622559,6.653486251831055,7.317484378814697,-0.2235068678855896,-0.06290166825056076,0.18228217959403992
1.1514577865600586,6.785397052764893,7.580166816711426,-0.19425514340400696,-0.059288833290338516,0.171059712767601
1.1394675970077515,6.746515274047852,7.705948352813721,-0.12999212741851807,-0.030857421457767487,0.16601571440696716
1.166368842124939,6.6604485511779785,7.543295860290527,-0.073164202272892,-0.024644048884510994,0.1523846983909607
1.1143572330474854,6.542692184448242,7.617640972137451,0.006859143730252981,-0.01441641990095377,0.11967722326517105
1.4941924810409546,6.800901889801025,7.087123870849609,0.1932777613401413,0.04445353522896767,0.07152359187602997
1.5316952466964722,6.913362503051758,7.04241943359375,0.15280357003211975,0.2289522886276245,0.0006457717972807586
1.0671435594558716,6.856236934661865,6.696485996246338,0.08016297221183777,-0.21163862943649292,0.009512044489383698
1.402360439300537,6.830302715301514,6.460149765014648,0.07279768586158752,-0.006841690745204687,0.07764969766139984
1.7506688833236694,6.858458518981934,7.1512980461120605,0.07599163800477982,0.39793506264686584,0.08620180934667587
1.1047037839889526,7.108480453491211,6.262264251708984,-0.07768460363149643,0.4942423403263092,0.07686430215835571
1.1462383270263672,6.904437065124512,5.500611305236816,-0.4285830557346344,0.6128723621368408,0.10552260279655457
1.1052688360214233,6.360110282897949,6.396119117736816,-1.2109094858169556,0.8306021690368652,0.08834856748580933
0.7161727547645569,6.297104358673096,6.907176971435547,-1.5030077695846558,0.9638755321502686,0.08517206460237503
0.6704626679420471,6.002885818481445,7.854024887084961,-1.8285291194915771,0.7936535477638245,0.04904375225305557
0.6222817301750183,5.554634094238281,8.006909370422363,-1.7450674772262573,0.7230899333953857,0.04070107638835907
0.5022939443588257,5.0940470695495605,8.211662292480469,-1.6374329328536987,0.7055144309997559,0.014468779787421227
0.4778730571269989,4.8780035972595215,8.236494064331055,-1.5350868701934814,0.6953915357589722,-0.030857421457767487
0.1376761645078659,4.6311235427856445,8.875094413757324,-1.3784959316253662,0.6601184010505676,-0.1339540183544159
-0.1404247134923935,4.4966936111450195,9.335367202758789,-1.2527275085449219,0.3352079391479492,-0.11594222486019135
-0.4572637677192688,4.188741683959961,8.76645565032959,-1.0765016078948975,0.24127431213855743,-0.055745817720890045
-0.9964666962623596,3.68587327003479,8.578118324279785,-1.0433229207992554,0.3127630054950714,0.006894050631672144
-0.23939143121242523,3.6558022499084473,9.920720100402832,-0.7358657121658325,0.17933258414268494,0.2600540518760681
-0.43239280581474304,3.6719582080841064,10.493086814880371,-0.3932226896286011,0.009494591504335403,0.24731315672397614
-0.4692922532558441,3.8028252124786377,10.16239070892334,-0.25160667300224304,-0.2384817898273468,0.19003145396709442
-0.08169015496969223,3.7348108291625977,9.776176452636719,-0.17645278573036194,-0.26309093832969666,0.10985102504491806
-0.12357910722494125,3.4531090259552,9.800215721130371,-0.09213592857122421,-0.25511476397514343,0.016406094655394554
-0.31941521167755127,3.443359851837158,10.163615226745605,0.12716469168663025,-0.3577924966812134,-0.03419100120663643
-0.15374605357646942,3.508941888809204,10.396409034729004,0.5144008994102478,-0.5559048056602478,-0.026057764887809753
-0.10525868088006973,3.3221654891967773,10.50814151763916,1.0446842908859253,-0.7634942531585693,-0.04806636646389961
-0.09008901566267014,3.6273207664489746,9.573551177978516,1.5008609294891357,-0.6949726343154907,-0.06679374724626541
0.5733155012130737,4.326351165771484,8.384580612182617,1.6174489259719849,-0.41571998596191406,-0.10114183276891708
0.789339542388916,4.874642372131348,7.751984119415283,1.3727363348007202,-0.17407913506031036,-0.15243706107139587
0.0598454624414444,5.293589115142822,8.611351013183594,0.597286581993103,-0.6895272135734558,-0.0576133169233799
0.16077542304992676,4.838844299316406,8.02237606048584,0.6176894903182983,-0.9066112637519836,0.0616450272500515
0.4579916000366211,5.015316009521484,7.994028568267822,0.7003307938575745,-0.9225112199783325,0.14638076722621918
1.1296322345733643,5.4507927894592285,7.392202854156494,0.6263114213943481,-0.554857611656189,0.12714724242687225
1.3472938537597656,5.761847496032715,7.1117844581604,0.359537810087204,-0.0541401132941246,0.04007275775074959
1.0928477048873901,6.14955472946167,7.729009628295898,0.13198180496692657,-0.08597491681575775,0.015550883486866951
1.2386928796768188,6.014291763305664,8.145543098449707,0.15517722070217133,-0.2649060785770416,0.009913469664752483
1.392180323600769,5.867182731628418,7.975890159606934,0.2407856285572052,-0.3214896619319916,0.014294246211647987
1.6139792203903198,6.039105415344238,7.206584930419922,0.13051572442054749,-0.14439108967781067,0.06644468754529953
2.218285322189331,6.13679838180542,7.21380615234375,-0.11142181605100632,0.1252622753381729,0.06141813471913338
1.928558111190796,6.076742172241211,7.632954120635986,-0.2324254959821701,0.3274063169956207,0.0026703537441790104
1.568738341331482,5.865726947784424,8.135066032409668,-0.16289158165454865,0.395823210477829,-0.017610372975468636
1.3398622274398804,5.830235004425049,8.20799446105957,-0.05829399824142456,0.3816860616207123,-0.017680184915661812
1.3173567056655884,5.827141761779785,7.897149562835693,-0.03331833705306053,0.37454766035079956,-0.050649452954530716
1.175648808479309,5.6833367347717285,7.544617652893066,-0.05174901336431503,0.6204994320869446,-0.1261523962020874
0.6000539660453796,5.660170078277588,8.05877685546875,-0.044366270303726196,0.844983696937561,-0.15336208045482635
0.49622222781181335,5.706732749938965,8.850740432739258,-0.007906341925263405,0.7767936587333679,-0.0921708345413208
0.5201642513275146,5.854483604431152,8.603179931640625,0.060475658625364304,0.47685885429382324,-0.04541346803307533
0.4981950521469116,5.687358856201172,8.496284484863281,0.17142623662948608,0.49504518508911133,-0.015690509229898453
0.1394861787557602,5.64979887008667,8.35923957824707,0.28181830048561096,0.40133845806121826,0.008482299745082855
-0.01318726222962141,5.619564533233643,8.276180267333984,0.3252246379852295,0.330076664686203,0.025237461552023888
-0.2022334188222885,5.700814247131348,7.955012321472168,0.3730292320251465,0.22903954982757568,0.09299114346504211
0.6304794549942017,5.834611892700195,8.63170051574707,-0.037367500364780426,0.07511897385120392,0.02808234840631485
0.12152009457349777,5.72802209854126,8.38235855102539,0.10562732815742493,0.1886700987815857,0.022776545956730843
-0.16814956068992615,5.619622230529785,8.199278831481934,0.24359560012817383,0.16397368907928467,0.05103342607617378
-0.38151124119758606,6.015402793884277,8.196980476379395,0.482182115316391,-0.2713637948036194,-0.04557054489850998
0.31583350896835327,6.4000935554504395,6.743584632873535,0.20155061781406403,-0.22631683945655823,-0.07295475900173187
0.6639599800109863,5.959608554840088,7.033321380615234,-0.19462166726589203,-0.09526006877422333,-0.07412413507699966
0.20061494410037994,6.175622940063477,7.540748596191406,-0.3445279896259308,-0.007592182140797377,-0.11449360102415085
-0.047127462923526764,5.799867153167725,8.144902229309082,-0.23911011219024658,-0.17294467985630035,-0.140516459941864
-0.0016759411664679646,5.891861915588379,7.949275970458984,-0.18010053038597107,-0.3796963691711426,-0.0993615910410881
0.5922775864601135,6.01832389831543,7.289960861206055,-0.3067066967487335,-0.38173842430114746,-0.04185299575328827
0.9918411374092102,5.744455814361572,7.628634929656982,-0.40887829661369324,0.03981095924973488,-0.022654373198747635
0.7267263531684875,5.406049728393555,8.783482551574707,-0.2886599898338318,0.15271630883216858,-0.09241518378257751
-0.04459918662905693,5.837350845336914,8.815038681030273,-0.07553785294294357,-0.04832816496491432,-0.08950048685073853
0.0062728081829845905,5.785061359405518,8.550909996032715,0.007609635591506958,-0.12133529037237167,-0.04742059484124184
0.38542816042900085,5.748736381530762,7.796525955200195,0.030368728563189507,-0.13789846003055573,-0.06948155909776688
0.42812156677246094,5.841583728790283,7.9167914390563965,0.015114551410079002,0.1281944364309311,-0.10913543403148651
0.2642432451248169,5.969903469085693,7.766904830932617,0.18985691666603088,-0.5288172960281372,-0.056984998285770416
0.4646857976913452,5.881250858306885,7.480548858642578,0.17870426177978516,-0.33426547050476074,-0.07597418129444122
0.5554260611534119,5.567629814147949,7.27927303314209,-0.045727625489234924,-0.035412728786468506,-0.0757298395037651
0.6219273805618286,5.720159530639648,8.005243301391602,-0.2561096251010895,-0.0558854416012764,-0.10204940289258957
0.6489244103431702,5.661242961883545,8.128898620605469,-0.21675243973731995,-0.3427128493785858,-0.12023573368787766
0.7499693036079407,5.596494197845459,7.8557586669921875,-0.18886207044124603,-0.36772340536117554,-0.10517354309558868
0.7359679937362671,5.7454328536987305,7.489043235778809,-0.15962781012058258,-0.09440486133098602,-0.03907792270183563
0.9371958374977112,5.504489898681641,7.8900146484375,-0.1578650325536728,0.04553563892841339,-0.022881265729665756
1.0051815509796143,5.535010814666748,8.149622917175293,-0.12262683361768723,0.07004006206989288,-0.13833479583263397
0.6435805559158325,6.075027942657471,8.122990608215332,-0.12219049781560898,-0.026459190994501114,-0.1679181307554245
0.6365320086479187,5.68615198135376,7.941614627838135,-0.164148211479187,-0.11424925178289413,-0.15280357003211975
0.5747041702270508,5.56102180480957,7.893932819366455,-0.20284216105937958,-0.1520705372095108,-0.15460126101970673
0.5473049283027649,5.425471305847168,8.183314323425293,-0.18889698386192322,-0.04530874639749527,-0.13952161371707916
0.5238417387008667,5.351873874664307,8.485088348388672,-0.11314969509840012,0.04358087107539177,-0.11791444569826126
0.47346773743629456,5.336014747619629,8.234856605529785,0.009075712412595749,0.11880455911159515,-0.053965579718351364
0.43471038341522217,5.148098468780518,8.148914337158203,0.2998824715614319,0.31871455907821655,-0.05150466784834862
-0.04405330866575241,5.818493843078613,8.242901802062988,0.2854486107826233,0.009808750823140144,-0.10276498645544052
0.17603127658367157,5.891440391540527,7.73718786239624,-0.009930923581123352,-0.1042834222316742,0.015742870047688484
0.7841106057167053,5.550487041473389,7.9055962562561035,-0.17749997973442078,0.03223622962832451,0.0671079084277153
0.7741603255271912,5.484427452087402,8.101633071899414,-0.0240506362169981,0.19193385541439056,0.022968532517552376
0.5429857969284058,5.547077655792236,8.248111724853516,0.01736602559685707,0.2659009099006653,0.010838494636118412
0.3336750864982605,5.550161361694336,8.313798904418945,0.03923500329256058,0.19582593441009521,0.030176742002367973
0.46884214878082275,5.5693440437316895,8.422266006469727,0.06899286806583405,0.17030923068523407,0.043703045696020126
0.6049189567565918,5.540067672729492,8.522236824035645,0.12027063965797424,0.2485872507095337,0.010978121310472488
0.43428900837898254,5.559757709503174,8.387846946716309,0.1918116807937622,0.24748769402503967,-0.00094247778179124
0.25925374031066895,5.659835338592529,7.962472915649414,0.20090484619140625,0.2667037546634674,0.008831365965306759
0.07768705487251282,5.537300109863281,7.874519348144531,0.21240657567977905,0.23457224667072296,0.0495498962700367
-0.19861339032649994,5.629917144775391,8.38661003112793,0.2638763189315796,-0.011065387167036533,-0.026284659281373024
-0.038920141756534576,6.211421012878418,7.794495582580566,0.12486085295677185,0.02932153083384037,0.0028623400721699
0.18215085566043854,5.644512176513672,8.267800331115723,0.0639314129948616,-0.12431979924440384,-0.05359905958175659
-0.06676949560642242,5.866387844085693,7.809406757354736,0.058887407183647156,-0.3058514893054962,-0.11473794281482697
0.20586302876472473,5.905614376068115,7.676337242126465,-0.06354743987321854,-0.4009544849395752,-0.08684758096933365
0.4891066551208496,5.962615489959717,7.469142913818359,0.048973940312862396,-0.12749630212783813,0.004258603323251009
0.6290525197982788,5.881518840789795,7.982086181640625,0.02918190509080887,-0.10320131480693817,0.005462880712002516
0.7460523843765259,5.794992446899414,7.889133930206299,0.0547160729765892,-0.049898963421583176,-0.001343903481028974
0.5553015470504761,5.802711486816406,7.822230339050293,0.0581892766058445,-0.030438542366027832,-0.0007679448463022709
0.6555419564247131,5.873962879180908,8.355008125305176,-0.04501204192638397,-0.05227261036634445,-0.023317597806453705
0.5859856009483337,5.90060567855835,8.182385444641113,0.0328296422958374,-0.057194437831640244,0.0007504915702156723
0.6350763440132141,5.848766326904297,8.120786666870117,0.057473693042993546,-0.03619812801480293,0.01492256484925747
0.7450851202011108,5.837580680847168,7.915661334991455,0.05448918044567108,-0.049357909709215164,0.0080634206533432
0.7890809774398804,5.981232643127441,8.004439353942871,0.04846779257059097,-0.09550441801548004,-0.02569124661386013
0.8282597064971924,5.930868148803711,7.82890510559082,0.08695230633020401,-0.04337143152952194,-0.014311700128018856
0.889149010181427,5.8282623291015625,7.718350410461426,0.07246606796979904,0.06780604273080826,0.007208209950476885
0.836007297039032,5.790433883666992,7.816014766693115,0.07988371700048447,0.11428415775299072,0.006946410518139601
0.6868964433670044,5.933186054229736,7.808314800262451,0.0066147977486252785,0.19404570758342743,0.024329889565706253
0.6755862236022949,5.921119213104248,7.937353134155273,-0.03242821618914604,0.21104520559310913,0.016667895019054413
0.5789849758148193,5.894553184509277,7.892073631286621,-0.03073524869978428,0.24760985374450684,0.013072515837848186
0.5257283449172974,5.823263168334961,8.01225471496582,-0.00296705961227417,0.19767598807811737,0.03389429301023483
0.5464717149734497,5.881174087524414,7.93430757522583,0.02609267272055149,0.07485716789960861,0.05885250121355057
0.6277500987052917,5.888969898223877,7.717718601226807,-0.012688543647527695,0.013526301831007004,0.07583455741405487
0.6725407838821411,5.90716552734375,7.82986307144165,-0.05019566789269447,0.13486158847808838,0.058276545256376266
0.5642175674438477,5.883577823638916,8.166497230529785,-0.027803095057606697,0.2401922047138214,0.02897246554493904
0.3940472900867462,5.8036980628967285,8.241445541381836,0.05482079088687897,0.19350464642047882,0.0009948377264663577
0.3359926640987396,5.768627643585205,8.160099983215332,0.10557496547698975,0.1722465455532074,0.007365289609879255
0.33990001678466797,5.816990375518799,7.868735313415527,0.14220942556858063,0.10983356833457947,0.03560471534729004
0.539193332195282,5.88577127456665,7.743470668792725,-0.041922807693481445,-0.035849060863256454,-3.490658491500653e-05
0.5840128064155579,5.916225433349609,7.746362686157227,-0.024556782096624374,-0.024731315672397614,-0.015585790388286114
0.44731348752975464,5.88599157333374,7.750394344329834,-0.04968952387571335,-0.01302015595138073,-0.004258603323251009
0.5173007845878601,5.850260257720947,7.969013690948486,-0.06300638616085052,0.003351032268255949,0.03150319308042526
0.5584714412689209,5.899466037750244,8.070106506347656,-0.03324852138757706,0.040945425629615784,0.013369222171604633
0.4284280240535736,5.927793979644775,8.01054859161377,0.0026354470755904913,0.03249803185462952,0.005951572675257921
0.46823880076408386,5.928608417510986,7.969310760498047,-0.0013613568153232336,0.016929693520069122,-0.0033859387040138245
0.49666276574134827,5.898000717163086,7.92970085144043,-0.0038746309000998735,0.021502455696463585,-0.01727875880897045
0.5057990550994873,5.887178897857666,7.989153861999512,-0.0007330382941290736,0.005358160939067602,-0.006824237294495106
0.5062491297721863,5.834123611450195,7.898547649383545,-0.0018325956771150231,-0.010332348756492138,0.011972958222031593
0.48186659812927246,5.681478500366211,6.77283239364624,0.07847000658512115,0.2879618704319,-0.006422811653465033
0.40995433926582336,5.893815517425537,8.343544006347656,0.0630936548113823,0.23666664958000183,-0.052063170820474625
0.23747606575489044,6.160060405731201,8.267122268676758,-0.01710422709584236,-0.002740166848525405,0.02050761878490448
0.535831868648529,6.046862602233887,8.166698455810547,-0.05323254317045212,-0.08445648103952408,0.03618067502975464
0.534414529800415,5.8271613121032715,7.479619979858398,-0.036582101136446,0.08056439459323883,0.021694442257285118
0.48357126116752625,5.687042713165283,7.81051778793335,-0.027488935738801956,0.147445410490036,0.006510077975690365
0.35076969861984253,6.002339839935303,7.936749458312988,-0.06773623079061508,0.011466813273727894,0.007661995477974415
0.36692574620246887,5.903354167938232,7.941221714019775,-0.07347836345434189,-0.05925392732024193,0.014311700128018856
0.602390706539154,5.750891208648682,7.913056373596191,-0.026825711131095886,0.010681414976716042,-0.0024958208668977022
0.6217262744903564,5.845998764038086,8.01686954498291,0.02237512171268463,0.10086257755756378,-0.061854466795921326
0.1591377854347229,5.898594379425049,8.059074401855469,0.056758105754852295,0.08227481693029404,-0.03654719516634941
0.12868355214595795,5.83518648147583,8.418912887573242,0.10084512084722519,-0.04656538367271423,-0.030613074079155922
0.009538499638438225,5.902291297912598,7.472312927246094,0.18418459594249725,-0.4240102767944336,0.006579891312867403
0.6660381555557251,5.9997735023498535,7.071820259094238,-0.005044001620262861,-0.09180431813001633,0.05061454698443413
0.8105329871177673,5.930092811584473,7.602911472320557,-0.15707963705062866,0.15488052368164062,0.0047996556386351585
0.2838278114795685,5.986854553222656,8.488471031188965,-0.14334389567375183,-0.01886700838804245,-0.0023387412074953318
0.1576150804758072,5.946181774139404,8.029520034790039,-0.09049531817436218,-0.14046409726142883,0.004642575979232788
0.6468175053596497,5.655238151550293,6.284022808074951,0.11784463375806808,0.3016278147697449,0.040037851780653
0.4838298261165619,5.73620080947876,7.9201436042785645,-0.07140141725540161,0.0541401132941246,-0.009878563694655895
0.29507097601890564,6.0862040519714355,8.22456169128418,-0.11501719802618027,-0.00012217304902151227,0.01869247667491436
0.41993337869644165,5.6993584632873535,8.21287727355957,-0.05129522830247879,0.0067369709722697735,0.034924037754535675
0.37107253074645996,5.74104642868042,7.795894145965576,0.02719222940504551,-0.0449422262609005,0.041434116661548615
0.4148768186569214,5.8605170249938965,7.7421488761901855,0.017016960307955742,0.008604473434388638,0.03998549282550812
0.44731348752975464,6.002962589263916,7.986367225646973,0.022881265729665756,0.11543607711791992,0.04633849114179611
0.47096818685531616,5.925476551055908,8.047975540161133,0.04443608224391937,0.12294099479913712,0.04499458894133568
0.3579139709472656,5.849331378936768,7.988550662994385,0.07450810819864273,0.0999375507235527,0.04171336814761162
0.3592834770679474,5.879881381988525,7.805001258850098,0.08124507963657379,0.047193702310323715,0.045204028487205505
0.49211376905441284,5.778491973876953,7.698708534240723,0.06805038452148438,0.08314748853445053,0.05705481395125389
0.5517485737800598,5.738163948059082,7.812164783477783,0.07424630969762802,0.17144368588924408,0.02897246554493904
0.38177937269210815,5.8028645515441895,7.977048873901367,0.11081095039844513,0.2090729922056198,0.02338741160929203
0.10434888303279877,5.959100723266602,8.135401725769043,0.16702800989151,0.17587682604789734,0.07368779927492142
0.11111968755722046,5.985781669616699,8.021916389465332,0.26307347416877747,0.10032152384519577,0.13500121235847473
0.08941864222288132,6.297037601470947,7.31494665145874,-0.22935371100902557,-0.045204028487205505,0.011135200969874859
-0.04130476713180542,6.090322017669678,7.639993190765381,-0.3168121576309204,-0.1255764365196228,-0.06592108309268951
-0.10991300642490387,6.008162498474121,8.082566261291504,-0.1886875480413437,-0.27289968729019165,-0.08651597052812576
0.3089860677719116,6.179491996765137,7.944784641265869,-0.11386527866125107,-0.33594098687171936,-0.047909289598464966
0.6051871180534363,6.086740493774414,7.678012847900391,-0.08796459436416626,-0.199351504445076,-0.03230604529380798
0.4123389720916748,5.869739532470703,7.607316970825195,-0.04255112633109093,0.01120501384139061,-0.013753194361925125
0.06626192480325699,5.916158199310303,7.790081024169922,0.022287854924798012,0.0967959612607956,-0.008796459063887596
0.104147769510746,6.083493709564209,7.63700532913208,0.04820599406957626,0.09313076734542847,0.002722713630646467
0.24424687027931213,6.186635971069336,7.604367256164551,0.003263765713199973,0.056845374405384064,0.01408480666577816
0.2523680031299591,6.161985397338867,7.74149751663208,-0.0495498962700367,0.006405358202755451,0.004886921960860491
0.11572612822055817,6.048088550567627,7.898825645446777,-0.04455825686454773,0.03562216833233833,-0.01673770695924759
0.14328818023204803,6.026617050170898,7.965642929077148,0.008377579972147942,0.04199262335896492,-0.03070034086704254
0.1679101437330246,5.866885662078857,7.314764499664307,0.1581442803144455,0.20514599978923798,-0.025167647749185562
-0.09120950102806091,6.237412452697754,7.86494255065918,0.06777113676071167,-0.1370956152677536,-0.076602503657341
-0.014030021615326405,6.350983619689941,7.774901390075684,-0.0541575662791729,-0.12582078576087952,-0.0604931116104126
0.06621403992176056,5.903459548950195,7.334454536437988,-0.08211774379014969,-0.03078760765492916,-0.054017938673496246
0.0059184664860367775,5.874671459197998,7.627284526824951,-0.06455972790718079,0.20013689994812012,-0.029949849471449852
0.07008306682109833,6.085629463195801,7.970622539520264,-0.018343409523367882,0.17297957837581635,-0.058573249727487564
0.43430817127227783,6.133762359619141,7.996853828430176,0.02727949619293213,0.11109020560979843,-0.05757841095328331
0.4806407690048218,6.166295051574707,7.924004077911377,0.09719738364219666,0.19881045818328857,-0.03316125646233559
0.41697415709495544,6.100963115692139,7.946747779846191,0.16842427849769592,0.2356019914150238,-0.023858651518821716
0.07249642163515091,5.944218158721924,7.81223201751709,0.3415260314941406,0.26251497864723206,-0.002007128670811653
-0.19609469175338745,6.127777099609375,7.878005504608154,0.3862413763999939,0.2010444700717926,0.02949606440961361
-0.15946340560913086,6.305006504058838,7.575704097747803,0.40198424458503723,0.21327923238277435,0.07044149190187454
-0.10008720308542252,6.4602742195129395,7.510035991668701,0.42963024973869324,0.4069235026836395,0.09176941215991974
0.004884171299636364,6.318527698516846,7.444348335266113,0.36531487107276917,0.2339090257883072,0.02546435408294201
-0.4546205699443817,6.544971466064453,7.266928672790527,0.27146852016448975,0.6642548441886902,-0.04110250249505043
-0.5729132890701294,6.4293413162231445,7.318173885345459,0.2901086211204529,0.6446722745895386,-0.014433872886002064
-0.8282692432403564,6.685635566711426,7.298666000366211,0.30948176980018616,0.6767339706420898,0.06888814270496368
-0.9175633788108826,7.092247486114502,7.8416900634765625,0.32618457078933716,0.7598291039466858,0.16353735327720642
-0.9497989416122437,7.312859058380127,7.416576862335205,0.3828379809856415,1.0093239545822144,0.2615550458431244
-1.5917130708694458,6.775245666503906,8.092229843139648,0.40055304765701294,0.7735648155212402,0.2114291787147522
-1.3660931587219238,7.118143558502197,6.638192176818848,0.2111150324344635,0.1088561862707138,0.06368706375360489
-1.2014104127883911,7.278506755828857,6.220327377319336,-0.0354301854968071,0.3351730406284332,0.0028972465079277754
