accX,accY,accZ,gyroX,gyroY,gyroZ
0.17238251864910126,3.5242648124694824,9.08838939666748,0.1396961510181427,-0.35390040278434753,-0.07595673203468323
0.8140285611152649,4.405331134796143,9.078812599182129,0.1396961510181427,-0.35390040278434753,-0.07595673203468323
1.5322890281677246,4.434061527252197,8.801085472106934,0.1396961510181427,-0.35390040278434753,-0.07595673203468323
1.5897499322891235,4.242525577545166,8.695740699768066,0.4243418872356415,-0.22073179483413696,0.010786134749650955
1.2449848651885986,4.175487995147705,8.26478385925293,0.3571292757987976,0.015062191523611546,-0.08449138700962067
1.0630255937576294,4.20421838760376,8.226476669311523,0.21422171592712402,0.03825761750340462,-0.09060004353523254
1.1971008777618408,4.252102375030518,8.226476669311523,0.033405601978302,0.05291838198900223,-0.07962191849946976
1.3024457693099976,4.280832767486572,8.226476669311523,-0.05333726108074188,0.015044738538563251,-0.0930434986948967
1.3886369466781616,4.3191399574279785,8.33182144165039,-0.19750145077705383,-0.03258529677987099,-0.1687907874584198
1.522712230682373,4.242525577545166,8.53293514251709,-0.30255281925201416,-0.0472460612654686,-0.27263787388801575
1.6376339197158813,4.137180328369141,8.59997272491455,-0.4076390862464905,0.09567894786596298,-0.4155803322792053
1.50355863571167,4.07014274597168,8.628703117370605,-0.45526912808418274,0.1750914305448532,-0.49012336134910583
1.5131354331970215,4.041412353515625,8.628703117370605,-0.4809429347515106,0.19708257913589478,-0.5267578363418579
1.1683704853057861,3.869029998779297,9.030928611755371,-0.49069932103157043,0.25450390577316284,-0.641600489616394
0.5937620401382446,3.5051112174987793,9.165003776550293,-0.45896923542022705,0.2777167856693268,-0.7393389344215393
-0.23942017555236816,2.873042106628418,9.47146224975586,-0.4272042512893677,0.2862863540649414,-0.7955385446548462
-0.9576807022094727,2.3367409706115723,9.921571731567383,-0.39788269996643066,0.43165484070777893,-0.7039087414741516
-1.3311761617660522,2.250549554824829,10.342951774597168,-0.3502352237701416,0.662579357624054,-0.49865803122520447
-1.2066776752471924,2.5761611461639404,10.199298858642578,-0.2707878351211548,0.8531518578529358,-0.27752479910850525
-0.9002198576927185,3.00711727142334,9.77791976928711,-0.1644972860813141,0.8690343499183655,-0.13702580332756042
-0.6416460275650024,3.294421434402466,9.423578262329102,0.022392574697732925,0.5709320902824402,-0.11869984120130539
-0.5171475410461426,3.1890766620635986,9.174580574035645,0.13357004523277283,0.43165484070777893,-0.1883384734392166
-0.6129156351089478,3.00711727142334,8.791508674621582,0.15922638773918152,0.49151962995529175,-0.23842942714691162
-0.7948749661445618,2.9305028915405273,9.519346237182617,-0.3160093128681183,0.06880088150501251,-0.10648253560066223
-0.871489405632019,3.0166940689086914,9.08838939666748,-0.03867649659514427,-0.02281145378947258,-0.03317870944738388
-0.7374141216278076,3.0837318897247314,9.097966194152832,-0.04358087107539177,-0.038693949580192566,-0.01851794309914112
-0.9002198576927185,3.093308687210083,9.53849983215332,0.10545279085636139,-0.45406484603881836,-0.07349581271409988
-0.6512228846549988,3.0837318897247314,8.916007041931152,-0.04482005536556244,-0.17062339186668396,-0.08937831223011017
-0.727837324142456,2.9879636764526367,9.126696586608887,-0.025272367522120476,-0.2646966278553009,-0.05639158934354782
-0.49799394607543945,2.920926094055176,9.126696586608887,0.06269222497940063,-0.351439505815506,-0.04173082113265991
-0.5171475410461426,3.064578056335449,9.2033109664917,0.1347743272781372,-0.39297834038734436,-0.05150466784834862
-0.40222588181495667,3.1028854846954346,9.35654067993164,0.16165240108966827,-0.4051956236362457,-0.04539601504802704
-0.35434186458587646,3.19865345954895,9.557653427124023,0.22516492009162903,-0.4308519661426544,-0.06860889494419098
-0.507570743560791,3.141192674636841,8.734047889709473,0.5196019411087036,-0.4357388913631439,-0.16023868322372437
-0.2968810200691223,3.2082302570343018,8.59997272491455,0.3974289298057556,-0.48949503898620605,-0.09426523000001907
-0.14365209639072418,3.246537446975708,8.9064302444458,0.24959953129291534,-0.5469163656234741,-0.05394812673330307
0.0,3.44765043258667,9.126696586608887,0.19706512987613678,-0.5505815744400024,-0.0576133169233799
0.2777273952960968,3.4955344200134277,8.877699851989746,0.1750914305448532,-0.44429102540016174,-0.08693484961986542
0.33518823981285095,3.514688014984131,8.78193187713623,0.08710937947034836,-0.3502177596092224,-0.11992157250642776
0.2585737705230713,3.552995204925537,9.126696586608887,-0.013072515837848186,-0.351439505815506,-0.1235693097114563
0.2777273952960968,3.466804027557373,9.337387084960938,-0.020367993041872978,-0.41496947407722473,-0.10648253560066223
0.40222588181495667,3.3518824577331543,9.241618156433105,0.05291838198900223,-0.4516213834285736,-0.09670869261026382
0.6416460275650024,3.3518824577331543,9.222464561462402,0.10178760439157486,-0.41008254885673523,-0.08082620054483414
0.6129156351089478,3.313575267791748,9.136273384094238,0.07735299319028854,-0.23537510633468628,-0.07349581271409988
0.43095630407333374,3.620033025741577,9.749189376831055,0.04801400750875473,-0.08876744657754898,-0.04906120523810387
0.7469909191131592,3.648763418197632,9.35654067993164,0.4243244528770447,-0.14498449862003326,-0.005078908056020737
0.7374141216278076,3.801992416381836,8.303091049194336,0.27405160665512085,-0.1278628259897232,0.01567305624485016
0.8044517636299133,4.031835556030273,8.418013572692871,-0.0924500897526741,-0.016685348004102707,0.02666863054037094
0.7086837291717529,3.6774938106536865,8.848969459533691,-0.23172736167907715,-0.09122835844755173,-0.023404864594340324
0.43095630407333374,3.466804027557373,8.983044624328613,-0.14498449862003326,-0.17062339186668396,-0.06372196972370148
0.507570743560791,3.667917013168335,8.925583839416504,-0.04115486517548561,-0.2146056890487671,-0.028291787952184677
0.8906430602073669,3.754108190536499,9.155426979064941,-0.06927211582660675,-0.2146056890487671,0.008342674002051353
0.31603461503982544,3.399766445159912,9.289502143859863,0.07733553647994995,-0.04478514939546585,-0.1541300266981125
0.49799394607543945,3.5434184074401855,8.753201484680176,0.05045747011899948,-0.18528415262699127,-0.11014772951602936
0.7086837291717529,3.5913026332855225,9.097966194152832,-0.033824481070041656,-0.20483183860778809,-0.11381292343139648
0.8619126081466675,3.6583402156829834,9.165003776550293,-0.0032463124953210354,-0.1681973785161972,-0.1284736841917038
0.7182605266571045,3.6774938106536865,8.772355079650879,0.12131783366203308,-0.21582742035388947,-0.1736777126789093
0.6991068720817566,3.6774938106536865,8.609549522399902,0.11035716533660889,-0.3258005976676941,-0.1639038622379303
1.0630255937576294,3.6104562282562256,9.069235801696777,0.0040317103266716,-0.3465525805950165,-0.15657348930835724
1.1013327836990356,3.533841609954834,9.47146224975586,0.004049163777381182,-0.20727530121803284,-0.1333606094121933
2.078166961669922,3.7445313930511475,9.14585018157959,0.11276572197675705,0.09325294196605682,-0.04539601504802704
1.091755986213684,3.88818359375,8.14028549194336,0.5635842680931091,0.3571467101573944,0.02666863054037094
0.8906430602073669,4.462791919708252,7.65186882019043,0.1054004356265068,-0.10951940715312958,0.029129544273018837
2.078166961669922,3.7828385829925537,9.576807022094727,-0.6861936450004578,0.17264796793460846,0.20504127442836761
1.6376339197158813,3.648763418197632,9.931148529052734,-0.5811423063278198,0.4793197810649872,0.16105897724628448
1.2832920551300049,3.7445313930511475,9.653421401977539,-0.3759090006351471,0.7236658930778503,0.23191934823989868
1.2449848651885986,3.88818359375,9.346963882446289,-0.301331102848053,0.8397127985954285,0.3284360468387604
0.9289502501487732,3.648763418197632,9.567230224609375,-0.32826152443885803,0.8201825618743896,0.31866222620010376
0.4692635238170624,3.313575267791748,9.682151794433594,-0.3209311366081238,0.8849343061447144,0.2612408697605133
-0.10534487664699554,2.9496564865112305,9.528923034667969,-0.2488490492105484,1.030320167541504,0.2209237813949585
-0.6991068720817566,2.7964274883270264,9.011775016784668,-0.10957176983356476,1.0718590021133423,0.20137609541416168
-0.871489405632019,3.1028854846954346,8.293514251708984,0.05044001340866089,0.37058576941490173,0.20748473703861237
-0.5746083855628967,3.2369606494903564,8.360552787780762,-0.06927211582660675,0.20443041622638702,0.18915878236293793
-0.3256114423274994,3.3039982318878174,8.973467826843262,-0.19020597636699677,0.26796039938926697,0.07187265902757645
-0.43095630407333374,3.2848446369171143,9.02135181427002,-0.1731017529964447,0.2862863540649414,-0.0014137167017906904
-0.4405331015586853,3.160346269607544,9.078812599182129,-0.1425585001707077,0.19832175970077515,-0.01607448235154152
-0.4405331015586853,3.141192674636841,9.174580574035645,-0.12058480083942413,0.09569640457630157,0.01567305624485016
-0.35434186458587646,3.141192674636841,9.2033109664917,-0.09122835844755173,0.04194026067852974,0.04132939502596855
-0.3734954595565796,3.141192674636841,9.279925346374512,-0.0619242824614048,0.0590444877743721,0.033999014645814896
-0.47884035110473633,3.141192674636841,9.222464561462402,-0.013089969754219055,0.08471827954053879,0.01202531810849905
-0.49799394607543945,3.1507694721221924,9.097966194152832,0.02724459022283554,0.07981390506029129,0.01567305624485016
-0.4405331015586853,3.1507694721221924,9.011775016784668,0.02480112947523594,-0.0032463124953210354,0.014451325871050358
-0.38307225704193115,3.07415509223938,9.165003776550293,0.002809980185702443,-0.0032463124953210354,-0.0026354470755904913
-0.31603461503982544,3.07415509223938,9.251194953918457,-0.006928957067430019,0.02727949619293213,-0.011187560856342316
-0.181959331035614,3.1699230670928955,9.452308654785156,0.011344640515744686,0.03216641768813133,-0.04049163684248924
-0.43095630407333374,3.44765043258667,9.318233489990234,0.0846659243106842,0.03460988029837608,-0.0576133169233799
-0.3256114423274994,3.0358476638793945,9.21288776397705,0.3570943772792816,-0.3001268208026886,-0.07471754401922226
-0.038307227194309235,3.2848446369171143,8.925583839416504,0.3375292122364044,-0.12051498144865036,-0.0038397242315113544
-0.3256114423274994,3.361459255218506,8.456320762634277,0.17263051867485046,0.0944746732711792,-0.019739674404263496
-0.4596867263317108,3.2848446369171143,8.609549522399902,0.04310963302850723,-0.0728849470615387,-0.06005677953362465
-0.363918662071228,3.2752678394317627,8.83939266204834,0.03577924892306328,-0.3147875964641571,-0.023404864594340324
-0.363918662071228,3.026270866394043,8.53293514251709,0.05532693862915039,-0.3392221927642822,-0.0014137167017906904
-0.22026655077934265,3.265691041946411,8.446743965148926,0.011344640515744686,-0.36854371428489685,0.0437728576362133
-0.12449848651885986,3.399766445159912,9.040505409240723,-0.24272294342517853,-0.43451717495918274,0.02422516979277134
0.0,3.4093432426452637,9.528923034667969,-0.30627039074897766,-0.39908698201179504,-0.0246265958994627
-0.047884032130241394,3.064578056335449,9.864110946655273,-0.18409733474254608,-0.21704915165901184,-0.03562216833233833
-0.1149216815829277,3.0166940689086914,9.701305389404297,-0.03504621237516403,-0.11075859516859055,-0.019739674404263496
-0.1149216815829277,3.0358476638793945,9.481039047241211,0.11643091589212418,-0.06311110407114029,-0.00019198621157556772
0.0,3.3231520652770996,8.89685344696045,0.1762957125902176,-0.08021533489227295,0.046216320246458054
0.047884032130241394,3.332728862762451,9.030928611755371,0.1261873096227646,-0.14008012413978577,0.05599016323685646
0.13407529890537262,3.3231520652770996,9.078812599182129,0.09443976730108261,-0.16207127273082733,0.0437728576362133
0.14365209639072418,3.3231520652770996,9.050082206726074,0.08953539282083511,-0.1339714676141739,0.04499458894133568
0.3256114423274994,3.361459255218506,9.069235801696777,0.12739157676696777,-0.1889318972826004,0.062116269022226334
0.3064578175544739,3.2848446369171143,8.983044624328613,0.1469392627477646,-0.16694074869155884,0.029129544273018837
0.2968810200691223,3.2752678394317627,8.916007041931152,0.12252211570739746,-0.12053243815898895,0.016912240535020828
0.2968810200691223,3.3231520652770996,8.935160636901855,0.06265731900930405,-0.10464993864297867,0.03890338912606239
0.3926490843296051,3.428496837615967,9.069235801696777,0.0003665191470645368,-0.10220648348331451,0.07798130810260773
0.507570743560791,3.5242648124694824,9.21288776397705,-0.0240506362169981,-0.10587166994810104,0.10852457582950592
0.5937620401382446,3.581725835800171,9.327810287475586,0.003996803890913725,-0.11196286976337433,0.11342895030975342
0.6320692300796509,3.581725835800171,9.21288776397705,0.05900958180427551,-0.08143706619739532,0.09752900153398514
0.6224924325942993,3.620033025741577,9.050082206726074,0.08712683618068695,0.015062191523611546,0.0840899646282196
0.6991068720817566,3.6774938106536865,8.877699851989746,0.011344640515744686,0.05049237608909607,0.06698573380708694
0.6991068720817566,3.5913026332855225,8.9064302444458,-0.03750712424516678,0.05660102888941765,0.047455500811338425
1.4173674583435059,3.399766445159912,9.864110946655273,0.08709193021059036,0.3070557713508606,0.06944665312767029
0.7086837291717529,3.648763418197632,8.5903959274292,0.5758015513420105,0.41578978300094604,0.020559977740049362
0.1628057211637497,3.9647979736328125,7.977479934692383,0.5953143239021301,-0.0728674978017807,-0.1235693097114563
1.0342950820922852,3.734954595565796,8.676587104797363,-0.4003785252571106,-0.10096729546785355,0.08044222742319107
0.6991068720817566,3.687070608139038,9.241618156433105,-0.6447246074676514,0.035849060863256454,-0.03193952515721321
0.5937620401382446,3.648763418197632,9.576807022094727,-0.5640555024147034,0.03216641768813133,-0.08082620054483414
0.6607996821403503,3.648763418197632,9.682151794433594,-0.4406781792640686,0.00040142572834156454,-0.07593927532434464
0.7086837291717529,3.5721490383148193,9.653421401977539,0.015027284622192383,-0.08388052135705948,-0.11869984120130539
0.47884035110473633,3.466804027557373,9.289502143859863,0.21537363529205322,-0.06311110407114029,-0.16266468167304993
0.26815059781074524,3.399766445159912,8.9064302444458,0.24102996289730072,0.019949113950133324,-0.16634732484817505
0.1149216815829277,3.380612850189209,8.695740699768066,0.12739157676696777,0.04928809776902199,-0.14800392091274261
0.08619125932455063,3.4189200401306152,8.810662269592285,-0.027715828269720078,0.03583160787820816,-0.11136946082115173
0.15322890877723694,3.4189200401306152,9.097966194152832,-0.1327846497297287,0.0028448866214603186,-0.08815658092498779
0.24899697303771973,3.3231520652770996,9.318233489990234,0.01014036312699318,-0.002024581888690591,-0.07105235010385513
0.3256114423274994,3.5242648124694824,8.9064302444458,0.06141813471913338,0.0639488622546196,-0.027052603662014008
0.3256114423274994,3.581725835800171,8.89685344696045,0.013805554248392582,0.019949113950133324,-0.0270700566470623
0.2585737705230713,3.485957622528076,8.925583839416504,-0.01061160210520029,0.0028448866214603186,-0.04539601504802704
0.15322890877723694,3.4093432426452637,8.973467826843262,-0.028955012559890747,0.005288347601890564,-0.053930673748254776
0.1628057211637497,3.428496837615967,9.069235801696777,-0.035063665360212326,0.004066617228090763,-0.04173082113265991
0.1628057211637497,3.44765043258667,9.174580574035645,-0.03263765573501587,-0.006894050631672144,-0.03316125646233559
0.17238251864910126,3.3901896476745605,9.165003776550293,-0.028955012559890747,-0.004468042869120836,-0.029513517394661903
0.19153612852096558,3.4093432426452637,9.011775016784668,-0.047280970960855484,0.03827507048845291,0.005916666239500046
0.24899697303771973,3.5051112174987793,9.165003776550293,-0.021624628454446793,0.006510077975690365,0.01567305624485016
0.2777273952960968,3.3423056602478027,9.14585018157959,-0.027715828269720078,0.02727949619293213,0.019338248297572136
0.24899697303771973,3.332728862762451,9.050082206726074,-0.01673770695924759,0.05660102888941765,0.025446901097893715
0.23942017555236816,3.380612850189209,8.96389102935791,-0.0008552113431505859,0.04194026067852974,0.030351275578141212
0.2585737705230713,3.44765043258667,9.002198219299316,0.2263866513967514,-0.03256784379482269,-0.0673871636390686
0.23942017555236816,3.485957622528076,8.5903959274292,0.03940953314304352,0.1042659655213356,0.10243337601423264
0.1628057211637497,3.6104562282562256,8.954314231872559,-0.3258529603481293,0.2875255346298218,0.09754645079374313
0.028730420395731926,3.428496837615967,9.481039047241211,-0.4394564628601074,0.09813986718654633,0.01202531810849905
0.15322890877723694,3.19865345954895,9.730035781860352,-0.32217031717300415,-0.035011306405067444,0.01811651699244976
0.19153612852096558,3.160346269607544,9.567230224609375,-0.0815068781375885,-0.0325503908097744,0.014468779787421227
0.10534487664699554,3.2369606494903564,9.14585018157959,0.1261873096227646,0.06881833076477051,-0.005078908056020737
0.06703764945268631,3.313575267791748,8.810662269592285,0.19092155992984772,0.09571385383605957,0.01080358773469925
0.06703764945268631,3.3518824577331543,8.705317497253418,0.07974409312009811,0.04928809776902199,0.018133969977498055
0.047884032130241394,3.3423056602478027,8.762778282165527,0.008918632753193378,0.02972295694053173,0.01811651699244976
0.06703764945268631,3.3039982318878174,9.749189376831055,-0.07293730974197388,0.0028448866214603186,0.021799162030220032
0.4213795065879822,3.1699230670928955,9.672574996948242,0.3937288224697113,-0.10951940715312958,0.05967280641198158
0.19153612852096558,3.5051112174987793,9.241618156433105,-0.3966609835624695,0.15922638773918152,0.06698573380708694
0.1149216815829277,3.4189200401306152,9.557653427124023,-0.633711576461792,0.09325294196605682,-0.0026179938577115536
0.019153613597154617,3.3039982318878174,9.768342971801758,-0.5042081475257874,-0.011798425577580929,-0.028291787952184677
-0.028730420395731926,3.1316158771514893,9.576807022094727,-0.15481069684028625,-0.037454765290021896,-0.022165682166814804
-0.2585737705230713,3.112462282180786,9.27034854888916,0.34000760316848755,-0.0728849470615387,-0.052726395428180695
-0.19153612852096558,3.294421434402466,8.887276649475098,0.4377285838127136,-0.10464993864297867,-0.019739674404263496
0.0,3.44765043258667,8.580819129943848,0.3534291684627533,-0.13641493022441864,-0.0026354470755904913
0.009576806798577309,3.399766445159912,8.686163902282715,0.1054178848862648,-0.22560125589370728,-0.023404864594340324
0.07661445438861847,3.3039982318878174,8.935160636901855,-0.024085544049739838,-0.23170991241931915,-0.009948376566171646
0.31603461503982544,3.3423056602478027,9.165003776550293,-0.06808529049158096,-0.2097013145685196,0.030351275578141212
0.47884035110473633,3.4093432426452637,9.241618156433105,-0.02773328125476837,-0.2194925993680954,0.046216320246458054
0.5841852426528931,3.4572272300720215,9.2033109664917,0.033335790038108826,-0.19139280915260315,0.05112069472670555
0.507570743560791,3.5242648124694824,9.14585018157959,-0.057072266936302185,0.018744835630059242,0.08044222742319107
1.599326729774475,3.4955344200134277,9.232041358947754,0.46706756949424744,0.7028964757919312,0.19404570758342743
0.10534487664699554,3.993528366088867,7.7763671875,0.794456422328949,0.17756979167461395,-0.045378562062978745
0.07661445438861847,4.07014274597168,7.422025203704834,0.5122541189193726,-0.29157471656799316,-0.0783652812242508
0.8619126081466675,3.955221176147461,8.044517517089844,-0.116919606924057,-0.2634749114513397,0.08531169593334198
1.0247182846069336,3.7636849880218506,8.944737434387207,-0.6544809937477112,-0.024015730246901512,0.11831586807966232
0.5746083855628967,3.5913026332855225,9.653421401977539,-0.8023278713226318,0.04928809776902199,-0.018500490114092827
0.49799394607543945,3.581725835800171,9.988609313964844,-0.4150393009185791,-0.042324233800172806,-0.02949606440961361
0.6703764796257019,3.4955344200134277,9.883264541625977,-0.009407324716448784,-0.046006880700588226,-0.036826446652412415
0.47884035110473633,3.466804027557373,9.385271072387695,0.2813296318054199,0.005288347601890564,-0.09180431813001633
0.019153613597154617,3.44765043258667,8.53293514251709,0.09683086723089218,0.09693558514118195,-0.06248278543353081
0.047884032130241394,3.399766445159912,8.801085472106934,-0.1011069267988205,0.07127925008535385,-0.02949606440961361
0.545877993106842,3.3901896476745605,10.524910926818848,-0.1169545128941536,0.15191346406936646,-0.01727875880897045
0.38307225704193115,3.1220390796661377,9.126696586608887,0.6221749782562256,0.42069417238235474,-0.03804817795753479
-0.23942017555236816,3.4763808250427246,8.188169479370117,0.9386380910873413,0.24474751949310303,-0.10648253560066223
-0.7374141216278076,3.8594532012939453,7.287950038909912,0.8750906586647034,-0.291557252407074,-0.16022121906280518
-0.3064578175544739,3.773261785507202,7.240066051483154,0.14327408373355865,-0.2707878351211548,0.07677703350782394
0.7182605266571045,3.667917013168335,9.078812599182129,-1.0662041902542114,0.06270968168973923,0.10730284452438354
0.5267243981361389,3.7636849880218506,8.437167167663574,0.45603707432746887,0.12135273963212967,-0.11501719802618027
0.31603461503982544,3.754108190536499,8.341399192810059,0.2226691097021103,0.05050982907414436,-0.13700833916664124
0.3064578175544739,3.6774938106536865,8.667010307312012,-0.05585053563117981,0.008970992639660835,-0.1235693097114563
0.3926490843296051,3.581725835800171,9.059659004211426,-0.23420573770999908,0.00040142572834156454,-0.11379546672105789
0.3734954595565796,3.428496837615967,9.279925346374512,-0.2537534236907959,0.008953538723289967,-0.14067353308200836
0.26815059781074524,3.380612850189209,9.308655738830566,-0.1120326817035675,0.026057764887809753,-0.16756905615329742
0.12449848651885986,3.2752678394317627,9.27034854888916,-0.006963863503187895,0.016283921897411346,-0.15044738352298737
0.08619125932455063,3.246537446975708,9.059659004211426,0.04185299575328827,0.04317944496870041,-0.1333431601524353
0.0,3.2561142444610596,8.944737434387207,0.027209682390093803,0.05417501926422119,-0.11257373541593552
-0.009576806798577309,3.1890766620635986,8.89685344696045,-0.01918116770684719,0.04804891347885132,-0.09791296720504761
0.0,3.227383852005005,8.983044624328613,-0.08759807795286179,0.06637486815452576,-0.09060004353523254
-0.019153613597154617,3.2561142444610596,9.136273384094238,-0.14013248682022095,0.08347909897565842,-0.07347836345434189
-0.028730420395731926,3.265691041946411,9.222464561462402,-0.14741051197052002,0.06880088150501251,-0.05028293654322624
-0.009576806798577309,3.2848446369171143,9.27034854888916,-0.10594148188829422,0.040735986083745956,-0.022165682166814804
0.047884032130241394,3.4093432426452637,8.973467826843262,-0.022881265729665756,0.04806636646389961,0.005916666239500046
0.181959331035614,3.4189200401306152,9.078812599182129,-0.076602503657341,0.030944688245654106,0.003455751808360219
0.181959331035614,3.3901896476745605,9.184157371520996,-0.11447614431381226,0.04682718217372894,-0.007504915818572044
0.15322890877723694,3.2848446369171143,9.136273384094238,-0.13405874371528625,0.12870058417320251,-0.025830872356891632
0.0,3.265691041946411,9.08838939666748,-0.15845844149589539,0.19832175970077515,-0.02949606440961361
0.0,3.4572272300720215,8.820239067077637,-0.1975887268781662,0.22399555146694183,-0.00017453292093705386
0.0,2.8443117141723633,9.41400146484375,0.23006929457187653,-0.4455127418041229,-0.10403907299041748
0.047884032130241394,3.0166940689086914,9.222464561462402,0.19092155992984772,0.017523106187582016,0.01202531810849905
0.0,3.485957622528076,9.165003776550293,-0.04731587693095207,0.32417744398117065,0.05722934752702713
0.0,3.4189200401306152,9.327810287475586,-0.3099530339241028,0.3876899778842926,0.07675957679748535
0.0,3.2848446369171143,9.53849983215332,-0.24033184349536896,0.06148795038461685,0.0486772321164608
0.12449848651885986,3.141192674636841,9.241618156433105,0.004014257341623306,0.07370525598526001,0.010786134749650955
-0.14365209639072418,3.160346269607544,8.916007041931152,0.20924752950668335,0.05050982907414436,-0.05881759524345398
-0.28730419278144836,3.160346269607544,8.724471092224121,0.2715732455253601,-0.022794000804424286,-0.051487211138010025
-0.2968810200691223,3.1699230670928955,8.743624687194824,0.18725638091564178,-0.08141960948705673,-0.01727875880897045
-0.26815059781074524,3.1507694721221924,8.954314231872559,0.046792276203632355,-0.09487609565258026,-0.017296213656663895
-0.2298433631658554,3.141192674636841,9.21288776397705,-0.039968039840459824,-0.1486147791147232,-0.02338741160929203
-0.19153612852096558,3.07415509223938,9.299078941345215,-0.01918116770684719,-0.16940166056156158,-0.02338741160929203
-0.1628057211637497,3.1028854846954346,9.27034854888916,0.0699876993894577,-0.18772761523723602,-0.00996582955121994
0.019153613597154617,3.19865345954895,9.08838939666748,0.20800833404064178,-0.2048143893480301,0.03890338912606239
0.12449848651885986,3.294421434402466,9.030928611755371,0.17873917520046234,-0.2084970325231552,0.05110324174165726
0.181959331035614,3.3518824577331543,9.02135181427002,0.12131783366203308,-0.19750145077705383,0.05721189081668854
0.2106897532939911,3.3423056602478027,9.02135181427002,0.060213860124349594,-0.14741051197052002,0.0694291964173317
0.45010992884635925,3.5051112174987793,9.136273384094238,-0.010646508075296879,-0.08508480340242386,0.10854202508926392
0.49799394607543945,3.5721490383148193,9.222464561462402,0.008883725851774216,-0.1082976832985878,0.10365510731935501
0.545877993106842,3.5721490383148193,9.193734169006348,0.05532693862915039,-0.13030628859996796,0.0889943391084671
0.6224924325942993,3.514688014984131,8.983044624328613,0.08463101834058762,-0.08386307209730148,0.062116269022226334
0.5171475410461426,3.5242648124694824,8.887276649475098,0.060213860124349594,-0.0032463124953210354,0.05110324174165726
0.5554547905921936,3.5242648124694824,8.944737434387207,0.008866272866725922,0.010192723013460636,0.062116269022226334
0.6129156351089478,3.5242648124694824,9.155426979064941,-0.043650683015584946,0.0028623400721699,0.04623377323150635
0.49799394607543945,3.5434184074401855,9.155426979064941,-0.021624628454446793,0.024836035445332527,0.03401646763086319
0.47884035110473633,3.6104562282562256,9.126696586608887,0.006457718089222908,0.02117084339261055,0.033999014645814896
0.49799394607543945,3.6296098232269287,9.117119789123535,0.023544492200016975,0.012636183761060238,0.021799162030220032
0.4596867263317108,3.5434184074401855,9.040505409240723,0.013805554248392582,0.02972295694053173,0.003455751808360219
-0.09576806426048279,3.8786067962646484,7.5848307609558105,0.42793726921081543,-0.22191861271858215,-0.03316125646233559
0.8427590131759644,3.6296098232269287,8.33182144165039,-0.441917359828949,-0.10218902677297592,0.14397220313549042
0.7565677165985107,3.5721490383148193,9.050082206726074,-0.6716026663780212,0.035849060863256454,0.016912240535020828
0.2968810200691223,3.3710360527038574,9.749189376831055,-0.3966958820819855,0.012618730776011944,-0.022165682166814804
0.09576806426048279,3.485957622528076,8.848969459533691,0.21779963374137878,0.08347909897565842,0.016912240535020828
0.047884032130241394,3.428496837615967,8.801085472106934,0.060213860124349594,0.11035716533660889,0.03522074595093727
0.028730420395731926,3.399766445159912,8.9064302444458,-0.06562437862157822,0.12257447093725204,0.06089453771710396
0.038307227194309235,3.3423056602478027,9.050082206726074,-0.116919606924057,0.11768755316734314,0.07798130810260773
0.09576806426048279,3.3231520652770996,9.08838939666748,-0.09737192094326019,0.0993615910410881,0.09510298818349838
0.14365209639072418,3.361459255218506,9.08838939666748,-0.05218534544110298,0.08227481693029404,0.10121164470911026
0.19153612852096558,3.3423056602478027,9.040505409240723,-0.017959438264369965,0.060266219079494476,0.09754645079374313
0.28730419278144836,3.428496837615967,9.078812599182129,0.0052534411661326885,0.022392574697732925,0.12074187397956848
0.38307225704193115,3.4955344200134277,9.069235801696777,0.006440265104174614,0.033405601978302,0.11709413677453995
0.38307225704193115,3.5434184074401855,9.050082206726074,-0.008185594342648983,0.04682718217372894,0.10119418799877167
0.40222588181495667,3.5625722408294678,9.050082206726074,-0.03263765573501587,0.05417501926422119,0.09021607041358948
0.4118026793003082,3.5625722408294678,9.078812599182129,-0.05581562966108322,0.05537929758429527,0.07798130810260773
0.3734954595565796,3.5242648124694824,9.078812599182129,-0.06560692936182022,0.07126179337501526,0.06820746511220932
0.3064578175544739,3.4189200401306152,9.078812599182129,-0.066828653216362,0.07981390506029129,0.062116269022226334
0.40222588181495667,3.026270866394043,9.107542991638184,0.0846659243106842,-0.42352160811424255,-0.04539601504802704
0.2585737705230713,3.00711727142334,9.701305389404297,0.04188790172338486,-0.1742885857820511,-0.02094395086169243
0.20111294090747833,3.514688014984131,9.490615844726562,-0.09374163299798965,0.3058514893054962,0.09510298818349838
0.19153612852096558,3.600879430770874,9.433155059814453,-0.15847589075565338,0.20200440287590027,0.10609856247901917
0.3734954595565796,3.5051112174987793,9.442731857299805,-0.06930702179670334,0.021188296377658844,0.10976375639438629
0.4213795065879822,3.3901896476745605,9.165003776550293,0.06506587564945221,0.05539675056934357,0.07066838443279266
0.23942017555236816,3.4093432426452637,8.762778282165527,0.15425220131874084,0.09693558514118195,0.02790781483054161
0.2298433631658554,3.5051112174987793,8.609549522399902,0.14695672690868378,0.057822756469249725,0.032794736325740814
0.3256114423274994,3.5242648124694824,8.638279914855957,0.06752678751945496,0.008970992639660835,0.030351275578141212
0.2106897532939911,3.4763808250427246,8.848969459533691,-0.03995058685541153,-0.020350538194179535,-0.0062831854447722435
0.13407529890537262,3.2561142444610596,9.433155059814453,-0.14013248682022095,-0.05211552977561951,-0.0026179938577115536
0.24899697303771973,3.2561142444610596,9.47146224975586,-0.08881980180740356,-0.035011306405067444,0.023003440350294113
0.2968810200691223,3.3231520652770996,9.327810287475586,-0.009424777701497078,0.008970992639660835,0.035238198935985565
0.2777273952960968,3.3518824577331543,9.136273384094238,0.06752678751945496,0.027296949177980423,0.032794736325740814
0.23942017555236816,3.3710360527038574,8.983044624328613,0.056531213223934174,0.029740409925580025,0.03157300502061844
0.23942017555236816,3.4189200401306152,8.935160636901855,0.013735741376876831,0.02485348843038082,0.03890338912606239
0.2585737705230713,3.4380736351013184,8.973467826843262,-0.024085544049739838,0.010192723013460636,0.041346848011016846
0.33518823981285095,3.3901896476745605,9.21288776397705,-0.01918116770684719,-0.024015730246901512,0.01202531810849905
0.2585737705230713,3.4572272300720215,9.069235801696777,0.022340213879942894,0.051714107394218445,0.020577432587742805
0.28730419278144836,3.4189200401306152,8.772355079650879,0.024783674627542496,0.04438372328877449,0.01935570128262043
0.31603461503982544,2.911349296569824,9.730035781860352,0.006440265104174614,-0.09485864639282227,-0.028274333104491234
0.2106897532939911,3.5625722408294678,9.567230224609375,-0.14625859260559082,0.38035959005355835,0.03645992651581764
0.09576806426048279,3.6583402156829834,9.47146224975586,-0.19390608370304108,0.275308221578598,0.024242622777819633
0.363918662071228,3.19865345954895,9.2033109664917,0.07367035001516342,-0.0472286082804203,-0.006300638429820538
0.08619125932455063,3.265691041946411,8.743624687194824,0.16894787549972534,0.09813986718654633,-0.03073524869978428
0.09576806426048279,3.466804027557373,8.571242332458496,0.15184363722801208,0.11035716533660889,-0.007504915818572044
0.24899697303771973,3.5242648124694824,8.810662269592285,0.05777039751410484,-0.01424188632518053,0.01080358773469925
0.2585737705230713,3.428496837615967,9.08838939666748,-0.07169812172651291,-0.035011306405067444,-0.022183135151863098
0.09576806426048279,3.3039982318878174,9.232041358947754,-0.09002408385276794,-0.015463616698980331,-0.034400440752506256
0.08619125932455063,3.2848446369171143,9.299078941345215,-0.05951572582125664,0.0016231562476605177,-0.0062831854447722435
0.26815059781074524,3.3710360527038574,9.308655738830566,0.00890117883682251,-0.0032463124953210354,0.026686083525419235
0.3447650372982025,3.4763808250427246,9.174580574035645,0.06995279341936111,0.005305801052600145,0.023020893335342407
0.31603461503982544,3.485957622528076,8.983044624328613,0.08827875554561615,0.017523106187582016,-0.0026179938577115536
0.23942017555236816,3.4572272300720215,9.040505409240723,-0.05464625731110573,0.004084070213139057,0.008360126987099648
0.22026655077934265,3.44765043258667,9.097966194152832,-0.024085544049739838,-0.019111355766654015,-0.007504915818572044
0.14365209639072418,3.4189200401306152,9.136273384094238,0.006440265104174614,-0.019111355766654015,-0.02338741160929203
0.10534487664699554,3.3710360527038574,9.174580574035645,0.005201081279665232,-0.01788962446153164,-0.007504915818572044
0.12449848651885986,3.332728862762451,9.193734169006348,-0.010646508075296879,0.004084070213139057,0.01202531810849905
0.08619125932455063,3.3423056602478027,9.184157371520996,0.0015533430268988013,0.02241002768278122,0.018133969977498055
0.06703764945268631,3.246537446975708,9.423578262329102,0.040631264448165894,0.06272713094949722,0.0486772321164608
-0.009576806798577309,3.1699230670928955,9.528923034667969,0.06630505621433258,0.2056695967912674,0.08166395872831345
0.15322890877723694,3.9264907836914062,8.169015884399414,0.09438740462064743,0.3156253397464752,0.13297663629055023
0.6320692300796509,3.6104562282562256,8.312667846679688,0.1811477243900299,-0.38440877199172974,0.056007616221904755
0.5841852426528931,3.380612850189209,8.71489429473877,0.11883946508169174,-0.37463492155075073,0.0034732052590698004
-0.07661445438861847,3.064578056335449,9.730035781860352,-0.22076669335365295,0.14700908958911896,0.060877084732055664
0.1149216815829277,3.3039982318878174,10.103530883789062,0.1457175314426422,0.6772401332855225,0.4066442549228668
0.363918662071228,4.3191399574279785,8.283937454223633,0.49267154932022095,0.6772575378417969,0.346779465675354
0.5746083855628967,4.501099109649658,7.642292022705078,0.5159193277359009,0.3974638283252716,0.2111673802137375
0.7661445140838623,4.501099109649658,7.326257228851318,0.40718531608581543,0.11646582186222076,0.062116269022226334
0.8523358106613159,4.434061527252197,7.441178798675537,0.1921258419752121,-0.07164576649665833,-0.08203047513961792
0.8906430602073669,4.347870349884033,7.785943984985352,-0.07415904104709625,-0.18772761523723602,-0.21519909799098969
0.5937620401382446,4.079719543457031,8.552088737487793,-0.45291292667388916,-0.3404439091682434,-0.4680972993373871
-0.047884032130241394,3.0837318897247314,9.77791976928711,-0.236719012260437,-0.46380379796028137,-0.491310179233551
-0.06703764945268631,3.0358476638793945,9.758766174316406,-0.11571533232927322,-0.35875242948532104,-0.44366270303726196
-0.28730419278144836,3.0358476638793945,9.586383819580078,-0.048520151525735855,-0.22680553793907166,-0.41434115171432495
-0.5171475410461426,3.0166940689086914,9.404424667358398,-0.03508111834526062,-0.10707595199346542,-0.3715806007385254
-0.5937620401382446,2.959233283996582,9.337387084960938,-0.06075491011142731,-0.0630936548113823,-0.32759830355644226
-0.6512228846549988,2.873042106628418,9.366117477416992,-0.09981537610292435,-0.07532840967178345,-0.2652900516986847
-0.6607996821403503,2.786850690841675,9.375694274902344,-0.11573278158903122,-0.0374373123049736,-0.19687314331531525
-0.6129156351089478,2.786850690841675,9.375694274902344,-0.09862855821847916,-0.009337511844933033,-0.13456489145755768
-0.2298433631658554,2.9688100814819336,9.107542991638184,0.028448866680264473,0.024836035445332527,0.021781709045171738
-0.07661445438861847,3.112462282180786,9.059659004211426,0.019914206117391586,0.015062191523611546,0.060877084732055664
0.13407529890537262,3.3423056602478027,9.059659004211426,-0.0020943949930369854,0.010192723013460636,0.08166395872831345
0.19153612852096558,3.466804027557373,9.069235801696777,-0.016755159944295883,0.018744835630059242,0.07189010828733444
0.2106897532939911,3.552995204925537,9.097966194152832,-0.025307273492217064,0.026075219735503197,0.04623377323150635
0.10534487664699554,3.5625722408294678,9.14585018157959,-0.0362853966653347,0.024836035445332527,0.01202531810849905
0.038307227194309235,3.485957622528076,9.21288776397705,-0.05218534544110298,0.02241002768278122,-0.018500490114092827
-0.038307227194309235,3.361459255218506,9.260771751403809,-0.07169812172651291,0.024836035445332527,-0.04173082113265991
-0.12449848651885986,3.3423056602478027,9.768342971801758,-0.08026769012212753,0.049270644783973694,-0.055169858038425446
-0.17238251864910126,3.064578056335449,9.509769439697266,0.3033207654953003,-0.17671458423137665,-0.11501719802618027
-0.3256114423274994,2.959233283996582,8.89685344696045,0.4841717779636383,-0.1083151325583458,-0.07105235010385513
-0.28730419278144836,3.1699230670928955,8.561665534973145,0.3020990490913391,0.06761405616998672,0.023020893335342407
-0.08619125932455063,3.093308687210083,9.768342971801758,-0.5152211785316467,0.0639488622546196,0.015690509229898453
-0.06703764945268631,2.9688100814819336,9.768342971801758,0.07607889920473099,-0.15961036086082458,-0.005061454605311155
-0.31603461503982544,3.294421434402466,8.772355079650879,0.23368212580680847,-0.08019787818193436,0.09632471948862076
-0.23942017555236816,3.361459255218506,8.791508674621582,0.1408306211233139,-0.1693841964006424,0.09754645079374313
-0.028730420395731926,3.3901896476745605,8.89685344696045,0.11274827271699905,-0.20116664469242096,0.08775515109300613
0.0,3.361459255218506,8.973467826843262,0.0956265926361084,-0.2597922682762146,0.0743335708975792
0.05746084079146385,3.4093432426452637,9.155426979064941,0.1359436959028244,-0.34897857904434204,0.10365510731935501
0.3926490843296051,3.380612850189209,9.08838939666748,0.25445154309272766,-0.4161737561225891,0.10487683117389679
0.47884035110473633,3.361459255218506,8.887276649475098,0.28007298707962036,-0.33798301219940186,0.08166395872831345
0.5363011956214905,3.4763808250427246,8.78193187713623,0.22879521548748016,-0.2402445673942566,0.08532914519309998
0.6320692300796509,3.581725835800171,8.772355079650879,0.13224360346794128,-0.1644972860813141,0.10243337601423264
0.6512228846549988,3.6966474056243896,8.954314231872559,0.021118484437465668,-0.09976302087306976,0.11831586807966232
0.7661445140838623,3.734954595565796,9.107542991638184,-0.061941735446453094,-0.05700245499610901,0.12564624845981598
0.7565677165985107,3.8307228088378906,9.289502143859863,-0.0253421813249588,-0.10707595199346542,0.1146506816148758
0.8906430602073669,3.7924153804779053,9.251194953918457,0.04064871743321419,-0.05576327070593834,0.08532914519309998
0.7757213711738586,3.7828385829925537,9.050082206726074,0.0650833249092102,0.04317944496870041,0.05234242230653763
0.727837324142456,3.7924153804779053,8.925583839416504,0.04796164855360985,0.07494443655014038,0.05112069472670555
0.727837324142456,3.7636849880218506,8.9064302444458,0.011327186599373817,0.060266219079494476,0.03401646763086319
0.6416460275650024,3.648763418197632,8.96389102935791,-0.02410299703478813,0.044401176273822784,0.013247049413621426
0.6416460275650024,3.466804027557373,9.21288776397705,-0.04729842394590378,0.06270968168973923,0.008360126987099648
1.139639973640442,3.581725835800171,9.96945571899414,0.047996554523706436,0.24230405688285828,0.02422516979277134
0.871489405632019,3.44765043258667,8.370129585266113,0.6002012491226196,0.4377983808517456,0.05722934752702713
-0.05746084079146385,3.869029998779297,7.65186882019043,0.694239616394043,-0.06065019220113754,-0.13578662276268005
0.181959331035614,3.88818359375,7.728483200073242,0.2568950057029724,-0.1950405389070511,-0.06981316953897476
0.8140285611152649,3.734954595565796,9.21288776397705,-0.8047713041305542,0.03462733328342438,0.01935570128262043
0.5937620401382446,3.6966474056243896,9.701305389404297,-0.6300638318061829,0.004066617228090763,-0.027052603662014008
0.6991068720817566,3.6774938106536865,9.768342971801758,-0.26598817110061646,0.013857914134860039,-0.013613567687571049
0.5841852426528931,3.687070608139038,9.500192642211914,-0.07785914093255997,0.02485348843038082,-0.030717793852090836
0.08619125932455063,3.5625722408294678,8.676587104797363,0.07361798733472824,0.027296949177980423,-0.09546951204538345
0.0,3.160346269607544,9.241618156433105,-0.09740682691335678,0.061505403369665146,-0.07470009475946426
0.047884032130241394,3.093308687210083,9.241618156433105,-0.019216075539588928,-0.0007853981805965304,-0.02094395086169243
0.2298433631658554,3.179499864578247,9.02135181427002,0.04921828582882881,0.016283921897411346,0.02546435408294201
0.28730419278144836,3.3518824577331543,8.877699851989746,0.03942698612809181,0.05417501926422119,0.04012512043118477
0.33518823981285095,3.485957622528076,8.992621421813965,-0.04485496133565903,-0.002007128670811653,0.03157300502061844
0.3734954595565796,3.485957622528076,9.136273384094238,-0.07541567832231522,-0.01788962446153164,0.02546435408294201
0.5841852426528931,3.7828385829925537,8.916007041931152,-0.006981316953897476,-0.005672320257872343,0.004694935865700245
0.13407529890537262,3.19865345954895,8.935160636901855,0.2177821844816208,-0.08264134079217911,-0.03316125646233559
0.2298433631658554,3.687070608139038,9.232041358947754,-0.3796091079711914,0.20689132809638977,0.041346848011016846
0.22026655077934265,3.4572272300720215,9.643844604492188,-0.39303070306777954,0.007731808349490166,0.0046774824149906635
0.2585737705230713,3.294421434402466,9.66299819946289,-0.3038618266582489,-0.042324233800172806,0.002251474652439356
0.26815059781074524,3.1507694721221924,9.433155059814453,-0.04731587693095207,-0.009337511844933033,0.01080358773469925
0.28730419278144836,3.2848446369171143,9.030928611755371,0.1616000384092331,0.08960520476102829,0.020577432587742805
0.24899697303771973,3.399766445159912,8.686163902282715,0.24099506437778473,0.07738789916038513,0.005916666239500046
0.3064578175544739,3.44765043258667,8.619126319885254,0.16891296207904816,0.0028623400721699,0.024242622777819633
0.3926490843296051,3.428496837615967,8.772355079650879,0.018657568842172623,-0.023998277261853218,0.029129544273018837
0.3256114423274994,3.3710360527038574,8.96389102935791,-0.1120501384139061,-0.0008028514566831291,0.004694935865700245
0.3256114423274994,3.3518824577331543,9.241618156433105,-0.16584119200706482,0.0016406094655394554,-0.0013962633674964309
0.363918662071228,3.3518824577331543,9.337387084960938,-0.13039354979991913,-0.03132865950465202,0.004694935865700245
0.4405331015586853,3.3901896476745605,9.461885452270508,-0.04855506122112274,-0.0374373123049736,0.002251474652439356
0.45010992884635925,3.399766445159912,9.41400146484375,0.021101031452417374,-0.0007853981805965304,-0.013613567687571049
0.28730419278144836,3.3423056602478027,9.155426979064941,0.03335324302315712,0.05293583497405052,-0.028291787952184677
0.24899697303771973,3.294421434402466,9.011775016784668,-0.0008726646192371845,0.07127925008535385,-0.01727875880897045
0.17238251864910126,3.294421434402466,8.935160636901855,-0.03145083412528038,0.07005751878023148,-0.0038397242315113544
0.23942017555236816,3.332728862762451,9.165003776550293,-0.03876376152038574,0.04562290757894516,0.007138396613299847
0.4596867263317108,3.4763808250427246,9.567230224609375,-0.21589723229408264,-0.030106930062174797,-0.04904375225305557
0.4118026793003082,3.3901896476745605,9.490615844726562,-0.07297221571207047,0.008970992639660835,-0.057595863938331604
0.35434186458587646,3.4189200401306152,9.232041358947754,0.0650833249092102,0.04195771366357803,-0.06614797562360764
0.2777273952960968,3.4189200401306152,8.916007041931152,0.12002629041671753,0.017523106187582016,-0.0783652812242508
0.2585737705230713,3.428496837615967,8.9064302444458,0.04672246426343918,0.01507964450865984,-0.0881391242146492
0.20111294090747833,3.313575267791748,8.9064302444458,-0.06686356663703918,0.08716174215078354,-0.10035642981529236
0.009576806798577309,3.179499864578247,9.318233489990234,-0.05708971992135048,0.027296949177980423,-0.08691739290952682
0.06703764945268631,3.1890766620635986,9.35654067993164,0.034522611647844315,-0.027663469314575195,-0.06614797562360764
0.0,3.179499864578247,9.097966194152832,0.014992378652095795,0.05050982907414436,-0.06248278543353081
0.0,3.160346269607544,9.059659004211426,-0.020437804982066154,0.04195771366357803,-0.0527089424431324
0.019153613597154617,3.227383852005005,9.117119789123535,-0.035063665360212326,0.018727382645010948,-0.04783947393298149
-0.19153612852096558,2.853888511657715,9.040505409240723,0.1969953179359436,-0.3196570575237274,-0.14800392091274261
-0.038307227194309235,3.026270866394043,9.241618156433105,0.20069541037082672,-0.14494960010051727,-0.014835298992693424
0.009576806798577309,3.380612850189209,9.155426979064941,-0.025324726477265358,0.14702653884887695,0.05478588491678238
-0.08619125932455063,3.313575267791748,9.318233489990234,-0.27576202154159546,0.21177825331687927,0.001029744278639555
-0.14365209639072418,3.093308687210083,9.509769439697266,-0.35274848341941833,0.038292523473501205,-0.008726646192371845
-0.05746084079146385,3.0166940689086914,9.586383819580078,-0.136502206325531,-0.0325503908097744,0.009581857360899448
-0.038307227194309235,2.978386878967285,9.35654067993164,0.13959142565727234,-0.04354596510529518,0.007138396613299847
-0.10534487664699554,3.093308687210083,9.02135181427002,0.2935469150543213,-0.009337511844933033,0.01935570128262043
-0.1149216815829277,3.19865345954895,8.801085472106934,0.2666688561439514,-0.005672320257872343,0.05845107510685921
-0.019153613597154617,3.2369606494903564,8.801085472106934,0.11393509060144424,-0.02888519875705242,0.0792204961180687
-0.009576806798577309,3.179499864578247,8.96389102935791,-0.04853760451078415,-0.008115780539810658,0.07189010828733444
-0.047884032130241394,3.1507694721221924,9.155426979064941,-0.12550662457942963,-0.008115780539810658,0.062116269022226334
-0.05746084079146385,3.112462282180786,9.241618156433105,-0.07784168422222137,-0.054541539400815964,0.07066838443279266
0.0,3.093308687210083,9.289502143859863,0.03207915276288986,-0.08508480340242386,0.0841074138879776
0.05746084079146385,3.1220390796661377,9.184157371520996,0.11393509060144424,-0.07653268426656723,0.08777260780334473
0.038307227194309235,3.19865345954895,9.14585018157959,0.08831366151571274,-0.025237461552023888,0.09388125687837601
0.15322890877723694,3.246537446975708,9.184157371520996,0.023527037352323532,-0.04965461790561676,0.11342895030975342
0.3064578175544739,3.3039982318878174,9.155426979064941,0.00518362782895565,-0.03988077491521835,0.12198106199502945
0.35434186458587646,3.332728862762451,9.078812599182129,0.039392080157995224,-0.02888519875705242,0.10243337601423264
0.38307225704193115,3.3710360527038574,9.002198219299316,0.07117452472448349,-0.03499384969472885,0.07189010828733444
0.4596867263317108,3.4093432426452637,8.944737434387207,0.07361798733472824,-0.0679805725812912,0.05967280641198158
0.9002198576927185,3.600879430770874,9.107542991638184,0.010105456225574017,-0.06431538611650467,0.03645992651581764
0.8427590131759644,3.620033025741577,9.193734169006348,-0.019216075539588928,-0.033772122114896774,-0.008726646192371845
0.7852981686592102,3.648763418197632,9.308655738830566,-0.05222025141119957,-0.005672320257872343,-0.030717793852090836
0.6607996821403503,3.6104562282562256,9.308655738830566,-0.06318091601133347,0.044401176273822784,-0.08080874383449554
0.363918662071228,3.466804027557373,9.2033109664917,-0.048520151525735855,0.07127925008535385,-0.1186823919415474
0.22026655077934265,3.4093432426452637,9.14585018157959,-0.03511602431535721,0.06761405616998672,-0.12479104101657867
0.181959331035614,3.4093432426452637,9.136273384094238,-0.030194196850061417,0.05539675056934357,-0.1186823919415474
0.06703764945268631,3.2848446369171143,9.107542991638184,-0.031433381140232086,0.04806636646389961,-0.13089969754219055
-0.038307227194309235,3.1220390796661377,9.107542991638184,-0.03876376152038574,0.04806636646389961,-0.1431169956922531
-0.2106897532939911,2.9496564865112305,9.155426979064941,-0.06684610992670059,0.059061940759420395,-0.09546951204538345
-0.19153612852096558,2.920926094055176,9.155426979064941,-0.07297221571207047,0.07005751878023148,-0.05881759524345398
-0.19153612852096558,2.940079689025879,9.155426979064941,-0.07419394701719284,0.08227481693029404,-0.024609142914414406
-0.028730420395731926,3.0166940689086914,9.174580574035645,-0.07421139627695084,0.073722705245018,0.015690509229898453
0.0,3.064578056335449,9.174580574035645,-0.058276545256376266,0.0639314129948616,0.029129544273018837
0.0,3.064578056335449,9.136273384094238,-0.03754203021526337,0.05050982907414436,0.02546435408294201
0.038307227194309235,3.112462282180786,9.117119789123535,-0.035098571330308914,0.04195771366357803,0.03645992651581764
0.1149216815829277,3.179499864578247,9.126696586608887,-0.050963614135980606,0.06761405616998672,0.05234242230653763
0.2298433631658554,3.313575267791748,9.107542991638184,-0.08885471522808075,0.09815731644630432,0.04256857931613922
0.1149216815829277,3.2178070545196533,8.96389102935791,-0.12917181849479675,0.18123498558998108,0.002251474652439356
0.0,3.2561142444610596,9.02135181427002,-0.17805849015712738,0.17390461266040802,-0.00017453292093705386
0.009576806798577309,3.2848446369171143,9.279925346374512,-0.15971508622169495,0.032183870673179626,0.009581857360899448
0.15322890877723694,3.227383852005005,9.41400146484375,-0.06319837272167206,-0.05576327070593834,-0.009948376566171646
0.07661445438861847,3.19865345954895,9.394847869873047,-0.04366813600063324,0.026075219735503197,-0.04660028964281082
-0.20111294090747833,3.1316158771514893,9.35654067993164,-0.029024824500083923,0.01630137488245964,-0.08447393774986267
-0.20111294090747833,2.9305028915405273,9.2033109664917,0.02839650772511959,-0.003228859044611454,-0.025830872356891632
-0.181959331035614,2.920926094055176,9.155426979064941,0.046705011278390884,0.001658062799833715,-0.009948376566171646
-0.23942017555236816,2.873042106628418,9.097966194152832,0.0553094856441021,-0.01912880875170231,-0.016057029366493225
0.08619125932455063,3.160346269607544,9.260771751403809,0.07847000658512115,-0.15104079246520996,0.06578145921230316
0.07661445438861847,3.1699230670928955,9.251194953918457,0.11641345918178558,-0.13519319891929626,0.05112069472670555
0.13407529890537262,3.160346269607544,9.21288776397705,0.1212480217218399,-0.12662363052368164,0.056007616221904755
0.15322890877723694,3.2082302570343018,9.184157371520996,0.09803514182567596,-0.09363691508769989,0.06822492182254791
0.19153612852096558,3.2752678394317627,9.21288776397705,0.05407030135393143,-0.048432886600494385,0.08044222742319107
0.2298433631658554,3.3231520652770996,9.222464561462402,0.022287854924798012,-0.03499384969472885,0.08777260780334473
0.2968810200691223,3.313575267791748,9.184157371520996,0.02839650772511959,-0.021554816514253616,0.08288568258285522
0.2968810200691223,3.2561142444610596,9.02135181427002,0.04305727407336235,-0.008115780539810658,0.06822492182254791
0.2968810200691223,3.246537446975708,9.002198219299316,0.03087487444281578,-0.026459190994501114,0.06822492182254791
0.26815059781074524,3.2369606494903564,9.050082206726074,0.012531463988125324,-0.030106930062174797,0.062116269022226334
0.28730419278144836,3.246537446975708,9.14585018157959,-0.0021293016616255045,-0.03988077491521835,0.05845107510685921
0.31603461503982544,3.3039982318878174,9.222464561462402,-0.0008901178953237832,-0.04476769641041756,0.06822492182254791
0.35434186458587646,3.3423056602478027,9.251194953918457,0.002722713630646467,-0.023980824276804924,0.06333799660205841
0.3256114423274994,3.2848446369171143,9.241618156433105,0.002775073517113924,-0.008115780539810658,0.049898963421583176
0.3064578175544739,3.2848446369171143,9.241618156433105,-0.003351032268255949,-0.0007853981805965304,0.053564153611660004
0.7469909191131592,3.2369606494903564,9.739612579345703,0.027209682390093803,0.07860963046550751,0.04623377323150635
0.7757213711738586,3.428496837615967,8.628703117370605,-0.08518952131271362,-0.22558380663394928,0.06455972790718079
0.4596867263317108,3.332728862762451,9.557653427124023,-0.3503050208091736,0.044401176273822784,-0.05637413635849953
0.1628057211637497,3.227383852005005,9.749189376831055,-0.08272860944271088,-0.011780972592532635,-0.04049163684248924
0.15322890877723694,3.227383852005005,9.59596061706543,0.16404350101947784,-0.056984998285770416,-0.013613567687571049
0.05746084079146385,3.227383852005005,9.279925346374512,0.2666688561439514,0.008970992639660835,-0.0038397242315113544
-0.019153613597154617,3.227383852005005,8.96389102935791,0.2275560200214386,0.05173156037926674,0.008360126987099648
-0.019153613597154617,3.227383852005005,8.916007041931152,0.17746508121490479,0.059061940759420395,0.01935570128262043
0.0,3.227383852005005,9.117119789123535,0.06993534415960312,0.04684463515877724,0.047455500811338425
0.038307227194309235,3.2178070545196533,9.327810287475586,0.03940953314304352,0.010192723013460636,0.07799876481294632
0.14365209639072418,3.246537446975708,9.327810287475586,0.11149163544178009,0.018744835630059242,0.10121164470911026
0.12449848651885986,3.2178070545196533,9.155426979064941,0.19821704924106598,0.03951425477862358,0.10487683117389679
0.23942017555236816,3.2848446369171143,8.916007041931152,0.22144737839698792,0.05417501926422119,0.12808971107006073
0.3256114423274994,3.4380736351013184,8.944737434387207,0.17132152616977692,0.011431906372308731,0.1794023960828781
0.33518823981285095,3.428496837615967,8.96389102935791,0.1469218134880066,0.027296949177980423,0.16229817271232605
0.20111294090747833,3.485957622528076,8.954314231872559,0.12491321563720703,0.08349654823541641,0.14641566574573517
0.35434186458587646,3.6104562282562256,8.916007041931152,0.1005135104060173,0.08716174215078354,0.18428932130336761
0.5841852426528931,3.821146011352539,8.935160636901855,0.06628760695457458,0.08105309307575226,0.21727603673934937
0.5363011956214905,3.8977603912353516,8.925583839416504,0.04675737023353577,-0.06431538611650467,0.04256857931613922
