accX,accY,accZ,gyroX,gyroY,gyroZ
-0.2587239444255829,0.5676971673965454,9.87547779083252,-0.00022906772210262716,-7.635590736754239e-05,-0.00022906772210262716
-0.27308088541030884,0.5653043389320374,9.870692253112793,0.00038177953683771193,0.0005344913806766272,-0.00022906772210262716
-0.2706880569458008,0.5653043389320374,9.87547779083252,-0.00022906772210262716,-7.635590736754239e-05,-0.00022906772210262716
-0.2802593410015106,0.5581258535385132,9.877870559692383,0.00038177953683771193,0.0005344913806766272,0.00038177953683771193
-0.2754737138748169,0.5748756527900696,9.880263328552246,-0.00022906772210262716,-7.635590736754239e-05,0.00038177953683771193
-0.27786654233932495,0.5653043389320374,9.85394287109375,-0.00022906772210262716,-0.000687203137204051,0.00038177953683771193
-0.2754737138748169,0.5605186820030212,9.873085021972656,-0.00022906772210262716,0.0005344913806766272,-0.00022906772210262716
-0.2754737138748169,0.5629115104675293,9.897313117980957,0.0010689827613532543,-7.635590736754239e-05,-0.00022906772210262716
-0.27786654233932495,0.5748756527900696,9.870692253112793,-0.0008399150101467967,0.0005344913806766272,-0.00022906772210262716
-0.2802593410015106,0.5676971673965454,9.892526626586914,-0.00022906772210262716,-7.635590736754239e-05,-0.00022906772210262716
-0.2682952284812927,0.5581258535385132,9.863513946533203,0.00038177953683771193,-7.635590736754239e-05,-0.0008399150101467967
-0.26590242981910706,0.5724828243255615,9.877870559692383,-0.00022906772210262716,0.0005344913806766272,0.00038177953683771193
-0.45523449778556824,0.6370890140533447,9.961918830871582,-0.03565821051597595,-0.09353598952293396,0.0028251686599105597
-0.30179476737976074,0.5676971673965454,10.02413272857666,0.0426829531788826,0.10376767814159393,-0.004504998680204153
-0.13908281922340393,0.5054838061332703,9.83719253540039,-0.002061609411612153,0.0023670331574976444,0.00038177953683771193
-0.25393831729888916,0.5605186820030212,9.858728408813477,-0.004581354558467865,-0.006184828467667103,-0.00022906772210262716
-0.2994019389152527,0.5988038778305054,9.904491424560547,0.004123218823224306,0.007253811229020357,-0.00022906772210262716
-0.11276176571846008,0.5030909776687622,9.772586822509766,0.0022906772792339325,0.0035887276753783226,-0.00022906772210262716
-0.28983065485954285,0.5724828243255615,9.894919395446777,0.00038177953683771193,0.0017561858985573053,0.00038177953683771193
-0.26590242981910706,0.5796613097190857,9.86829948425293,-0.00022906772210262716,-7.635590736754239e-05,0.00038177953683771193
-0.2706880569458008,0.5653043389320374,9.892526626586914,0.00038177953683771193,-0.000687203137204051,-0.00022906772210262716
-0.2682952284812927,0.5533402562141418,9.865906715393066,0.00038177953683771193,-7.635590736754239e-05,-0.00022906772210262716
-0.27786654233932495,0.5533402562141418,9.86829948425293,-0.00022906772210262716,-7.635590736754239e-05,-0.0008399150101467967
-0.2682952284812927,0.5581258535385132,9.89013385772705,0.00038177953683771193,-7.635590736754239e-05,-0.00022906772210262716
-0.2754737138748169,0.5557330846786499,9.870692253112793,-0.00022906772210262716,0.0005344913806766272,-0.00022906772210262716
-0.263509601354599,0.5748756527900696,9.87547779083252,-0.00022906772210262716,-7.635590736754239e-05,-0.00022906772210262716
-0.27308088541030884,0.5748756527900696,9.880263328552246,0.00038177953683771193,0.0005344913806766272,-0.00022906772210262716
-0.2802593410015106,0.5653043389320374,9.89970588684082,-0.0008399150101467967,-7.635590736754239e-05,-0.00022906772210262716
-0.2682952284812927,0.5748756527900696,9.863513946533203,0.00038177953683771193,-7.635590736754239e-05,0.00038177953683771193
-0.27308088541030884,0.5653043389320374,9.885348320007324,-0.0008399150101467967,-7.635590736754239e-05,0.00038177953683771193
-0.263509601354599,0.5748756527900696,9.870692253112793,-0.00022906772210262716,0.0005344913806766272,-0.00022906772210262716
-0.49351966381073,0.6370890140533447,10.03848934173584,-0.04428642615675926,-0.10575293004512787,0.004046862944960594
-0.04336991161108017,0.4743770956993103,9.602696418762207,-0.09093988686800003,-0.2969481348991394,0.004657710436731577
-0.07208377867937088,0.41216370463371277,11.10628604888916,0.17500774562358856,0.51914381980896,-0.012446013279259205
0.16002000868320465,0.35443684458732605,9.885348320007324,-0.12194038182497025,-0.23769593238830566,0.008933641016483307
-0.02183450572192669,0.44327038526535034,9.834799766540527,0.0364217683672905,0.07444700598716736,-0.0032833039294928312
-0.25633111596107483,0.5246263742446899,9.801301002502441,-0.011377030052244663,-0.020845163613557816,0.0016034740256145597
-0.3448655605316162,0.5676971673965454,9.849157333374023,0.004123218823224306,0.00786465872079134,-0.00022906772210262716
-0.27786654233932495,0.5748756527900696,9.8300142288208,0.0029015245381742716,0.007253811229020357,-0.00022906772210262716
-0.2587239444255829,0.5748756527900696,9.916455268859863,-0.002061609411612153,-0.0031305921729654074,-0.00022906772210262716
-0.2682952284812927,0.5748756527900696,9.880263328552246,-0.0008399150101467967,0.0005344913806766272,-0.00022906772210262716
-0.2682952284812927,0.5629115104675293,9.887741088867188,-0.00022906772210262716,0.0005344913806766272,0.00038177953683771193
-0.2706880569458008,0.5629115104675293,9.877870559692383,0.00038177953683771193,0.0005344913806766272,-0.00022906772210262716
-0.26590242981910706,0.5653043389320374,9.87547779083252,-0.00022906772210262716,-0.000687203137204051,-0.00022906772210262716
-0.26590242981910706,0.5676971673965454,9.86112117767334,-0.00022906772210262716,-7.635590736754239e-05,-0.00022906772210262716
-0.27308088541030884,0.5724828243255615,9.863513946533203,-0.00022906772210262716,-7.635590736754239e-05,-0.0008399150101467967
-0.2802593410015106,0.5748756527900696,9.873085021972656,0.00038177953683771193,-7.635590736754239e-05,-0.00022906772210262716
-0.26590242981910706,0.5700899958610535,9.87547779083252,-0.00022906772210262716,0.0005344913806766272,-0.00022906772210262716
-0.2802593410015106,0.5533402562141418,9.887741088867188,-0.00022906772210262716,-7.635590736754239e-05,0.00038177953683771193
-0.26590242981910706,0.5653043389320374,9.882657051086426,-0.00022906772210262716,0.0005344913806766272,0.00038177953683771193
-0.2706880569458008,0.5772684812545776,9.870692253112793,0.00038177953683771193,-0.000687203137204051,-0.00022906772210262716
-0.2826521694660187,0.5629115104675293,9.880263328552246,0.00038177953683771193,-7.635590736754239e-05,-0.00022906772210262716
-0.26590242981910706,0.5676971673965454,9.880263328552246,-0.00022906772210262716,-7.635590736754239e-05,-0.00022906772210262716
-0.27308088541030884,0.5581258535385132,9.882657051086426,-0.00022906772210262716,-0.000687203137204051,0.00038177953683771193
-0.2706880569458008,0.5700899958610535,9.865906715393066,-0.00022906772210262716,-7.635590736754239e-05,0.00038177953683771193
-0.2826521694660187,0.5700899958610535,9.870692253112793,-0.00022906772210262716,0.0005344913806766272,-0.00022906772210262716
-0.26111677289009094,0.5605186820030212,9.87547779083252,-0.00022906772210262716,0.0005344913806766272,-0.0008399150101467967
-0.2682952284812927,0.5485545992851257,9.882657051086426,-0.0008399150101467967,-0.000687203137204051,-0.00022906772210262716
-0.263509601354599,0.5605186820030212,9.887741088867188,0.00038177953683771193,-7.635590736754239e-05,-0.00022906772210262716
-0.26111677289009094,0.5748756527900696,9.877870559692383,-0.00022906772210262716,-7.635590736754239e-05,-0.00022906772210262716
-0.27308088541030884,0.5653043389320374,9.882657051086426,-0.00022906772210262716,-7.635590736754239e-05,-0.00022906772210262716
-0.2826521694660187,0.5724828243255615,9.873085021972656,-0.00022906772210262716,-0.000687203137204051,-0.00022906772210262716
-0.27308088541030884,0.5653043389320374,9.877870559692383,0.00038177953683771193,-7.635590736754239e-05,-0.00022906772210262716
-0.27786654233932495,0.5605186820030212,9.885348320007324,-0.00022906772210262716,-7.635590736754239e-05,-0.00022906772210262716
-0.28504499793052673,0.5653043389320374,9.873085021972656,-0.00022906772210262716,0.0005344913806766272,-0.00022906772210262716
-0.2682952284812927,0.5700899958610535,9.89013385772705,-0.00022906772210262716,0.0005344913806766272,-0.00022906772210262716
-0.2682952284812927,0.5653043389320374,9.870692253112793,-0.00022906772210262716,-0.000687203137204051,0.00038177953683771193
-0.27308088541030884,0.5533402562141418,9.87547779083252,-0.00022906772210262716,-0.000687203137204051,-0.00022906772210262716
-0.26111677289009094,0.5676971673965454,9.897313117980957,-0.00022906772210262716,0.0005344913806766272,-0.00022906772210262716
-0.2682952284812927,0.5700899958610535,9.880263328552246,-0.0008399150101467967,-0.000687203137204051,-0.00022906772210262716
-0.2754737138748169,0.5653043389320374,9.880263328552246,0.00038177953683771193,-7.635590736754239e-05,-0.00022906772210262716
-0.26590242981910706,0.5676971673965454,9.882657051086426,-0.00022906772210262716,-0.000687203137204051,-0.00022906772210262716
-0.25633111596107483,0.5629115104675293,9.87547779083252,0.0010689827613532543,-0.000687203137204051,0.00038177953683771193
-0.2874378263950348,0.5557330846786499,9.87547779083252,-0.00022906772210262716,-0.000687203137204051,0.00038177953683771193
-0.2706880569458008,0.5676971673965454,9.870692253112793,-0.0008399150101467967,-7.635590736754239e-05,-0.00022906772210262716
-0.2826521694660187,0.5653043389320374,9.873085021972656,0.00038177953683771193,-7.635590736754239e-05,0.00038177953683771193
-0.2802593410015106,0.5653043389320374,9.887741088867188,-0.0008399150101467967,-7.635590736754239e-05,-0.00022906772210262716
-0.2706880569458008,0.5676971673965454,9.882657051086426,-0.00022906772210262716,-0.000687203137204051,-0.00022906772210262716
-0.27786654233932495,0.5605186820030212,9.870692253112793,-0.00022906772210262716,-7.635590736754239e-05,-0.00022906772210262716
-0.2754737138748169,0.5748756527900696,9.877870559692383,-0.00022906772210262716,-0.000687203137204051,0.00038177953683771193
-0.27786654233932495,0.5581258535385132,9.877870559692383,-0.00022906772210262716,-0.000687203137204051,-0.00022906772210262716
-0.2754737138748169,0.5605186820030212,9.86112117767334,0.00038177953683771193,-7.635590736754239e-05,-0.00022906772210262716
-0.27308088541030884,0.5700899958610535,9.882657051086426,0.00038177953683771193,-7.635590736754239e-05,-0.00022906772210262716
-0.2706880569458008,0.5605186820030212,9.87547779083252,-0.00022906772210262716,-7.635590736754239e-05,-0.00022906772210262716
-0.27308088541030884,0.5653043389320374,9.877870559692383,-0.00022906772210262716,0.0005344913806766272,0.00038177953683771193
-0.2706880569458008,0.5605186820030212,9.86829948425293,-0.00022906772210262716,-0.000687203137204051,-0.00022906772210262716
-0.27308088541030884,0.5724828243255615,9.87547779083252,0.00038177953683771193,0.0005344913806766272,0.00038177953683771193
-0.27786654233932495,0.5700899958610535,9.86829948425293,-0.00022906772210262716,0.0005344913806766272,0.00038177953683771193
-0.2826521694660187,0.5796613097190857,9.865906715393066,-0.0008399150101467967,-7.635590736754239e-05,-0.00022906772210262716
-0.263509601354599,0.5605186820030212,9.877870559692383,-0.00022906772210262716,0.0005344913806766272,-0.00022906772210262716
-0.2754737138748169,0.5748756527900696,9.873085021972656,-0.00022906772210262716,-7.635590736754239e-05,0.00038177953683771193
-0.2706880569458008,0.5605186820030212,9.87547779083252,-0.00022906772210262716,-0.000687203137204051,-0.00022906772210262716
-0.2874378263950348,0.5629115104675293,9.87547779083252,-0.00022906772210262716,-7.635590736754239e-05,-0.00022906772210262716
-0.26111677289009094,0.5533402562141418,9.87547779083252,0.00038177953683771193,-0.000687203137204051,-0.0008399150101467967
-0.2802593410015106,0.5653043389320374,9.882657051086426,-0.00022906772210262716,-0.000687203137204051,-0.00022906772210262716
-0.2706880569458008,0.5676971673965454,9.897313117980957,-0.00022906772210262716,0.0005344913806766272,-0.00022906772210262716
-0.27308088541030884,0.5724828243255615,9.873085021972656,0.00038177953683771193,-7.635590736754239e-05,-0.00022906772210262716
-0.2754737138748169,0.5557330846786499,9.885348320007324,-0.00022906772210262716,0.0005344913806766272,-0.00022906772210262716
-0.246759831905365,0.5868397355079651,9.85394287109375,-0.00022906772210262716,-0.0019088976550847292,-0.00022906772210262716
-0.28983065485954285,0.5676971673965454,9.87547779083252,-0.0008399150101467967,-7.635590736754239e-05,-0.00022906772210262716
-0.263509601354599,0.5700899958610535,9.885348320007324,-0.00022906772210262716,-7.635590736754239e-05,0.00038177953683771193
-0.27308088541030884,0.5676971673965454,9.870692253112793,0.00038177953683771193,-7.635590736754239e-05,-0.00022906772210262716
-0.2802593410015106,0.5700899958610535,9.87547779083252,-0.0008399150101467967,0.0005344913806766272,-0.00022906772210262716
-0.2682952284812927,0.5653043389320374,9.87547779083252,0.00038177953683771193,-7.635590736754239e-05,-0.0008399150101467967
-0.26590242981910706,0.5796613097190857,9.87547779083252,0.00038177953683771193,-7.635590736754239e-05,0.00038177953683771193
-0.27786654233932495,0.5653043389320374,9.882657051086426,0.0010689827613532543,-7.635590736754239e-05,-0.00022906772210262716
-0.2706880569458008,0.5676971673965454,9.870692253112793,-0.00022906772210262716,0.0005344913806766272,0.00038177953683771193
-0.2754737138748169,0.5605186820030212,9.885348320007324,-0.00022906772210262716,-7.635590736754239e-05,-0.00022906772210262716
-0.27308088541030884,0.5676971673965454,9.882657051086426,0.00038177953683771193,0.0005344913806766272,-0.00022906772210262716
-0.2706880569458008,0.5700899958610535,9.877870559692383,0.00038177953683771193,-7.635590736754239e-05,0.00038177953683771193
-0.26590242981910706,0.5533402562141418,9.865906715393066,-0.00022906772210262716,0.0005344913806766272,-0.00022906772210262716
-0.2706880569458008,0.5700899958610535,9.887741088867188,0.0004581354442052543,0.0004581354442052543,-0.0007635590736754239
-0.263509601354599,0.5653043389320374,9.877870559692383,-0.0007635590736754239,-7.635590736754239e-05,0.0004581354442052543
-0.27308088541030884,0.5605186820030212,9.870692253112793,-0.00015271181473508477,-7.635590736754239e-05,-0.00015271181473508477
-0.2706880569458008,0.5581258535385132,9.885348320007324,-0.00015271181473508477,-7.635590736754239e-05,-0.00015271181473508477
-0.30658039450645447,0.5700899958610535,9.856335639953613,-0.004504998680204153,-0.017180079594254494,0.0004581354442052543
-0.263509601354599,0.5700899958610535,9.89970588684082,-0.014431266114115715,-0.03855973482131958,0.0016798300202935934
-0.3161516785621643,0.5772684812545776,9.87547779083252,0.014813045971095562,0.03779617324471474,-0.001374406274408102
-0.2874378263950348,0.5700899958610535,9.885348320007324,0.004810422193259001,0.012751436792314053,-0.0007635590736754239
-0.25633111596107483,0.5557330846786499,9.85394287109375,-0.001985253533348441,-0.0030542362947016954,-0.00015271181473508477
-0.2108674943447113,0.5940182209014893,9.841979026794434,-0.001374406274408102,-0.0030542362947016954,-0.00015271181473508477
-0.3089732229709625,0.584446907043457,9.89013385772705,0.0005344913806766272,0.000687203137204051,0.0004581354442052543
-0.2754737138748169,0.5796613097190857,9.87547779083252,-7.635590736754239e-05,0.000687203137204051,0.0004581354442052543
-0.26111677289009094,0.5629115104675293,9.877870559692383,0.0005344913806766272,0.0007635590736754239,0.0004581354442052543
-0.26590242981910706,0.5772684812545776,9.887741088867188,-0.000687203137204051,0.00015271181473508477,-0.00015271181473508477
-0.2826521694660187,0.5676971673965454,9.86112117767334,-7.635590736754239e-05,0.00015271181473508477,0.0004581354442052543
-0.28983065485954285,0.5653043389320374,9.89013385772705,0.0006108472589403391,0.0007635590736754239,-0.00015271181473508477
-0.2682952284812927,0.5653043389320374,9.863513946533203,-0.000687203137204051,0.0007635590736754239,-0.00015271181473508477
-0.27308088541030884,0.5653043389320374,9.86829948425293,-7.635590736754239e-05,-0.0006108472589403391,-0.00015271181473508477
-0.28504499793052673,0.5748756527900696,9.89013385772705,0.0005344913806766272,-0.0,0.0004581354442052543
-0.27786654233932495,0.5676971673965454,9.870692253112793,-0.000687203137204051,-7.635590736754239e-05,-0.00015271181473508477
-0.27308088541030884,0.5700899958610535,9.877870559692383,-7.635590736754239e-05,-0.000687203137204051,0.0004581354442052543
-0.2706880569458008,0.5724828243255615,9.882657051086426,-7.635590736754239e-05,0.0004581354442052543,-0.00022906772210262716
-0.27308088541030884,0.5724828243255615,9.873085021972656,-7.635590736754239e-05,-0.00015271181473508477,0.00038177953683771193
-0.27786654233932495,0.5629115104675293,9.865906715393066,-7.635590736754239e-05,-0.00015271181473508477,-0.00022906772210262716
-0.2802593410015106,0.5605186820030212,9.894919395446777,-7.635590736754239e-05,0.00038177953683771193,-0.00022906772210262716
-0.2682952284812927,0.5748756527900696,9.89970588684082,0.0005344913806766272,-0.00022906772210262716,0.00038177953683771193
-0.26590242981910706,0.5700899958610535,9.887741088867188,-0.00015271181473508477,-0.00022906772210262716,0.00038177953683771193
-0.26590242981910706,0.5605186820030212,9.885348320007324,-0.00015271181473508477,-0.00022906772210262716,-0.00022906772210262716
-0.263509601354599,0.5724828243255615,9.87547779083252,-0.0007635590736754239,-0.00022906772210262716,-0.00022906772210262716
-0.2706880569458008,0.5724828243255615,9.885348320007324,-0.00015271181473508477,0.00038177953683771193,-0.00022906772210262716
-0.28983065485954285,0.5581258535385132,9.877870559692383,0.0004581354442052543,-0.00022906772210262716,0.00038177953683771193
-0.2587239444255829,0.5653043389320374,9.880263328552246,-0.00015271181473508477,-0.00022906772210262716,0.00038177953683771193
-0.263509601354599,0.5700899958610535,9.882657051086426,0.0004581354442052543,-0.00015271181473508477,-0.00022906772210262716
-0.27786654233932495,0.5605186820030212,9.882657051086426,-0.00015271181473508477,0.0004581354442052543,-0.00022906772210262716
-0.2587239444255829,0.5629115104675293,9.89013385772705,0.0004581354442052543,-0.00015271181473508477,0.00038177953683771193
-0.27786654233932495,0.5581258535385132,9.880263328552246,-0.00015271181473508477,-0.00015271181473508477,-0.00022906772210262716
-0.2682952284812927,0.5700899958610535,9.892526626586914,-0.00015271181473508477,-0.0007635590736754239,-0.00022906772210262716
-0.2682952284812927,0.5676971673965454,9.897313117980957,-0.00015271181473508477,0.0004581354442052543,-0.00022906772210262716
-0.263509601354599,0.5676971673965454,9.86112117767334,-0.00015271181473508477,0.0004581354442052543,0.00038177953683771193
-0.2706880569458008,0.5676971673965454,9.87547779083252,-0.00015271181473508477,0.0004581354442052543,-0.00022906772210262716
-0.2754737138748169,0.5700899958610535,9.877870559692383,-0.00015271181473508477,-0.00015271181473508477,-0.00022906772210262716
-0.2754737138748169,0.5700899958610535,9.877870559692383,0.0004581354442052543,-7.635590736754239e-05,-0.00022906772210262716
-0.263509601354599,0.5605186820030212,9.887741088867188,-0.00015271181473508477,0.0011453386396169662,0.0009926267666742206
-0.27308088541030884,0.5700899958610535,9.877870559692383,-0.00015271181473508477,0.0005344913806766272,-0.00015271181473508477
-0.27786654233932495,0.5724828243255615,9.882657051086426,-0.00015271181473508477,0.0011453386396169662,-0.00015271181473508477
-0.2802593410015106,0.5724828243255615,9.882657051086426,-0.00015271181473508477,-0.000687203137204051,0.0004581354442052543
-0.2802593410015106,0.5605186820030212,9.880263328552246,-0.00015271181473508477,-0.000687203137204051,-0.00015271181473508477
-0.25633111596107483,0.582054078578949,9.880263328552246,0.0010689827613532543,-7.635590736754239e-05,-0.0007635590736754239
-0.26590242981910706,0.5629115104675293,9.885348320007324,-0.00015271181473508477,-7.635590736754239e-05,-0.00015271181473508477
-0.27786654233932495,0.5629115104675293,9.865906715393066,-0.00022906772210262716,-7.635590736754239e-05,0.0004581354442052543
-0.2802593410015106,0.5700899958610535,9.885348320007324,-0.00022906772210262716,-7.635590736754239e-05,-0.0007635590736754239
-0.2706880569458008,0.5605186820030212,9.870692253112793,0.0004581354442052543,-7.635590736754239e-05,-0.00015271181473508477
-0.27308088541030884,0.5676971673965454,9.887741088867188,-0.00022906772210262716,-7.635590736754239e-05,-0.00015271181473508477
-0.19651055335998535,0.527019202709198,9.806086540222168,0.033978380262851715,0.059175826609134674,-0.00259610079228878
-0.2682952284812927,0.5605186820030212,9.990633010864258,-0.01885990984737873,-0.03367295488715172,0.0016798300202935934
-0.27786654233932495,0.5748756527900696,9.810872077941895,-0.02076880633831024,-0.03558185324072838,0.0010689827613532543
-0.28504499793052673,0.5796613097190857,9.880263328552246,0.0009926267666742206,0.0022906772792339325,0.0004581354442052543
-0.2994019389152527,0.5653043389320374,9.902098655700684,-0.00022906772210262716,-0.001985253533348441,-0.00015271181473508477
-0.16779668629169464,0.5174478888511658,9.844371795654297,-0.0015271181473508477,-0.0032069480512291193,0.0004581354442052543
-0.2754737138748169,0.5772684812545776,9.904491424560547,-0.00022906772210262716,-0.0007635590736754239,-0.00015271181473508477
-0.25633111596107483,0.5557330846786499,9.873085021972656,-0.00022906772210262716,-0.0007635590736754239,-0.00015271181473508477
-0.2682952284812927,0.5629115104675293,9.892526626586914,-0.00022906772210262716,-0.00015271181473508477,-0.00015271181473508477
-0.2802593410015106,0.5724828243255615,9.880263328552246,0.00038177953683771193,-0.00015271181473508477,-0.00015271181473508477
-0.26590242981910706,0.5533402562141418,9.887741088867188,-0.00022906772210262716,0.0004581354442052543,-0.00015271181473508477
-0.26590242981910706,0.5700899958610535,9.882657051086426,0.00038177953683771193,-0.0007635590736754239,-0.0007635590736754239
-0.2754737138748169,0.5676971673965454,9.887741088867188,-0.00022906772210262716,-0.00015271181473508477,-0.00015271181473508477
-0.27786654233932495,0.5653043389320374,9.877870559692383,-0.00022906772210262716,-0.0007635590736754239,-0.00015271181473508477
-0.2682952284812927,0.5629115104675293,9.870692253112793,0.00038177953683771193,-0.00015271181473508477,-0.00015271181473508477
-0.28504499793052673,0.5509474277496338,9.89013385772705,0.00038177953683771193,-0.00015271181473508477,-0.00015271181473508477
-0.263509601354599,0.5653043389320374,9.897313117980957,-0.00022906772210262716,-0.00015271181473508477,-0.00015271181473508477
-0.2682952284812927,0.5605186820030212,9.877870559692383,-0.00022906772210262716,-0.00015271181473508477,-0.00015271181473508477
-0.27308088541030884,0.5605186820030212,9.870692253112793,-0.00022906772210262716,-0.00015271181473508477,-0.00015271181473508477
-0.27308088541030884,0.5629115104675293,9.897313117980957,0.0009926267666742206,-0.00015271181473508477,-0.00015271181473508477
-0.2754737138748169,0.5581258535385132,9.865906715393066,-0.00022906772210262716,-0.00015271181473508477,-0.00015271181473508477
-0.2826521694660187,0.5653043389320374,9.89013385772705,0.00038177953683771193,-0.001374406274408102,-0.00015271181473508477
-0.26590242981910706,0.5700899958610535,9.880263328552246,-0.01763821393251419,-0.04230117425322533,0.0016798300202935934
-0.1989033818244934,0.5629115104675293,9.892526626586914,-0.010842538438737392,-0.025808297097682953,0.0016798300202935934
-0.2802593410015106,0.5724828243255615,9.894919395446777,0.012827792204916477,0.03161134570837021,-0.001374406274408102
-0.2754737138748169,0.5676971673965454,9.892526626586914,0.012827792204916477,0.029778804630041122,-0.001374406274408102
-0.23240290582180023,0.5533402562141418,9.877870559692383,-0.002748812548816204,-0.0038177953101694584,0.0004581354442052543
-0.26590242981910706,0.5653043389320374,9.90688419342041,0.00038177953683771193,0.0010689827613532543,-0.00015271181473508477
-0.373878538608551,0.6107679605484009,9.937990188598633,0.0009926267666742206,0.0016798300202935934,-0.00015271181473508477
-0.24197418987751007,0.5437689423561096,9.86829948425293,0.0009926267666742206,0.0010689827613532543,-0.00015271181473508477
-0.2682952284812927,0.5653043389320374,9.86112117767334,-0.00022906772210262716,0.0004581354442052543,-0.00015271181473508477
-0.27786654233932495,0.5653043389320374,9.89013385772705,0.00038177953683771193,0.0004581354442052543,-0.00015271181473508477
-0.2682952284812927,0.5629115104675293,9.887741088867188,0.00038177953683771193,0.0004581354442052543,0.0004581354442052543
-0.263509601354599,0.5748756527900696,9.858728408813477,-0.00022906772210262716,-0.00015271181473508477,0.0004581354442052543
-0.2802593410015106,0.5629115104675293,9.89013385772705,-0.00022906772210262716,0.0004581354442052543,-0.00015271181473508477
-0.2706880569458008,0.5700899958610535,9.89013385772705,0.00038177953683771193,-0.00015271181473508477,-0.00015271181473508477
-0.263509601354599,0.5605186820030212,9.882657051086426,-0.0008399150101467967,0.0004581354442052543,-0.00015271181473508477
-0.2754737138748169,0.5629115104675293,9.873085021972656,-0.0008399150101467967,-0.00015271181473508477,-0.00015271181473508477
-0.2706880569458008,0.5724828243255615,9.870692253112793,-0.00022906772210262716,0.0004581354442052543,0.0004581354442052543
-0.2706880569458008,0.5653043389320374,9.882657051086426,0.00038177953683771193,-0.0007635590736754239,-0.00015271181473508477
-0.2754737138748169,0.5676971673965454,9.89013385772705,0.00038177953683771193,-0.00015271181473508477,0.0004581354442052543
-0.2706880569458008,0.5676971673965454,9.870692253112793,-0.00022906772210262716,0.0004581354442052543,-0.00015271181473508477
-0.2826521694660187,0.5653043389320374,9.880263328552246,-0.00022906772210262716,-0.00015271181473508477,0.0004581354442052543
-0.2682952284812927,0.5700899958610535,9.89970588684082,0.00038177953683771193,-0.00015271181473508477,0.0004581354442052543
-0.2706880569458008,0.5581258535385132,9.882657051086426,-0.00022906772210262716,0.0004581354442052543,-0.00015271181473508477
-0.2802593410015106,0.5700899958610535,9.87547779083252,0.00038177953683771193,-0.00015271181473508477,-0.00015271181473508477
-0.263509601354599,0.5676971673965454,9.885348320007324,0.00038177953683771193,0.0004581354442052543,-0.00015271181473508477
-0.27786654233932495,0.5700899958610535,9.887741088867188,-0.00022906772210262716,-0.00015271181473508477,-0.00015271181473508477
-0.2682952284812927,0.5772684812545776,9.892526626586914,0.00038177953683771193,0.0004581354442052543,-0.00015271181473508477
-0.27308088541030884,0.5629115104675293,9.86829948425293,-0.0008399150101467967,-0.00015271181473508477,0.0004581354442052543
-0.2802593410015106,0.5581258535385132,9.885348320007324,0.00038177953683771193,0.0004581354442052543,-0.00015271181473508477
-0.2682952284812927,0.5772684812545776,9.880263328552246,0.00038177953683771193,-0.00015271181473508477,-0.00015271181473508477
-0.2802593410015106,0.5653043389320374,9.892526626586914,-0.00022906772210262716,0.0004581354442052543,0.0004581354442052543
-0.27308088541030884,0.5605186820030212,9.880263328552246,-0.00022906772210262716,-0.00015271181473508477,-0.00015271181473508477
-0.27308088541030884,0.5700899958610535,9.89013385772705,0.00038177953683771193,-0.00015271181473508477,-0.00015271181473508477
-0.26590242981910706,0.5700899958610535,9.892526626586914,0.00038177953683771193,-0.00015271181473508477,-0.00015271181473508477
-0.2706880569458008,0.5796613097190857,9.892526626586914,0.00038177953683771193,-0.00015271181473508477,0.0004581354442052543
-0.26590242981910706,0.5605186820030212,9.885348320007324,0.00038177953683771193,0.0004581354442052543,0.0004581354442052543
-0.2754737138748169,0.5533402562141418,9.87547779083252,0.00038177953683771193,-0.00015271181473508477,0.0004581354442052543
-0.27308088541030884,0.5653043389320374,9.885348320007324,-0.00022906772210262716,-0.00015271181473508477,0.0004581354442052543
-0.28504499793052673,0.5605186820030212,9.865906715393066,-0.00022906772210262716,0.0004581354442052543,0.0004581354442052543
-0.2802593410015106,0.5605186820030212,9.880263328552246,-0.00022906772210262716,-0.00015271181473508477,-0.00015271181473508477
-0.2706880569458008,0.5748756527900696,9.880263328552246,-0.00022906772210262716,-0.00015271181473508477,-0.00015271181473508477
-0.2706880569458008,0.5605186820030212,9.892526626586914,0.00038177953683771193,-0.00015271181473508477,-0.00015271181473508477
-0.27786654233932495,0.5581258535385132,9.873085021972656,-0.0008399150101467967,-0.00015271181473508477,0.0004581354442052543
-0.25393831729888916,0.5413761138916016,9.741479873657227,0.0065666078589856625,0.005344913341104984,-0.0007635590736754239
-0.2802593410015106,0.5533402562141418,10.009775161743164,-0.008322793990373611,-0.0068720318377017975,0.0004581354442052543
-0.2706880569458008,0.5676971673965454,9.825228691101074,-0.008933641016483307,-0.0038177953101694584,-0.00015271181473508477
-0.2682952284812927,0.5653043389320374,9.942776679992676,0.00038177953683771193,-0.001374406274408102,0.0004581354442052543
-0.1869392693042755,0.49351966381073,9.8300142288208,-0.0015271181473508477,-0.001374406274408102,0.0010689827613532543
-0.2826521694660187,0.5533402562141418,9.892526626586914,-0.00022906772210262716,-0.00015271181473508477,0.0004581354442052543
-0.2706880569458008,0.5724828243255615,9.86829948425293,0.00038177953683771193,-0.00015271181473508477,0.0004581354442052543
-0.28983065485954285,0.5653043389320374,9.89970588684082,0.00038177953683771193,0.0004581354442052543,-0.00015271181473508477
-0.2706880569458008,0.5748756527900696,9.904491424560547,-0.00022906772210262716,-0.00015271181473508477,-0.00015271181473508477
-0.27308088541030884,0.5653043389320374,9.880263328552246,-0.00022906772210262716,0.0004581354442052543,-0.00015271181473508477
-0.2706880569458008,0.5724828243255615,9.897313117980957,-0.00022906772210262716,-0.00015271181473508477,0.0004581354442052543
-0.2682952284812927,0.5533402562141418,9.89013385772705,-0.00022906772210262716,0.0004581354442052543,-0.0007635590736754239
-0.2682952284812927,0.5605186820030212,9.882657051086426,-0.00022906772210262716,-0.00015271181473508477,-0.00015271181473508477
-0.28504499793052673,0.5605186820030212,9.89013385772705,-0.00022906772210262716,-0.00015271181473508477,-0.00015271181473508477
-0.27786654233932495,0.5581258535385132,9.882657051086426,-0.00022906772210262716,-0.00015271181473508477,-0.00015271181473508477
-0.2802593410015106,0.5700899958610535,9.887741088867188,-0.00022906772210262716,-0.00015271181473508477,-0.00015271181473508477
-0.2754737138748169,0.5700899958610535,9.894919395446777,-0.00022906772210262716,-0.00015271181473508477,0.0004581354442052543
-0.27308088541030884,0.5581258535385132,9.887741088867188,-0.0008399150101467967,-0.00015271181473508477,0.0004581354442052543
-0.27308088541030884,0.5605186820030212,9.892526626586914,0.00038177953683771193,-0.0007635590736754239,-0.00015271181473508477
-0.27308088541030884,0.5748756527900696,9.882657051086426,-0.00022906772210262716,0.0004581354442052543,0.0004581354442052543
-0.2706880569458008,0.5629115104675293,9.885348320007324,-0.00022906772210262716,0.0004581354442052543,-0.00015271181473508477
-0.27308088541030884,0.5605186820030212,9.885348320007324,-0.00022906772210262716,0.0004581354442052543,-0.00015271181473508477
-0.2706880569458008,0.5676971673965454,9.892526626586914,-0.00022906772210262716,0.0004581354442052543,0.0004581354442052543
-0.27308088541030884,0.5653043389320374,9.885348320007324,-0.00022906772210262716,0.0004581354442052543,0.0004581354442052543
-0.26111677289009094,0.5676971673965454,9.892526626586914,7.635590736754239e-05,0.0005344913806766272,-0.00015271181473508477
-0.2754737138748169,0.5676971673965454,9.89013385772705,0.000687203137204051,-7.635590736754239e-05,-0.00015271181473508477
-0.2706880569458008,0.5724828243255615,9.870692253112793,7.635590736754239e-05,-7.635590736754239e-05,-0.00015271181473508477
-0.263509601354599,0.5533402562141418,9.87547779083252,0.000687203137204051,-7.635590736754239e-05,0.0004581354442052543
-0.27308088541030884,0.5653043389320374,9.87547779083252,7.635590736754239e-05,-7.635590736754239e-05,-0.00015271181473508477
-0.2754737138748169,0.5557330846786499,9.89013385772705,7.635590736754239e-05,-7.635590736754239e-05,0.0004581354442052543
-0.2706880569458008,0.5700899958610535,9.89970588684082,0.000687203137204051,0.0005344913806766272,-0.00015271181473508477
-0.2706880569458008,0.5605186820030212,9.86829948425293,0.000687203137204051,-0.0007635590736754239,-0.00015271181473508477
-0.28504499793052673,0.5653043389320374,9.870692253112793,0.0,-0.00015271181473508477,-0.00015271181473508477
-0.2706880569458008,0.5533402562141418,9.873085021972656,0.0,-0.00015271181473508477,0.0004581354442052543
-0.26590242981910706,0.5653043389320374,9.887741088867188,0.0,0.0004581354442052543,-0.00015271181473508477
-0.27308088541030884,0.5653043389320374,9.863513946533203,0.0006108472589403391,0.0004581354442052543,-0.00015271181473508477
-0.27308088541030884,0.5605186820030212,9.885348320007324,-0.0,-0.00015271181473508477,-0.00015271181473508477
-0.2874378263950348,0.5676971673965454,9.880263328552246,-0.0,-0.00015271181473508477,-0.0007635590736754239
-0.2682952284812927,0.5605186820030212,9.873085021972656,0.0006108472589403391,-0.00015271181473508477,0.0004581354442052543
-0.2754737138748169,0.5724828243255615,9.89013385772705,-7.635590736754239e-05,-0.0007635590736754239,0.0004581354442052543
-0.263509601354599,0.5581258535385132,9.87547779083252,0.0011453386396169662,-0.00022906772210262716,-0.00015271181473508477
-0.2802593410015106,0.5629115104675293,9.89013385772705,0.0005344913806766272,0.0004581354442052543,0.0004581354442052543
-0.27308088541030884,0.5629115104675293,9.885348320007324,-7.635590736754239e-05,-0.00015271181473508477,-0.0007635590736754239
-0.2706880569458008,0.5700899958610535,9.885348320007324,0.0005344913806766272,0.0004581354442052543,-0.00015271181473508477
-0.2754737138748169,0.5509474277496338,9.89013385772705,-0.0007635590736754239,0.0004581354442052543,-0.00015271181473508477
-0.27308088541030884,0.5581258535385132,9.885348320007324,0.0005344913806766272,-0.001374406274408102,0.0004581354442052543
-0.2754737138748169,0.5629115104675293,9.89013385772705,-0.00015271181473508477,0.0004581354442052543,-0.00015271181473508477
-0.27308088541030884,0.5461617708206177,9.885348320007324,-0.00015271181473508477,-0.00015271181473508477,0.0004581354442052543
-0.2754737138748169,0.5724828243255615,9.882657051086426,-0.00015271181473508477,-0.00015271181473508477,0.0004581354442052543
-0.2682952284812927,0.5653043389320374,9.89013385772705,0.0004581354442052543,0.0004581354442052543,-0.00015271181473508477
-0.2754737138748169,0.5581258535385132,9.89013385772705,0.0004581354442052543,-0.00015271181473508477,-0.00015271181473508477
-0.2682952284812927,0.5533402562141418,9.87547779083252,-0.00015271181473508477,-0.00015271181473508477,-0.00015271181473508477
-0.24915266036987305,0.5772684812545776,9.892526626586914,0.0004581354442052543,-7.635590736754239e-05,0.0004581354442052543
-0.2682952284812927,0.5605186820030212,9.892526626586914,-0.00015271181473508477,0.0005344913806766272,0.0004581354442052543
-0.2754737138748169,0.5676971673965454,9.89013385772705,-0.00015271181473508477,-7.635590736754239e-05,0.0004581354442052543
-0.2682952284812927,0.5557330846786499,9.87547779083252,0.0004581354442052543,-7.635590736754239e-05,-0.00015271181473508477
-0.2754737138748169,0.5581258535385132,9.865906715393066,-0.0008399150101467967,-7.635590736754239e-05,-0.00015271181473508477
-0.27786654233932495,0.5653043389320374,9.877870559692383,-0.00015271181473508477,-7.635590736754239e-05,0.0004581354442052543
-0.263509601354599,0.5557330846786499,9.887741088867188,0.0004581354442052543,-7.635590736754239e-05,0.0004581354442052543
-0.2682952284812927,0.5700899958610535,9.89013385772705,0.0004581354442052543,-7.635590736754239e-05,-0.00015271181473508477
-0.26590242981910706,0.5629115104675293,9.89970588684082,-0.00015271181473508477,-0.0,0.0004581354442052543
-0.2802593410015106,0.5748756527900696,9.87547779083252,-0.00015271181473508477,-0.0,-0.00015271181473508477
-0.2802593410015106,0.5676971673965454,9.89013385772705,0.0004581354442052543,-0.0,0.0010689827613532543
-0.27308088541030884,0.5700899958610535,9.885348320007324,0.0004581354442052543,-0.0006108472589403391,-0.00015271181473508477
-0.2754737138748169,0.5605186820030212,9.885348320007324,0.0004581354442052543,-0.0,0.0004581354442052543
-0.27308088541030884,0.5748756527900696,9.894919395446777,0.0004581354442052543,-0.0,0.0004581354442052543
-0.2682952284812927,0.5724828243255615,9.894919395446777,-0.00015271181473508477,-0.0,0.0004581354442052543
-0.26111677289009094,0.5653043389320374,9.87547779083252,0.0004581354442052543,-0.0,-0.00015271181473508477
-0.2754737138748169,0.5509474277496338,9.87547779083252,0.0004581354442052543,-0.0,0.0004581354442052543
-0.2682952284812927,0.5653043389320374,9.892526626586914,0.0010689827613532543,-0.0006108472589403391,-0.00015271181473508477
-0.2706880569458008,0.5605186820030212,9.892526626586914,0.0004581354442052543,0.0006108472589403391,-0.00022906772210262716
-0.2826521694660187,0.5581258535385132,9.880263328552246,-0.00015271181473508477,0.0006108472589403391,-0.00022906772210262716
-0.28983065485954285,0.5629115104675293,9.880263328552246,-0.00015271181473508477,0.0012216945178806782,0.00038177953683771193
-0.26111677289009094,0.5676971673965454,9.892526626586914,-0.0008399150101467967,0.0,0.00038177953683771193
-0.2706880569458008,0.5509474277496338,9.882657051086426,-0.00022906772210262716,0.0,-0.00022906772210262716
-0.27308088541030884,0.5700899958610535,9.87547779083252,0.00038177953683771193,0.0006108472589403391,0.0009926267666742206
-0.26590242981910706,0.5653043389320374,9.865906715393066,-0.00022906772210262716,0.0006108472589403391,-0.00022906772210262716
-0.27786654233932495,0.5557330846786499,9.882657051086426,0.00038177953683771193,0.0006108472589403391,0.00038177953683771193
-0.2682952284812927,0.5605186820030212,9.892526626586914,0.00038177953683771193,0.0,0.00038177953683771193
-0.2682952284812927,0.5629115104675293,9.894919395446777,-0.00022906772210262716,0.0006108472589403391,-0.00022906772210262716
-0.2706880569458008,0.5629115104675293,9.892526626586914,0.00038177953683771193,-0.0,-0.00022906772210262716
-0.27308088541030884,0.5676971673965454,9.880263328552246,-0.00022906772210262716,-0.0,0.00038177953683771193
-0.2682952284812927,0.5653043389320374,9.880263328552246,-0.00022906772210262716,-0.0,-0.00022906772210262716
-0.2802593410015106,0.5676971673965454,9.904491424560547,0.0009926267666742206,-7.635590736754239e-05,-0.00022906772210262716
-0.28504499793052673,0.5724828243255615,9.897313117980957,0.00038177953683771193,-7.635590736754239e-05,-0.00022906772210262716
-0.27786654233932495,0.5700899958610535,9.880263328552246,-0.00030542362947016954,-7.635590736754239e-05,0.00038177953683771193
-0.2802593410015106,0.5724828243255615,9.873085021972656,-0.00030542362947016954,-7.635590736754239e-05,-0.00022906772210262716
-0.24915266036987305,0.5724828243255615,9.863513946533203,-0.0009162708884105086,-7.635590736754239e-05,0.00038177953683771193
-0.27786654233932495,0.5700899958610535,9.964311599731445,0.0022143214009702206,-0.012980503961443901,0.00038177953683771193
-0.3233301639556885,0.5988038778305054,9.89970588684082,0.007788302376866341,0.025502873584628105,-0.0015271181473508477
-0.2922234535217285,0.5700899958610535,9.911669731140137,0.0022143214009702206,0.008399149402976036,-0.0009162708884105086
-0.22522443532943726,0.5653043389320374,9.856335639953613,-0.005268557462841272,-0.007482878863811493,0.00030542362947016954
-0.28504499793052673,0.5581258535385132,9.865906715393066,0.0009162708884105086,0.0022906772792339325,-0.00030542362947016954
-0.20847466588020325,0.5676971673965454,9.86112117767334,0.0009162708884105086,0.0010689827613532543,0.00030542362947016954
-0.3209373354911804,0.6275177597999573,9.90688419342041,-0.00030542362947016954,0.0004581354442052543,-0.00030542362947016954
-0.263509601354599,0.5581258535385132,9.865906715393066,-0.00030542362947016954,-0.0007635590736754239,-0.00030542362947016954
-0.29700911045074463,0.5676971673965454,9.90688419342041,-0.0009162708884105086,-0.00015271181473508477,-0.00030542362947016954
-0.25633111596107483,0.5605186820030212,9.882657051086426,-0.00030542362947016954,0.0004581354442052543,0.00038177953683771193
-0.26590242981910706,0.5581258535385132,9.882657051086426,0.00030542362947016954,-0.00015271181473508477,0.00038177953683771193
-0.2802593410015106,0.5629115104675293,9.887741088867188,0.00030542362947016954,-0.0007635590736754239,-0.00022906772210262716
-0.27786654233932495,0.5509474277496338,9.880263328552246,-0.00030542362947016954,-0.00015271181473508477,0.00038177953683771193
-0.26590242981910706,0.5557330846786499,9.89013385772705,-0.0009162708884105086,-0.00015271181473508477,-0.00022906772210262716
-0.28504499793052673,0.5653043389320374,9.887741088867188,-0.00022906772210262716,-0.00015271181473508477,-0.00022906772210262716
-0.26111677289009094,0.5724828243255615,9.885348320007324,-0.00022906772210262716,-0.00015271181473508477,0.00038177953683771193
-0.27308088541030884,0.5605186820030212,9.880263328552246,-0.00022906772210262716,-0.00015271181473508477,-0.00022906772210262716
-0.16301104426383972,0.5126622319221497,9.72951602935791,0.017180079594254494,0.030389651656150818,-0.0014507622690871358
-0.26590242981910706,0.5629115104675293,9.865906715393066,-0.0014507622690871358,-0.0032069480512291193,0.00038177953683771193
-0.20368902385234833,0.5796613097190857,9.856335639953613,-0.0014507622690871358,-0.0032069480512291193,0.00038177953683771193
-0.3041875660419464,0.6299105882644653,9.916455268859863,-0.0007635590736754239,-0.00259610079228878,-0.00022906772210262716
-0.27786654233932495,0.5653043389320374,9.89013385772705,-0.00015271181473508477,-0.0007635590736754239,-0.0008399150101467967
-0.2682952284812927,0.5533402562141418,9.880263328552246,-0.00015271181473508477,-0.00015271181473508477,-0.00022906772210262716
-0.27786654233932495,0.5748756527900696,9.897313117980957,-0.00015271181473508477,-0.00015271181473508477,0.00038177953683771193
-0.2802593410015106,0.5892325639724731,9.87547779083252,-0.0007635590736754239,-0.00015271181473508477,0.00038177953683771193
-0.2706880569458008,0.5772684812545776,9.882657051086426,-0.00015271181473508477,0.0004581354442052543,-0.00022906772210262716
-0.2682952284812927,0.5653043389320374,9.882657051086426,-0.0007635590736754239,-0.00015271181473508477,-0.00022906772210262716
-0.26590242981910706,0.5629115104675293,9.897313117980957,-0.00015271181473508477,-0.0007635590736754239,-0.00022906772210262716
-0.2706880569458008,0.5676971673965454,9.870692253112793,-0.0007635590736754239,0.0004581354442052543,0.00038177953683771193
-0.2682952284812927,0.5700899958610535,9.894919395446777,0.0004581354442052543,-0.00015271181473508477,-0.00022906772210262716
-0.263509601354599,0.5653043389320374,9.877870559692383,-0.00015271181473508477,-0.00015271181473508477,0.00038177953683771193
-0.2754737138748169,0.5676971673965454,9.89013385772705,0.0004581354442052543,-0.0007635590736754239,-0.00022906772210262716
-0.2706880569458008,0.5676971673965454,9.885348320007324,0.0004581354442052543,-0.00015271181473508477,-0.00022906772210262716
-0.27786654233932495,0.5557330846786499,9.877870559692383,-0.00015271181473508477,-0.00015271181473508477,-0.00022906772210262716
-0.27308088541030884,0.5676971673965454,9.904491424560547,0.0004581354442052543,-0.00015271181473508477,0.00038177953683771193
-0.2754737138748169,0.5676971673965454,9.897313117980957,0.0004581354442052543,0.0004581354442052543,0.00038177953683771193
-0.2826521694660187,0.5629115104675293,9.880263328552246,-0.00015271181473508477,-0.00015271181473508477,-0.00022906772210262716
-0.2754737138748169,0.5748756527900696,9.880263328552246,-0.00015271181473508477,0.0004581354442052543,0.00038177953683771193
-0.2682952284812927,0.5653043389320374,9.880263328552246,0.0004581354442052543,-0.00015271181473508477,0.00038177953683771193
-0.2682952284812927,0.5629115104675293,9.870692253112793,0.0004581354442052543,0.0004581354442052543,-0.00022906772210262716
-0.26590242981910706,0.5653043389320374,9.880263328552246,-0.00015271181473508477,0.0004581354442052543,0.00038177953683771193
-0.2682952284812927,0.5605186820030212,9.87547779083252,0.0004581354442052543,-0.00015271181473508477,0.00038177953683771193
-0.2706880569458008,0.5653043389320374,9.882657051086426,-0.0007635590736754239,0.0010689827613532543,-0.00022906772210262716
-0.27308088541030884,0.5700899958610535,9.894919395446777,-0.00015271181473508477,0.0004581354442052543,0.00038177953683771193
-0.246759831905365,0.5485545992851257,9.779765129089355,0.010995250195264816,0.01511846948415041,-0.0008399150101467967
-0.31375887989997864,0.5748756527900696,9.973882675170898,-0.008246437646448612,-0.01175880990922451,0.00038177953683771193
-0.27308088541030884,0.5461617708206177,9.796515464782715,-0.0051158457063138485,-0.006261184345930815,0.00038177953683771193
-0.2802593410015106,0.5676971673965454,9.918848037719727,-0.0014507622690871358,-0.0038177953101694584,-0.00022906772210262716
-0.2682952284812927,0.5557330846786499,9.865906715393066,-0.0007635590736754239,-0.001985253533348441,-0.00022906772210262716
-0.4169493317604065,0.6251249313354492,9.973882675170898,-0.00015271181473508477,-0.0007635590736754239,-0.0008399150101467967
-0.27308088541030884,0.5700899958610535,9.90688419342041,0.0004581354442052543,-0.00015271181473508477,-0.00022906772210262716
-0.2587239444255829,0.5557330846786499,9.870692253112793,-0.00015271181473508477,-0.00015271181473508477,-0.00022906772210262716
-0.26590242981910706,0.5676971673965454,9.885348320007324,-0.00015271181473508477,0.0004581354442052543,-0.00022906772210262716
-0.2754737138748169,0.5605186820030212,9.894919395446777,0.0004581354442052543,-0.0007635590736754239,-0.0008399150101467967
-0.26590242981910706,0.5581258535385132,9.873085021972656,-0.0007635590736754239,-0.00015271181473508477,-0.00022906772210262716
-0.2802593410015106,0.5605186820030212,9.887741088867188,-0.0007635590736754239,-0.00015271181473508477,-0.00022906772210262716
-0.2826521694660187,0.5676971673965454,9.89013385772705,-0.00015271181473508477,-0.00015271181473508477,-0.00022906772210262716
-0.26590242981910706,0.5653043389320374,9.87547779083252,0.0004581354442052543,-0.00015271181473508477,-0.00022906772210262716
-0.2682952284812927,0.5605186820030212,9.873085021972656,-0.00015271181473508477,-0.00015271181473508477,-0.00022906772210262716
-0.2706880569458008,0.5533402562141418,9.865906715393066,-0.00015271181473508477,0.0004581354442052543,0.00038177953683771193
-0.2826521694660187,0.5748756527900696,9.885348320007324,-0.00015271181473508477,-0.00015271181473508477,0.00038177953683771193
-0.263509601354599,0.5605186820030212,9.885348320007324,-0.00015271181473508477,0.0004581354442052543,-0.00022906772210262716
-0.2874378263950348,0.5676971673965454,9.87547779083252,0.0004581354442052543,-0.0007635590736754239,0.00038177953683771193
-0.46002015471458435,0.6418746709823608,9.873085021972656,-0.01817270554602146,-0.051463883370161057,0.0009926267666742206
-0.20129621028900146,0.529412031173706,9.806086540222168,0.0029015245381742716,0.01511846948415041,-0.0008399150101467967
-0.25633111596107483,0.5413761138916016,9.882657051086426,-0.0038941511884331703,-0.007482878863811493,-0.00022906772210262716
-0.27308088541030884,0.5772684812545776,9.885348320007324,0.0010689827613532543,0.0022906772792339325,-0.00022906772210262716
-0.3400799036026001,0.5772684812545776,9.90688419342041,0.0022906772792339325,0.0029015245381742716,-0.0008399150101467967
-0.28983065485954285,0.5748756527900696,9.89013385772705,0.0004581354442052543,0.0016798300202935934,-0.00022906772210262716
-0.27308088541030884,0.5629115104675293,9.87547779083252,-0.00015271181473508477,-0.0007635590736754239,-0.00022906772210262716
-0.2706880569458008,0.5700899958610535,9.873085021972656,-0.00015271181473508477,-0.00015271181473508477,-0.00022906772210262716
-0.27786654233932495,0.5629115104675293,9.877870559692383,-0.0007635590736754239,-0.00015271181473508477,-0.00022906772210262716
-0.2802593410015106,0.5748756527900696,9.877870559692383,-0.0007635590736754239,-0.00015271181473508477,-0.00022906772210262716
-0.2802593410015106,0.5700899958610535,9.880263328552246,-0.00015271181473508477,0.0004581354442052543,0.00038177953683771193
-0.2802593410015106,0.5700899958610535,9.885348320007324,-0.00015271181473508477,-0.00015271181473508477,-0.00022906772210262716
-0.27308088541030884,0.5629115104675293,9.86112117767334,-0.0007635590736754239,-0.0007635590736754239,-0.00022906772210262716
-0.27308088541030884,0.582054078578949,9.887741088867188,0.0004581354442052543,0.0004581354442052543,0.00038177953683771193
-0.263509601354599,0.5676971673965454,9.887741088867188,-0.00015271181473508477,-0.00015271181473508477,-0.00022906772210262716
-0.2826521694660187,0.5557330846786499,9.887741088867188,-0.00015271181473508477,-0.00015271181473508477,0.00038177953683771193
-0.27786654233932495,0.5676971673965454,9.863513946533203,0.0004581354442052543,-0.00015271181473508477,-0.00022906772210262716
-0.2754737138748169,0.5676971673965454,9.89970588684082,-0.00015271181473508477,0.0004581354442052543,-0.00022906772210262716
-0.26590242981910706,0.5676971673965454,9.877870559692383,-0.00015271181473508477,0.0010689827613532543,-0.00022906772210262716
-0.263509601354599,0.5700899958610535,9.877870559692383,-0.00015271181473508477,0.0010689827613532543,0.00038177953683771193
-0.27786654233932495,0.5653043389320374,9.873085021972656,-0.0007635590736754239,-0.00015271181473508477,-0.00022906772210262716
-0.2706880569458008,0.5605186820030212,9.87547779083252,-0.00015271181473508477,0.0004581354442052543,0.00038177953683771193
-0.2802593410015106,0.5772684812545776,9.894919395446777,0.0004581354442052543,0.0004581354442052543,0.00038177953683771193
-0.27308088541030884,0.5748756527900696,9.892526626586914,-0.00015271181473508477,0.0004581354442052543,0.00038177953683771193
-0.2706880569458008,0.5700899958610535,9.877870559692383,0.0004581354442052543,0.0010689827613532543,-0.00022906772210262716
-0.26111677289009094,0.5557330846786499,9.892526626586914,-0.0007635590736754239,-0.0007635590736754239,0.00038177953683771193
-0.27308088541030884,0.5581258535385132,9.89013385772705,-0.00015271181473508477,0.0004581354442052543,-0.00022906772210262716
-0.27308088541030884,0.5724828243255615,9.887741088867188,-0.00015271181473508477,0.0004581354442052543,-0.00022906772210262716
-0.28504499793052673,0.5748756527900696,9.870692253112793,-0.00015271181473508477,-0.00015271181473508477,-0.0008399150101467967
-0.2706880569458008,0.5581258535385132,9.873085021972656,0.0004581354442052543,-0.00015271181473508477,-0.00022906772210262716
-0.2754737138748169,0.5605186820030212,9.887741088867188,-0.00015271181473508477,-0.00015271181473508477,0.00038177953683771193
-0.26590242981910706,0.5653043389320374,9.894919395446777,0.0004581354442052543,-0.0007635590736754239,-0.00022906772210262716
-0.2706880569458008,0.5748756527900696,9.892526626586914,-0.0007635590736754239,-0.0007635590736754239,0.00038177953683771193
-0.2682952284812927,0.5581258535385132,9.87547779083252,-0.00015271181473508477,-0.00015271181473508477,-0.00022906772210262716
-0.2874378263950348,0.5605186820030212,9.897313117980957,-0.00015271181473508477,-0.00015271181473508477,-0.00022906772210262716
-0.2754737138748169,0.5605186820030212,9.86829948425293,-0.00015271181473508477,-0.00015271181473508477,0.00038177953683771193
-0.2754737138748169,0.5653043389320374,9.897313117980957,0.0004581354442052543,-0.00015271181473508477,0.0009926267666742206
-0.26590242981910706,0.5581258535385132,9.87547779083252,-0.0007635590736754239,0.0004581354442052543,-0.00022906772210262716
-0.28504499793052673,0.5629115104675293,9.887741088867188,-0.00015271181473508477,-0.0007635590736754239,0.00038177953683771193
-0.2706880569458008,0.5700899958610535,9.877870559692383,-0.0007635590736754239,0.0004581354442052543,-0.00022906772210262716
-0.2754737138748169,0.5629115104675293,9.87547779083252,-0.00015271181473508477,0.0004581354442052543,-0.00022906772210262716
-0.2682952284812927,0.584446907043457,9.885348320007324,0.0004581354442052543,0.0004581354442052543,-0.00022906772210262716
-0.2706880569458008,0.5509474277496338,9.894919395446777,0.0004581354442052543,-0.00015271181473508477,0.00038177953683771193
-0.2706880569458008,0.5653043389320374,9.902098655700684,-0.00015271181473508477,-0.0007635590736754239,-0.00022906772210262716
-0.2706880569458008,0.5700899958610535,9.865906715393066,0.0004581354442052543,-0.0007635590736754239,-0.0008399150101467967
-0.2706880569458008,0.5700899958610535,9.892526626586914,-0.00015271181473508477,-0.00015271181473508477,-0.00022906772210262716
-0.26590242981910706,0.5605186820030212,9.885348320007324,-0.00015271181473508477,-0.00015271181473508477,-0.0008399150101467967
-0.27786654233932495,0.5653043389320374,9.877870559692383,-0.00015271181473508477,-0.0007635590736754239,0.00038177953683771193
-0.27786654233932495,0.5676971673965454,9.877870559692383,-0.0007635590736754239,-0.00015271181473508477,-0.00022906772210262716
-0.28504499793052673,0.5581258535385132,9.877870559692383,-0.00015271181473508477,-0.00015271181473508477,0.00038177953683771193
-0.2682952284812927,0.5629115104675293,9.880263328552246,0.0004581354442052543,-0.00015271181473508477,0.00038177953683771193
-0.2706880569458008,0.5629115104675293,9.89013385772705,-0.00015271181473508477,-0.00015271181473508477,-0.00022906772210262716
-0.2706880569458008,0.584446907043457,9.887741088867188,-0.0007635590736754239,0.0004581354442052543,-0.00022906772210262716
-0.27786654233932495,0.5605186820030212,9.885348320007324,0.0004581354442052543,0.0004581354442052543,-0.00022906772210262716
-0.27786654233932495,0.5653043389320374,9.877870559692383,-0.00015271181473508477,-0.00015271181473508477,0.00038177953683771193
-0.2754737138748169,0.5700899958610535,9.873085021972656,0.0004581354442052543,-0.0007635590736754239,-0.0008399150101467967
-0.2706880569458008,0.5676971673965454,9.882657051086426,-0.00015271181473508477,-0.0007635590736754239,-0.0008399150101467967
-0.2754737138748169,0.5653043389320374,9.882657051086426,-0.00015271181473508477,0.0004581354442052543,-0.00022906772210262716
-0.28504499793052673,0.5772684812545776,9.882657051086426,0.0004581354442052543,-0.00015271181473508477,-0.00022906772210262716
-0.2706880569458008,0.5581258535385132,9.885348320007324,-0.00015271181473508477,-0.00015271181473508477,0.00038177953683771193
-0.2587239444255829,0.5724828243255615,9.90688419342041,-0.0007635590736754239,-0.00015271181473508477,-0.00022906772210262716
-0.2802593410015106,0.5557330846786499,9.87547779083252,-0.0007635590736754239,-0.00015271181473508477,-0.00022906772210262716
-0.27786654233932495,0.5748756527900696,9.870692253112793,-0.00015271181473508477,0.0010689827613532543,0.00038177953683771193
-0.2587239444255829,0.5581258535385132,9.873085021972656,-0.00015271181473508477,0.0004581354442052543,0.00038177953683771193
-0.263509601354599,0.5653043389320374,9.981060981750488,0.0016798300202935934,-0.016034740954637527,0.00038177953683771193
-0.27786654233932495,0.582054078578949,9.92124080657959,0.0029015245381742716,0.01695101149380207,-0.0008399150101467967
-0.28983065485954285,0.582054078578949,9.885348320007324,0.0010689827613532543,0.0065666078589856625,-0.0008399150101467967
-0.2515454888343811,0.5581258535385132,9.86829948425293,-0.0038177953101694584,-0.007330167107284069,0.0005344913806766272
-0.27786654233932495,0.5557330846786499,9.885348320007324,-0.00015271181473508477,0.0,0.0005344913806766272
-0.31375887989997864,0.5796613097190857,9.89013385772705,0.0004581354442052543,0.0012216945178806782,0.0005344913806766272
-0.2754737138748169,0.5605186820030212,9.87547779083252,0.0004581354442052543,0.0006108472589403391,-7.635590736754239e-05
-0.27308088541030884,0.5629115104675293,9.86829948425293,-0.00015271181473508477,-0.0,-7.635590736754239e-05
-0.26111677289009094,0.5748756527900696,9.873085021972656,-0.00015271181473508477,0.0006108472589403391,-7.635590736754239e-05
-0.2682952284812927,0.5629115104675293,9.89013385772705,0.0004581354442052543,-0.0006108472589403391,-7.635590736754239e-05
-0.27308088541030884,0.5676971673965454,9.880263328552246,0.0004581354442052543,-0.0,0.0005344913806766272
-0.2802593410015106,0.5653043389320374,9.89013385772705,-0.00015271181473508477,-7.635590736754239e-05,-7.635590736754239e-05
-0.2706880569458008,0.5700899958610535,9.892526626586914,-0.00015271181473508477,-7.635590736754239e-05,-7.635590736754239e-05
-0.27308088541030884,0.5772684812545776,9.86829948425293,-0.00015271181473508477,-7.635590736754239e-05,-7.635590736754239e-05
-0.26590242981910706,0.5557330846786499,9.887741088867188,0.0004581354442052543,-7.635590736754239e-05,-7.635590736754239e-05
-0.27308088541030884,0.5605186820030212,9.877870559692383,-0.00015271181473508477,-7.635590736754239e-05,0.0005344913806766272
-0.26590242981910706,0.5581258535385132,9.887741088867188,0.0004581354442052543,-7.635590736754239e-05,-7.635590736754239e-05
-0.2706880569458008,0.5605186820030212,9.887741088867188,-0.0007635590736754239,0.0005344913806766272,0.0005344913806766272
-0.2826521694660187,0.5581258535385132,9.863513946533203,-0.00015271181473508477,-7.635590736754239e-05,-7.635590736754239e-05
-0.2754737138748169,0.5724828243255615,9.87547779083252,-0.0007635590736754239,-7.635590736754239e-05,-7.635590736754239e-05
-0.2826521694660187,0.5653043389320374,9.873085021972656,0.0004581354442052543,-7.635590736754239e-05,-0.00015271181473508477
-0.28504499793052673,0.5748756527900696,9.885348320007324,-0.00015271181473508477,-7.635590736754239e-05,0.0004581354442052543
-0.27786654233932495,0.5533402562141418,9.89013385772705,0.0005344913806766272,0.0005344913806766272,-0.00015271181473508477
-0.2754737138748169,0.5629115104675293,9.877870559692383,0.0005344913806766272,-7.635590736754239e-05,-0.00015271181473508477
-0.2826521694660187,0.5676971673965454,9.887741088867188,0.0005344913806766272,-0.000687203137204051,-0.00015271181473508477
-0.2826521694660187,0.5676971673965454,9.894919395446777,0.0005344913806766272,-7.635590736754239e-05,0.0004581354442052543
-0.2802593410015106,0.5509474277496338,9.882657051086426,0.0005344913806766272,0.0005344913806766272,-0.00015271181473508477
-0.2874378263950348,0.5676971673965454,9.882657051086426,-7.635590736754239e-05,-7.635590736754239e-05,0.0004581354442052543
-0.27308088541030884,0.5653043389320374,9.887741088867188,0.0005344913806766272,-7.635590736754239e-05,0.0004581354442052543
-0.2706880569458008,0.5653043389320374,9.873085021972656,-0.00015271181473508477,-7.635590736754239e-05,-0.00015271181473508477
-0.26111677289009094,0.582054078578949,9.87547779083252,-0.00015271181473508477,-7.635590736754239e-05,-0.00015271181473508477
-0.27308088541030884,0.5700899958610535,9.880263328552246,-0.0007635590736754239,0.0005344913806766272,0.0004581354442052543
-0.2754737138748169,0.582054078578949,9.882657051086426,-0.00015271181473508477,-7.635590736754239e-05,-0.00015271181473508477
-0.27308088541030884,0.5629115104675293,9.887741088867188,-0.0007635590736754239,-7.635590736754239e-05,0.0004581354442052543
-0.27308088541030884,0.5653043389320374,9.863513946533203,-0.00015271181473508477,-7.635590736754239e-05,-0.00015271181473508477
-0.2706880569458008,0.5605186820030212,9.897313117980957,0.0004581354442052543,-0.000687203137204051,-0.00015271181473508477
-0.2682952284812927,0.5629115104675293,9.865906715393066,-0.00015271181473508477,-7.635590736754239e-05,-0.00015271181473508477
-0.26590242981910706,0.5605186820030212,9.892526626586914,-0.00015271181473508477,-0.00015271181473508477,-0.00015271181473508477
-0.2874378263950348,0.5676971673965454,9.87547779083252,0.0004581354442052543,0.0004581354442052543,0.0004581354442052543
-0.2802593410015106,0.5581258535385132,9.894919395446777,0.0004581354442052543,-0.00015271181473508477,-0.00015271181473508477
-0.2754737138748169,0.5772684812545776,9.865906715393066,-0.00015271181473508477,-0.0007635590736754239,-0.00015271181473508477
-0.2826521694660187,0.5629115104675293,9.885348320007324,0.0004581354442052543,-0.00015271181473508477,0.0004581354442052543
-0.26590242981910706,0.5748756527900696,9.887741088867188,-0.00015271181473508477,0.0004581354442052543,-0.00015271181473508477
-0.2682952284812927,0.5605186820030212,9.885348320007324,0.0011453386396169662,-0.00015271181473508477,-0.00015271181473508477
-0.2826521694660187,0.5605186820030212,9.885348320007324,-0.00015271181473508477,-0.00015271181473508477,-0.00015271181473508477
-0.26590242981910706,0.5700899958610535,9.856335639953613,-0.00015271181473508477,-0.001374406274408102,0.0004581354442052543
-0.2826521694660187,0.5581258535385132,9.880263328552246,0.0005344913806766272,-0.0007635590736754239,-0.00015271181473508477
-0.27308088541030884,0.5724828243255615,9.880263328552246,0.0005344913806766272,-7.635590736754239e-05,-0.00015271181473508477
-0.2754737138748169,0.5676971673965454,9.873085021972656,0.0005344913806766272,-0.000687203137204051,-0.00015271181473508477
-0.2754737138748169,0.5605186820030212,9.880263328552246,-0.00015271181473508477,-7.635590736754239e-05,0.0004581354442052543
-0.2754737138748169,0.5748756527900696,9.877870559692383,-0.00015271181473508477,-7.635590736754239e-05,0.0004581354442052543
-0.2802593410015106,0.5700899958610535,9.885348320007324,0.0005344913806766272,-7.635590736754239e-05,-0.00015271181473508477
-0.26590242981910706,0.5676971673965454,9.885348320007324,-0.00015271181473508477,-0.000687203137204051,0.0004581354442052543
-0.2706880569458008,0.5605186820030212,9.873085021972656,0.0004581354442052543,-7.635590736754239e-05,-0.00015271181473508477
-0.2826521694660187,0.5724828243255615,9.87547779083252,0.0004581354442052543,-0.0,-0.00015271181473508477
-0.2587239444255829,0.5605186820030212,9.877870559692383,-0.00015271181473508477,-0.0,-0.00015271181473508477
-0.2754737138748169,0.5700899958610535,9.877870559692383,0.0004581354442052543,0.0006108472589403391,-0.00015271181473508477
-0.26590242981910706,0.5700899958610535,9.902098655700684,0.0004581354442052543,-0.004275931045413017,-0.00015271181473508477
-0.27308088541030884,0.5724828243255615,9.89013385772705,-0.0014507622690871358,0.0006108472589403391,0.0004581354442052543
-0.26590242981910706,0.5700899958610535,9.877870559692383,-0.0008399150101467967,0.0018325417768210173,0.0004581354442052543
-0.28983065485954285,0.5676971673965454,9.87547779083252,-0.0008399150101467967,-0.0005344913806766272,-0.00015271181473508477
-0.2826521694660187,0.5676971673965454,9.880263328552246,0.00038177953683771193,7.635590736754239e-05,-0.00015271181473508477
-0.27308088541030884,0.5676971673965454,9.870692253112793,0.00038177953683771193,0.000687203137204051,0.0004581354442052543
-0.2754737138748169,0.5772684812545776,9.882657051086426,0.00038177953683771193,0.000687203137204051,0.0004581354442052543
-0.27308088541030884,0.5724828243255615,9.887741088867188,-0.00022906772210262716,7.635590736754239e-05,-0.00015271181473508477
-0.2874378263950348,0.5605186820030212,9.885348320007324,-0.00022906772210262716,7.635590736754239e-05,-0.00015271181473508477
-0.2587239444255829,0.5676971673965454,9.858728408813477,-0.0008399150101467967,7.635590736754239e-05,-0.00015271181473508477
-0.28504499793052673,0.5700899958610535,9.880263328552246,0.00038177953683771193,-0.0011453386396169662,-0.00022906772210262716
-0.27308088541030884,0.5700899958610535,9.880263328552246,-0.00022906772210262716,0.000687203137204051,-0.00022906772210262716
-0.2802593410015106,0.5724828243255615,9.873085021972656,-0.0008399150101467967,-0.0005344913806766272,-0.00022906772210262716
-0.28504499793052673,0.5676971673965454,9.87547779083252,-0.00022906772210262716,-0.0005344913806766272,-0.00022906772210262716
-0.263509601354599,0.5605186820030212,9.885348320007324,0.00038177953683771193,7.635590736754239e-05,-0.0008399150101467967
-0.25393831729888916,0.5605186820030212,9.87547779083252,-0.00022906772210262716,0.000687203137204051,0.00038177953683771193
-0.373878538608551,0.5988038778305054,9.92841911315918,-0.03497100621461868,-0.08727480471134186,0.0034360159188508987
-0.055334024131298065,0.47916272282600403,9.851550102233887,0.008475505746901035,0.025121092796325684,-0.0008399150101467967
-0.2228316068649292,0.5413761138916016,9.825228691101074,0.00916270911693573,0.02764083817601204,-0.0015271181473508477
-0.24197418987751007,0.5509474277496338,9.858728408813477,-0.00015271181473508477,-0.0004581354442052543,-0.00030542362947016954
-0.2826521694660187,0.5461617708206177,9.909276962280273,-0.00015271181473508477,-0.0022906772792339325,0.00030542362947016954
-0.18933209776878357,0.5054838061332703,9.8300142288208,-0.00015271181473508477,0.00015271181473508477,-0.00030542362947016954
-0.24436701834201813,0.5557330846786499,9.880263328552246,0.0004581354442052543,0.001374406274408102,-0.00030542362947016954
-0.27308088541030884,0.5629115104675293,9.863513946533203,0.0004581354442052543,0.0007635590736754239,-0.00030542362947016954
-0.263509601354599,0.5676971673965454,9.885348320007324,-0.00015271181473508477,0.0007635590736754239,-0.00030542362947016954
-0.27786654233932495,0.5629115104675293,9.89013385772705,-0.00015271181473508477,0.0007635590736754239,0.00030542362947016954
-0.2754737138748169,0.5533402562141418,9.894919395446777,0.0004581354442052543,0.001374406274408102,-0.00030542362947016954
-0.27308088541030884,0.5533402562141418,9.885348320007324,-0.00015271181473508477,0.0007635590736754239,-0.00030542362947016954
-0.2682952284812927,0.5557330846786499,9.897313117980957,-0.00015271181473508477,0.0007635590736754239,0.00030542362947016954
-0.28504499793052673,0.5772684812545776,9.873085021972656,-0.00015271181473508477,0.00015271181473508477,-0.00030542362947016954
-0.2802593410015106,0.5676971673965454,9.887741088867188,-0.00015271181473508477,0.001374406274408102,0.00030542362947016954
-0.2754737138748169,0.5605186820030212,9.887741088867188,-0.00015271181473508477,0.00015271181473508477,-0.0009162708884105086
-0.26111677289009094,0.5772684812545776,9.885348320007324,0.0004581354442052543,0.0007635590736754239,0.00030542362947016954
-0.27308088541030884,0.5629115104675293,9.882657051086426,0.0004581354442052543,0.00015271181473508477,-0.00030542362947016954
-0.2682952284812927,0.5653043389320374,9.877870559692383,-0.00015271181473508477,0.00015271181473508477,0.00030542362947016954
-0.27308088541030884,0.5748756527900696,9.870692253112793,0.0004581354442052543,0.0007635590736754239,0.00030542362947016954
-0.2682952284812927,0.5485545992851257,9.89013385772705,0.0004581354442052543,0.00015271181473508477,-0.00030542362947016954
-0.27308088541030884,0.5700899958610535,9.885348320007324,0.0010689827613532543,0.0007635590736754239,-0.00030542362947016954
-0.263509601354599,0.5653043389320374,9.882657051086426,0.0004581354442052543,0.00015271181473508477,0.00030542362947016954
-0.263509601354599,0.5629115104675293,9.887741088867188,-0.00015271181473508477,0.0007635590736754239,-0.00030542362947016954
-0.2587239444255829,0.5676971673965454,9.877870559692383,-0.00015271181473508477,0.0007635590736754239,-0.00030542362947016954
-0.27786654233932495,0.5557330846786499,9.87547779083252,-0.0007635590736754239,0.00015271181473508477,0.00030542362947016954
-0.2754737138748169,0.5748756527900696,9.870692253112793,0.0004581354442052543,0.00015271181473508477,-0.00030542362947016954
-0.26590242981910706,0.5700899958610535,9.880263328552246,0.0004581354442052543,0.00015271181473508477,0.00030542362947016954
-0.2754737138748169,0.5605186820030212,9.89013385772705,0.0004581354442052543,0.00015271181473508477,-0.00030542362947016954
-0.27786654233932495,0.5653043389320374,9.882657051086426,-0.00015271181473508477,0.0007635590736754239,-0.00030542362947016954
-0.2706880569458008,0.5676971673965454,9.877870559692383,0.0004581354442052543,-0.0004581354442052543,0.00030542362947016954
-0.3113660514354706,0.5772684812545776,9.877870559692383,0.004199574701488018,-0.0029015245381742716,-0.0009162708884105086
-0.33768710494041443,0.5916253924369812,9.892526626586914,0.007253811229020357,0.02214321307837963,-0.0015271181473508477
-0.263509601354599,0.5796613097190857,9.856335639953613,-0.002672456670552492,-0.0010689827613532543,0.00030542362947016954
-0.2754737138748169,0.5605186820030212,9.880263328552246,0.0004581354442052543,-0.0004581354442052543,0.0009162708884105086
-0.23718854784965515,0.49591249227523804,9.870692253112793,-0.00015271181473508477,0.00015271181473508477,0.00030542362947016954
-0.2754737138748169,0.5700899958610535,9.882657051086426,0.0004581354442052543,0.0007635590736754239,0.00030542362947016954
-0.26590242981910706,0.5724828243255615,9.887741088867188,-0.00015271181473508477,0.0007635590736754239,0.0009162708884105086
-0.28504499793052673,0.5629115104675293,9.87547779083252,-0.00015271181473508477,0.0007635590736754239,0.00030542362947016954
-0.27786654233932495,0.5629115104675293,9.892526626586914,0.0004581354442052543,0.00015271181473508477,0.00030542362947016954
-0.26590242981910706,0.5700899958610535,9.887741088867188,0.0004581354442052543,0.00015271181473508477,-0.00030542362947016954
-0.263509601354599,0.5748756527900696,9.87547779083252,-0.00015271181473508477,0.00015271181473508477,-0.00030542362947016954
-0.28504499793052673,0.5676971673965454,9.865906715393066,-0.0007635590736754239,0.00015271181473508477,0.00030542362947016954
-0.2682952284812927,0.5676971673965454,9.880263328552246,0.0004581354442052543,0.0007635590736754239,-0.00030542362947016954
-0.27308088541030884,0.5605186820030212,9.87547779083252,0.0004581354442052543,0.00015271181473508477,-0.00030542362947016954
-0.2706880569458008,0.5629115104675293,9.894919395446777,-0.00015271181473508477,0.00015271181473508477,0.00030542362947016954
-0.2682952284812927,0.5605186820030212,9.851550102233887,-0.00015271181473508477,0.0007635590736754239,0.00030542362947016954
-0.21565313637256622,0.5413761138916016,9.916455268859863,-0.017561858519911766,-0.04199574887752533,0.0015271181473508477
-0.28983065485954285,0.5748756527900696,9.882657051086426,0.012216945178806782,0.030695075169205666,-0.0015271181473508477
-0.28504499793052673,0.5748756527900696,9.894919395446777,0.0016798300202935934,0.0032069480512291193,-0.00030542362947016954
