accX,accY,accZ,gyroX,gyroY,gyroZ
-1.2066680192947388,4.9313178062438965,7.981942653656006,-0.03851941600441933,0.027436574921011925,0.01731366664171219
-1.1597129106521606,4.945654392242432,7.866254806518555,-0.0013089969288557768,-0.0037000980228185654,0.0013089969288557768
-1.208909034729004,5.075984954833984,7.652308940887451,-0.008482299745082855,0.008045967668294907,-0.007120943162590265
-1.3767999410629272,5.160730361938477,7.746343612670898,-0.039706241339445114,0.02485348843038082,0.01005309633910656
-1.5553691387176514,5.244134902954102,7.765354633331299,-0.07848745584487915,-0.01326450239866972,0.04255112633109093
-1.5928336381912231,5.2910895347595215,7.701399326324463,-0.1057145893573761,-0.02666863054037094,0.06782349199056625
-1.6851731538772583,5.340084552764893,7.646629810333252,-0.15751595795154572,-0.06080726906657219,0.13014920055866241
-1.6252223253250122,5.296768665313721,7.705844402313232,-0.22013837099075317,-0.13028882443904877,0.189525306224823
-1.577405333518982,5.169943332672119,7.517553806304932,-0.3191508948802948,-0.22945843636989594,0.23780110478401184
-1.3075788021087646,5.033272743225098,7.518664360046387,-0.42093852162361145,-0.22345450520515442,0.25078636407852173
-1.1512374877929688,4.791563510894775,8.084741592407227,-0.3736575245857239,-0.07531096041202545,0.23546236753463745
-1.081087350845337,4.611347198486328,8.613044738769531,-0.1529606580734253,0.04815363511443138,0.21724113821983337
-1.0231094360351562,4.501960754394531,8.460400581359863,0.05714207887649536,0.08763298392295837,0.17374752461910248
-0.9258281588554382,4.611079216003418,8.24046802520752,0.12252211570739746,0.07360053062438965,0.11864747852087021
-0.7943961024284363,4.871893882751465,7.984413146972656,0.05886995419859886,0.02174680307507515,0.10129890590906143
-0.7975659966468811,4.896017551422119,8.002168655395508,-0.05054473504424095,-0.035726889967918396,0.10979866236448288
-0.8374055027961731,4.686563491821289,7.992620468139648,-0.13861404359340668,-0.13941690325737,0.09416051208972931
-0.9040217995643616,4.720369338989258,7.982363700866699,-0.1984613835811615,-0.18301522731781006,0.10040879249572754
-0.820301353931427,4.695259094238281,7.946605205535889,-0.16369442641735077,-0.1244245246052742,0.12695525586605072
-0.6478039026260376,4.519639492034912,7.995225429534912,-0.05408775433897972,0.003804817795753479,0.13184216618537903
-0.568507969379425,4.512466907501221,8.106958389282227,0.03693116828799248,0.0988030880689621,0.09992010146379471
-0.6326821446418762,4.53865909576416,8.19162654876709,0.04618141055107117,0.05815437063574791,0.08187339454889297
-0.6432358026504517,4.529532432556152,8.05655574798584,-0.018570303916931152,-0.025761060416698456,0.058974675834178925
-0.7843021154403687,4.602977275848389,7.983580112457275,-0.026057764887809753,-0.016755159944295883,0.03429571911692619
-0.84627366065979,4.645986557006836,8.041214942932129,-0.03141592815518379,0.0044156829826533794,0.02431243658065796
-0.9644993543624878,4.677158832550049,8.040629386901855,-0.05019566789269447,-0.025411993265151978,0.016807520762085915
-1.0647493600845337,4.760438919067383,7.897810459136963,-0.07091272622346878,-0.006684611085802317,0.028553586453199387
-1.0671626329421997,4.7694220542907715,8.016056060791016,-0.07510151714086533,0.040596358478069305,0.04228932783007622
-1.0381066799163818,4.765639305114746,8.189491271972656,-0.04220206290483475,0.054681167006492615,0.053040556609630585
-1.0073843002319336,4.735807418823242,8.018218994140625,-0.001029744278639555,0.06670648604631424,0.06438519805669785
-0.9242001175880432,4.8048176765441895,7.926492691040039,-0.018186330795288086,0.06478662043809891,0.08258897811174393
-0.7531487941741943,4.644444465637207,8.067886352539062,-0.04845033958554268,0.03078760765492916,0.09925687313079834
-0.5674161911010742,4.4563751220703125,7.91236686706543,-0.05475097894668579,-0.0026529005263000727,0.06333799660205841
-0.6906217932701111,4.5026984214782715,7.997638702392578,-0.24354323744773865,-0.1054004356265068,0.1373748630285263
-0.7390516996383667,4.515186309814453,8.172722816467285,-0.14971433579921722,0.050422560423612595,0.16770868003368378
-0.7892724871635437,4.4662299156188965,8.329083442687988,-0.06677629798650742,0.13934709131717682,0.17502161860466003
-0.7022767663002014,4.499825477600098,8.327674865722656,-0.11644836515188217,0.0576133169233799,0.19107864797115326
-0.3811185956001282,4.067911148071289,8.259881019592285,-0.19573867321014404,-0.0008901178953237832,0.12273155152797699
-0.3244238793849945,4.2446608543396,8.35434627532959,-0.18498744070529938,-0.029618237167596817,0.05094616115093231
-0.5563549995422363,4.416679382324219,8.60969352722168,-0.10876891762018204,0.02272418700158596,0.04345869645476341
-0.5983684659004211,4.361967086791992,8.627371788024902,-0.05014330893754959,0.021205751225352287,0.0625176951289177
-0.5590556263923645,4.323037624359131,8.479860305786133,-0.021380282938480377,0.0074525559321045876,0.07305948436260223
-0.6555132269859314,4.341367244720459,8.39474105834961,0.024068091064691544,0.058538343757390976,0.08000589162111282
-0.5580500960350037,4.19512939453125,8.36622142791748,-0.02361430414021015,0.07492698729038239,0.10035642981529236
-0.5252112150192261,4.042159080505371,8.551034927368164,0.01539380382746458,0.08831366151571274,0.06199409440159798
-0.6534063220024109,4.109446048736572,8.498113632202148,0.007051130291074514,0.019216075539588928,0.016859879717230797
-0.5496991276741028,4.274664878845215,8.22226333618164,-0.018011797219514847,0.07103490084409714,0.05745624005794525
-0.4759098291397095,4.118687629699707,8.450383186340332,0.03611086308956146,0.14440853893756866,0.05094616115093231
-0.44800299406051636,4.099102973937988,8.568866729736328,0.10649999231100082,0.12716469168663025,0.016004668548703194
-0.48323607444763184,4.15688943862915,8.327905654907227,0.12206833064556122,0.1304982602596283,-0.0114493602886796
-0.6272233724594116,4.220881462097168,8.429083824157715,0.12548917531967163,0.15489797294139862,-0.025656340643763542
-0.7084059715270996,4.246557235717773,8.393784523010254,0.13896311819553375,0.16573646664619446,-0.02085668407380581
-0.6696294546127319,4.2517571449279785,8.496140480041504,0.29127800464630127,0.2413615882396698,-0.07674212753772736
-1.0310964584350586,4.661022186279297,7.931290626525879,0.05988224595785141,0.171059712767601,0.021729348227381706
-1.1941032409667969,4.5829997062683105,8.079798698425293,0.03769911080598831,0.17980381846427917,0.01080358773469925
-1.142120361328125,4.801668167114258,8.195995330810547,0.10978121310472488,0.22661355137825012,-0.04921828582882881
-1.299496054649353,4.615455627441406,8.282617568969727,0.14653784036636353,0.18053685128688812,0.04110250249505043
-1.1075001955032349,4.452784061431885,8.172300338745117,0.12351694703102112,0.10161306709051132,-0.015271631069481373
-1.1988821029663086,4.602105617523193,8.102286338806152,0.136554554104805,0.0803724154829979,-0.07136651128530502
-1.3430417776107788,4.769412517547607,7.997696399688721,0.18132226169109344,0.06630505621433258,-0.07782422751188278
-1.3272591829299927,4.798947334289551,7.854455947875977,0.1946740299463272,0.07176794111728668,-0.07192502170801163
-1.3622528314590454,4.823703289031982,7.845741271972656,0.1978505253791809,0.12095131725072861,-0.060877084732055664
-1.4196178913116455,4.895136833190918,8.048128128051758,0.1725083440542221,0.14332643151283264,-0.04162610322237015
-1.4080395698547363,4.889486312866211,8.089605331420898,0.11339404433965683,0.06295402348041534,-0.035726889967918396
-1.3813202381134033,4.905968189239502,8.064647674560547,0.02710496261715889,-0.03804817795753479,-0.045640360563993454
-1.768778681755066,4.898181915283203,8.220281600952148,0.11079350113868713,-0.6030287146568298,-0.08707447350025177
-1.5232006311416626,5.489473342895508,6.056707382202148,-0.029653143137693405,-0.029426250606775284,0.014625859446823597
-1.326148271560669,5.1487016677856445,7.685272216796875,-0.16580627858638763,0.19811232388019562,0.07267551124095917
-1.5894050598144531,4.6814398765563965,8.699015617370605,-0.22275637090206146,-0.016144296154379845,0.04394739121198654
-1.426829218864441,4.756522178649902,8.921101570129395,-0.19710002839565277,-0.15215779840946198,0.03661700710654259
-1.2688502073287964,4.786612510681152,8.153951644897461,-0.10653489828109741,-0.20467476546764374,-0.004084070213139057
-1.285418152809143,4.895787715911865,7.913546085357666,-0.0339815616607666,-0.10848966240882874,-0.012130037881433964
-1.3135452270507812,4.941028594970703,7.974596977233887,-0.050335295498371124,-0.09147270768880844,0.02298598550260067
-1.120687484741211,4.7182722091674805,7.908996105194092,-0.09377653896808624,-0.11046189069747925,0.030176742002367973
-1.138442873954773,4.67537784576416,8.123286247253418,-0.11960741132497787,-0.14760249853134155,0.000715585018042475
-0.7621510028839111,4.457543849945068,8.214400291442871,-0.2621135413646698,-0.2819579541683197,-0.020525071769952774
-0.7073045969009399,4.383907794952393,8.335077285766602,-0.23855160176753998,-0.30515336990356445,-0.03867649659514427
-0.7867729663848877,4.399632930755615,8.365091323852539,-0.17418386042118073,-0.23008675873279572,-0.04944517835974693
-0.8389474153518677,4.44187593460083,8.34923267364502,-0.10875146836042404,-0.14638076722621918,-0.03391174599528313
-0.8551896810531616,4.4296464920043945,8.483575820922852,-0.020612338557839394,-0.03396410867571831,0.00040142572834156454
-0.6730005145072937,4.314035415649414,8.499828338623047,0.04890412464737892,-0.002722713630646467,0.00783652812242508
-0.614419162273407,4.296691417694092,8.46609878540039,0.06454227864742279,-0.0038746309000998735,-0.015882495790719986
-0.8137891292572021,4.5100626945495605,8.398399353027344,0.06684610992670059,-0.04663519561290741,-0.04167846217751503
-0.9312773942947388,4.61546516418457,8.330787658691406,0.03883357718586922,-0.08721410483121872,-0.02413790300488472
-0.8543851971626282,4.530308246612549,8.051019668579102,-0.017208946868777275,-0.10981611907482147,0.007225662935525179
-0.7389176487922668,4.467637538909912,8.172578811645508,-0.013718287460505962,-0.03380702808499336,0.00188495556358248
-0.730241060256958,4.439414978027344,8.247861862182617,0.03113667294383049,-0.0021642083302140236,-0.006318091880530119
-0.7148320078849792,4.445706844329834,8.245955467224121,0.051487211138010025,0.023439772427082062,-0.021362829953432083
-0.7866197228431702,4.416813373565674,8.299595832824707,0.040107667446136475,0.014294246211647987,-0.027890361845493317
-0.934169590473175,4.567638874053955,8.051968574523926,0.03495894372463226,-0.005811946466565132,-0.003054326167330146
-0.806663990020752,4.5402679443359375,8.075641632080078,0.0012915435945615172,-0.00890117883682251,0.0052534411661326885
-0.7522868514060974,4.413136005401611,8.427216529846191,0.04384266957640648,-0.02223549410700798,-0.007365289609879255
-0.5911954045295715,4.338829517364502,8.302908897399902,0.029862582683563232,-0.057595863938331604,-0.011501720175147057
-0.5431773066520691,4.363767623901367,8.476134300231934,0.007941247895359993,-0.08491026610136032,-0.0411897711455822
-0.5524476766586304,4.35111665725708,8.451887130737305,0.02419026382267475,-0.13582152128219604,-0.06717772036790848
-0.5664776563644409,4.454354763031006,8.028351783752441,0.07154104858636856,-0.12021827697753906,-0.08805186301469803
-0.852891206741333,4.592845916748047,7.649780750274658,-0.3430269956588745,-0.3585255444049835,-0.050562188029289246
-0.7537617087364197,4.786344051361084,8.090524673461914,-0.2382025420665741,-0.042062435299158096,-0.002478367416188121
-0.9520494937896729,4.573020935058594,8.970843315124512,0.07215191423892975,0.18191567063331604,0.05138249322772026
-0.7227232456207275,4.392143726348877,8.693394660949707,0.18428932130336761,0.0708603709936142,0.04007275775074959
-0.5987419486045837,4.4651570320129395,7.958431243896484,0.08737118542194366,-0.01021017599850893,-0.005689773242920637
-0.5959455370903015,4.596014976501465,7.891116142272949,-0.026075219735503197,-0.025080380961298943,-0.016493361443281174
-0.6579744815826416,4.577167510986328,8.286972999572754,-0.05049237608909607,0.013281955383718014,-0.00296705961227417
-0.5538554191589355,4.392115116119385,8.498429298400879,0.013229595497250557,-0.005602506920695305,-0.01638864167034626
-0.6275393962860107,4.423115253448486,8.367753982543945,0.07250097393989563,0.012130037881433964,-0.05878268927335739
-0.9076035022735596,4.593410015106201,8.278279304504395,0.06443755328655243,-0.026598818600177765,-0.056234508752822876
-0.8676682114601135,4.6041646003723145,8.088896751403809,0.03162536770105362,-0.03645992651581764,-0.020874137058854103
-0.7447116374969482,4.482749938964844,8.26554012298584,0.018971728160977364,-0.020385446026921272,-0.013596114702522755
-1.0230135917663574,4.947320938110352,7.058805465698242,0.2192133516073227,0.2235243171453476,-0.06403613090515137
-1.2436249256134033,4.6453447341918945,8.151911735534668,0.17935003340244293,0.2612757980823517,0.006963863503187895
-1.020006537437439,4.616106986999512,8.130478858947754,-0.08220500499010086,-0.17875662446022034,-0.022026054561138153
-0.8092401623725891,4.693516254425049,7.620437145233154,-0.1563640534877777,-0.11616911739110947,-0.015830136835575104
-1.0446380376815796,4.781009674072266,8.170473098754883,-0.028989918529987335,0.07716100662946701,0.001658062799833715
-0.966759443283081,4.70543909072876,8.280882835388184,0.06696828454732895,0.08799950033426285,0.05777039751410484
-0.6266487240791321,4.557908535003662,7.954141139984131,0.016720253974199295,0.04026474431157112,0.05281366407871246
-0.5514037609100342,4.521181583404541,8.103653907775879,-0.06775368005037308,0.029688050970435143,0.021816615015268326
-0.8388612270355225,4.447574138641357,8.562862396240234,0.02502802200615406,-0.018675023689866066,-0.013247049413621426
-0.8398284316062927,4.49238395690918,8.225921630859375,0.057421330362558365,-0.0348542258143425,-0.02373647689819336
-0.9818812012672424,4.6690473556518555,8.12549877166748,-0.023265238851308823,0.027838001027703285,0.0016231562476605177
-0.9270252585411072,4.623998165130615,8.319726943969727,0.019739674404263496,0.015847589820623398,-0.0013264502631500363
-0.9981330633163452,4.784083843231201,8.132537841796875,0.014678219333291054,0.007504915818572044,0.026075219735503197
-0.7658284902572632,4.530365943908691,8.26635456085205,0.010995574295520782,0.008866272866725922,0.02174680307507515
-0.8824548125267029,4.59110164642334,8.112771034240723,0.031119219958782196,-0.006527531426399946,0.004345869645476341
-0.894990861415863,4.711846351623535,7.960012912750244,0.030368728563189507,0.019250981509685516,0.02782054804265499
-0.7667191028594971,4.641485214233398,7.946968078613281,0.019495327025651932,0.05553637817502022,0.048293258994817734
-0.7319457530975342,4.5264201164245605,8.1378812789917,0.04181808978319168,0.09768607467412949,0.03529055789113045
-0.7272243499755859,4.4965500831604,8.193647384643555,0.06284930557012558,0.0921708345413208,0.013299409300088882
-0.9177166223526001,4.6863813400268555,7.595432281494141,0.019303342327475548,0.06832963973283768,-0.011501720175147057
-0.993287205696106,4.663406848907471,7.617057800292969,-0.06731735169887543,0.04495968297123909,-0.008848818950355053
-1.0982873439788818,4.769987106323242,8.095724105834961,-0.15282103419303894,0.009197885170578957,0.0023387412074953318
-1.1112159490585327,4.6928839683532715,8.490079879760742,-0.15758578479290009,-0.02373647689819336,0.031555552035570145
-0.8661550879478455,4.552258491516113,8.695509910583496,-0.09887290000915527,-0.037716563791036606,0.03958406671881676
-0.781007707118988,4.561490535736084,8.038522720336914,0.0777893215417862,-0.026947883889079094,-0.006806783843785524
-0.8260378837585449,4.649386405944824,8.071897506713867,0.12121311575174332,0.19734437763690948,-0.009581857360899448
-1.0541956424713135,4.510838508605957,8.46854019165039,-0.13611823320388794,-0.13374458253383636,-0.060039326548576355
-0.9627946615219116,4.793315887451172,8.332311630249023,-0.10749483108520508,-0.07728318125009537,-0.033126350492239
-0.9972232580184937,4.713857173919678,8.501091957092285,0.05248204991221428,0.04455825686454773,0.0017802357906475663
-0.8135401010513306,4.566661834716797,8.311662673950195,0.1244419738650322,0.03188716620206833,0.004014257341623306
-0.7332577705383301,4.542279243469238,7.966408729553223,0.062168627977371216,-0.03424336016178131,-0.03591887652873993
-0.9065500497817993,4.724478244781494,7.888290882110596,-0.01251401100307703,-0.05841616913676262,-0.05028293654322624
-0.9881923198699951,4.758447170257568,8.047266006469727,-0.032218776643276215,-0.033335790038108826,-0.014468779787421227
-0.9020585417747498,4.6325788497924805,8.268806457519531,0.012880530208349228,-0.0060388389974832535,0.003036872949451208
-0.7707796692848206,4.460560321807861,8.184205055236816,0.06187192350625992,-0.03933972120285034,-0.021240657195448875
-1.174384593963623,4.853333950042725,7.039929389953613,0.2114466428756714,-0.06787585467100143,-0.08780751377344131
-1.5965301990509033,5.1248459815979,6.595996856689453,0.15193091332912445,0.2761983573436737,0.04181808978319168
-1.0833953619003296,4.393331050872803,8.092939376831055,-0.213157057762146,-0.005497787147760391,0.07073819637298584
-1.0982586145401,4.368124961853027,8.28403377532959,-0.4530525803565979,-0.22970278561115265,-0.008377579972147942
-0.953236997127533,4.588075637817383,8.69236946105957,-0.39901718497276306,-0.16709782183170319,-0.0010821041651070118
-0.942625880241394,4.4971818923950195,9.182866096496582,-0.08874998986721039,-0.018483037129044533,0.01005309633910656
-0.7973744869232178,4.6125922203063965,8.312908172607422,0.1745329201221466,0.012758356519043446,-0.02010619267821312
-0.8936405181884766,4.780713081359863,7.903499126434326,0.0699876993894577,-0.01111774705350399,-0.02419026382267475
-1.0660613775253296,4.8208208084106445,7.949429035186768,-0.05913175642490387,-0.058939769864082336,0.00047123889089562
-0.91578209400177,4.6184821128845215,8.207361221313477,-0.04934045672416687,-0.06581636518239975,0.06319837272167206
-0.9074981808662415,4.500275611877441,8.156891822814941,-0.012810716405510902,-0.03848451003432274,0.05581562966108322
-0.8990610241889954,4.473536968231201,8.266210556030273,-0.006998770404607058,-0.042725659906864166,0.037629298865795135
-0.8590395450592041,4.5488200187683105,8.087671279907227,-0.00022689280740451068,-0.09253735840320587,0.021781709045171738
-0.8137220740318298,4.645297050476074,8.019330024719238,-0.011344640515744686,-0.09585348516702652,0.03220132365822792
-0.5223190188407898,4.3193793296813965,8.135880470275879,0.007138396613299847,-0.0679631233215332,0.0022165682166814804
-0.46875593066215515,4.339701175689697,8.061201095581055,-0.01895427517592907,-0.06401867419481277,-0.006003932561725378
-0.4502631425857544,4.355588912963867,8.076993942260742,-0.04150392860174179,-0.04056145250797272,-0.01661553420126438
-0.6187957525253296,4.4965691566467285,8.119954109191895,-0.03131120651960373,-0.06354743987321854,-0.04450589418411255
-0.6612497568130493,4.53865909576416,7.963258266448975,-0.052202798426151276,-0.04087560996413231,-0.03871140256524086
-0.6468366384506226,4.493868350982666,8.269505500793457,-0.07408922910690308,-0.007470009382814169,-0.037803832441568375
-0.7529955506324768,4.553819179534912,8.580915451049805,0.05319763720035553,-0.07703883200883865,-0.0774751678109169
-0.6466834545135498,4.554623603820801,8.278153419494629,0.07482226192951202,-0.08815658092498779,-0.08517206460237503
-0.919775664806366,4.678825378417969,7.4243903160095215,-0.23837706446647644,-0.4856553077697754,-0.04625122621655464
-0.8844563961029053,4.634896755218506,7.446742534637451,-0.2709798216819763,-0.1342332661151886,-0.02785545401275158
-1.0310006141662598,4.604040145874023,8.611090660095215,0.029513517394661903,0.1799783557653427,0.039392080157995224
-0.767695963382721,4.2887043952941895,8.430741310119629,0.196419358253479,0.11615166068077087,0.06492624431848526
-0.42372581362724304,4.328132152557373,7.512975692749023,0.09243264049291611,-0.006806783843785524,0.004642575979232788
-0.46156376600265503,4.459545135498047,7.340085983276367,0.0016929693520069122,-0.016947146505117416,-0.014782939106225967
-0.6010116338729858,4.6057353019714355,7.620446681976318,-0.12313298135995865,0.037000980228185654,-0.0016406094655394554
-0.6615179181098938,4.447392463684082,8.384705543518066,-0.1264840066432953,0.06485643237829208,0.019198622554540634
-0.670692503452301,4.3121771812438965,8.70885181427002,-0.03960151970386505,0.039531707763671875,-0.0022165682166814804
-0.6616806983947754,4.393675804138184,8.485596656799316,0.028134707361459732,0.018011797219514847,-0.028134707361459732
-0.8381046652793884,4.587117671966553,8.243246078491211,0.014643312431871891,0.03431317210197449,-0.020751964300870895
-0.802545964717865,4.605266094207764,8.25719928741455,-0.03968878835439682,-0.005061454605311155,0.008569566532969475
-0.6483785510063171,4.427012920379639,8.382281303405762,-0.01211258489638567,-0.047507863491773605,-0.04082325100898743
-0.7935916185379028,4.573949813842773,8.283870697021484,0.0293738916516304,0.026319565251469612,-0.05892231687903404
-0.934830367565155,4.671987533569336,8.331822395324707,0.03389429301023483,0.0165631752461195,-0.03892084211111069
-0.8880764245986938,4.620626926422119,8.289702415466309,0.02914699912071228,0.013456488028168678,-0.018989183008670807
-0.9054008722305298,4.567973613739014,8.348609924316406,0.059288833290338516,0.04443608224391937,-0.013875367119908333
-0.8288821578025818,4.47654390335083,8.135372161865234,0.04729842394590378,0.046303585171699524,-0.006370451766997576
-0.9397816061973572,4.493035316467285,8.457947731018066,-0.16285666823387146,-0.11501719802618027,0.019058994948863983
-0.7227041125297546,4.380929470062256,8.10669994354248,-0.2578200399875641,-0.19910715520381927,-0.02275909297168255
-0.884485125541687,4.69557523727417,8.248810768127441,-0.186610609292984,-0.1083151325583458,-0.04886921867728233
-0.8175528049468994,4.5312275886535645,8.216508865356445,0.08677776902914047,0.08964011073112488,0.006981316953897476
-0.6691027283668518,4.510139465332031,7.9702301025390625,0.0354301854968071,0.045291293412446976,-0.020577432587742805
-0.7577073574066162,4.683508396148682,8.055665016174316,-0.07197737693786621,0.005689773242920637,-0.03839724510908127
-0.8652932047843933,4.625855922698975,8.299509048461914,-0.07356562465429306,0.017296213656663895,-0.03070034086704254
-0.9382109642028809,4.6211442947387695,8.516730308532715,-0.0200189258903265,0.05094616115093231,-0.02364921197295189
-1.0234445333480835,4.6088762283325195,8.44168758392334,0.034697145223617554,0.048345621675252914,-0.033859387040138245
-1.1307144165039062,4.674410343170166,8.445162773132324,0.04153883457183838,-0.007016223389655352,-0.04351105913519859
-1.1516684293746948,4.712602615356445,8.083064079284668,0.027314402163028717,0.00043633230961859226,-0.03851941600441933
-1.2093112468719482,4.798410892486572,8.180767059326172,0.02923426404595375,0.02652900479733944,-0.023335052654147148
-1.2560652494430542,4.746188640594482,8.169103622436523,0.040194932371377945,0.0031241392716765404,0.016004668548703194
-1.0564558506011963,4.646905899047852,7.973217964172363,0.04995132237672806,0.046041786670684814,0.02200860157608986
-1.0024809837341309,4.599040985107422,8.085477828979492,0.06749188154935837,0.07944738864898682,0.00040142572834156454
-1.0775917768478394,4.708829402923584,8.027576446533203,0.10239847004413605,0.10199704021215439,0.012217304669320583
-1.0757626295089722,4.721863746643066,7.977891445159912,0.10641272366046906,0.11746066063642502,0.033108897507190704
-0.99870765209198,4.56605863571167,8.10006332397461,0.08454374969005585,0.19378390908241272,0.07490953058004379
-1.000105857849121,4.5304999351501465,8.28309440612793,0.05249950289726257,0.13833479583263397,0.042498767375946045
-1.086268424987793,4.654672622680664,7.829106330871582,0.03529055789113045,0.017034413293004036,-0.026389379054307938
-1.1442464590072632,4.708934783935547,7.91214656829834,-0.028152160346508026,-0.01696459949016571,-0.035011306405067444
-1.1521568298339844,4.72231388092041,7.99184513092041,-0.07452555745840073,-0.06555456668138504,-0.04443608224391937
-1.1726511716842651,4.75044059753418,8.014551162719727,-0.0746128261089325,-0.06152285635471344,-0.03433062508702278
-1.088547706604004,4.687023162841797,7.956727027893066,-0.05044001340866089,-0.0067544239573180676,-0.02241002768278122
-1.1044644117355347,4.706674575805664,8.149930953979492,-0.00017453292093705386,0.05969025939702988,-0.026633724570274353
-1.1109191179275513,4.701235294342041,8.231849670410156,0.055030230432748795,0.07785914093255997,-0.03358013555407524
-1.257722020149231,4.75597620010376,8.2347993850708,0.056635934859514236,0.03190461918711662,-0.031555552035570145
-1.2930604219436646,4.812249660491943,8.106164932250977,0.011571533046662807,-0.030979594215750694,-0.013456488028168678
-1.2891626358032227,4.8453850746154785,8.122119903564453,-0.029199358075857162,-0.07305948436260223,0.0003665191470645368
-1.4379287958145142,4.783442497253418,7.684065341949463,0.06742206960916519,-0.2762856185436249,-0.012810716405510902
-1.1355890035629272,4.9657464027404785,7.300313472747803,0.02209586836397648,0.09283406287431717,0.04876450076699257
-0.925291895866394,4.6057257652282715,8.095734596252441,-0.07370525598526001,-0.04368559271097183,-0.010157816112041473
-1.212040662765503,4.629236698150635,8.130786895751953,-0.014154620468616486,0.007749261800199747,-0.026284659281373024
-1.184670090675354,4.7264509201049805,8.065089225769043,0.03211405873298645,0.01895427517592907,0.005340707488358021
-0.971509575843811,4.680577754974365,8.02788257598877,-0.01762782596051693,0.01926843449473381,0.0131772356107831
-1.012986660003662,4.619238376617432,8.199240684509277,-0.05537929758429527,-0.01286307629197836,0.006510077975690365
-1.0386333465576172,4.575175762176514,8.380309104919434,-0.04295255243778229,-0.023195425048470497,-0.004171337001025677
-0.9965816140174866,4.592758655548096,8.414134979248047,-0.002740166848525405,-0.045238934457302094,-0.012147491797804832
-1.3388949632644653,4.778318881988525,6.8848137855529785,0.14479251205921173,-0.05101597309112549,-0.07169812172651291
-1.3125492334365845,4.956485748291016,7.360149383544922,0.04441862925887108,0.17210692167282104,0.011257373727858067
-1.1845743656158447,4.668137550354004,8.20319652557373,-0.10574949532747269,-0.028675759211182594,0.0050090947188436985
-1.2357431650161743,4.718616962432861,8.276601791381836,0.04197516664862633,0.061802107840776443,0.0024434609804302454
-1.2354463338851929,4.740777969360352,8.04543685913086,0.09979792684316635,0.08190830051898956,0.01837831735610962
-1.1559014320373535,4.729457855224609,7.809540748596191,0.03127630054950714,0.061592668294906616,0.03605850040912628
-1.014528512954712,4.636466979980469,7.9834747314453125,-0.0319744311273098,0.045989423990249634,0.031381018459796906
-0.9541851282119751,4.596512794494629,8.260320663452148,-0.022427480667829514,0.04141666367650032,0.008115780539810658
-1.076758623123169,4.617284774780273,8.344444274902344,0.008848818950355053,0.00472984230145812,-0.011239920742809772
-1.1681405305862427,4.650660037994385,8.077988624572754,0.01754055917263031,0.0012915435945615172,-0.004520402755588293
-1.1978765726089478,4.615723609924316,8.083064079284668,0.029932396486401558,0.014974924735724926,-0.018832102417945862
-1.27603280544281,4.776863098144531,7.898155212402344,0.03988077491521835,-0.002548180753365159,-0.022828906774520874
-1.250797986984253,4.822956085205078,7.708850383758545,0.014678219333291054,0.02122320421040058,-0.0019024088978767395
-1.169816493988037,4.739274024963379,7.901037693023682,-0.01776745170354843,0.056496307253837585,0.011833332479000092
-1.1248151063919067,4.623442649841309,8.226102828979492,-0.022933626547455788,0.004956734832376242,0.002373647876083851
-1.1490731239318848,4.679869174957275,8.182740211486816,-0.009581857360899448,-0.03508111834526062,-0.026651177555322647
-1.234804630279541,4.8108415603637695,8.294999122619629,-0.07812093943357468,-0.08332201838493347,0.026598818600177765
-1.1741834878921509,4.758485317230225,8.143332481384277,0.0013613568153232336,-0.031154127791523933,0.023003440350294113
-1.1404635906219482,4.683795928955078,7.9675679206848145,0.032847095280885696,0.0009250245057046413,0.02808234840631485
-1.037340521812439,4.718741416931152,7.839190483093262,0.020385446026921272,0.0015009831404313445,0.03495894372463226
-0.9721990823745728,4.688162803649902,7.934268951416016,-0.04178318381309509,0.0033335788175463676,0.027296949177980423
-0.9782899022102356,4.661970138549805,8.210741996765137,-0.046129051595926285,-0.0008552113431505859,0.012618730776011944
-1.0681873559951782,4.63319206237793,8.348409652709961,-0.0062831854447722435,-0.027838001027703285,-5.2359879191499203e-05
-1.112757921218872,4.657469272613525,8.285852432250977,0.015917403623461723,-0.03132865950465202,-0.0020769417751580477
-1.1036407947540283,4.623509883880615,8.152706146240234,0.02600540593266487,-0.05639158934354782,-0.00012217304902151227
-1.0140784978866577,4.657957553863525,7.943319320678711,0.006963863503187895,-0.061540309339761734,-0.0011519172694534063
-1.0121439695358276,4.656386852264404,8.096394538879395,-0.08508480340242386,-0.14877186715602875,-0.0074525559321045876
-1.0030171871185303,4.684140682220459,7.9965949058532715,-0.07653268426656723,-0.11690215021371841,-0.011693705804646015
-1.0432685613632202,4.721145153045654,8.147151947021484,-0.02068215236067772,-0.044226642698049545,-0.011728612706065178
-1.005928635597229,4.697366237640381,8.201903343200684,0.03907792270183563,-0.025481807067990303,3.490658491500653e-05
-0.8954026699066162,4.638909339904785,7.968515872955322,0.041573744267225266,-0.010681414976716042,-0.010035643354058266
-0.8262389898300171,4.618529796600342,8.078936576843262,0.007679448463022709,-0.002600540639832616,-0.024905849248170853
-0.8868122696876526,4.618807315826416,8.303282737731934,0.0014660765882581472,-0.02497566118836403,-0.04832816496491432
-0.9850320219993591,4.676316261291504,8.183171272277832,0.0313984714448452,-0.03459242731332779,-0.061243604868650436
-0.89985591173172,4.5781731605529785,8.342681884765625,0.016057029366493225,-0.05441936478018761,-0.03347541391849518
-1.1162630319595337,5.07930850982666,6.83543586730957,0.17388714849948883,0.1054004356265068,-0.06236061453819275
-1.3745781183242798,4.582176208496094,8.410476684570312,0.20041616261005402,0.3029891550540924,0.0230383463203907
-1.1563993692398071,4.515684604644775,8.253693580627441,-0.10468484461307526,-0.3665889501571655,-0.06356488913297653
-0.9595097899436951,4.712440013885498,7.437740325927734,-0.20776399970054626,-0.1708153784275055,-0.06609562039375305
-1.1253130435943604,4.69895601272583,8.008776664733887,0.18390534818172455,0.07751007378101349,0.015341443940997124
-0.865341067314148,4.7044148445129395,7.2968668937683105,0.061226148158311844,0.026982789859175682,0.0002617993741296232
-0.8950579166412354,4.743133544921875,7.457488059997559,-0.09484118968248367,0.0223227608948946,-0.018971728160977364
-1.003764271736145,4.766031742095947,8.20513916015625,-0.12266173958778381,0.04906120523810387,-0.003263765713199973
-0.7704157829284668,4.420682430267334,8.475005149841309,0.07168067246675491,-0.012304571457207203,-0.056321773678064346
-0.8135209679603577,4.524648189544678,8.320712089538574,0.06503096967935562,-0.05316272750496864,-0.08656833320856094
-0.8605335354804993,4.585834503173828,8.111564636230469,0.055169858038425446,-0.0541575662791729,-0.10475466400384903
-1.0620869398117065,4.853966236114502,8.094412803649902,0.10042624175548553,-0.011780972592532635,-0.11728612333536148
-1.0247470140457153,4.709902286529541,8.13962459564209,0.1512153297662735,0.010070549324154854,-0.1261698454618454
-1.1242979764938354,4.765754222869873,8.143704414367676,0.16484634578227997,-0.0012217304902151227,-0.1543743759393692
-1.380065679550171,4.954627990722656,7.991117000579834,0.14222687482833862,-0.04283038154244423,-0.1451939344406128
-1.4818767309188843,5.121398448944092,7.738653182983398,0.09028588235378265,-0.039933133870363235,-0.09386380761861801
-1.5088833570480347,5.086452484130859,7.8061699867248535,0.032707471400499344,-0.03654719516634941,-0.025446901097893715
-1.34830904006958,4.887685775756836,7.920497894287109,0.007016223389655352,-0.0434936061501503,0.001343903481028974
-1.255691647529602,4.794426918029785,7.935408592224121,0.025569073855876923,-0.026511551812291145,-0.020385446026921272
-1.2784461975097656,4.8861823081970215,7.947782039642334,0.06890559941530228,-0.0003490658418741077,-0.026476643979549408
-1.2669540643692017,4.910545825958252,7.81127405166626,0.09061749279499054,0.01788962446153164,-0.013526301831007004
-1.3143879175186157,4.962212562561035,7.741182804107666,0.07101744413375854,0.019250981509685516,-0.006108652334660292
-1.4623879194259644,5.131186008453369,7.629602432250977,0.029112091287970543,-0.011135200969874859,0.025080380961298943
-1.4242818355560303,5.148883819580078,7.540595531463623,0.0010471974965184927,-0.006300638429820538,0.04703662171959877
-1.3105188608169556,5.008756160736084,7.764031887054443,-0.03867649659514427,0.023771384730935097,0.07742280513048172
-1.1972061395645142,4.765055179595947,8.049391746520996,-0.013823007233440876,-0.0008203047327697277,0.08232717961072922
-0.9546064734458923,4.712832450866699,7.821291446685791,0.024294983595609665,-0.025045474991202354,0.0553094856441021
-0.9829538464546204,4.820657730102539,8.209296226501465,-0.07033676654100418,0.03230604529380798,0.007155850064009428
-1.1473971605300903,5.125755786895752,6.69166898727417,-0.06410594284534454,0.040282197296619415,-0.003508111694827676
-1.3563822507858276,5.072096824645996,7.746649742126465,-0.12395328283309937,0.16353735327720642,0.06082472577691078
-0.9890351295471191,4.6046528816223145,8.871225357055664,-0.048956483602523804,-0.19022344052791595,0.005567600484937429
-0.9486305713653564,4.892215728759766,8.046720504760742,0.0023561944253742695,-0.06522295624017715,-0.013631021603941917
-1.0346972942352295,4.900049686431885,7.579237937927246,0.008517206646502018,-0.04127703607082367,0.01160643994808197
-1.1721819639205933,5.024519443511963,7.663925647735596,-0.03488913178443909,-0.03487167879939079,0.014276793226599693
-1.1697685718536377,5.000510215759277,7.8347086906433105,-0.0529881976544857,-0.021205751225352287,0.04804891347885132
-0.9881157279014587,4.814375400543213,7.949544429779053,-0.03396410867571831,-0.006667157635092735,0.05134758725762367
-0.9139146208763123,4.722323417663574,7.950588226318359,-0.001343903481028974,0.006510077975690365,0.022933626547455788
-0.9904524683952332,4.843757152557373,7.778301239013672,-0.0006457717972807586,0.010838494636118412,-0.0015533430268988013
-0.9491572976112366,4.77137565612793,8.286935806274414,-0.016580628231167793,-0.03122393973171711,0.04673991724848747
-0.9379715919494629,4.779937267303467,8.042076110839844,0.013962633907794952,-0.006440265104174614,-0.0007330382941290736
-1.0884997844696045,4.870984077453613,7.860135078430176,0.001658062799833715,-0.024696409702301025,0.0068765971809625626
-1.1112446784973145,4.941555500030518,7.770687580108643,-0.021118484437465668,-0.027715828269720078,0.02900737151503563
-0.8355667591094971,4.736717224121094,8.132040023803711,-0.09925687313079834,-0.0008726646192371845,0.09007643908262253
-0.8500947952270508,4.630500793457031,8.30383014678955,-0.08131489157676697,-0.018832102417945862,0.05167919769883156
-1.0868622064590454,4.957855224609375,7.963230609893799,-0.011170106939971447,-0.03291691094636917,0.0431968979537487
-1.1228996515274048,4.973005771636963,7.851219177246094,-0.030054569244384766,0.0161268413066864,0.09056513756513596
-1.0808767080307007,4.842464447021484,8.011640548706055,-0.06951646506786346,-0.0057246801443398,0.11040952801704407
-1.0449061393737793,4.851667404174805,8.039461135864258,-0.08676031976938248,-0.035098571330308914,0.12397073954343796
-0.8163748383522034,4.734744548797607,8.039596557617188,-0.0990648865699768,-0.03817034885287285,0.1472185254096985
-0.7409862279891968,4.482318878173828,8.3316011428833,-0.07744026184082031,-0.033510319888591766,0.11482521146535873
-0.6679247617721558,4.490018844604492,8.2203950881958,0.015044738538563251,-0.0374373123049736,0.04021238535642624
-0.7261134386062622,4.559364318847656,8.1176176071167,0.03330088034272194,-0.026738444343209267,0.02387610450387001
-0.7504385709762573,4.60222053527832,8.00339412689209,0.015376350842416286,-0.03871140256524086,0.019949113950133324
-0.8062809109687805,4.687320232391357,7.97548770904541,-0.013945180922746658,-0.029251718893647194,0.023090705275535583
-0.8659348487854004,4.69346809387207,7.988339900970459,-0.0279427208006382,-0.029653143137693405,0.03286454826593399
-0.8442912697792053,4.6897430419921875,8.030890464782715,-0.03160791099071503,-0.0073303827084600925,0.049811698496341705
-0.6553887724876404,4.510427951812744,8.161517143249512,-0.02139773592352867,0.007958701811730862,0.04185299575328827
-0.5507813096046448,4.3874125480651855,8.2097749710083,0.003263765713199973,-0.004345869645476341,0.0005235987482592463
-0.5928426384925842,4.504086971282959,8.057390213012695,0.012845623306930065,-0.0038920841179788113,-0.038641590625047684
-0.7338036298751831,4.6538777351379395,8.014330863952637,0.00251327408477664,0.01727875880897045,-0.04660028964281082
-0.8977777361869812,4.67292594909668,8.169734001159668,-0.018500490114092827,0.03162536770105362,-0.040735986083745956
-1.0096156597137451,4.7442731857299805,8.400871276855469,-0.02883283980190754,-0.00970403105020523,-0.01837831735610962
-0.93320232629776,4.700191020965576,8.331085205078125,-0.014713125303387642,-0.040683623403310776,-0.010925761424005032
-0.82291579246521,4.637501239776611,8.158280372619629,0.021729348227381706,-0.007103490177541971,-0.02045525796711445
-0.918061375617981,4.721432685852051,8.08521842956543,0.04822344705462456,0.016423547640442848,-0.030438542366027832
-1.0052199363708496,4.841382026672363,8.014304161071777,0.03862413763999939,0.0006457717972807586,-0.014748032204806805
-1.0192978382110596,4.869643211364746,7.91839075088501,0.011641345918178558,8.726646046852693e-05,0.01820378378033638
-0.9333459734916687,4.765629768371582,7.977412700653076,-0.008517206646502018,0.008831365965306759,0.0455007329583168
-0.7176954746246338,4.6144118309021,8.135104179382324,-0.0055850534699857235,0.009808750823140144,0.04221951588988304
-0.7706743478775024,4.6447319984436035,8.00745677947998,0.006300638429820538,0.022828906774520874,-0.002321287989616394
-0.8453351259231567,4.64788293838501,8.180106163024902,0.006806783843785524,0.028466319665312767,-0.0030194194987416267
-0.8458809852600098,4.649836540222168,8.111516952514648,0.026947883889079094,0.003525565145537257,0.0005235987482592463
-0.795200526714325,4.739609241485596,7.906486988067627,0.0240506362169981,-0.0062831854447722435,-0.0010821041651070118
-0.7836030125617981,4.804472923278809,7.768552303314209,-0.013316862285137177,-0.013631021603941917,0.010576695203781128
-0.738362193107605,4.662343502044678,7.877325534820557,-0.03530801087617874,0.013543754816055298,0.01748819835484028
-0.6444329023361206,4.549576759338379,8.065108299255371,-0.03666936606168747,0.046006880700588226,0.0031939526088535786
-0.8399434089660645,4.581084728240967,8.435279846191406,-0.02687807008624077,-0.0417657271027565,-0.02445206232368946
-0.7061936855316162,4.577320575714111,8.142402648925781,0.017784904688596725,-0.018884463235735893,-0.03680899366736412
-0.752114474773407,4.696427345275879,7.965949058532715,0.029129544273018837,0.024870941415429115,-0.05003859102725983
-0.9644035696983337,4.780473709106445,8.088177680969238,-0.019146261736750603,0.00022689280740451068,-0.04907865822315216
-1.0834145545959473,4.83718729019165,8.151721000671387,-0.05721189081668854,-0.060213860124349594,-0.02684316411614418
-1.0518780946731567,4.894715309143066,8.018669128417969,-0.0429176464676857,-0.04530874639749527,-0.0018325956771150231
-0.9909408688545227,4.875858783721924,7.980975151062012,-0.016266468912363052,0.008098327554762363,0.025359634310007095
-0.951704740524292,4.808475971221924,8.038101196289062,-0.012566370889544487,0.03269001841545105,0.031555552035570145
-0.8718149662017822,4.7176594734191895,8.235153198242188,-0.01740093342959881,0.025307273492217064,0.026633724570274353
-0.9141827821731567,4.6855387687683105,8.254278182983398,-0.024347342550754547,-0.003281218931078911,0.017435839399695396
-0.9412947297096252,4.693104267120361,8.262935638427734,-0.014224433340132236,-0.009337511844933033,0.023858651518821716
-0.7991461753845215,4.637616157531738,8.226669311523438,0.014311700128018856,0.0003490658418741077,0.032847095280885696
-0.6971532106399536,4.554843902587891,8.133066177368164,0.0165631752461195,-0.002251474652439356,0.022881265729665756
-0.6418662667274475,4.522311687469482,8.07753849029541,0.00010471975838299841,-0.013159782625734806,0.010786134749650955
-0.5650315880775452,4.445993900299072,8.09874153137207,1.7453292457503267e-05,-0.0018675023457035422,-0.005846852902323008
-0.6008967161178589,4.408242225646973,8.160463333129883,0.017697637900710106,0.00013962633966002613,-0.039933133870363235
-0.7981406450271606,4.581132411956787,8.186034202575684,0.01661553420126438,-0.018709929659962654,-0.05682792142033577
-1.0061967372894287,4.860334396362305,8.084385871887207,0.024678954854607582,-0.017837265506386757,-0.016912240535020828
-1.1235318183898926,4.929996490478516,8.153425216674805,0.016982054337859154,-0.03056071512401104,0.014224433340132236
-1.0491583347320557,5.02564001083374,7.334588527679443,0.19207347929477692,0.09653416275978088,0.04026474431157112
-0.7816014885902405,4.435076713562012,7.929193496704102,-0.2683967351913452,-0.19563394784927368,0.04948008432984352
-0.8006114363670349,4.656281471252441,8.297757148742676,-0.09232791513204575,0.016982054337859154,0.0360061414539814
-0.8687791228294373,4.5905561447143555,8.423232078552246,0.13714797794818878,0.17643533647060394,0.07428121566772461
-0.5863686800003052,4.427491664886475,7.941231727600098,0.1313709318637848,0.0809483677148819,0.053529247641563416
-0.5694847702980042,4.528479099273682,7.696946144104004,0.009407324716448784,0.06283185631036758,-0.012409291230142117
-0.8142679929733276,4.788517951965332,7.9852752685546875,-0.05832890421152115,0.00296705961227417,0.014992378652095795
-0.7856428623199463,4.76055383682251,8.050455093383789,-0.05867796763777733,0.02612757869064808,0.023335052654147148
-0.820722758769989,4.640614032745361,8.320109367370605,-0.03925245627760887,0.060475658625364304,0.02670353837311268
-0.9116832613945007,4.704835891723633,8.2612886428833,-0.0005410520825535059,-0.010279988870024681,0.01563815027475357
-0.8877220749855042,4.687233924865723,8.164046287536621,0.018709929659962654,0.011588986031711102,0.009180432185530663
-0.9141636490821838,4.638411045074463,8.030285835266113,0.053965579718351364,0.04862487316131592,-0.0018675023457035422
-0.9990620017051697,4.7569146156311035,7.932469844818115,0.052324969321489334,0.05642649531364441,-0.013823007233440876
-1.1286457777023315,4.837867259979248,7.879872798919678,0.009005898609757423,0.05017821490764618,0.008936085738241673
-1.0382311344146729,4.808456897735596,8.085142135620117,-0.016702800989151,0.04937536269426346,0.030578168109059334
-0.9058414101600647,4.687530517578125,8.117061614990234,0.004188789986073971,0.03928736224770546,0.029304077848792076
-0.922495424747467,4.6644697189331055,8.13248062133789,0.019687313586473465,0.06072000414133072,0.014276793226599693
-1.0764521360397339,4.687004089355469,8.191923141479492,0.026825711131095886,0.07136651128530502,0.020786872133612633
-1.006292462348938,4.6725239753723145,8.206356048583984,0.03750712424516678,0.03879866749048233,0.03490658476948738
-0.8332587480545044,4.628317356109619,7.955855369567871,0.03153809905052185,0.03879866749048233,0.03214896470308304
-0.9102084040641785,4.610868453979492,8.000664710998535,0.008133234456181526,0.05267403647303581,0.0073129297234117985
-1.0596449375152588,4.7392168045043945,8.08478832244873,0.00921533815562725,0.04084070399403572,0.006928957067430019
-0.9722469449043274,4.779621124267578,8.065577507019043,0.033021628856658936,0.023108160123229027,0.027122415602207184
-0.8569230437278748,4.742865562438965,8.02363109588623,0.0253421813249588,0.025411993265151978,0.02254965342581272
-1.0435845851898193,4.586092948913574,9.98157024383545,0.186610609292984,-0.40313616394996643,-0.05078908056020737
-1.2160629034042358,5.216428756713867,6.187584400177002,0.15831881761550903,0.2709449231624603,0.05108578875660896
-1.1510363817214966,4.832408428192139,8.01109504699707,-0.18268361687660217,0.07260569930076599,0.006667157635092735
-0.8204450011253357,4.702968597412109,8.742857933044434,-0.06635741889476776,-0.11301007121801376,0.004869468510150909
-1.0718073844909668,4.603657245635986,8.3571138381958,0.044226642698049545,-0.030421089380979538,-6.981316983001307e-05
-1.0023468732833862,4.87440299987793,7.957684516906738,0.12739157676696777,-0.014957471750676632,0.014695672318339348
-0.9215952157974243,4.806426525115967,7.584524154663086,0.02028072625398636,-0.025167647749185562,0.04181808978319168
-0.8909590244293213,4.811071395874023,7.940695285797119,-0.08459610491991043,-0.04106759652495384,0.0423416867852211
-0.8800989389419556,4.756148338317871,8.15353012084961,-0.0892910435795784,-0.06433283537626266,0.03857177495956421
-0.9005645513534546,4.69028902053833,8.130450248718262,-0.03056071512401104,-0.0840899646282196,0.020001472905278206
-0.935041069984436,4.734294414520264,8.006756782531738,0.008779006078839302,-0.043301619589328766,0.014695672318339348
-0.9386515021324158,4.787014484405518,7.893606185913086,0.0007504915702156723,-0.050998520106077194,0.02918190509080887
-0.890116274356842,4.76177978515625,7.8301310539245605,-0.05160938575863838,-0.058625608682632446,0.04672246426343918
-0.8524793982505798,4.64841890335083,7.937248706817627,-0.10039133578538895,-0.07440338283777237,0.041748274117708206
-0.8015116453170776,4.581793308258057,8.104986190795898,-0.12028808891773224,-0.07363544404506683,0.03562216833233833
-0.6639025211334229,4.583334922790527,8.351685523986816,-0.10606365650892258,-0.04452335089445114,0.019320795312523842
-0.6159514784812927,4.717573165893555,8.544217109680176,-0.040735986083745956,-0.029653143137693405,-0.002775073517113924
-0.471312940120697,4.571957588195801,8.240267753601074,-0.0005410520825535059,-0.02275909297168255,-0.004258603323251009
-0.6649463772773743,4.574763774871826,8.247910499572754,0.01886700838804245,-0.03761184588074684,-0.023928463459014893
-0.6802693009376526,4.639780521392822,8.194682121276855,0.017418386414647102,-0.04092797264456749,-0.01961750164628029
-0.6415981650352478,4.558262825012207,8.165817260742188,0.014817845076322556,-0.029338983818888664,-0.0049916417337954044
-0.522070050239563,4.488237380981445,8.238188743591309,0.020402899011969566,-0.00012217304902151227,-0.03296926990151405
-0.6494032144546509,4.494682312011719,8.401569366455078,0.0322536826133728,0.003351032268255949,-0.06515314429998398
-0.8101116418838501,4.576401233673096,8.47705364227295,0.04057890549302101,-0.04581489413976669,-0.06799802929162979
-0.7009552121162415,4.6579766273498535,8.22122859954834,0.06016149744391441,-0.059899698942899704,-0.060929443687200546
-0.6084049344062805,4.593601226806641,7.831597328186035,0.1949707269668579,0.029530970379710197,-0.09807004779577255
-0.9482283592224121,4.459660053253174,7.4404988288879395,-0.490140825510025,-0.4539426863193512,-0.06117378920316696
-0.7508024573326111,4.698084354400635,7.815670013427734,-0.45409977436065674,-0.2923600971698761,-0.07637561112642288
-1.1776694059371948,4.8548760414123535,8.581680297851562,-0.024731315672397614,0.04731587693095207,-0.03183480724692345
-1.005210280418396,4.71031379699707,8.351607322692871,0.28735101222991943,0.1869247555732727,0.02546435408294201
-0.6944717168807983,4.610743999481201,7.510821342468262,0.22315779328346252,0.1350884884595871,0.011623892933130264
-0.671018123626709,4.709097862243652,7.499568462371826,0.004241149872541428,0.056094881147146225,-0.0230383463203907
-0.7826644778251648,4.828750133514404,7.977182865142822,-0.12995721399784088,-0.010890854522585869,-0.008412486873567104
-0.7305475473403931,4.678164482116699,8.295104026794434,-0.0970577597618103,-0.007103490177541971,-0.00205948855727911
-0.8013967275619507,4.6195068359375,8.402910232543945,0.04433136433362961,0.07168067246675491,-0.018099064007401466
-1.4740046262741089,5.298262596130371,7.386312961578369,0.36075955629348755,0.47537532448768616,0.014294246211647987
-1.3559800386428833,4.853879928588867,8.174417495727539,-0.1529432088136673,-0.08101818710565567,-0.039618972688913345
-1.0474823713302612,4.9805426597595215,8.153799057006836,-0.20263272523880005,-0.1880592256784439,-0.027296949177980423
-0.7468760013580322,4.899101734161377,7.5266804695129395,0.17594663798809052,0.14416418969631195,0.06103416532278061
-0.6457736492156982,4.747232437133789,7.614001750946045,0.04965461790561676,0.1353677362203598,0.023666664958000183
-0.6445286273956299,4.648160457611084,7.960482120513916,-0.029949849471449852,-0.01754055917263031,-0.01719149388372898
-0.8068267703056335,4.592184066772461,8.201499938964844,-0.0037000980228185654,0.05576327070593834,-0.05438445881009102
-1.0368711948394775,4.693257808685303,8.31132698059082,0.06794566661119461,0.0734434574842453,-0.07255333662033081
-1.092301845550537,4.621067523956299,7.560065269470215,-0.021502455696463585,0.32503265142440796,-0.07148868590593338
-1.480047583580017,4.9778900146484375,8.499656677246094,0.07672467082738876,0.4076390862464905,-0.08032005280256271
-1.6225216388702393,5.027957439422607,8.770094871520996,0.14589206874370575,0.2154608964920044,-0.02755874954164028
-1.667676329612732,5.743708610534668,5.2221174240112305,0.030665434896945953,0.17730799317359924,0.058224182575941086
-1.5103580951690674,5.427348613739014,7.375596523284912,-0.2802649736404419,0.2561270594596863,0.0823969915509224
-2.0629208087921143,4.758686542510986,9.022692680358887,-0.4305552840232849,-0.12515756487846375,0.08532914519309998
-1.649681568145752,5.011590480804443,9.077903747558594,-0.37172022461891174,-0.31557297706604004,0.09327039122581482
-1.3043993711471558,5.026444435119629,8.201567649841309,-0.1932777613401413,-0.3332182466983795,0.057735491544008255
-1.2992470264434814,5.030045032501221,7.547605514526367,-0.1275835633277893,-0.25246188044548035,0.04616395756602287
-1.1625093221664429,5.111170291900635,7.441839218139648,-0.10567968338727951,-0.06979571282863617,0.07295475900173187
-0.9284809827804565,4.800173282623291,8.174598693847656,-0.028955012559890747,0.042935099452733994,0.07751007378101349
-1.005622148513794,4.703954696655273,8.119714736938477,-0.11040952801704407,-0.283947616815567,-0.013857914134860039
-0.9051805734634399,4.697404384613037,7.916734218597412,-0.15231488645076752,-0.3139149248600006,-0.015201817266643047
-0.7892054915428162,4.632636547088623,7.956995010375977,-0.11084586381912231,-0.21757274866104126,-0.031381018459796906
-0.8253483176231384,4.613818168640137,8.092085838317871,0.017924530431628227,-0.09213592857122421,-0.05536184459924698
-0.9754456281661987,4.735596656799316,8.105646133422852,0.07841764390468597,-0.052324969321489334,-0.05967280641198158
-0.8754254579544067,4.547153949737549,8.282414436340332,-0.056670840829610825,-0.025446901097893715,-0.009354964829981327
-0.9544628262519836,4.55717134475708,8.396129608154297,-0.0017104226863011718,-0.042359139770269394,-0.040107667446136475
-1.0263080596923828,4.660715579986572,8.162503242492676,0.03649483621120453,-0.04237659275531769,-0.04340633749961853
-0.9918411374092102,4.727782249450684,8.095380783081055,0.032934363931417465,-0.0012740903766825795,-0.03291691094636917
-0.9562920331954956,4.676680088043213,8.247727394104004,0.03134611248970032,0.006544984877109528,-0.024085544049739838
-0.9149297475814819,4.667505741119385,8.401339530944824,0.05021312087774277,-0.02860594540834427,-0.03981095924973488
-0.9721894860267639,4.747663497924805,8.251261711120605,0.0555887371301651,-0.08730136603116989,-0.05407030135393143
-1.1875048875808716,5.3206915855407715,6.663580417633057,0.3390476703643799,0.25132742524147034,-0.061767201870679855
-1.668643593788147,5.03910493850708,7.782285213470459,0.347913920879364,0.4827580749988556,0.09841911494731903
-1.1949363946914673,4.830043315887451,7.859579563140869,-0.18277087807655334,-0.273039311170578,0.07494443655014038
-0.6907175779342651,4.596579551696777,7.2824907302856445,-0.46705010533332825,-0.2683618366718292,0.04806636646389961
-0.9501820206642151,4.745384216308594,8.486937522888184,-0.17146115005016327,0.12288863211870193,0.0038222710136324167
-0.9667403101921082,4.7469258308410645,8.308588981628418,0.22134265303611755,0.1601688712835312,0.05639158934354782
-0.6917327046394348,4.681726932525635,7.408042907714844,0.09920451790094376,0.09494590759277344,0.036023594439029694
-0.8166525959968567,4.838413238525391,7.688518524169922,-0.07955210655927658,0.08400269597768784,0.006108652334660292
-0.9408733248710632,4.7366790771484375,8.30443286895752,-0.11903145164251328,0.032882001250982285,0.013700834475457668
-0.9926072359085083,4.63737678527832,8.265138626098633,0.04804891347885132,0.024347342550754547,-0.02139773592352867
-1.188452959060669,4.954311847686768,7.917912006378174,-0.006946410518139601,-0.012828170321881771,-0.02822197414934635
-1.1632084846496582,4.878473281860352,8.046365737915039,0.028780478984117508,0.04092797264456749,-0.015585790388286114
-1.1932796239852905,4.808658123016357,8.087976455688477,0.048432886600494385,0.037489671260118484,-0.011798425577580929
-1.3906480073928833,4.8229756355285645,8.371700286865234,-0.01771509274840355,0.003054326167330146,0.007208209950476885
-1.398903250694275,4.9097700119018555,8.316096305847168,-0.005742133129388094,-0.05801474303007126,0.038990654051303864
-1.3040258884429932,4.707211017608643,11.127302169799805,0.26314330101013184,-0.5496041774749756,0.018186330795288086
-1.4031745195388794,5.331187725067139,5.577244758605957,0.330111563205719,0.30318114161491394,0.11459831893444061
-1.0219697952270508,4.693516254425049,7.8501081466674805,-0.1846558302640915,0.3269699811935425,0.13599605858325958
-1.342390537261963,4.477952003479004,8.71090030670166,-0.4516039490699768,-0.3045075833797455,0.06288421154022217
-0.8837189674377441,4.759912014007568,8.651984214782715,-0.37859681248664856,-0.32709214091300964,0.0714363232254982
-1.039926290512085,4.60366678237915,8.10647964477539,-0.02396337129175663,-0.07393214851617813,0.03082251362502575
-1.0496467351913452,4.780789852142334,8.655872344970703,-0.04113740846514702,-0.03015928901731968,0.05452408641576767
-1.0585914850234985,4.696782112121582,8.47994613647461,0.06204645335674286,-0.030264008790254593,0.04064871743321419
-1.104866623878479,4.765907287597656,8.124493598937988,0.0478220209479332,-0.05483824387192726,0.035465091466903687
-1.1060924530029297,4.778395652770996,8.031282424926758,0.010227628983557224,-0.07599163800477982,0.03848451003432274
-1.009835958480835,4.760869979858398,7.875027179718018,-0.04660028964281082,-0.10957176983356476,0.046530477702617645
-0.7540873289108276,4.68308687210083,7.827985763549805,-0.05267403647303581,-0.08566076308488846,0.04591961205005646
-0.6191884279251099,4.62506103515625,7.9502339363098145,-0.022916173562407494,-0.0587652362883091,0.01136209350079298
-0.7692186832427979,4.776087284088135,8.062521934509277,-0.04527384042739868,-0.09571385383605957,-0.01811651699244976
-0.7522964477539062,4.930388927459717,8.071428298950195,-0.096778504550457,-0.1425759494304657,-0.00031415926059708
-0.5247994065284729,4.365778923034668,8.510007858276367,0.03166027367115021,-0.036704275757074356,0.01731366664171219
-0.5607699155807495,4.380144119262695,8.416059494018555,0.06288421154022217,-0.054332099854946136,-0.03211405873298645
-0.7300112247467041,4.554125785827637,8.243523597717285,0.05899212881922722,-0.06639232486486435,-0.05605997517704964
-0.838478147983551,4.715897083282471,8.203444480895996,0.01891936920583248,-0.09779080003499985,-0.05078908056020737
-0.9007943868637085,4.760572910308838,8.153070449829102,0.006702064536511898,-0.12046262621879578,-0.03361504152417183
-1.145060420036316,4.847377300262451,7.1251630783081055,0.4746597409248352,0.2519906461238861,-0.0665144994854927
-1.0372543334960938,5.033263206481934,7.9920654296875,0.14699162542819977,0.0886976346373558,0.026651177555322647
-0.6950846314430237,4.62285852432251,7.18662691116333,-0.5040161609649658,-0.33370694518089294,0.018971728160977364
-0.690401554107666,4.657219886779785,8.256730079650879,-0.3235491216182709,-0.1803099662065506,0.007958701811730862
-0.7919348478317261,4.592078685760498,8.110549926757812,-0.10707595199346542,-0.06326818466186523,0.005393067374825478
-0.7576594352722168,4.692012786865234,8.02384090423584,0.03661700710654259,0.1644623726606369,0.032271139323711395
-0.5915976166725159,4.447066783905029,8.379668235778809,0.07588691264390945,0.15938346087932587,0.04858996719121933
-0.47300803661346436,4.410301208496094,8.209095001220703,0.005969026125967503,0.04228932783007622,-0.009162978269159794
-0.7827985882759094,4.697481155395508,8.323661804199219,0.09300859272480011,0.027890361845493317,-0.005881759338080883
-0.7885637879371643,4.664096355438232,8.071916580200195,0.09744173288345337,0.033405601978302,-0.0045553091913461685
-0.8174091577529907,4.705726623535156,7.950099468231201,0.04106759652495384,0.041661009192466736,-0.020542524755001068
-0.900305986404419,4.770705223083496,8.095399856567383,-0.01441641990095377,-0.005811946466565132,-0.00678933085873723
-0.7912644743919373,4.675128936767578,8.040075302124023,-0.01935570128262043,-0.015132004395127296,-0.004520402755588293
-0.729695200920105,4.6214985847473145,8.040380477905273,0.03652974218130112,0.05305800959467888,-0.0159872155636549
-0.8376832604408264,4.677034378051758,8.182883262634277,0.06267477571964264,0.07330382615327835,-0.029129544273018837
-0.8875784277915955,4.8445329666137695,8.147037506103516,0.042900193482637405,0.029338983818888664,-0.015568336471915245
-0.8362754583358765,4.861062526702881,8.14830207824707,0.014433872886002064,-0.0008901178953237832,0.009861109778285027
-0.7560122609138489,4.7849555015563965,8.226888656616211,-0.008534659631550312,-0.03274237737059593,0.016947146505117416
-1.266398549079895,4.96709680557251,7.192076206207275,0.3190985321998596,0.2563539743423462,0.010192723013460636
-0.9906823039054871,4.846859931945801,8.080334663391113,0.018291050568223,0.0913156270980835,0.12594296038150787
-0.9114725589752197,4.342842102050781,7.905453681945801,-0.3539876639842987,-0.31548571586608887,0.03874630853533745
-0.6222434043884277,4.514803409576416,8.142805099487305,-0.3562740683555603,-0.2526538670063019,0.032759830355644226
-0.8350879549980164,4.502909183502197,8.701093673706055,-0.043214350938797,-0.03441789373755455,0.00970403105020523
-0.7425185441970825,4.524265289306641,8.34563159942627,0.21727603673934937,0.06239552050828934,0.014660765416920185
-0.6045742034912109,4.594290733337402,7.543909072875977,0.15618951618671417,0.033859387040138245,-0.0009773843921720982
-0.621553897857666,4.766453266143799,7.834258556365967,-0.10028661787509918,-0.03595378249883652,-0.017261305823922157
-0.6463961005210876,4.701273441314697,8.198734283447266,-0.05143485218286514,-0.03764675185084343,-0.00923279207199812
-0.6553217172622681,4.626603126525879,8.257477760314941,0.0374373123049736,-0.021799162030220032,-0.03502875939011574
-0.6696294546127319,4.692951202392578,8.343639373779297,0.04331907257437706,-0.009930923581123352,-0.04914847016334534
-0.741608738899231,4.77022647857666,8.408102035522461,0.00970403105020523,-0.08218755573034286,-0.05199335888028145
-1.0876474380493164,5.300417423248291,7.445775508880615,0.23425808548927307,0.175719752907753,-0.05050982907414436
-1.1822854280471802,4.896860599517822,8.588644027709961,0.19402825832366943,0.17537067830562592,0.06181956082582474
-1.010084867477417,4.756780624389648,7.731892108917236,-0.1664869636297226,-0.38268089294433594,0.018221236765384674
-0.7728769779205322,4.913849830627441,7.517122745513916,-0.30284953117370605,-0.23006929457187653,0.03314380347728729
-0.8271966576576233,4.6472601890563965,8.572784423828125,-0.01211258489638567,0.08319984376430511,0.07267551124095917
-0.4263785779476166,4.592308521270752,7.394683361053467,0.025569073855876923,0.0017278759041801095,0.00905825849622488
-0.6290525197982788,4.737435340881348,7.839133262634277,-0.10337585210800171,0.003630284918472171,-0.016702800989151
-0.7962061166763306,4.7585906982421875,8.355629920959473,-0.0671079084277153,-0.006806783843785524,0.005044001620262861
-0.718662679195404,4.717965602874756,8.326736450195312,0.03246312215924263,-0.0017278759041801095,0.027471482753753662
-0.5815707445144653,4.696274280548096,8.143579483032227,0.05736897140741348,0.002146754879504442,0.030019663274288177
-0.5604921579360962,4.713033676147461,7.918179988861084,0.028989918529987335,-0.00031415926059708,0.01603957638144493
-0.6045837998390198,4.758159637451172,7.9427266120910645,-0.053302355110645294,-0.028710665181279182,0.020350538194179535
-0.5413864254951477,4.624601364135742,8.26048469543457,-0.07236135005950928,-0.028902651742100716,0.021938787773251534
-0.4838394224643707,4.49603271484375,8.462420463562012,-0.006719517521560192,-0.009267698042094707,-0.005445427261292934
-0.5066609382629395,4.53650426864624,8.326027870178223,0.06326818466186523,-0.020210912451148033,-0.04052654653787613
-0.6016436815261841,4.666997909545898,7.959982872009277,0.060178954154253006,-0.01523672416806221,-0.05199335888028145
-0.6413204073905945,4.713167667388916,7.969329833984375,-0.0022165682166814804,0.002949606394395232,-0.04675737023353577
-0.6312743425369263,4.705362796783447,8.40510368347168,-0.03824016451835632,-0.01984439417719841,-0.04354596510529518
-0.6427473425865173,4.623231887817383,8.616320610046387,0.01219985168427229,-0.06696828454732895,-0.049637164920568466
-0.5692358016967773,4.7000861167907715,8.258225440979004,0.07555530220270157,-0.06637486815452576,-0.0696909949183464
-1.0486124753952026,5.038233280181885,7.389224529266357,0.2726902365684509,0.2647315263748169,-0.05881759524345398
-1.159454345703125,4.856992244720459,8.087020874023438,0.1593136489391327,0.0757298395037651,0.006998770404607058
-0.7504385709762573,4.662985324859619,7.326438903808594,-0.27834510803222656,-0.20807814598083496,-0.01012290921062231
-0.8142871260643005,4.803410053253174,8.163471221923828,-0.11243411153554916,0.061627574265003204,-0.01218239776790142
-0.9411318898200989,4.800201892852783,8.493515968322754,0.027384215965867043,0.14292500913143158,0.00898844562470913
-0.7363798022270203,4.608062267303467,8.177107810974121,0.15737633407115936,0.109467051923275,0.02591813914477825
-0.4949006140232086,4.615408897399902,7.654195308685303,0.05054473504424095,0.06344271451234818,-0.012775810435414314
-0.6112684011459351,4.7235107421875,8.390604019165039,-0.03597123548388481,0.012496557086706161,-0.028902651742100716
-0.6144862174987793,4.756330490112305,8.290382385253906,-0.0031066860537976027,0.03511602431535721,-0.03569198399782181
-0.6403627395629883,4.701168060302734,8.43871784210205,0.03504621237516403,0.025045474991202354,-0.03326597437262535
-0.7233840823173523,4.683241367340088,8.125978469848633,0.057194437831640244,-0.007661995477974415,-0.08885471522808075
-0.8601121306419373,4.760247230529785,8.076188087463379,0.10362019389867783,0.037402406334877014,-0.08773770183324814
-0.9286437630653381,4.7831645011901855,7.9297871589660645,0.13772393763065338,0.08759807795286179,-0.08368853479623795
-0.9457862377166748,4.807135581970215,7.941949844360352,0.1446179747581482,0.1077391728758812,-0.0872664600610733
-1.0388153791427612,4.836746692657471,7.8907999992370605,0.1373574137687683,0.10187486559152603,-0.0973370149731636
-1.2279669046401978,5.0141191482543945,7.913076877593994,0.11534880846738815,0.06965608894824982,-0.09768607467412949
-1.3360315561294556,5.221667289733887,7.80603551864624,0.05452408641576767,-0.016057029366493225,-0.046303585171699524
-1.2991129159927368,5.172893047332764,7.765410900115967,-0.015847589820623398,-0.043999750167131424,0.013962633907794952
-1.0830601453781128,4.929306983947754,7.985533714294434,-0.0665144994854927,-0.08168140798807144,0.040997784584760666
-0.9282128214836121,4.799100399017334,8.1609525680542,-0.0507018156349659,-0.10630800575017929,0.027611108496785164
-0.7143722772598267,4.741974830627441,7.889066696166992,0.02254965342581272,0.0028623400721699,0.011536626145243645
-0.7991653680801392,4.8269500732421875,7.886750221252441,-0.008970992639660835,-0.02684316411614418,0.009407324716448784
-0.752871036529541,4.820227146148682,7.8950042724609375,-0.015062191523611546,-0.021624628454446793,0.011187560856342316
-0.6723014116287231,4.848114490509033,7.990005970001221,-0.002321287989616394,-0.007295476272702217,0.006318091880530119
-0.6591619849205017,4.866425514221191,7.998770236968994,0.00188495556358248,-0.017174039036035538,-0.004049163777381182
-0.7681460380554199,4.898287296295166,7.927670955657959,-0.03644247353076935,-0.05199335888028145,-0.01682497374713421
-0.7938119173049927,4.9074811935424805,7.991806507110596,-0.02502802200615406,-0.02710496261715889,-0.012618730776011944
-0.7025161981582642,4.849417209625244,8.069025993347168,0.011780972592532635,-0.010576695203781128,-0.015201817266643047
-0.869229257106781,4.6691813468933105,8.250323295593262,-0.03836233541369438,-0.08307766914367676,0.0073129297234117985
