accX,accY,accZ,gyroX,gyroY,gyroZ
-0.6577637791633606,5.836153507232666,7.174665451049805,0.011065387167036533,-0.0279427208006382,0.025150194764137268
-0.5535968542098999,5.838442802429199,7.229128837585449,-0.015097098425030708,-0.005550147034227848,0.013543754816055298
-0.5991537570953369,5.836795330047607,7.326496124267578,-0.023544492200016975,-0.009023352526128292,-0.0006108652451075613
-0.677424967288971,5.822727203369141,7.309813499450684,-0.03141592815518379,-0.020088739693164825,-0.003228859044611454
-0.707496166229248,5.806254863739014,7.241578578948975,-0.04539601504802704,-0.016894787549972534,0.0024958208668977022
-0.7394827008247375,5.837800979614258,7.173669815063477,-0.07185520231723785,0.005061454605311155,0.007853982038795948
-0.932330846786499,5.962845325469971,7.3010029792785645,-0.07904595881700516,0.022130774334073067,-0.015446163713932037
-0.9784336090087891,6.008852481842041,7.3293023109436035,-0.06302383542060852,0.022026054561138153,0.04468042775988579
-0.7843979001045227,5.879948616027832,7.304068565368652,-0.06129596382379532,0.042673300951719284,0.10592403262853622
-0.5727025866508484,5.666567802429199,7.232538223266602,-0.09555677324533463,0.05092870816588402,0.09922196716070175
-0.5007903575897217,5.582090377807617,7.332050800323486,-0.1771858185529709,0.06845181435346603,0.029216811060905457
-0.6518836617469788,5.712976932525635,7.459517955780029,-0.21476276218891144,0.036739181727170944,0.02600540593266487
-0.6428527235984802,5.790348052978516,7.40112829208374,-0.23715533316135406,0.03851941600441933,0.05319763720035553
-0.5061342120170593,5.746754169464111,7.302783966064453,-0.24314181506633759,0.08164650201797485,0.08400269597768784
-0.39855796098709106,5.556807994842529,7.484647750854492,-0.2266659140586853,0.14592698216438293,0.090425506234169
-0.3441712558269501,5.438840866088867,7.736680507659912,-0.19638444483280182,0.1402895599603653,0.06660176068544388
-1.059003233909607,5.57546329498291,7.642569065093994,-0.21247638761997223,0.11171852797269821,0.036425020545721054
-0.99338299036026,5.49879264831543,7.813974857330322,-0.16175711154937744,0.23514820635318756,0.10845475643873215
-1.09566330909729,5.339366436004639,8.034921646118164,-0.12391837686300278,0.16920967400074005,0.09902998059988022
-0.9222177267074585,5.239518642425537,7.553840160369873,0.0223227608948946,0.008377579972147942,0.011152653954923153
-0.78142911195755,5.302036285400391,7.120173454284668,-0.1523846983909607,0.2555336654186249,0.02457423508167267
-1.0294779539108276,5.384664535522461,8.243168830871582,-0.13123130798339844,0.04939281940460205,-0.0409105159342289
-1.3052037954330444,5.27789306640625,8.292824745178223,-0.01722639985382557,-0.08674286305904388,-0.019146261736750603
-1.1714637279510498,5.254324436187744,8.194595336914062,0.0700051560997963,-0.15214034914970398,0.019460421055555344
-0.9618561267852783,5.164426803588867,8.023917198181152,0.12334241718053818,-0.15601497888565063,0.047280970960855484
-0.8350687623023987,5.307676792144775,7.633528709411621,0.20540779829025269,-0.13028882443904877,0.05251695588231087
-0.6372790336608887,5.259687423706055,7.536534786224365,0.1725083440542221,-0.10711085796356201,0.03892084211111069
-0.5861484408378601,5.305819988250732,7.574621677398682,0.1538333147764206,-0.09328784793615341,0.020839231088757515
-0.5842522382736206,5.375068664550781,7.691622734069824,0.14020229876041412,-0.06302383542060852,-0.017086774110794067
-0.6197726130485535,5.437959671020508,7.768982887268066,0.15718434751033783,-0.07175048440694809,-0.043388884514570236
0.4472368657588959,5.085801124572754,7.343332290649414,-0.05302310362458229,0.3081902265548706,0.14800392091274261
-0.2885012924671173,5.166074275970459,7.783051490783691,-0.08283332735300064,0.1037074625492096,0.018081611022353172
-0.8791604042053223,5.519027233123779,8.366040229797363,-0.022392574697732925,0.07609635591506958,-0.05349434167146683
-0.996208131313324,5.671336650848389,8.4172945022583,0.0541401132941246,-0.05602506920695305,-0.06742206960916519
-1.023032784461975,5.854129314422607,7.82045841217041,0.1676039695739746,-0.20453514158725739,-0.060964349657297134
-0.9106106162071228,5.894754409790039,7.477809906005859,0.21670007705688477,-0.2099631130695343,-0.02082177810370922
-0.7169005870819092,5.779775142669678,7.108691215515137,0.19954349100589752,-0.1730668544769287,0.016353735700249672
-0.5089306235313416,5.650162696838379,7.056085586547852,0.12388347089290619,-0.09594074636697769,0.036023594439029694
-0.4190714657306671,5.640518665313721,7.144096374511719,0.08522442728281021,-0.0699876993894577,0.0374373123049736
-0.3437211513519287,5.622801780700684,7.378498554229736,0.03728023171424866,-0.05602506920695305,0.004450589418411255
-0.40832629799842834,5.658398628234863,7.4713454246521,0.020210912451148033,-0.06637486815452576,-0.036390114575624466
-0.5049562454223633,5.731220722198486,7.48730993270874,0.014625859446823597,-0.05749114602804184,-0.02649409882724285
-0.5356786847114563,5.750977516174316,7.5182719230651855,0.022532200440764427,-0.04096287861466408,0.00010471975838299841
-0.5015469193458557,5.661041736602783,7.449548721313477,0.02068215236067772,-0.03960151970386505,-0.005672320257872343
-0.44608762860298157,5.6491570472717285,7.376468181610107,-0.00593411922454834,-0.038641590625047684,-0.03179989755153656
-0.5170517563819885,5.697376251220703,7.587042808532715,-0.013299409300088882,-0.03963642567396164,-0.037768926471471786
-0.4383017122745514,5.743229866027832,7.598133087158203,0.007504915818572044,-0.06668902933597565,-0.04647811874747276
-0.5330067276954651,5.855278491973877,7.56218147277832,0.028780478984117508,-0.05970771238207817,-0.03179989755153656
-0.4731804132461548,5.867766857147217,7.662010192871094,0.07007496803998947,-0.050911255180835724,-0.0019373154500499368
-0.3557879328727722,5.718358993530273,7.585089206695557,0.1014036312699318,-0.07787659019231796,-0.01392772700637579
-0.301851361989975,5.667324066162109,7.308089733123779,0.08484045416116714,-0.09815731644630432,-0.027436574921011925
-0.29848989844322205,5.759433746337891,7.095992088317871,0.02427753061056137,-0.05469861999154091,-0.04509930685162544
-0.46198514103889465,5.812499046325684,7.221524715423584,-0.02316051907837391,-0.010576695203781128,-0.05218534544110298
-0.6612114310264587,5.859367847442627,7.378009796142578,-0.04181808978319168,-0.0011519172694534063,-0.03947934880852699
-0.837510883808136,5.929134845733643,7.5593085289001465,-0.016091935336589813,-0.009616764262318611,-0.021153390407562256
-0.4197801649570465,5.79836368560791,7.3277411460876465,0.02099631167948246,-0.024434609338641167,0.00017453292093705386
-0.48255613446235657,5.7970805168151855,7.374236583709717,0.009110618382692337,-0.029862582683563232,-0.0014660765882581472
-0.45700520277023315,5.801983833312988,7.354948997497559,0.0018151424592360854,-0.029949849471449852,-0.004468042869120836
-0.4464324116706848,5.726125717163086,7.268422603607178,-0.21450096368789673,-0.15563100576400757,0.006719517521560192
-0.3964989483356476,5.657565593719482,7.330537796020508,-0.28782224655151367,-0.1647939831018448,-0.00427605677396059
-0.12320561707019806,5.612477779388428,7.748565196990967,-0.17130406200885773,-0.06834709644317627,0.004258603323251009
-0.1137341558933258,5.5431132316589355,7.781874656677246,-0.059323739260435104,0.013229595497250557,0.008761553093791008
-0.12801316380500793,5.450495719909668,7.8696160316467285,0.04197516664862633,0.03810053691267967,0.007801621686667204
-0.16984465718269348,5.431610107421875,7.8195390701293945,0.0826762467622757,0.0269304309040308,-0.014590952545404434
-0.2993805408477783,5.575568675994873,7.80914831161499,0.08169886469841003,-0.012740903533995152,-0.04159119725227356
-0.31135156750679016,5.638354301452637,7.542730808258057,0.06613052636384964,-0.04443608224391937,-0.03982841223478317
-0.31564196944236755,5.640078067779541,7.3938212394714355,0.05014330893754959,-0.013002702966332436,-0.03389429301023483
-0.3865678012371063,5.685089111328125,7.455371379852295,0.04642575979232788,0.010419615544378757,-0.026860617101192474
-0.45440030097961426,5.73145055770874,7.566826343536377,0.04483750835061073,0.014503685757517815,-0.005846852902323008
-0.42501866817474365,5.620638370513916,7.574928283691406,0.04167846217751503,0.004502949304878712,-6.981316983001307e-05
-0.2663884460926056,5.607785224914551,7.641477584838867,0.03392919898033142,-0.0055850534699857235,-0.015428710728883743
-0.18547400832176208,5.594923496246338,7.722535610198975,0.04188790172338486,-0.011693705804646015,-0.015114551410079002
-0.7533307671546936,6.159792423248291,7.569335460662842,0.22483330965042114,-0.05284857004880905,-0.005777040030807257
-0.624915361404419,5.9634294509887695,7.168450355529785,-0.0055850534699857235,-0.028379052877426147,0.0478045679628849
-0.3467857241630554,5.560906887054443,7.212503433227539,-0.0665144994854927,-0.09539970010519028,0.019390607252717018
-0.2856473922729492,5.579610347747803,6.998318195343018,-0.1028173491358757,-0.0026703537441790104,-0.01563815027475357
-0.3740125894546509,5.855345726013184,7.3507161140441895,-0.08283332735300064,0.06108652427792549,0.0036651913542300463
-0.43359947204589844,5.923590183258057,7.74822998046875,-0.06756169348955154,0.04633849114179611,0.0200189258903265
-0.3601836860179901,5.794159412384033,7.768092632293701,-0.04221951588988304,-0.023858651518821716,0.03593632951378822
-0.14824897050857544,5.548351287841797,7.560333251953125,-0.009180432185530663,-0.0126710906624794,0.03358013555407524
-0.06796659529209137,5.441943645477295,7.558906078338623,0.0142593402415514,0.02019345946609974,-0.00043633230961859226
-0.21715408563613892,5.5554094314575195,7.638211727142334,0.020036378875374794,0.021956242620944977,-0.04150392860174179
-0.4888959527015686,5.694991588592529,7.627935886383057,0.0224623866379261,-0.0044156829826533794,-0.05017821490764618
-0.5972479581832886,5.830522537231445,7.575052738189697,0.021816615015268326,-0.018727382645010948,-0.02776818908751011
-0.5469793081283569,5.837839126586914,7.367753028869629,0.017994344234466553,-0.040945425629615784,0.005689773242920637
-0.3289441466331482,5.846085071563721,7.302708625793457,-0.0002617993741296232,-0.013404129073023796,0.026895523071289062
-0.22744914889335632,5.736937999725342,7.356759071350098,-0.028850292786955833,-0.001658062799833715,0.035098571330308914
-0.16489344835281372,5.61830997467041,7.490384101867676,-0.05504768341779709,0.0019198621157556772,0.03162536770105362
-0.1282142847776413,5.513664245605469,7.637397766113281,-0.05841616913676262,0.0005061454721726477,0.005619960371404886
-0.19402609765529633,5.543457984924316,7.7696919441223145,-0.03836233541369438,-0.01357866171747446,-0.032271139323711395
-0.3983568251132965,5.709787845611572,7.768178462982178,-0.004834562074393034,-0.03850196301937103,-0.05178391933441162
-0.40611404180526733,5.757633686065674,7.665639877319336,0.035849060863256454,-0.036564648151397705,-0.021066123619675636
-0.3442862033843994,5.736018657684326,7.208204746246338,0.01012290921062231,-0.015289084054529667,-0.03363249450922012
-0.5050520300865173,6.602460861206055,8.24367618560791,0.7790451645851135,0.6414259672164917,-0.008604473434388638
-0.7463205456733704,5.2230658531188965,7.082001686096191,-0.07408922910690308,0.061592668294906616,0.12170180678367615
0.12914323806762695,5.414046287536621,7.144020080566406,-0.3606373965740204,-0.33794811367988586,0.09798278659582138
0.13759955763816833,5.294978141784668,6.963133335113525,-0.4208512306213379,0.029269171878695488,-0.04961971193552017
-0.2929162085056305,5.745499610900879,8.106335639953613,-0.19484855234622955,0.04543092101812363,-0.04049163684248924
-0.5252686738967896,5.823244094848633,8.00046443939209,0.19950859248638153,0.017016960307955742,0.005777040030807257
-0.35369062423706055,5.557765483856201,7.542837619781494,0.20244073867797852,-0.005916666239500046,0.028955012559890747
-0.04880340397357941,5.433592796325684,6.799647331237793,0.15563100576400757,0.0639314129948616,-0.002722713630646467
0.11603258550167084,5.778596878051758,6.794897556304932,0.5074544548988342,0.5118178129196167,-0.03422590717673302
-0.6759980320930481,5.309027194976807,6.533230304718018,0.09885545074939728,0.005829399451613426,0.010489428415894508
-0.24672725796699524,5.403358459472656,7.8199028968811035,-0.17959438264369965,-0.20839230716228485,0.03082251362502575
-0.043545737862586975,5.433420181274414,6.79540491104126,-0.4110948443412781,-0.14849261939525604,-0.06494370102882385
-0.2106705904006958,5.576756477355957,7.220854759216309,-0.40653952956199646,-0.040421824902296066,-0.08271115273237228
-0.4145033359527588,5.8819499015808105,7.82912540435791,-0.20198695361614227,0.024434609338641167,-0.04328416660428047
-0.4944601058959961,5.9448981285095215,7.995570182800293,0.056269414722919464,0.08791223168373108,-0.0008028514566831291
-0.5354871153831482,5.9296135902404785,8.003634452819824,0.15189599990844727,0.07642796635627747,0.0012391837080940604
-0.5823081135749817,5.785425186157227,7.621635437011719,0.2145882248878479,0.028326693922281265,0.021642083302140236
-0.322738379240036,5.654041290283203,7.305743217468262,0.13028882443904877,0.01891936920583248,0.043423790484666824
-0.207835853099823,5.576622486114502,7.211728096008301,0.06560692936182022,0.01647590845823288,0.040456730872392654
-0.06498821079730988,5.551693916320801,7.306097507476807,-0.03202679008245468,0.01984439417719841,0.008517206646502018
-0.15601575374603271,5.6562628746032715,7.4686737060546875,-0.05969025939702988,0.03211405873298645,-0.018395770341157913
-0.36914756894111633,5.810468673706055,7.6135993003845215,-0.025394540280103683,0.046390850096940994,-0.01603957638144493
-0.490313321352005,5.892178058624268,7.661742210388184,0.06342526525259018,0.0979304239153862,0.02272418700158596
-0.35844069719314575,5.7873215675354,7.662547588348389,0.17001251876354218,0.16133823990821838,0.05365142226219177
-0.29880592226982117,5.711808681488037,7.659213542938232,0.25017550587654114,0.18992672860622406,0.04185299575328827
-0.4249037504196167,5.477741718292236,7.280613899230957,0.13234831392765045,0.14789919555187225,0.03171263262629509
-0.5711416006088257,5.771280288696289,7.2696003913879395,-0.0032463124953210354,0.04132939502596855,0.03813544288277626
-0.6656742095947266,5.918274879455566,7.322445392608643,-0.02295107953250408,0.08349654823541641,0.08073893189430237
-0.46042412519454956,5.859712600708008,7.434886455535889,-0.01457349956035614,0.07377506792545319,0.08395033329725266
-0.3081050217151642,5.769460678100586,7.3917717933654785,-0.01673770695924759,0.06675884127616882,0.06386159360408783
-0.3352552652359009,5.751839637756348,7.3881516456604,-0.03159045800566673,0.05824163556098938,0.03947934880852699
-0.49128058552742004,5.647164821624756,7.628376483917236,-0.007278022821992636,0.04288274049758911,0.027663469314575195
-0.5560006499290466,5.76920223236084,7.562660217285156,0.013229595497250557,0.023666664958000183,0.033056534826755524
-0.5286779999732971,5.799465179443359,7.474276065826416,0.024015730246901512,0.029199358075857162,0.04372049868106842
-0.5064981579780579,5.797262191772461,7.476210594177246,0.031014500185847282,0.03741985931992531,0.05258677154779434
-0.5339165329933167,5.807538032531738,7.468022346496582,0.03721041977405548,0.019390607252717018,0.05778785049915314
-0.6424792408943176,5.643477916717529,8.417284965515137,0.06319837272167206,-0.07972663640975952,0.0007679448463022709
-0.7826644778251648,6.486688137054443,4.234193325042725,0.17104226350784302,-0.39189621806144714,-0.023684117943048477
0.13808797299861908,5.55856990814209,6.521336078643799,-0.26340508460998535,0.7188487648963928,0.15327481925487518
-0.7092869877815247,5.590144634246826,7.909512996673584,-0.1673421710729599,-0.015184364281594753,-0.013840461149811745
-0.05334281176328659,5.85107421875,8.305974006652832,-0.07017968595027924,0.08166395872831345,0.03200933709740639
-0.3172987401485443,5.690471172332764,7.826817512512207,0.04155628755688667,-0.08412487059831619,-0.03906046971678734
-0.44543641805648804,5.767899990081787,7.457123756408691,0.04389503225684166,-0.03914773464202881,-0.012374384328722954
-0.36373668909072876,5.773904323577881,7.264342784881592,0.028728120028972626,-0.023980824276804924,-0.012461651116609573
-0.4922286868095398,5.768656253814697,7.34834098815918,0.002286381321027875,-0.0032114058267325163,-0.018535396084189415
-0.522520124912262,5.779229164123535,7.354948997497559,-0.010663961991667747,-0.030490901321172714,-0.013561207801103592
-0.4277001619338989,5.818139553070068,7.365119457244873,-0.028466319665312767,-0.008377579972147942,-0.02099631167948246
-0.5128571391105652,5.765591621398926,7.5234527587890625,-0.029530970379710197,-0.016685348004102707,-0.02085668407380581
-0.4706425666809082,5.777313709259033,7.5780792236328125,-0.00830776710063219,-0.04145156964659691,-0.010786134749650955
-0.40111497044563293,5.785185813903809,7.501062393188477,-0.0029321531765162945,-0.029216811060905457,-0.0057246801443398
-0.38221991062164307,5.650612831115723,7.566347599029541,0.007225662935525179,-0.037716563791036606,-0.020978856831789017
-0.452800989151001,5.811024188995361,7.584343433380127,0.003508111694827676,-0.03892084211111069,-0.07110471278429031
-0.5853248238563538,5.845902919769287,7.541831016540527,0.02710496261715889,-0.04855506122112274,-0.06421066075563431
-0.616162121295929,5.900892734527588,7.342451095581055,0.04401720315217972,-0.05590289458632469,-0.0337023064494133
-0.570787250995636,5.8800249099731445,7.313040733337402,0.03703588619828224,-0.0345749706029892,-0.015132004395127296
-0.4470740556716919,5.793441295623779,7.275317668914795,0.014364060014486313,-0.028274333104491234,-0.01218239776790142
-0.5141691565513611,5.778501510620117,7.340143203735352,-0.011466813273727894,-0.0038746309000998735,-0.014364060014486313
-0.531397819519043,5.771730422973633,7.442338466644287,-0.016057029366493225,-0.006143558770418167,-0.0010821041651070118
-0.44337740540504456,5.775829315185547,7.372934341430664,0.005654866807162762,-0.004712388850748539,0.010332348756492138
-0.33625125885009766,5.662296295166016,7.452986717224121,-0.00815068744122982,0.005445427261292934,-0.0024260077625513077
-0.3746829628944397,5.792751789093018,7.238006591796875,0.015184364281594753,-0.004310963209718466,0.01005309633910656
-0.3639473617076874,5.685730934143066,7.5596818923950195,-0.01682497374713421,0.0007853981805965304,-0.009250245057046413
-0.0747661292552948,5.670656681060791,8.315608024597168,-0.06635741889476776,0.02949606440961361,0.03242821618914604
-0.46783655881881714,5.374082565307617,8.174724578857422,0.06815510988235474,0.03897320106625557,-0.021048670634627342
-0.3335888981819153,5.545315742492676,7.711196422576904,0.08651597052812576,-0.049986228346824646,-0.0028797932900488377
-0.2771240472793579,5.6598639488220215,7.460897445678711,0.07637561112642288,-0.028780478984117508,-0.04787437990307808
-0.4959636628627777,5.803956508636475,7.219638347625732,0.05078908056020737,-0.04468042775988579,-0.06382668763399124
-0.66313636302948,5.941450595855713,7.181110858917236,0.002548180753365159,-0.0068765971809625626,-0.03684389963746071
-0.7234032154083252,5.903162479400635,7.275021076202393,-0.020804325118660927,0.017680184915661812,-0.006440265104174614
-1.2906183004379272,6.900606155395508,5.682225704193115,-0.09538224339485168,-0.07960446923971176,0.019896753132343292
-0.6262082457542419,5.159791946411133,7.445670127868652,-0.2925695478916168,0.3256959021091461,0.1610415279865265
0.06293877214193344,5.602288246154785,9.06162166595459,-0.1120501384139061,-0.04337143152952194,0.07450810819864273
-0.38351279497146606,5.367589473724365,8.111832618713379,0.04246386140584946,0.010314895771443844,-0.0161268413066864
-0.3415376543998718,5.541963577270508,7.779776096343994,0.14814354479312897,-0.04417428374290466,-0.0049916417337954044
-0.5117940902709961,5.570847511291504,6.822507381439209,0.05497787147760391,-0.06979571282863617,-0.023230332881212234
-0.902355432510376,6.061419486999512,5.98686408996582,-0.1970302164554596,-0.16922712326049805,-0.08934340626001358
-1.6075435876846313,6.659759044647217,5.090771675109863,-0.7464598417282104,-0.24089033901691437,-0.06302383542060852
-1.9337871074676514,6.804675102233887,5.059924602508545,-1.1230320930480957,-0.306514710187912,0.011641345918178558
-1.9512742757797241,6.442815780639648,5.09255313873291,-1.9141724109649658,-0.47736498713493347,0.23019146919250488
-1.2165800333023071,5.345409393310547,5.877965927124023,-2.5195398330688477,-0.41774454712867737,0.4338015913963318
0.06937438249588013,4.112472057342529,6.663417339324951,-2.7910258769989014,-0.1661728024482727,0.5796064138412476
0.7020373940467834,3.2409157752990723,6.80407190322876,-2.793259859085083,0.10969394445419312,0.5935515761375427
1.9603052139282227,2.3530213832855225,8.320109367370605,-2.717390298843384,0.8918283581733704,0.45413467288017273
1.5298278331756592,1.983088493347168,10.720813751220703,-2.3178322315216064,1.114514946937561,0.25471335649490356
0.39696821570396423,1.509400486946106,12.399876594543457,-1.5250861644744873,1.066029667854309,0.15966272354125977
-0.19630537927150726,1.322911262512207,13.19937801361084,-0.5368283987045288,0.7553784847259521,0.11332422494888306
-0.4020630717277527,1.5644862651824951,13.02599811553955,0.5441587567329407,0.43155011534690857,0.06339035928249359
-0.49251601099967957,1.636695384979248,12.060705184936523,1.546326756477356,0.20436060428619385,-0.03902556374669075
-0.49311932921409607,2.088069438934326,10.947391510009766,2.3114442825317383,0.03431317210197449,-0.18708184361457825
-0.6701178550720215,2.770866870880127,9.912981033325195,2.771268606185913,-0.09608037769794464,-0.2852042615413666
-0.8716425895690918,3.478592872619629,8.844371795654297,2.9021334648132324,-0.23809781670570374,-0.3246486783027649
-0.7400956153869629,4.348090171813965,5.750910758972168,0.7414507865905762,0.004921828396618366,-0.42322489619255066
-0.953667938709259,6.220844268798828,6.27207088470459,0.7126004695892334,-0.41578978300094604,-0.4061381220817566
-1.4505605697631836,5.9416422843933105,5.023906230926514,0.17058847844600677,-0.10793115943670273,-0.23221606016159058
-1.516448974609375,6.444089412689209,6.898528099060059,0.041346848011016846,0.038728855550289154,-0.1477770209312439
-1.6684616804122925,6.215375900268555,7.308376789093018,0.05841616913676262,0.01417207345366478,-0.0003316125657875091
-0.9620668292045593,5.7266621589660645,7.687398433685303,0.07480481266975403,0.047507863491773605,0.11307988315820694
-0.8281159996986389,5.535480499267578,7.749321937561035,0.10759954899549484,0.014590952545404434,0.15112805366516113
-0.7111736536026001,5.286052227020264,7.754167556762695,0.11800170689821243,0.008813912980258465,0.146328404545784
-0.7683280110359192,5.495315074920654,7.98288106918335,0.21539108455181122,-0.07974409312009811,0.02586578018963337
-0.5182105898857117,5.561069488525391,7.698497772216797,0.2566681206226349,-0.10555751621723175,0.005340707488358021
-0.6770898103713989,5.57708215713501,7.37861442565918,0.24471262097358704,-0.1005309671163559,-0.014294246211647987
-1.2837709188461304,6.056889533996582,6.705009460449219,0.20395918190479279,-0.5310164093971252,0.005148721393197775
-0.7620552182197571,5.81741189956665,5.644675254821777,-0.1083151325583458,0.21692697703838348,0.07991862297058105
0.08283937722444534,5.145148754119873,8.021611213684082,-0.18516197800636292,0.28211501240730286,0.07586946338415146
-0.6335057616233826,5.523815631866455,8.115108489990234,-0.0889943391084671,-0.006126105785369873,-0.02839650772511959
-0.7705402374267578,5.523011207580566,7.894793510437012,-0.06696828454732895,0.028797931969165802,-0.012339477427303791
-0.6589226126670837,5.548562049865723,8.102361679077148,0.006370451766997576,0.01595230959355831,-0.0047996556386351585
-0.7662498354911804,5.682417392730713,7.441571235656738,0.049008846282958984,-0.032445669174194336,-0.004660028964281082
-0.6816579103469849,5.593362331390381,7.326189994812012,0.03272492438554764,-0.04106759652495384,0.0005410520825535059
-0.8542798757553101,5.720915794372559,7.130823135375977,0.02750638872385025,-0.2980673313140869,-0.0003665191470645368
-0.4818953275680542,5.463156223297119,6.673913478851318,-0.18217746913433075,0.26286402344703674,0.03033382259309292
-0.34410423040390015,5.647452354431152,8.037583351135254,-0.18943803012371063,0.33602824807167053,0.013404129073023796
-0.9393985271453857,5.555668354034424,8.436477661132812,-0.017837265506386757,-0.04056145250797272,-0.01776745170354843
-0.9007081985473633,5.598984241485596,7.889928340911865,0.06010913848876953,-0.01432915311306715,0.035325463861227036
-0.5279788970947266,5.62957239151001,7.667114734649658,0.10677924007177353,-0.07023204863071442,0.024870941415429115
-0.6573041081428528,5.658494472503662,7.200206756591797,0.07531096041202545,-0.05173156037926674,0.015062191523611546
-0.712600588798523,5.581937313079834,7.2847700119018555,-0.04518657550215721,0.002775073517113924,-0.029618237167596817
-0.797671377658844,5.691591739654541,7.529907703399658,-0.05965535342693329,-0.016109388321638107,-0.03396410867571831
-0.7757500410079956,5.689542293548584,7.503245830535889,-0.05222025141119957,-0.01851794309914112,0.0019896754529327154
-0.7238724827766418,5.592606067657471,7.613819599151611,-0.04344124346971512,-0.0032114058267325163,0.012060225009918213
-0.6539617776870728,5.597537994384766,7.670485496520996,-0.036704275757074356,-0.00457276264205575,0.011571533046662807
-0.5728079676628113,5.596168518066406,7.7194037437438965,-0.01392772700637579,-0.0190066359937191,0.004520402755588293
-0.55152827501297,5.580769062042236,7.611484050750732,-0.0008726646192371845,-0.018797196447849274,0.0051312679424881935
-0.5832179188728333,5.571900844573975,7.653496265411377,0.004450589418411255,-0.012618730776011944,0.004241149872541428
-0.5123016834259033,5.616174697875977,7.600402355194092,0.024068091064691544,-0.03281218931078911,-0.0035953782498836517
-0.5987898111343384,5.623433589935303,7.58211088180542,0.029426250606775284,-0.028361599892377853,-0.009826203808188438
-0.6467217206954956,5.640834808349609,7.592156887054443,0.032847095280885696,-0.02834414690732956,-0.0024260077625513077
-0.5981481671333313,5.620522499084473,7.562018871307373,0.0374373123049736,-0.03153809905052185,-0.003909537568688393
-0.604555070400238,5.626708984375,7.504241943359375,0.03274237737059593,-0.027576202526688576,-0.0074525559321045876
-0.5440871119499207,5.561854839324951,7.658361434936523,-0.012932890094816685,-0.028850292786955833,-0.04368559271097183
-0.7133667469024658,5.708504676818848,7.741564750671387,0.018168877810239792,-0.03211405873298645,-0.04921828582882881
-0.8303282856941223,5.806992530822754,7.749829292297363,0.069708451628685,-0.0434936061501503,-0.015934856608510017
-0.579760730266571,5.637444496154785,7.770850658416748,0.11590731889009476,-0.04499458894133568,0.012252211570739746
-0.489393949508667,5.6358642578125,7.842829704284668,0.16694074869155884,-0.07031931728124619,-0.0028448866214603186
-0.38296690583229065,5.422522068023682,7.68271541595459,0.18999654054641724,-0.1175130158662796,-0.03677408769726753
-0.38461410999298096,5.535528182983398,7.275568008422852,0.15938346087932587,-0.16168729960918427,-0.08473573625087738
-1.4656919240951538,7.11464786529541,4.367158889770508,-0.316218763589859,0.6992835998535156,0.07770206034183502
-0.10031704604625702,5.915487766265869,8.044890403747559,-0.008779006078839302,-0.04455825686454773,-0.07349581271409988
-0.5551195740699768,5.720005989074707,8.133160591125488,0.09916960448026657,-0.008709193207323551,-0.05323254317045212
-0.6481007933616638,5.829852104187012,7.077891826629639,-0.01136209350079298,0.004660028964281082,-0.023719023913145065
-0.6892810463905334,5.7130632400512695,7.272578716278076,-0.054279740899801254,0.02727949619293213,-0.022794000804424286
-0.6222434043884277,5.6669793128967285,7.5258564949035645,-0.0711570754647255,0.03527310490608215,-0.020315632224082947
-0.6633087396621704,5.763206958770752,7.66420316696167,-0.03790855035185814,0.04818854108452797,0.05536184459924698
-0.5709021687507629,5.623184680938721,7.74778938293457,-0.0042236968874931335,0.055030230432748795,0.04920083284378052
-0.664007842540741,5.6388139724731445,7.501579284667969,0.021135937422513962,-0.003263765713199973,-0.0006457717972807586
-0.6742263436317444,5.694522380828857,7.4218058586120605,0.010471975430846214,0.00019198621157556772,-0.0050090947188436985
-0.6214006543159485,5.694943904876709,7.425261974334717,-0.003455751808360219,0.015027284622192383,-1.7453292457503267e-05
-0.6788040399551392,5.678452491760254,7.469439506530762,-0.015795229002833366,0.018797196447849274,-0.004886921960860491
-0.6159610152244568,5.666098594665527,7.646850109100342,-0.00062831852119416,0.02342231757938862,-0.0016231562476605177
-0.6417896747589111,5.664288520812988,7.668407440185547,0.02528982050716877,0.0021118484437465668,-0.00041887903353199363
-0.7824538350105286,5.7348504066467285,7.547797203063965,0.013735741376876831,-0.005602506920695305,0.002251474652439356
-0.6295026540756226,5.685730934143066,7.49061393737793,0.012636183761060238,-0.009826203808188438,0.010437068529427052
-0.530947744846344,5.666299343109131,7.610238075256348,0.020664697512984276,-0.0006457717972807586,-0.0036651913542300463
-0.6045646071434021,5.684744358062744,7.657729148864746,0.04602433368563652,-0.015358896926045418,-0.012164944782853127
-0.6106842160224915,5.653993129730225,7.616588592529297,0.06581636518239975,-0.027174776419997215,-0.01630137488245964
-1.0036780834197998,6.4178009033203125,7.1553778648376465,0.08330456167459488,-0.1762957125902176,-0.029600784182548523
-1.2347184419631958,6.093032360076904,4.965152740478516,-0.21760764718055725,0.20240582525730133,0.07244861871004105
0.20611202716827393,4.872660160064697,8.995840072631836,-0.27520352602005005,0.3116808831691742,0.08906415104866028
-0.663672685623169,5.60863733291626,8.67423152923584,-0.02165953628718853,-0.06258750706911087,-0.06599090248346329
-0.8804724216461182,5.583479404449463,8.272626876831055,0.09494590759277344,0.02577851340174675,-0.014782939106225967
-0.6262082457542419,5.571718692779541,7.606235980987549,0.16671384871006012,-0.10126399993896484,0.006492624990642071
-0.5330354571342468,5.738192558288574,6.911083221435547,0.09021607041358948,-0.02068215236067772,-0.004694935865700245
-0.5492585897445679,5.750967979431152,6.866914749145508,0.03853686898946762,-0.0009773843921720982,-0.01186823844909668
-0.6529275178909302,5.78200626373291,7.057397842407227,-0.048258353024721146,0.05134758725762367,-0.015341443940997124
-0.7434091567993164,5.73049259185791,7.352200508117676,-0.09049531817436218,0.07506661117076874,-0.017470745369791985
-0.8454787731170654,5.6486687660217285,7.661397457122803,-0.08134979754686356,0.05440191179513931,-0.013718287460505962
-0.7583585977554321,5.658896446228027,7.798786163330078,-0.04260348528623581,0.03003711625933647,0.004502949304878712
-0.6341569423675537,5.650728702545166,7.793920993804932,0.005288347601890564,0.01005309633910656,0.003909537568688393
-0.6467600464820862,5.658532619476318,7.589312553405762,0.03073524869978428,0.01171115878969431,-0.001658062799833715
-0.6473250985145569,5.664154052734375,7.500277042388916,0.03164282068610191,0.009948376566171646,-0.005445427261292934
-0.7481880187988281,5.677648067474365,7.435422897338867,0.021362829953432083,0.01979203335940838,-0.0018500490114092827
-0.7197161316871643,5.685730934143066,7.452527046203613,0.010105456225574017,0.017296213656663895,0.003281218931078911
-0.6872220635414124,5.668310642242432,7.435059070587158,0.004520402755588293,0.018901916220784187,0.0047996556386351585
-0.6886394023895264,5.676565647125244,7.477761745452881,-0.003001966280862689,0.018832102417945862,0.00010471975838299841
-0.7819558382034302,5.670685768127441,7.522140979766846,-0.003717551240697503,0.014398965984582901,0.0062831854447722435
-0.8309986591339111,5.566911220550537,8.826626777648926,-0.09665632992982864,0.08808676898479462,-0.04375540465116501
-0.9918124079704285,5.701226234436035,7.845760345458984,0.04131194204092026,-0.10630800575017929,0.008412486873567104
-0.5976214408874512,5.653744220733643,7.656129837036133,0.05784020945429802,-0.027750734239816666,0.014800392091274261
-0.5842618346214294,5.660131931304932,7.313577175140381,0.06323327869176865,-0.08735372871160507,-0.012147491797804832
-0.6251930594444275,5.7123637199401855,7.171993732452393,0.002809980185702443,0.03148574009537697,-0.016283921897411346
-0.6249440908432007,5.703466892242432,7.662661552429199,-0.0013962633674964309,0.024678954854607582,-0.031293753534555435
-0.7565964460372925,5.678079128265381,7.631680488586426,0.02727949619293213,-0.022776545956730843,-0.03487167879939079
-0.737069308757782,5.67993688583374,7.462429523468018,0.03216641768813133,-0.025987952947616577,-0.02822197414934635
-0.7767077088356018,5.623989105224609,7.470521926879883,0.020751964300870895,-0.012810716405510902,-0.0184306763112545
-0.7089326977729797,5.613799571990967,7.478164196014404,0.0034382985904812813,-0.01970476657152176,0.00855211354792118
-0.677310049533844,5.717976093292236,7.515264987945557,0.0023387412074953318,-0.011798425577580929,0.006248278543353081
-1.3376116752624512,6.422293663024902,10.093274116516113,0.15859806537628174,-0.624409019947052,-0.025010569021105766
-1.1395155191421509,6.3501410484313965,5.827314376831055,0.21472786366939545,-0.7866896986961365,-0.04351105913519859
0.010639832355082035,5.225910186767578,6.390995502471924,-0.2666688561439514,0.6818477511405945,0.11744320392608643
-0.19889111816883087,5.532751083374023,8.918381690979004,-0.14788174629211426,0.19174186885356903,-0.0774751678109169
-0.6229904294013977,5.775704860687256,8.118230819702148,0.07340855151414871,-0.0018325956771150231,0.0007853981805965304
-0.9407201409339905,5.927248477935791,7.35365629196167,0.14475761353969574,-0.11129964888095856,-0.023509584367275238
-0.6282863616943359,5.725273609161377,7.089977741241455,0.0495324432849884,0.02617993950843811,-0.005532693583518267
-0.7170155048370361,5.7090888023376465,7.257485866546631,-0.0004886921960860491,0.031817350536584854,-0.010698867961764336
-0.758712887763977,5.651129722595215,7.405956268310547,-0.026459190994501114,0.023684117943048477,0.0013089969288557768
-0.6888501048088074,5.720647811889648,7.490278720855713,-0.0316777266561985,0.003403391921892762,0.005201081279665232
-1.0188285112380981,6.196586608886719,8.427953720092773,0.28682741522789,-1.1448312997817993,-0.06932447850704193
-1.1677957773208618,6.203625202178955,4.838978290557861,0.1636071652173996,-0.5277701020240784,-0.035674531012773514
0.030913930386304855,5.497699737548828,6.127777099609375,-0.31206485629081726,0.7450810670852661,0.16496852040290833
-0.45089519023895264,5.195350646972656,9.153465270996094,-0.30091220140457153,0.4306250810623169,0.017558012157678604
-0.8443965911865234,5.781766891479492,8.602030754089355,0.07826056331396103,-0.07955210655927658,0.001029744278639555
-0.8577849864959717,5.661606788635254,7.581900119781494,0.21305234730243683,-0.20729275047779083,0.02364921197295189
-0.7058106064796448,5.711952209472656,6.639791488647461,0.13093459606170654,-0.12363912165164948,0.027663469314575195
-0.6214389801025391,5.71333122253418,6.749570369720459,-0.014556045643985271,0.03249803185462952,0.0032114058267325163
-0.6364554166793823,5.74156379699707,7.27491569519043,-0.09265953302383423,0.050911255180835724,0.0263544712215662
-0.6355839371681213,5.650784969329834,7.692598342895508,-0.08138470351696014,-0.0021642083302140236,0.0027925267349928617
-0.689740777015686,5.656425952911377,7.782878875732422,-0.041835542768239975,-0.023579398170113564,-0.0205948855727911
-0.5335238575935364,5.680952072143555,7.711081504821777,-0.0018151424592360854,-0.021956242620944977,0.0013613568153232336
-0.5307945013046265,5.648458003997803,7.573405742645264,0.012164944782853127,-0.010000736452639103,0.007609635591506958
-0.6632417440414429,5.671212196350098,7.567448616027832,0.024434609338641167,-0.01621410809457302,0.004171337001025677
-0.5895003080368042,5.671748638153076,7.459269046783447,0.02254965342581272,-0.023352505639195442,0.007138396613299847
-0.5370576977729797,5.666701793670654,7.380998134613037,0.004607669077813625,-0.015515976585447788,-0.002949606394395232
-0.5809960961341858,5.67320442199707,7.415905475616455,-0.014678219333291054,-0.0050090947188436985,-0.02033308520913124
-0.6984652280807495,5.661099433898926,7.550066947937012,-0.0034208453726023436,-0.01665044017136097,-0.0067544239573180676
-0.6851342916488647,5.657364368438721,7.504998207092285,-0.004817108623683453,-0.014102260582149029,0.004502949304878712
-0.5938194394111633,5.655946731567383,7.604472637176514,8.726646046852693e-05,-0.002809980185702443,0.006073745898902416
-0.5622159838676453,5.662430286407471,7.680799961090088,0.026912976056337357,-0.023684117943048477,-0.006527531426399946
-0.6105022430419922,5.666873931884766,7.519287109375,0.039043016731739044,-0.021956242620944977,-0.015341443940997124
-0.6518453359603882,5.679821968078613,7.4819865226745605,0.035150930285453796,-0.013369222171604633,-0.015149458311498165
-0.6602346301078796,5.679027080535889,7.427253723144531,0.02848377265036106,-0.01860520988702774,-0.007941247895359993
-0.6656742095947266,5.6918792724609375,7.426286697387695,0.013473941944539547,-0.013404129073023796,-0.0006806784076616168
-0.5828922986984253,5.695767402648926,7.563599109649658,0.010576695203781128,-0.009110618382692337,0.000715585018042475
-0.6021225452423096,5.679965496063232,7.666693210601807,0.03220132365822792,-0.014974924735724926,-0.009826203808188438
-0.7032727599143982,5.665313243865967,7.5937371253967285,0.05452408641576767,-0.033597588539123535,-0.004206243436783552
-0.7543362975120544,5.905355930328369,6.543784141540527,0.04553563892841339,-0.015742870047688484,-0.005497787147760391
-0.5793489217758179,5.284070014953613,7.116084098815918,-0.18224728107452393,0.12857840955257416,0.029391344636678696
-0.175284281373024,5.576162338256836,8.529353141784668,-0.05052728205919266,0.01333431527018547,-0.024260075762867928
-0.9092507362365723,5.706550598144531,7.886538505554199,0.04368559271097183,0.009110618382692337,-0.007278022821992636
-0.5783624649047852,5.679582595825195,7.6849751472473145,0.09176941215991974,-0.02094395086169243,0.00890117883682251
-0.5564411878585815,5.7081499099731445,7.379398822784424,0.08944812417030334,-0.022427480667829514,-0.004886921960860491
-0.5596398115158081,5.714288711547852,7.1317901611328125,0.04337143152952194,-0.019809486344456673,-0.010349802672863007
-0.5096009969711304,5.734773635864258,7.107024669647217,-0.019896753132343292,0.007941247895359993,-0.020978856831789017
-0.660311222076416,5.709146022796631,7.449720859527588,-0.052028264850378036,0.023841196671128273,-0.02604031190276146
-0.6976224780082703,5.685156345367432,7.653936862945557,-0.03750712424516678,0.0006108652451075613,-0.011990412138402462
-0.6553217172622681,5.690998077392578,7.748067378997803,-0.003996803890913725,-0.005096361506730318,-0.006579891312867403
-0.5551387071609497,5.629553318023682,7.549166679382324,0.0429176464676857,-0.02010619267821312,-0.008272860199213028
-0.5176264047622681,5.654788017272949,7.520762920379639,0.03982841223478317,-0.023003440350294113,-0.013823007233440876
-0.5523518919944763,5.6779255867004395,7.526048183441162,0.04323180392384529,-0.033021628856658936,-0.023841196671128273
-0.6078590750694275,5.721011638641357,7.409134387969971,0.03754203021526337,-0.03569198399782181,-0.03136356547474861
-0.5726451277732849,5.727964401245117,7.451473712921143,-0.00031415926059708,-0.0020769417751580477,-0.031014500185847282
-0.6549673676490784,5.777687072753906,7.42519474029541,0.0809483677148819,-0.02940879762172699,0.03118903376162052
-0.48161759972572327,5.733107089996338,7.352018356323242,0.06506587564945221,-0.01523672416806221,0.02174680307507515
-0.4613434970378876,5.594367980957031,7.337988376617432,0.029862582683563232,-0.019652407616376877,0.00041887903353199363
-0.5447670817375183,5.684658050537109,7.360494136810303,-0.006771877408027649,0.0042236968874931335,-0.018046705052256584
-0.650351345539093,5.752500534057617,7.5961503982543945,-0.0023387412074953318,0.011187560856342316,-0.026546457782387733
-0.7180784940719604,5.82049560546875,7.667085647583008,0.04066617041826248,-0.040107667446136475,-0.025272367522120476
-1.5097452402114868,6.649722576141357,6.701035022735596,0.0440695621073246,-0.5988922715187073,-0.03141592815518379
-0.9981043338775635,5.92270040512085,4.762277603149414,-0.3641454875469208,0.38261106610298157,0.050300389528274536
-0.1860581934452057,5.265923023223877,10.016507148742676,-0.2960602045059204,0.38755035400390625,0.07930775731801987
-0.6720332503318787,5.590422630310059,9.247000694274902,0.12716469168663025,-0.28214994072914124,0.03159045800566673
-0.23310904204845428,5.714757919311523,7.8097991943359375,0.22457151114940643,-0.010506882332265377,0.029199358075857162
-0.2543408274650574,5.738910675048828,7.784066677093506,0.2532298266887665,-0.03113667294383049,-0.0007330382941290736
-0.5986270308494568,5.530509948730469,6.870823383331299,0.21750293672084808,-0.13700833916664124,-0.021118484437465668
-0.22815783321857452,5.648993968963623,6.410647392272949,0.02494075521826744,-0.05482079088687897,-0.07169812172651291
-0.5416354537010193,6.020363807678223,6.705373287200928,-0.11746066063642502,0.013508847914636135,-0.08981464058160782
-0.9520303010940552,6.160357475280762,7.291358947753906,-0.14425146579742432,0.0866905003786087,-0.028536133468151093
-0.6549673676490784,5.738834381103516,7.673645973205566,-0.12461651116609573,0.03548254445195198,0.0028972465079277754
-0.556613564491272,5.721855640411377,7.7916035652160645,-0.08045967668294907,0.009110618382692337,-0.002460914198309183
-0.6046891212463379,5.714834690093994,7.881596565246582,-0.017383478581905365,-0.0007504915702156723,-0.00518362782895565
-0.6126857399940491,5.764959812164307,7.296320915222168,-0.019303342327475548,-0.007609635591506958,-0.007435102481395006
-0.5736794471740723,5.7872161865234375,7.416355609893799,-0.028815384954214096,0.00808087456971407,-0.0126710906624794
-0.5156631469726562,5.720983028411865,7.561137676239014,-0.02396337129175663,0.004904375411570072,-0.01408480666577816
-0.4226340353488922,5.657709121704102,7.551273345947266,-0.017505653202533722,-0.012077677994966507,-0.031520646065473557
-0.6878253817558289,5.742406368255615,7.530081272125244,-0.012007865123450756,-0.0020769417751580477,-0.03326597437262535
-0.7795424461364746,5.740452766418457,7.530233383178711,-0.00027925267932005227,-0.012304571457207203,-0.006649704650044441
-0.7199842929840088,5.72564697265625,7.4427490234375,0.0009599310578778386,-0.01473057921975851,0.01762782596051693
-0.7701859474182129,5.836613178253174,7.424064636230469,0.012496557086706161,-0.020385446026921272,0.023369958624243736
-0.675777792930603,5.796141624450684,7.292441368103027,0.003054326167330146,-0.010594148188829422,0.03380702808499336
-0.3829956352710724,5.664824485778809,7.3794941902160645,-0.02644173800945282,0.011763518676161766,0.039095375686883926
-0.17613662779331207,5.563971519470215,7.525416374206543,-0.048659779131412506,0.018797196447849274,0.02042035199701786
-0.3796820640563965,5.711530685424805,7.776251792907715,-0.02431243658065796,0.014940018765628338,-0.012461651116609573
-0.6537894010543823,5.741869926452637,7.335958003997803,0.022567106410861015,0.0031590459402650595,0.010559242218732834
-0.5799713730812073,5.731814384460449,7.404240608215332,0.004974188283085823,0.004625122528523207,0.013526301831007004
-0.5408596992492676,5.745863437652588,7.45155143737793,-0.0017976891249418259,0.003525565145537257,0.010105456225574017
-0.532901406288147,5.7420806884765625,7.550325393676758,0.0034732052590698004,0.00045378561480902135,0.007016223389655352
-0.49895161390304565,5.737301826477051,7.639437675476074,0.02188642881810665,-0.00045378561480902135,-0.00029670598451048136
-0.5356594920158386,5.736612319946289,7.601034641265869,0.049759335815906525,-0.016022123396396637,-0.007888888008892536
-0.5466153621673584,5.731096267700195,7.527647495269775,0.056409042328596115,-0.022828906774520874,-0.008848818950355053
-0.4364438056945801,5.593343257904053,7.388296604156494,0.04225442185997963,-0.02816961333155632,-0.01251401100307703
-0.44422975182533264,5.798890590667725,7.1493730545043945,0.014835298992693424,-0.021816615015268326,-0.03307398781180382
-1.46071195602417,6.841612815856934,6.775494575500488,0.06716027110815048,-0.469528466463089,-0.06237806752324104
-0.5795308351516724,5.136270999908447,6.506847381591797,-0.2584134340286255,0.4678180515766144,0.14161601662635803
0.430879682302475,4.859309673309326,9.011765480041504,-0.24087288975715637,0.34632569551467896,0.13084733486175537
-0.5375461578369141,5.572419166564941,8.459394454956055,-0.003944444004446268,-0.08489281684160233,-0.054017938673496246
-0.43882840871810913,5.639791011810303,8.259612083435059,0.076602503657341,0.027698375284671783,-0.01776745170354843
-0.5612870454788208,5.648036479949951,7.423759460449219,0.14755013585090637,-0.11487757414579391,-0.04906120523810387
-0.6343868374824524,5.966379165649414,6.720112323760986,0.05482079088687897,-0.013508847914636135,-0.042638394981622696
-0.7302889227867126,5.9080657958984375,6.796554088592529,-0.02595304511487484,0.014224433340132236,-0.028902651742100716
-0.544374406337738,5.723300457000732,7.1724162101745605,-0.10979866236448288,0.04886921867728233,-0.017208946868777275
-0.6308817267417908,5.720561504364014,7.484302997589111,-0.12569861114025116,0.04490732029080391,-0.017924530431628227
-0.6477464437484741,5.702279567718506,7.8757643699646,-0.0878598764538765,0.050562188029289246,-0.007120943162590265
-0.5986270308494568,5.687923908233643,7.909963130950928,-0.01647590845823288,0.016458455473184586,-0.007435102481395006
-0.5502928495407104,5.691610813140869,7.822890758514404,0.0103672556579113,0.008953538723289967,-0.009424777701497078
-0.5443840026855469,5.7236647605896,7.545450687408447,0.0383099764585495,-0.009267698042094707,-0.014748032204806805
-0.6174166798591614,5.8426947593688965,7.274428367614746,0.026162484660744667,0.006440265104174614,0.026633724570274353
-0.6446435451507568,5.59975004196167,7.368950366973877,-0.03232349827885628,0.04213224723935127,0.02258456125855446
-0.7015489339828491,5.709424018859863,7.526268482208252,-0.04279547184705734,0.021013764664530754,8.726646046852693e-05
-0.6084527969360352,5.694436073303223,7.451875686645508,-0.0026354470755904913,0.023509584367275238,0.007522369269281626
-0.6266774535179138,5.679036617279053,7.606033802032471,0.00708603672683239,0.01160643994808197,0.009756390936672688
-0.6993463039398193,5.625492572784424,11.780660629272461,0.165911003947258,-0.46958082914352417,-0.02068215236067772
-1.4757475852966309,6.365157127380371,4.015305995941162,0.3563787639141083,-0.40774381160736084,0.009773843921720982
0.5209782719612122,4.6973371505737305,6.815621376037598,-0.33742451667785645,0.8345990180969238,0.22341959178447723
-0.3770867586135864,4.9757256507873535,8.852235794067383,-0.2852042615413666,0.05208062380552292,-0.04703662171959877
-0.6008105278015137,5.867929458618164,8.720342636108398,-0.08761552721261978,-0.017470745369791985,-0.13231341540813446
-1.2768564224243164,6.307361125946045,7.925104141235352,0.12421508133411407,-0.1572890728712082,-0.08916886895895004
-0.8609932065010071,5.762575149536133,7.062262535095215,0.12316788733005524,-0.04450589418411255,0.04970697686076164
-0.438885897397995,5.642031669616699,6.988387107849121,0.03232349827885628,0.022200588136911392,0.044662974774837494
-0.6733835935592651,5.6829729080200195,7.2242350578308105,-0.03605850040912628,0.02595304511487484,0.03307398781180382
-0.6917614340782166,5.719383716583252,7.428134918212891,-0.05869542434811592,0.01127482671290636,0.003298672381788492
-0.6836690306663513,5.745375156402588,7.505363464355469,-0.057421330362558365,0.006510077975690365,-0.00617846567183733
-0.6513473391532898,5.777850151062012,7.613742828369141,-0.03331833705306053,-0.004939281847327948,0.012060225009918213
-0.5207962989807129,5.719010353088379,7.509643077850342,-0.018186330795288086,-0.013945180922746658,0.028937559574842453
-0.38005557656288147,5.667362689971924,7.578959941864014,-0.013456488028168678,0.003508111694827676,0.011397000402212143
-0.34773385524749756,5.618932723999023,7.586430072784424,-0.0070685832761228085,-0.004258603323251009,0.011641345918178558
-0.40612363815307617,5.679477214813232,7.614710330963135,-0.0033684854861348867,-0.006771877408027649,0.011397000402212143
-0.4692922532558441,5.704376697540283,7.5910844802856445,0.012897983193397522,-0.015219271183013916,-0.006492624990642071
-0.3799789547920227,5.676384925842285,7.536373138427734,0.022427480667829514,-0.024836035445332527,-0.02834414690732956
-0.29532957077026367,5.507104396820068,7.39576530456543,-0.002024581888690591,-0.028274333104491234,-0.0391651876270771
-0.524243950843811,5.680147647857666,7.607115745544434,-0.03851941600441933,0.002478367416188121,-0.0501258559525013
-0.8744581937789917,5.7853007316589355,7.724719047546387,0.00015707963029854,-0.011309733614325523,-0.05050982907414436
-0.9006986618041992,5.864932060241699,7.5774946212768555,0.046268679201602936,-0.023596851155161858,-0.030351275578141212
-0.7299441695213318,5.74055814743042,7.379120826721191,0.054855696856975555,-0.026057764887809753,-0.02494075521826744
-0.5724344253540039,5.700852394104004,7.284013748168945,0.02471386268734932,-0.016720253974199295,-0.017959438264369965
-0.5758916735649109,5.721979141235352,7.317905902862549,-0.010105456225574017,0.008272860199213028,-0.015603243373334408
-0.6239097714424133,5.894007205963135,7.4913129806518555,-0.017872171476483345,0.027872908860445023,-0.003752457909286022
-0.6866953372955322,5.882946014404297,7.618722915649414,0.022305307909846306,0.05071926862001419,0.06693337857723236
-0.5047934651374817,5.489645481109619,7.5746612548828125,0.03850196301937103,0.011379546485841274,0.05497787147760391
-0.608768880367279,5.710716724395752,7.553849697113037,0.0223227608948946,-0.014817845076322556,0.01771509274840355
-0.7549779415130615,5.908228874206543,8.389847755432129,0.07721336930990219,-0.14618878066539764,0.004293509759008884
-0.4618127644062042,5.397124290466309,6.070143699645996,-0.07014477998018265,0.18999654054641724,0.0578925721347332
-0.38642412424087524,5.664652347564697,8.080784797668457,-0.04930555075407028,0.028117254376411438,-0.03644247353076935
-0.9060903787612915,5.69969367980957,7.604166030883789,-0.020472712814807892,0.019879300147294998,0.0165631752461195
-0.3204590976238251,5.682704448699951,7.673128604888916,0.021031217649579048,-0.01335176918655634,0.0003490658418741077
-0.6543257236480713,5.708370208740234,7.34179162979126,0.013404129073023796,0.0019198621157556772,-0.00839503388851881
-0.5434167385101318,5.715859413146973,7.487712383270264,0.002949606394395232,0.004817108623683453,-0.002687806962057948
-0.538417637348175,5.720130920410156,7.4819865226745605,-0.00143117003608495,0.0024958208668977022,-0.010629055090248585
-0.6011552810668945,5.713149070739746,7.505735874176025,0.011588986031711102,-0.00921533815562725,-0.00808087456971407
-0.6000826954841614,5.703122138977051,7.443687915802002,0.002234021434560418,0.00823795422911644,-0.00143117003608495
-0.5888969898223877,5.678739547729492,7.48194694519043,-0.006492624990642071,0.005619960371404886,0.015603243373334408
-0.5216965079307556,5.753218650817871,7.564719200134277,0.00040142572834156454,0.015184364281594753,0.009878563694655895
-0.561152994632721,5.692060947418213,7.558149814605713,0.040334559977054596,-0.02555162087082863,-0.005305801052600145
-0.6381696462631226,5.75473165512085,7.327771186828613,0.027576202526688576,-0.016755159944295883,-0.004694935865700245
-1.1832239627838135,6.424820899963379,9.384197235107422,0.13987068831920624,-0.4187917411327362,-0.036477379500865936
-1.0170568227767944,5.539406776428223,4.384309768676758,-0.10185741633176804,0.38039451837539673,0.13662436604499817
0.6429293155670166,5.2477545738220215,8.546485900878906,-0.20896826684474945,0.27344071865081787,0.07017968595027924
-0.8131858110427856,5.40789794921875,8.060271263122559,-0.09957103431224823,-0.023893557488918304,-0.023282691836357117
-0.41009801626205444,5.827927112579346,8.526546478271484,0.03534291684627533,0.012758356519043446,-0.029740409925580025
-0.8773312568664551,5.776518821716309,7.507871627807617,0.13432054221630096,-0.1008102148771286,-0.02422516979277134
-0.48396390676498413,5.7597784996032715,7.010204315185547,0.08023278415203094,-0.02324778586626053,-0.010402162559330463
-0.5087391138076782,5.684811592102051,6.94470739364624,-0.015742870047688484,0.010925761424005032,-0.018622662872076035
-0.6296175718307495,5.780359268188477,7.289731025695801,-0.07354817539453506,0.0362853966653347,-0.014451325871050358
-0.6782964468002319,5.698314666748047,7.636401653289795,-0.0639488622546196,0.03597123548388481,-0.014940018765628338
-0.5539799332618713,5.680884838104248,7.807425498962402,-0.02024581842124462,0.01326450239866972,-0.013473941944539547
-0.5813887715339661,5.691457748413086,7.755537033081055,0.0036826448049396276,-0.0015707963611930609,-0.015446163713932037
-0.5512313842773438,5.697328090667725,7.579440116882324,0.02848377265036106,-0.002809980185702443,-0.020647244527935982
-0.5364735126495361,5.711415767669678,7.403685569763184,0.02785545401275158,-0.003752457909286022,-0.027209682390093803
-0.5895386338233948,5.76031494140625,7.298475742340088,0.0011693706037476659,0.008621926419436932,0.005619960371404886
-0.5751351118087769,5.724574565887451,7.329043865203857,-0.027052603662014008,0.033335790038108826,0.009180432185530663
-0.6971244812011719,5.667304992675781,7.507402420043945,-0.04049163684248924,0.04281292483210564,-0.027750734239816666
-0.7646983861923218,5.669977188110352,7.589610576629639,-0.03281218931078911,0.02733185514807701,-0.029286624863743782
-0.7069215178489685,5.6885175704956055,7.57542610168457,-0.015568336471915245,0.006998770404607058,-0.009250245057046413
-0.6703476905822754,5.698851108551025,7.563714981079102,-0.0071907564997673035,0.016510814428329468,-0.004363323096185923
-0.6680876016616821,5.690480709075928,7.555487155914307,0.006265731994062662,0.009477137587964535,0.004188789986073971
-0.6405447125434875,5.682790756225586,7.4952778816223145,0.010716321878135204,0.006649704650044441,0.009005898609757423
-0.672014057636261,5.700115203857422,7.4568939208984375,0.007103490177541971,0.0024958208668977022,0.01603957638144493
-0.6415789723396301,5.708676815032959,7.431343078613281,0.0026703537441790104,0.0062831854447722435,0.019373154267668724
-0.5691400170326233,5.694397926330566,7.516270160675049,-0.0006632251315750182,0.015969762578606606,0.015882495790719986
-0.6323469281196594,5.683154582977295,7.584352016448975,0.010559242218732834,0.0017976891249418259,0.0114493602886796
-1.0136475563049316,5.863361358642578,11.564962387084961,0.2088111937046051,-0.742567777633667,-0.012479104101657867
-0.9156289100646973,5.662296295166016,4.3410420417785645,0.03867649659514427,0.09283406287431717,0.07782422751188278
0.659008800983429,5.660380840301514,6.930485725402832,-0.26307347416877747,0.695827841758728,0.006946410518139601
-0.39715972542762756,5.558033466339111,8.365943908691406,-0.21875956654548645,0.39353683590888977,-0.04879940673708916
-1.2393057346343994,5.506385803222656,8.532033920288086,-0.02802998758852482,-0.073722705245018,0.03003711625933647
-0.492851197719574,5.848153591156006,7.8224310874938965,0.09374163299798965,-0.0985238328576088,0.04310963302850723
-0.4921712279319763,5.72011137008667,6.946613311767578,0.05075417459011078,-0.05363396927714348,0.01918116770684719
-0.6208739280700684,5.738834381103516,7.215769290924072,-0.023230332881212234,0.06014404445886612,0.006963863503187895
-0.6687867045402527,5.6876654624938965,7.666970729827881,-0.021956242620944977,0.020263273268938065,0.011763518676161766
-0.661929726600647,5.732101917266846,7.572276592254639,0.0028972465079277754,-0.03228859230875969,0.013683381490409374
-0.5487414598464966,5.689302921295166,7.455122470855713,0.0037350046914070845,-0.009581857360899448,0.0038920841179788113
-0.44695913791656494,5.628289222717285,7.533776760101318,-0.007347836159169674,0.010000736452639103,0.022532200440764427
-0.5728271007537842,5.713273525238037,7.630013942718506,0.0057246801443398,0.005288347601890564,0.004084070213139057
-0.6249440908432007,5.705698490142822,7.611741542816162,0.02975786291062832,-0.022078415378928185,0.010279988870024681
-0.4377845525741577,5.709902763366699,7.417447090148926,0.030089477077126503,-0.027628561481833458,-0.0008552113431505859
-0.4485967755317688,5.728213310241699,7.398197650909424,0.011623892933130264,-0.012705996632575989,-0.024486970156431198
-0.5841851830482483,5.724833011627197,7.360101222991943,-0.004956734832376242,-0.017662731930613518,-0.03380702808499336
-0.6479092836380005,5.731766700744629,7.392920970916748,-0.024783674627542496,-0.0036128314677625895,-0.026284659281373024
-0.6831902265548706,5.7379150390625,7.425022602081299,-0.030578168109059334,-0.0005934119690209627,-0.020141098648309708
-0.6473538279533386,5.7100749015808105,7.562985897064209,-0.02963569015264511,0.0037873645778745413,-0.00663225119933486
-0.5614785552024841,5.699406623840332,7.682217121124268,-0.005794493015855551,-0.00143117003608495,-0.009320057928562164
-0.5422579050064087,5.696773052215576,7.644896507263184,0.023265238851308823,-0.02419026382267475,-0.021205751225352287
-0.616679310798645,5.706770896911621,7.442059516906738,0.026895523071289062,-0.02272418700158596,-0.018483037129044533
-0.5977172255516052,5.723597526550293,7.383507251739502,0.008709193207323551,-0.00593411922454834,-0.015254177153110504
-0.5975543856620789,5.72569465637207,7.513004779815674,0.01731366664171219,-0.016912240535020828,-0.004834562074393034
-0.5719172954559326,5.647710800170898,7.374246120452881,0.0022689281031489372,-0.014695672318339348,0.0008028514566831291
-1.2980881929397583,6.654271602630615,5.836307048797607,-0.07751007378101349,-0.11882201582193375,0.01127482671290636
-0.06643430888652802,4.6746978759765625,8.349061012268066,-0.2568950057029724,0.24898867309093475,0.09730210900306702
-0.5170613527297974,5.574515342712402,8.42586612701416,-0.019320795312523842,-0.07302457839250565,-0.02923426404595375
-0.6801735162734985,5.6383161544799805,8.145313262939453,0.08042477071285248,0.019233528524637222,-6.981316983001307e-05
-0.43402087688446045,5.5233845710754395,7.40570592880249,0.12751375138759613,-0.07988371700048447,-0.004328416660428047
-0.4165719151496887,5.69195556640625,6.864377021789551,0.026686083525419235,-0.01136209350079298,-0.015707964077591896
-0.6107320785522461,5.790443420410156,7.070403099060059,-0.0587477833032608,0.021205751225352287,-0.024434609338641167
-0.6186521053314209,5.818053722381592,7.489206314086914,-0.07850491255521774,0.04000294581055641,-0.02347467839717865
-0.6108853220939636,5.658121109008789,7.713475704193115,-0.05417501926422119,0.02830924093723297,-0.039793506264686584
-0.665511429309845,5.645825386047363,7.769596099853516,-0.014433872886002064,0.0006632251315750182,-0.03848451003432274
-0.6372119784355164,5.679888725280762,7.387404918670654,0.015306537039577961,0.018500490114092827,0.0022165682166814804
-0.6630501747131348,5.704261779785156,7.4416093826293945,0.007592182140797377,0.003490658476948738,-0.005270894151180983
-0.5632981657981873,5.706550598144531,7.406778812408447,-0.005445427261292934,-0.0036826448049396276,-0.007016223389655352
-0.5349221229553223,5.68328857421875,7.488832950592041,-0.01918116770684719,0.013002702966332436,-0.01673770695924759
-0.6490297317504883,5.65772819519043,7.602078437805176,-0.008429939858615398,0.013124875724315643,-0.018709929659962654
-0.7291110157966614,5.676527500152588,7.615792274475098,0.005619960371404886,0.0020420351065695286,-0.008272860199213028
-0.674934983253479,5.670158863067627,7.49786376953125,0.012461651116609573,-0.006998770404607058,0.0003316125657875091
-0.6529275178909302,5.682235240936279,7.372072219848633,-0.005619960371404886,0.01211258489638567,0.00045378561480902135
-0.6879977583885193,5.697854995727539,7.479227066040039,-0.018832102417945862,0.02117084339261055,0.010000736452639103
-0.6404297947883606,5.654979705810547,7.696727275848389,-0.0011693706037476659,0.0027576202992349863,0.018325956538319588
-0.5804502367973328,5.669220447540283,7.6090407371521,0.02143264375627041,-0.01572541706264019,0.009442231617867947
-0.5952272415161133,5.681689262390137,7.503475666046143,0.025097833946347237,-0.01342158205807209,0.003926991019397974
-0.7842063903808594,6.287672519683838,9.614683151245117,0.37810811400413513,-1.2357454299926758,-0.0639488622546196
-0.954300045967102,5.781288146972656,4.097063064575195,-0.05571090802550316,0.6071825623512268,0.20462240278720856
0.07716032862663269,5.192190170288086,8.24696159362793,-0.263300359249115,0.47631779313087463,0.010175269097089767
-0.7309305667877197,5.361172676086426,8.655499458312988,-0.1707630157470703,0.02808234840631485,-0.0119555052369833
-0.7144680619239807,5.794034957885742,7.909407615661621,-0.08876744657754898,-0.004625122528523207,0.006195918656885624
-0.7604750394821167,5.886048793792725,7.950272083282471,0.038292523473501205,-0.05066690966486931,-0.0011344640515744686
-0.4353041648864746,5.6802144050598145,7.482781410217285,-0.01310742273926735,-0.004241149872541428,0.003717551240697503
-0.5420951247215271,5.669402122497559,7.577714920043945,0.0042236968874931335,-0.011623892933130264,-0.0031241392716765404
-0.5263891816139221,5.699712753295898,7.48797082901001,0.007504915818572044,-0.016196655109524727,-0.011536626145243645
-0.6047753095626831,5.670053482055664,7.456348419189453,0.00020943951676599681,-0.008203047327697277,-0.011152653954923153
-0.5768780708312988,5.669488430023193,7.481564044952393,-0.007504915818572044,-0.010646508075296879,-0.011501720175147057
-0.5466249585151672,5.678337574005127,7.463521480560303,-0.009599311277270317,-0.008412486873567104,-0.012060225009918213
-0.57554692029953,5.6911702156066895,7.490575790405273,-0.015690509229898453,-0.00043633230961859226,-0.01638864167034626
-0.7014532089233398,5.653562545776367,7.437041282653809,0.011309733614325523,-0.005969026125967503,0.002478367416188121
-0.616679310798645,5.689772129058838,7.470655918121338,-0.0008028514566831291,0.011187560856342316,0.010349802672863007
-0.5896631479263306,5.682828903198242,7.537722587585449,-0.000715585018042475,0.005829399451613426,0.01218239776790142
-0.6010116338729858,5.696025848388672,7.563579559326172,0.005532693583518267,0.0005585053586401045,0.012391837313771248
-0.5944419503211975,5.685635089874268,7.556272506713867,0.0159872155636549,-0.005427973810583353,0.013631021603941917
-0.546328067779541,5.668243408203125,7.542903423309326,0.019390607252717018,-0.006126105785369873,0.011972958222031593
-0.5314170122146606,5.598150730133057,7.541543483734131,0.02108357660472393,-0.006824237294495106,0.0068765971809625626
-0.35556766390800476,5.411518096923828,7.473213195800781,-0.008831365965306759,-0.031154127791523933,-0.02609267272055149
-1.4366645812988281,6.892446517944336,6.536074638366699,0.18682004511356354,-0.44980624318122864,-0.04858996719121933
0.10512460023164749,4.402093887329102,7.053260326385498,-0.16585864126682281,0.43041566014289856,0.17210692167282104
0.6421152949333191,4.988424301147461,8.220012664794922,-0.1817411333322525,0.22286109626293182,0.04070107638835907
-0.431588351726532,5.249670028686523,7.992851734161377,-0.1131846010684967,-0.045326199382543564,-0.08302531391382217
-0.7413309812545776,5.863581657409668,8.570245742797852,0.0017802357906475663,0.06054547056555748,-0.11025244742631912
-0.6197630167007446,5.780886173248291,6.594569683074951,0.04417428374290466,-0.006213372107595205,0.0057246801443398
-0.5879871845245361,5.724363803863525,6.853526592254639,-0.08367108553647995,0.0380132719874382,0.0067369709722697735
-0.5885235071182251,5.715725421905518,7.402746677398682,-0.13578662276268005,0.05804964900016785,0.007819075137376785
-0.5448532700538635,5.656808853149414,7.894209384918213,0.08998917788267136,-0.03792600333690643,-0.003525565145537257
-0.5012596249580383,5.691898345947266,7.363826751708984,0.10279989242553711,-0.04159119725227356,-0.015428710728883743
-0.5772324204444885,5.712871551513672,7.077700614929199,0.044662974774837494,-0.013753194361925125,-0.021013764664530754
-0.621553897857666,5.733835220336914,7.062367916107178,-0.02759365551173687,0.010437068529427052,-0.0184306763112545
-0.6067960262298584,5.69053840637207,7.650230884552002,-0.06627015024423599,0.022165682166814804,-0.019216075539588928
-0.6229904294013977,5.670857906341553,7.84403657913208,-0.021589722484350204,0.012374384328722954,-0.019338248297572136
-0.6660860180854797,5.669670581817627,7.77221155166626,0.028064893558621407,-0.013683381490409374,-0.01682497374713421
-1.0212514400482178,6.241607189178467,9.707462310791016,0.09126326441764832,-0.331856906414032,-0.018186330795288086
-0.887731671333313,5.2985405921936035,5.012232303619385,-0.10293951630592346,0.34894368052482605,0.1506044566631317
-0.6476506590843201,5.503876686096191,8.804035186767578,-0.04729842394590378,-0.040055304765701294,-0.03162536770105362
-0.523908793926239,5.629438400268555,8.051556587219238,0.0348542258143425,-0.0029845130629837513,0.01785471849143505
-0.5994889140129089,5.817507743835449,7.638020038604736,0.13573426008224487,-0.10604620724916458,-0.03511602431535721
-0.7762193083763123,5.7812018394470215,6.889698028564453,0.06895796209573746,-0.005881759338080883,0.003926991019397974
-0.5316468477249146,5.733767986297607,6.964550495147705,-0.01891936920583248,0.0071907564997673035,0.00593411922454834
-0.6094679832458496,5.735616207122803,7.3224358558654785,-0.07876671105623245,0.04310963302850723,0.0073303827084600925
-0.5763322114944458,5.67822265625,7.66349458694458,-0.06691592186689377,0.008970992639660835,0.0066147977486252785
-0.5329971313476562,5.670589923858643,7.822977066040039,-0.02675589732825756,0.01160643994808197,-0.0031415927223861217
-0.6421631574630737,5.649999618530273,7.860843658447266,0.03286454826593399,-0.009930923581123352,-0.006928957067430019
-0.6466547250747681,5.6812872886657715,7.541993618011475,0.06319837272167206,-0.027611108496785164,-0.00043633230961859226
-0.5887437462806702,5.71675968170166,7.241368293762207,0.03701843321323395,-0.010192723013460636,0.00062831852119416
-0.6020650863647461,5.722275733947754,7.265405654907227,-0.00617846567183733,0.006352998316287994,-0.00062831852119416
-0.6007147431373596,5.684936046600342,7.468108654022217,-0.027471482753753662,0.004153883550316095,-0.0005410520825535059
-1.0661954879760742,5.57686185836792,8.07243537902832,0.02822197414934635,0.011833332479000092,-0.0029845130629837513
-0.44424888491630554,5.637617111206055,7.955472469329834,0.12194615602493286,-0.051399946212768555,0.019460421055555344
-0.5677705407142639,5.718282222747803,7.102561950683594,0.10342821478843689,-0.03960151970386505,-0.0029845130629837513
-0.6971340179443359,5.875964641571045,6.971982002258301,0.03445279970765114,-0.004450589418411255,0.006387905217707157
-0.509198784828186,5.722534656524658,7.089604377746582,-0.041399210691452026,0.02600540593266487,0.012653636746108532
-0.5401797890663147,5.703763961791992,7.472858428955078,-0.07012733072042465,0.022689281031489372,-0.005567600484937429
-0.651854932308197,5.702365875244141,7.748373985290527,-0.04513421282172203,0.012496557086706161,-0.004241149872541428
-0.5803161859512329,5.7066850662231445,7.597588062286377,0.06359979510307312,-0.026145031675696373,0.00029670598451048136
-0.6067960262298584,5.732801914215088,7.364104270935059,0.056897733360528946,-0.02506292797625065,0.004014257341623306
0.08752243220806122,4.497498035430908,9.665095329284668,-0.14273302257061005,-0.14405947923660278,0.0809309184551239
-0.18466955423355103,5.632397651672363,8.201004028320312,0.05089380219578743,-0.08189085125923157,-0.03206169977784157
-0.730355978012085,5.432615756988525,8.165328979492188,0.14041173458099365,0.01286307629197836,-0.0256388857960701
-0.560616672039032,5.287240028381348,7.985964775085449,0.17376497387886047,-0.058939769864082336,-0.020751964300870895
-0.21955786645412445,5.566700458526611,7.016667366027832,0.11754792183637619,-0.10124655067920685,-0.07045894116163254
-0.7269179224967957,5.964942455291748,6.828607559204102,0.02802998758852482,-0.058573249727487564,-0.10101965814828873
-0.5438476800918579,5.712325572967529,7.416460990905762,-0.09983283281326294,0.022078415378928185,-0.00518362782895565
-0.6239097714424133,5.681095600128174,7.5875983238220215,-0.09663888067007065,0.024417156353592873,-0.005305801052600145
-0.6189777255058289,5.661520481109619,7.879002571105957,-0.05899212881922722,0.021938787773251534,0.00094247778179124
-0.5704041719436646,5.6610798835754395,7.930495738983154,0.011972958222031593,-0.009808750823140144,-0.0019024088978767395
-0.5836393237113953,5.6643171310424805,7.779527187347412,0.039357174187898636,-0.022602014243602753,-0.004066617228090763
-0.5748478174209595,5.674765586853027,7.420790672302246,0.048694685101509094,-0.023998277261853218,-0.00045378561480902135
-0.5984546542167664,5.693938255310059,7.259362697601318,0.014905111864209175,-0.0030717793852090836,0.00017453292093705386
-0.5814462304115295,5.689944744110107,7.319974422454834,-0.019460421055555344,0.005654866807162762,0.0010646508308127522
-0.5839840769767761,5.695671558380127,7.449865818023682,-0.04043927788734436,0.008639379404485226,-0.0023387412074953318
-0.6294834613800049,5.6822829246521,7.593019008636475,-0.036582101136446,0.009878563694655895,-0.0018675023457035422
-0.6592003107070923,5.662899494171143,7.647683143615723,-0.005305801052600145,-0.00017453292093705386,0.007400196045637131
-0.6047561764717102,5.673434257507324,7.5383830070495605,0.002949606394395232,0.005375613924115896,0.01302015595138073
-0.5923063158988953,5.663378715515137,7.4903364181518555,0.003455751808360219,0.006998770404607058,0.013875367119908333
-0.49678725004196167,5.684543132781982,7.414037704467773,-0.00890117883682251,0.010978121310472488,0.004817108623683453
-0.5232575535774231,5.672285079956055,7.485844612121582,-0.022968532517552376,0.012479104101657867,-0.008220500312745571
-0.5888395309448242,5.672285079956055,7.576671123504639,-0.018727382645010948,-8.726646046852693e-05,-0.014294246211647987
-0.6051583886146545,5.652461051940918,7.552614212036133,-0.010733774863183498,-0.004502949304878712,-0.014905111864209175
-0.6772525906562805,5.668301105499268,7.600383281707764,-0.005427973810583353,0.0015009831404313445,-0.008517206646502018
-0.7271477580070496,5.669689655303955,7.432913780212402,-0.009721484035253525,0.00022689280740451068,0.04415683075785637
-0.49044740200042725,5.513204574584961,7.612297058105469,-0.01912880875170231,0.02649409882724285,0.017435839399695396
-0.524684488773346,5.526478290557861,7.728291034698486,-0.0032463124953210354,-0.06428047269582748,-0.07585200667381287
-0.5564124584197998,5.837187767028809,7.345410346984863,-0.003752457909286022,-0.05511749908328056,-0.03827507048845291
-0.5540853142738342,5.743114948272705,7.280728816986084,-0.03190461918711662,0.011885692365467548,0.02373647689819336
-0.38803303241729736,5.630041599273682,7.695270538330078,-0.019233528524637222,-0.026459190994501114,-0.013159782625734806
-0.4112280607223511,5.633680820465088,7.508015155792236,-0.013805554248392582,-0.03249803185462952,-0.04141666367650032
-0.533868670463562,5.630185127258301,7.47261905670166,-0.02839650772511959,-0.010419615544378757,-0.05630432069301605
-0.694404661655426,5.703629970550537,7.629305362701416,-0.016929693520069122,-0.003996803890913725,0.01021017599850893
-0.5198194980621338,5.609692096710205,7.593334674835205,-0.003909537568688393,0.018936822190880775,0.03338814899325371
-0.6382367014884949,5.631411075592041,7.6115403175354,0.00411897711455822,0.00015707963029854,0.015934856608510017
-0.6115460991859436,5.636429309844971,7.594512939453125,0.011938052251935005,-0.003228859044611454,0.01855284906923771
-0.4791084825992584,5.638258457183838,7.556052207946777,0.01970476657152176,-0.008133234456181526,0.006998770404607058
-0.5017863512039185,5.635701656341553,7.518204689025879,0.01958259381353855,-0.012461651116609573,-0.010506882332265377
-0.577826201915741,5.641026496887207,7.427053928375244,0.006387905217707157,-0.016091935336589813,-0.016109388321638107
-0.6288992762565613,5.645613670349121,7.429025650024414,-0.015690509229898453,-0.002600540639832616,-0.012531463988125324
-0.5518538951873779,5.606233596801758,7.664615154266357,0.0011868239380419254,0.006108652334660292,0.01441641990095377
-0.5810440182685852,5.622236728668213,7.647347927093506,0.019373154267668724,-0.00043633230961859226,0.01202531810849905
-0.5710649490356445,5.642510890960693,7.527101516723633,0.022706734016537666,-0.0025830871891230345,0.008866272866725922
-0.575451135635376,5.6362762451171875,7.476258277893066,0.014189526438713074,0.004433136433362961,0.008779006078839302
-0.5523614883422852,5.577713966369629,7.515360355377197,0.0007330382941290736,0.010978121310472488,0.008674286305904388
-0.47075748443603516,5.5352983474731445,7.571518898010254,-0.007016223389655352,-0.008517206646502018,-0.011658798903226852
-0.5605400800704956,5.675378322601318,7.59702205657959,-0.005951572675257921,-0.005742133129388094,-0.027384215965867043
-0.6379876732826233,5.728529453277588,7.637407302856445,0.01589994877576828,-0.010157816112041473,-0.017575465142726898
-0.6283917427062988,5.71984338760376,7.595738887786865,0.027139870449900627,-0.012950343079864979,-0.011623892933130264
-0.651969850063324,5.683432579040527,7.443371772766113,0.029304077848792076,-0.011239920742809772,0.002007128670811653
-0.5955337285995483,5.660945892333984,7.400237560272217,0.004974188283085823,0.003577925032004714,0.012391837313771248
-0.5754798650741577,5.648467540740967,7.49030876159668,-0.010943214409053326,0.013700834475457668,0.018151424825191498
-0.49223828315734863,5.6401166915893555,7.607384204864502,-0.0021642083302140236,0.00062831852119416,0.005742133129388094
-0.5051765441894531,5.584197521209717,7.5681681632995605,-0.00022689280740451068,-0.0020943949930369854,-0.007871435023844242
-0.4800757169723511,5.51136589050293,7.570704936981201,-0.005742133129388094,-0.019547687843441963,-0.03659955412149429
-0.7081952691078186,5.7899932861328125,7.535433292388916,0.008587019518017769,-0.00663225119933486,-0.014538592658936977
-0.6169378757476807,5.666519641876221,7.466854095458984,0.006387905217707157,-0.005288347601890564,-0.002024581888690591
-0.5398637056350708,5.64592981338501,7.448887825012207,-0.007504915818572044,-0.004398229531943798,-0.008255407214164734
-0.5750585198402405,5.662727355957031,7.4947991371154785,-0.021589722484350204,0.0038397242315113544,-0.010925761424005032
-0.5627427101135254,5.640030384063721,7.5932488441467285,-0.020490165799856186,0.001518436474725604,-0.00898844562470913
-0.5614977478981018,5.641677379608154,7.617631435394287,-0.009599311277270317,0.0008028514566831291,-0.01005309633910656
-0.5969127416610718,5.643286228179932,7.620686054229736,0.0010821041651070118,-0.005375613924115896,-0.008709193207323551
-0.5816951990127563,5.625761032104492,7.530683517456055,0.004345869645476341,-0.0026529005263000727,-0.0038746309000998735
-0.5932257175445557,5.625942707061768,7.5912089347839355,0.005113814491778612,-0.0038397242315113544,-0.0030717793852090836
-0.5562400817871094,5.637482643127441,7.493937015533447,0.0038746309000998735,-0.010559242218732834,-0.008045967668294907
-0.6122931241989136,5.640202522277832,7.492787837982178,-0.004607669077813625,-0.0038222710136324167,-0.005986479111015797
-0.637805700302124,5.647021293640137,7.5079193115234375,-0.014800392091274261,0.0021642083302140236,-0.0012391837080940604
-0.5841085910797119,5.629696846008301,7.571518898010254,-0.01417207345366478,-0.003926991019397974,0.0026179938577115536
-0.542746365070343,5.646293640136719,7.5955376625061035,-0.0005759586347267032,-0.005777040030807257,-0.012095131911337376
-0.6063650846481323,5.637482643127441,7.538565158843994,0.0007330382941290736,-0.008639379404485226,-0.010384708642959595
-0.6737570762634277,5.637540340423584,7.535233497619629,-0.0009773843921720982,-0.003036872949451208,-0.0013962633674964309
-0.5805651545524597,5.627197265625,7.542855739593506,-0.0032463124953210354,-0.0016406094655394554,0.008115780539810658
-0.5193597674369812,5.6327900886535645,7.583863258361816,-0.0024434609804302454,0.005235987715423107,0.004956734832376242
-0.5631928443908691,5.630740642547607,7.570245265960693,5.2359879191499203e-05,0.00040142572834156454,-0.0006806784076616168
-0.5487126708030701,5.623998641967773,7.534428119659424,-0.0005585053586401045,0.0005235987482592463,-0.00143117003608495
-0.622425377368927,5.631765365600586,7.478776931762695,0.0015009831404313445,-0.003979350905865431,-0.0016755161341279745
-0.6394625306129456,5.638794898986816,7.54727029800415,-0.007016223389655352,0.010541788302361965,0.004398229531943798
-0.574158251285553,5.6391777992248535,7.632820129394531,0.001117010717280209,0.003630284918472171,0.009651671163737774
-0.5723291039466858,5.631094932556152,7.5850701332092285,0.01005309633910656,-0.0030194194987416267,0.0038222710136324167
-0.5477933287620544,5.646820068359375,7.507660865783691,0.009267698042094707,-0.0047996556386351585,-0.00038397242315113544
-0.5710458159446716,5.6303863525390625,7.505323886871338,0.006492624990642071,-0.0017627825727686286,-0.0016231562476605177
-0.6178093552589417,5.647222518920898,7.534619331359863,0.0017104226863011718,6.981316983001307e-05,0.0037350046914070845
-0.5809865593910217,5.643458843231201,7.541677474975586,0.0006457717972807586,0.0030717793852090836,0.009075712412595749
-0.5524859428405762,5.651771545410156,7.558417797088623,0.0016057029133662581,0.002007128670811653,0.00808087456971407
-0.5713522434234619,5.640145301818848,7.545182704925537,-0.0017278759041801095,-0.00041887903353199363,0.007923794910311699
-0.5975735783576965,5.632493495941162,7.539991855621338,-0.004153883550316095,0.005794493015855551,0.007016223389655352
-0.5676843523979187,5.646657466888428,7.5895233154296875,0.003054326167330146,-0.0026179938577115536,0.0024260077625513077
-0.6068822145462036,5.654711723327637,7.485365867614746,-0.002234021434560418,0.0008726646192371845,0.003752457909286022
-0.6350763440132141,5.649128437042236,7.5484771728515625,-0.005096361506730318,0.00427605677396059,-0.010978121310472488
-0.6617286205291748,5.7047505378723145,7.556521415710449,0.002460914198309183,-0.022479841485619545,-0.02790781483054161
-0.4257752299308777,5.6279826164245605,7.380959510803223,-0.009093165397644043,-0.012479104101657867,0.005305801052600145
-0.47807416319847107,5.586917400360107,7.4110212326049805,-0.04735078290104866,0.018727382645010948,-0.00708603672683239
-0.5821549296379089,5.640844345092773,7.712221145629883,-0.04783947393298149,0.01846558414399624,-0.009040805511176586
-0.6148309707641602,5.613071441650391,7.7853593826293945,-0.029426250606775284,0.007016223389655352,-0.008255407214164734
-0.6176178455352783,5.6119608879089355,7.768523216247559,0.005340707488358021,-0.009512044489383698,-0.001029744278639555
-0.5884085893630981,5.615513801574707,7.596839904785156,0.021711895242333412,-0.011623892933130264,-0.0007679448463022709
-0.634549617767334,5.646705150604248,7.522581577301025,0.021275563165545464,-0.013247049413621426,0.0022689281031489372
-0.5780943632125854,5.635921955108643,7.477139472961426,0.008499753661453724,-0.0070685832761228085,0.006405358202755451
-0.5609997510910034,5.640671730041504,7.486515045166016,-0.004939281847327948,-0.004014257341623306,0.0012915435945615172
-0.5434454679489136,5.628538131713867,7.529515266418457,-0.01417207345366478,-6.981316983001307e-05,-0.0010122909443452954
-0.5818101167678833,5.617678165435791,7.580348491668701,-0.01589994877576828,3.490658491500653e-05,-0.009040805511176586
-0.6050817966461182,5.613866329193115,7.612048149108887,-0.010105456225574017,0.0036651913542300463,-0.006230825558304787
-0.6060107350349426,5.62257194519043,7.6245551109313965,-0.00022689280740451068,-0.004869468510150909,-0.0016057029133662581
-0.5707201957702637,5.615054130554199,7.531574249267578,-0.0011344640515744686,-0.00593411922454834,-0.002321287989616394
-0.5809482336044312,5.621058464050293,7.545154094696045,-0.007888888008892536,0.004886921960860491,-0.0022165682166814804
-0.6084911227226257,5.614508152008057,7.60862922668457,0.006841690745204687,0.0007330382941290736,-0.0015533430268988013
-0.607801616191864,5.619612693786621,7.56644344329834,0.010768681764602661,-0.0061610122211277485,0.0031066860537976027
-0.589950442314148,5.603580951690674,7.490288257598877,0.0027052604127675295,-0.006318091880530119,0.003944444004446268
-0.5575520992279053,5.62644100189209,7.499692916870117,-0.011466813273727894,0.004206243436783552,0.0013089969288557768
-0.5812067985534668,5.621566295623779,7.565724849700928,-0.01633628085255623,0.006248278543353081,0.00188495556358248
-0.556709349155426,5.614776134490967,7.62138557434082,-0.010279988870024681,0.007470009382814169,8.726646046852693e-05
-0.6064895987510681,5.602259159088135,7.669642925262451,-0.0022689281031489372,0.002827433403581381,5.2359879191499203e-05
-0.566152036190033,5.612142562866211,7.626039505004883,0.013247049413621426,-0.010663961991667747,0.001972222002223134
-0.5658264756202698,5.614595413208008,7.537779808044434,0.007801621686667204,-0.00125663704238832,-0.004363323096185923
-0.5513367652893066,5.616222381591797,7.556588649749756,-0.0010122909443452954,-0.00027925267932005227,0.00031415926059708
-0.5653188824653625,5.612219333648682,7.569432258605957,-0.00040142572834156454,0.0012915435945615172,-0.0021642083302140236
-0.5706052780151367,5.634245872497559,7.60669469833374,0.0028448866214603186,-0.00038397242315113544,-0.00783652812242508
-0.6016820073127747,5.629026412963867,7.567400932312012,0.008587019518017769,-0.00921533815562725,-0.005218534264713526
-0.6032143235206604,5.62908411026001,7.50764274597168,0.00022689280740451068,-0.0010646508308127522,0.0033859387040138245
-0.549038290977478,5.62403678894043,7.519315719604492,-0.010471975430846214,0.0119555052369833,0.007801621686667204
-0.5357552766799927,5.608254432678223,7.635616302490234,-0.0037873645778745413,0.007487462367862463,0.0017802357906475663
-0.5823655724525452,5.587578296661377,7.625637531280518,0.006579891312867403,0.001117010717280209,-0.00331612559966743
-0.6398168802261353,5.601991176605225,7.588259220123291,0.009843656793236732,-0.0070685832761228085,-0.0008028514566831291
-0.5753458142280579,5.613080978393555,7.546762943267822,0.010524335317313671,-0.0014137167017906904,0.0055850534699857235
-0.5892226099967957,5.625349044799805,7.6568193435668945,-0.002809980185702443,0.00041887903353199363,-0.0036128314677625895
-0.5938290357589722,5.622236728668213,7.603438377380371,0.009267698042094707,-0.006841690745204687,-0.002827433403581381
-0.5991154313087463,5.623816967010498,7.52126932144165,0.0057246801443398,-0.002687806962057948,-0.00045378561480902135
-0.5513654947280884,5.637990474700928,7.52988862991333,-0.0005235987482592463,0.002548180753365159,-0.0010122909443452954
-0.581925094127655,5.61915397644043,7.547854423522949,-0.00593411922454834,0.004502949304878712,-0.002809980185702443
-0.6079356670379639,5.618501663208008,7.5748419761657715,-0.005654866807162762,0.00502654816955328,0.001483529806137085
-0.5476113557815552,5.610064506530762,7.610448837280273,-0.0020769417751580477,0.0027052604127675295,0.0015358896926045418
-0.5595057606697083,5.6120758056640625,7.749810218811035,-0.0028797932900488377,0.009581857360899448,0.008779006078839302
-0.5550621151924133,5.633355140686035,7.663916110992432,0.024085544049739838,-0.014381512999534607,0.0067369709722697735
-0.5658168792724609,5.627350807189941,7.51154899597168,0.018832102417945862,-0.00045378561480902135,0.0037350046914070845
-0.5929479598999023,5.649434566497803,7.459269046783447,0.004886921960860491,-0.002722713630646467,0.0035953782498836517
-0.5598313808441162,5.634954452514648,7.4751667976379395,-0.006108652334660292,-0.0008726646192371845,0.0023561944253742695
-0.5790233016014099,5.621182918548584,7.713160037994385,0.005759586580097675,0.0033335788175463676,0.009983283467590809
-0.5036250948905945,5.610859394073486,7.521681308746338,0.018535396084189415,-0.011746065691113472,0.005811946466565132
-0.6106554865837097,5.624324321746826,7.540288925170898,-0.009075712412595749,-0.002687806962057948,0.00029670598451048136
-0.5575425028800964,5.654730796813965,7.575981616973877,-0.01603957638144493,0.012077677994966507,0.0024260077625513077
-0.5761215090751648,5.631976127624512,7.624919414520264,-0.005864306353032589,0.0021118484437465668,-0.00019198621157556772
-0.5608943700790405,5.625712871551514,7.530827045440674,-0.0036477381363511086,-0.005340707488358021,-0.00027925267932005227
-0.5726451277732849,5.619880676269531,7.5591936111450195,-0.0077841682359576225,-0.00015707963029854,-0.0045553091913461685
-0.5632407069206238,5.62239933013916,7.5445027351379395,-0.005393067374825478,-0.003909537568688393,-0.0045378562062978745
-0.5855642557144165,5.642520427703857,7.487894058227539,-0.017907077446579933,0.0018325956771150231,-0.006719517521560192
-0.612159013748169,5.610543251037598,7.606598854064941,-0.017575465142726898,0.011623892933130264,-0.003543018363416195
-0.5219072103500366,5.615054130554199,7.557249546051025,-0.007976154796779156,-0.005393067374825478,-0.0018325956771150231
-0.5789658427238464,5.610141277313232,7.565074920654297,-0.014887658879160881,0.007679448463022709,-0.0063355453312397
-0.6040762066841125,5.6006598472595215,7.663906574249268,-0.00047123889089562,-0.0017627825727686286,-0.003001966280862689
-0.5858132243156433,5.584666728973389,7.615907192230225,0.007731808349490166,-0.010332348756492138,0.0003490658418741077
-0.5271552801132202,5.563540458679199,7.537310600280762,0.007138396613299847,-0.011152653954923153,-0.004380776546895504
-0.5791669487953186,5.66669225692749,7.484197616577148,-0.007906341925263405,0.002007128670811653,-0.0068765971809625626
-0.5398828983306885,5.627254962921143,7.548812389373779,-0.011815878562629223,0.002146754879504442,0.006387905217707157
-0.539710521697998,5.610112190246582,7.647262096405029,-0.0030717793852090836,-6.981316983001307e-05,-0.0033684854861348867
-0.6205483078956604,5.633029460906982,7.62429666519165,0.00548033369705081,-0.006544984877109528,-0.004852015525102615
-0.577289879322052,5.605956077575684,7.524190425872803,0.004712388850748539,-0.00921533815562725,-0.0016406094655394554
-0.6063458919525146,5.652834415435791,7.462065696716309,-0.008674286305904388,-0.0009599310578778386,0.004014257341623306
-0.655005693435669,5.6769490242004395,7.5116448402404785,-0.019809486344456673,0.01661553420126438,0.017558012157678604
-0.5705094933509827,5.567907333374023,7.514307022094727,-0.03230604529380798,0.01961750164628029,0.030002210289239883
-0.5235257148742676,5.489415645599365,7.701648712158203,-0.03487167879939079,0.015341443940997124,0.015306537039577961
-0.6024672985076904,5.567198753356934,7.714883804321289,-0.021188296377658844,-0.00331612559966743,0.004153883550316095
-0.5443265438079834,5.549108028411865,7.657413482666016,-0.0031939526088535786,-0.009616764262318611,0.004310963209718466
-0.553041398525238,5.585193634033203,7.577831268310547,-0.011257373727858067,0.0027576202992349863,-0.0031415927223861217
-0.6333237886428833,5.610782623291016,7.695146083831787,-0.002460914198309183,0.006824237294495106,-0.0012217304902151227
-0.5788604617118835,5.596560955047607,7.449031352996826,-0.012164944782853127,-0.00020943951676599681,-0.0032114058267325163
-0.5718502402305603,5.5639424324035645,7.5322346687316895,-0.031381018459796906,0.009599311277270317,0.0044156829826533794
-0.4909645617008209,5.56217098236084,7.7358856201171875,-0.02874557301402092,0.010489428415894508,8.726646046852693e-05
-0.560951828956604,5.5758562088012695,7.778234481811523,-0.0030194194987416267,-0.004049163777381182,-0.009651671163737774
-0.6331610083580017,5.633230686187744,7.62931489944458,0.018343409523367882,-0.012304571457207203,-0.012740903533995152
-0.5995655655860901,5.531362056732178,7.47592306137085,0.008621926419436932,-0.011554080061614513,-0.00502654816955328
-0.5559048652648926,5.584360122680664,7.5327043533325195,-0.02626720443367958,0.018622662872076035,0.0008901178953237832
-0.5747616291046143,5.573145866394043,7.737867832183838,-0.013491394929587841,0.007801621686667204,-0.0026354470755904913
-0.6112109422683716,5.565361022949219,7.595738887786865,0.004939281847327948,-0.0017627825727686286,-0.011938052251935005
-0.6834966540336609,5.576986312866211,7.607058525085449,0.005270894151180983,0.0021816615480929613,-0.0016406094655394554
-0.6723780035972595,5.580098628997803,7.6368231773376465,0.00799360778182745,-0.0006457717972807586,0.007365289609879255
-0.5761789679527283,5.577867031097412,7.576900959014893,0.010262535884976387,-0.003281218931078911,0.015550883486866951
-0.504984974861145,5.586084365844727,7.5762786865234375,0.006021386012434959,0.004921828396618366,0.010541788302361965
-0.5394136309623718,5.577254295349121,7.654799938201904,0.010419615544378757,-0.0002617993741296232,0.004834562074393034
-0.5378525853157043,5.558675289154053,7.6002397537231445,0.01710422709584236,-0.003455751808360219,0.0
-0.5657498240470886,5.607967376708984,7.603237152099609,-0.006544984877109528,0.01392772700637579,0.012147491797804832
-0.5235161185264587,5.615762710571289,7.63893985748291,0.0027925267349928617,0.003054326167330146,0.00518362782895565
-0.6017394661903381,5.604098320007324,7.519459247589111,-0.0024434609804302454,0.0028797932900488377,-0.0008901178953237832
-0.5958688855171204,5.607105255126953,7.594857692718506,-0.00874409917742014,0.006492624990642071,0.006544984877109528
-0.5504652261734009,5.589924335479736,7.614231586456299,-0.0052534411661326885,0.00040142572834156454,0.008255407214164734
-0.5051574110984802,5.570512294769287,7.613924980163574,-0.0017627825727686286,-0.0003665191470645368,0.002251474652439356
-0.5367608666419983,5.599836349487305,7.620245933532715,-0.00024434609804302454,0.004520402755588293,-0.004241149872541428
-0.5674641132354736,5.589694499969482,7.582446098327637,0.004136430099606514,-0.0025830871891230345,-0.006387905217707157
-0.5487893223762512,5.502766132354736,7.585816860198975,0.0015358896926045418,-0.0028623400721699,-0.0067369709722697735
-0.5739092826843262,5.543620586395264,7.455361843109131,-0.005410520825535059,-0.016545720398426056,0.0015009831404313445
-0.5798660516738892,5.591897487640381,7.405323028564453,-0.023928463459014893,0.005899212788790464,0.006405358202755451
-0.5033282041549683,5.606022834777832,7.69481086730957,-0.02525491453707218,0.02151990868151188,0.004084070213139057
-0.622003972530365,5.5639424324035645,7.5728020668029785,-0.006841690745204687,-0.0017278759041801095,0.007609635591506958
-0.5051765441894531,5.603542804718018,7.577399253845215,-0.011641345918178558,0.00563741335645318,0.003804817795753479
-0.5365980267524719,5.574726104736328,7.710085868835449,0.001745329238474369,0.005916666239500046,-0.001029744278639555
-0.5874987840652466,5.606166839599609,7.421660900115967,0.010594148188829422,-0.0039618974551558495,-0.005340707488358021
-0.5730090737342834,5.549050807952881,7.556532382965088,-0.004171337001025677,0.005305801052600145,-0.0013613568153232336
-0.6466642618179321,5.593774318695068,7.702453136444092,0.0067544239573180676,0.0017976891249418259,0.006649704650044441
-0.5433784127235413,5.578652381896973,7.62566614151001,0.02413790300488472,-0.008779006078839302,0.0032114058267325163
-0.5957348346710205,5.580816745758057,7.528030872344971,0.018151424825191498,0.00047123889089562,0.0009773843921720982
-0.6475740671157837,5.604413986206055,7.509192943572998,0.006928957067430019,0.0029321531765162945,0.009512044489383698
-0.5595823526382446,5.600899696350098,7.590299129486084,0.002478367416188121,0.006771877408027649,0.020001472905278206
-0.5187947750091553,5.556013107299805,7.584592342376709,0.021240657195448875,-0.0006981316837482154,-0.008220500312745571
-0.6428239941596985,5.57255220413208,7.438238620758057,0.008848818950355053,-0.014748032204806805,0.0015358896926045418
-0.569283664226532,5.559632778167725,7.5896477699279785,-0.013980086892843246,0.026424285024404526,0.015603243373334408
-0.3952156603336334,5.502708435058594,7.761618614196777,-0.00205948855727911,-0.012374384328722954,-0.013788101263344288
-0.5495075583457947,5.667525291442871,7.6242594718933105,0.014468779787421227,-0.025813419371843338,-0.04525638744235039
-0.6947015523910522,5.61904764175415,7.446120262145996,0.014870204962790012,-0.0016231562476605177,-0.009948376566171646
-0.5666596293449402,5.620426654815674,7.463128566741943,-0.002827433403581381,0.00012217304902151227,-0.0019373154500499368
-0.5524859428405762,5.607402324676514,7.488583564758301,-0.018936822190880775,0.005235987715423107,0.0015358896926045418
-0.5392029285430908,5.610936164855957,7.643335342407227,-0.02658136375248432,0.01909390278160572,-0.0006981316837482154
-0.5665543079376221,5.5928168296813965,7.762557029724121,-0.004468042869120836,0.00205948855727911,-0.0015533430268988013
-0.5447958111763,5.611769199371338,7.695777893066406,0.021624628454446793,-0.007557275705039501,-0.005567600484937429
-0.535831868648529,5.593592166900635,7.581517219543457,0.027750734239816666,-0.005899212788790464,-0.012060225009918213
-0.5455811023712158,5.558818817138672,7.546695709228516,0.02666863054037094,-0.008621926419436932,-0.011885692365467548
-0.5464046597480774,5.582655429840088,7.401501655578613,0.006195918656885624,-0.015219271183013916,-0.0126710906624794
-0.5005701184272766,5.622610092163086,7.523797512054443,-0.026738444343209267,-0.003752457909286022,-0.03241076320409775
-0.6655688881874084,5.608034133911133,7.674680233001709,-0.023439772427082062,-0.005497787147760391,-0.029932396486401558
-0.8912367820739746,5.91024923324585,7.717641830444336,0.02010619267821312,0.01160643994808197,0.0377340167760849
-0.6589513421058655,5.419361591339111,7.724096775054932,0.05054473504424095,0.04194026067852974,0.08735372871160507
-0.6293302774429321,5.544281482696533,7.657853603363037,0.054768431931734085,-0.0019198621157556772,0.020298179239034653
-0.39578068256378174,5.450610637664795,7.539341926574707,0.04040437191724777,-0.03099704720079899,0.0021642083302140236
-0.33077332377433777,5.592127323150635,7.483335494995117,0.011431906372308731,-0.02830924093723297,-0.046268679201602936
-0.534835934638977,5.808783054351807,7.564805507659912,0.015830136835575104,-0.023928463459014893,-0.044366270303726196
-0.613758385181427,5.8187432289123535,7.521566390991211,0.035325463861227036,-0.021118484437465668,-0.03241076320409775
-0.5581554174423218,5.653342247009277,7.315176486968994,0.015655603259801865,-0.04187044873833656,-0.023684117943048477
-0.5898163318634033,5.6455559730529785,7.37393045425415,-0.030490901321172714,-0.003176499158143997,-0.020559977740049362
-0.5760927796363831,5.658638000488281,7.645174026489258,-0.024731315672397614,-0.005340707488358021,-0.01966986060142517
-0.5692358016967773,5.61488151550293,7.7617716789245605,0.0036826448049396276,-0.008045967668294907,-0.0286583062261343
-0.6317914724349976,5.609700679779053,7.787581443786621,0.036075957119464874,-0.006126105785369873,-0.026389379054307938
-0.6645824909210205,5.560140609741211,7.725571632385254,0.0676838681101799,-0.027890361845493317,-0.0018500490114092827
-0.4293665289878845,5.574132442474365,7.576719284057617,0.066252700984478,-0.020751964300870895,0.014608405530452728
-0.4682866930961609,5.61760139465332,7.636190891265869,0.06658431142568588,-0.01572541706264019,-0.011676252819597721
-0.47683876752853394,5.618721961975098,7.65360164642334,0.082972951233387,-0.037978366017341614,-0.02755874954164028
-0.5392412543296814,5.706475257873535,7.5431809425354,0.086428701877594,-0.04323180392384529,-0.03522074595093727
-0.6845980286598206,5.799867153167725,7.395870685577393,0.08548622578382492,-0.03242821618914604,-0.03207915276288986
-0.6725120544433594,5.823675155639648,7.304220676422119,0.06756169348955154,-0.012758356519043446,-0.015777776017785072
-0.6624947190284729,5.756484031677246,7.305111408233643,0.0492531917989254,-0.0071907564997673035,-0.008639379404485226
-0.5303826928138733,5.723176002502441,7.303578853607178,0.012287117540836334,-0.0008726646192371845,-0.0016231562476605177
-0.576322615146637,5.736555099487305,7.4065775871276855,-0.010070549324154854,0.0076445420272648335,-0.004468042869120836
-0.5679908394813538,5.731919765472412,7.562813758850098,-0.009983283467590809,0.015149458311498165,-0.001658062799833715
-0.5201259255409241,5.712325572967529,7.672630786895752,0.01392772700637579,0.0038746309000998735,-0.006126105785369873
-0.4553675651550293,5.579322814941406,7.589734077453613,0.022532200440764427,-0.012130037881433964,-0.0013613568153232336
-0.6336110830307007,5.785195350646973,7.582043647766113,0.036302849650382996,0.00038397242315113544,-0.019861847162246704
-0.5538746118545532,5.7421393394470215,7.503897190093994,0.03534291684627533,0.022218041121959686,-0.018622662872076035
-0.6295409202575684,5.829670429229736,7.4619221687316895,0.027436574921011925,0.00617846567183733,-0.017680184915661812
-0.48038217425346375,5.633594512939453,7.528385162353516,0.0005061454721726477,0.002600540639832616,-0.050300389528274536
-0.513948917388916,5.719852924346924,7.553045272827148,0.007295476272702217,0.009913469664752483,-0.07033676654100418
-0.6641898155212402,5.8067145347595215,7.334502696990967,0.050597093999385834,-0.025307273492217064,-0.0731467455625534
-0.9363243579864502,5.420300006866455,7.311537265777588,-0.16608552634716034,0.14554300904273987,0.035639625042676926
