accX,accY,accZ,gyroX,gyroY,gyroZ
0.2518221139907837,0.1596166342496872,9.785877227783203,0.0010471974965184927,0.0036651913542300463,0.0017278759041801095
0.25891852378845215,0.16451995074748993,9.83336067199707,-0.0034382985904812813,-0.01045452244579792,0.0008028514566831291
0.27321672439575195,0.18292658030986786,9.835954666137695,-0.00094247778179124,-0.002827433403581381,0.0005061454721726477
0.2707650363445282,0.17052461206912994,9.826263427734375,0.0007853981805965304,-0.0009773843921720982,0.00020943951676599681
0.2550590932369232,0.1516391485929489,9.810585975646973,0.0016406094655394554,0.002687806962057948,0.0002617993741296232
0.2650189697742462,0.16740258038043976,9.821121215820312,0.00188495556358248,0.008499753661453724,0.00062831852119416
0.2570510506629944,0.16077542304992676,9.821264266967773,0.004642575979232788,-0.0011693706037476659,0.00029670598451048136
0.2457600086927414,0.16412730515003204,9.840129852294922,0.0014660765882581472,-0.0044156829826533794,0.00020943951676599681
0.2634292244911194,0.17565777897834778,9.827431678771973,0.0009075712296180427,0.0007853981805965304,0.00031415926059708
0.2611212134361267,0.17861701548099518,9.804571151733398,-0.00062831852119416,0.0012740903766825795,0.00045378561480902135
0.245262011885643,0.16871459782123566,9.832632064819336,-0.001483529806137085,-0.003176499158143997,0.00012217304902151227
0.25737667083740234,0.16782395541667938,9.849190711975098,-0.00012217304902151227,0.00143117003608495,0.00020943951676599681
0.24821166694164276,0.17603127658367157,9.804840087890625,0.0003490658418741077,0.0005759586347267032,0.00031415926059708
0.2565722167491913,0.166703462600708,9.842842102050781,0.0011344640515744686,-0.003089232835918665,8.726646046852693e-05
0.25960806012153625,0.17550455033779144,9.858498573303223,0.0027576202992349863,0.0009948377264663577,0.0006457717972807586
0.2654690742492676,0.15455050766468048,10.233133316040039,0.1169545128941536,0.2653249502182007,-0.007679448463022709
0.5747616291046143,0.06569689512252808,11.185040473937988,-0.039706241339445114,-0.10955431312322617,0.003508111694827676
0.2972736358642578,0.1459888368844986,10.261462211608887,0.17161822319030762,0.431393027305603,-0.014556045643985271
-0.02113601192831993,0.2662639617919922,8.28092098236084,-0.015865042805671692,-0.04417428374290466,0.0013613568153232336
0.3450714945793152,0.14972379803657532,10.40915584564209,-0.13868385553359985,-0.3551919460296631,0.01242674421519041
0.4977353513240814,0.0876660868525505,10.901326179504395,0.06728244572877884,0.179751455783844,-0.00502654816955328
0.09044335782527924,0.2352350950241089,9.00411319732666,0.09140289574861526,0.21420425176620483,-0.006422811653465033
0.12518800795078278,0.19830693304538727,9.210023880004883,-0.10459758341312408,-0.2486046999692917,0.008342674002051353
0.4616403877735138,0.12276507914066315,10.80898666381836,-0.028064893558621407,-0.06572909653186798,0.002234021434560418
0.25567200779914856,0.16679923236370087,9.910107612609863,0.09939649701118469,0.2500184178352356,-0.008272860199213028
0.09967540204524994,0.2282344549894333,8.94877815246582,-0.0322536826133728,-0.07824310660362244,0.003351032268255949
0.3729974627494812,0.15429192781448364,10.399924278259277,-0.0630761981010437,-0.15774285793304443,0.004433136433362961
0.33178845047950745,0.14489707350730896,10.306894302368164,0.06483898311853409,0.16376423835754395,-0.004066617228090763
0.13219822943210602,0.20658129453659058,9.1560697555542,0.011885692365467548,0.023282691836357117,-0.0016929693520069122
0.15343959629535675,0.2001265287399292,9.365043640136719,-0.04668755829334259,-0.11344639956951141,0.003804817795753479
0.3702201843261719,0.12921984493732452,10.409011840820312,-0.020036378875374794,-0.049357909709215164,0.0016406094655394554
0.26879221200942993,0.12618400156497955,10.390547752380371,0.09519025683403015,0.2384817898273468,-0.007120943162590265
0.052950162440538406,0.22415472567081451,8.929481506347656,-0.033510319888591766,-0.07663740962743759,0.003176499158143997
0.4510292708873749,0.09664913266897202,10.7667818069458,-0.008621926419436932,-0.03052580915391445,0.0005410520825535059
0.22618500888347626,0.17702727019786835,9.76286506652832,0.09002408385276794,0.21882937848567963,-0.006248278543353081
0.11371500045061111,0.2191077470779419,9.10714054107666,-0.04230678081512451,-0.1126086413860321,0.00411897711455822
0.36714601516723633,0.12964123487472534,10.459404945373535,-0.04279547184705734,-0.11149163544178009,0.0035953782498836517
0.29090505838394165,0.15056654810905457,10.062762260437012,0.06483898311853409,0.16081464290618896,-0.005532693583518267
0.1526351422071457,0.20825722813606262,9.211978912353516,-0.007801621686667204,-0.016283921897411346,3.490658491500653e-05
0.3159484267234802,0.14731043577194214,10.125635147094727,-0.0501258559525013,-0.12060225009918213,0.0046774824149906635
0.33766862750053406,0.1478850394487381,10.205945014953613,0.03857177495956421,0.09255480766296387,-0.0017976891249418259
0.1840183287858963,0.21876299381256104,9.45906925201416,0.01242674421519041,0.02528982050716877,-0.0008726646192371845
0.27465322613716125,0.1670961230993271,9.909600257873535,-0.03614576905965805,-0.09372418373823166,0.0032114058267325163
0.3220009505748749,0.16774733364582062,10.161422729492188,0.017470745369791985,0.04712389037013054,0.00022689280740451068
0.20328687131404877,0.2029612511396408,9.616147994995117,0.013002702966332436,0.03375466912984848,-0.0008901178953237832
0.25617000460624695,0.17044800519943237,9.847600936889648,-0.026319565251469612,-0.06370452046394348,0.0008028514566831291
0.29521462321281433,0.16310259699821472,10.068565368652344,0.010070549324154854,0.02094395086169243,1.7453292457503267e-05
0.23191194236278534,0.16311216354370117,9.82668399810791,-0.017383478581905365,-0.041172318160533905,0.0013613568153232336
0.29784825444221497,0.1603444665670395,10.02363109588623,0.0038920841179788113,0.007016223389655352,0.00027925267932005227
0.25073036551475525,0.18397045135498047,9.771771430969238,0.012740903533995152,0.025534166023135185,-0.00024434609804302454
0.2486809343099594,0.18400876224040985,9.819531440734863,-0.008429939858615398,-0.0285186804831028,0.0008377580670639873
0.279767245054245,0.17308162152767181,10.000158309936523,0.0005934119690209627,-0.0003490658418741077,0.0009773843921720982
0.25333526730537415,0.18984103202819824,9.8113431930542,0.008674286305904388,0.018832102417945862,0.0006457717972807586
0.2628641724586487,0.1804366111755371,9.822548866271973,-0.005375613924115896,-0.017575465142726898,0.0005759586347267032
0.2873520851135254,0.1721622496843338,9.900090217590332,0.0007853981805965304,-0.00043633230961859226,0.00041887903353199363
0.4353616237640381,0.10732726752758026,10.802886962890625,-0.09588839113712311,-0.2477320283651352,0.00970403105020523
0.4338676333427429,0.1392563432455063,10.621416091918945,0.10252063721418381,0.2707878351211548,-0.008325220085680485
0.06318777054548264,0.23740902543067932,8.757980346679688,0.033999014645814896,0.07485716789960861,-0.0024958208668977022
0.08138369768857956,0.243260458111763,8.90534782409668,-0.0645073652267456,-0.1609891653060913,0.005340707488358021
0.4184010922908783,0.13277284801006317,10.674327850341797,-0.056094881147146225,-0.1587027907371521,0.00609119888395071
0.3443819582462311,0.16010504961013794,10.295757293701172,0.09051277488470078,0.2235068678855896,-0.007155850064009428
0.08865249902009964,0.23832839727401733,8.985486030578613,0.0025830871891230345,0.0037000980228185654,0.0005759586347267032
0.2996487021446228,0.16797718405723572,10.081686973571777,-0.07464773207902908,-0.1869247555732727,0.006195918656885624
0.15654247999191284,0.20765389502048492,9.266335487365723,-0.02675589732825756,-0.05469861999154091,0.00188495556358248
0.3407140374183655,0.1719132512807846,10.265006065368652,-0.04105014353990555,-0.0961850956082344,0.004084070213139057
0.2955881357192993,0.1559104025363922,10.085497856140137,0.042760565876960754,0.10841985046863556,-0.0028797932900488377
0.18809805810451508,0.21260510385036469,9.443833351135254,0.00013962633966002613,-0.0014137167017906904,0.0015009831404313445
0.29326096177101135,0.17062996327877045,10.021477699279785,-0.034435346722602844,-0.08602727949619293,0.0028797932900488377
0.3079805076122284,0.16359101235866547,10.107802391052246,0.022968532517552376,0.06103416532278061,-0.0006981316837482154
0.19747374951839447,0.1911051720380783,9.603123664855957,0.007731808349490166,0.01837831735610962,0.0
0.2683325409889221,0.17782214283943176,9.906497955322266,-0.025970499962568283,-0.06089453771710396,0.0020943949930369854
0.2316342145204544,0.20073944330215454,9.692705154418945,0.008168140426278114,0.02316051907837391,0.00015707963029854
0.2682271897792816,0.1791245937347412,9.849936485290527,-0.01754055917263031,-0.042411502450704575,0.0015882495790719986
0.26561272144317627,0.17782214283943176,9.893961906433105,0.013980086892843246,0.031869713217020035,-0.00038397242315113544
0.23651838302612305,0.18275420367717743,9.750492095947266,-0.001483529806137085,-0.010035643354058266,0.0006457717972807586
0.27472028136253357,0.1637250781059265,9.942726135253906,-0.00663225119933486,-0.019547687843441963,0.00045378561480902135
0.27472028136253357,0.16974888741970062,9.9750394821167,-0.0009599310578778386,0.006928957067430019,0.0006806784076616168
0.2578076422214508,0.1807047575712204,9.858298301696777,-0.0034382985904812813,-0.013613567687571049,0.001029744278639555
0.2726037800312042,0.17115668952465057,9.95149040222168,0.002687806962057948,-0.004136430099606514,0.00022689280740451068
0.26969245076179504,0.18719783425331116,9.870890617370605,0.004817108623683453,0.01202531810849905,0.00031415926059708
0.278685063123703,0.17906711995601654,9.898500442504883,0.005096361506730318,0.008848818950355053,0.0002617993741296232
0.2564955949783325,0.17876066267490387,9.800501823425293,-0.00017453292093705386,6.981316983001307e-05,0.0007853981805965304
0.2767505645751953,0.1796608865261078,9.906047821044922,-0.003351032268255949,-0.006422811653465033,0.0003490658418741077
0.26504769921302795,0.18692010641098022,9.866888999938965,0.0018325956771150231,0.0057246801443398,0.0003490658418741077
0.24348072707653046,0.18305107951164246,9.869626998901367,-0.0016231562476605177,-0.00013962633966002613,0.0005585053586401045
0.27807214856147766,0.19001340866088867,9.900933265686035,-0.0025830871891230345,-0.004869468510150909,-6.981316983001307e-05
0.274681955575943,0.18375976383686066,9.876138687133789,0.0025656339712440968,0.005218534264713526,0.0003316125657875091
0.2623853385448456,0.1737232655286789,9.907628059387207,-0.0006108652451075613,-0.0008901178953237832,0.00027925267932005227
0.4077325463294983,0.1158985123038292,11.065666198730469,0.08874998986721039,0.23610813915729523,-0.00663225119933486
0.09800903499126434,0.250969797372818,9.32083797454834,0.09395107626914978,0.21409954130649567,-0.006457718089222908
-0.014786588959395885,0.2751607894897461,8.525829315185547,-0.16406095027923584,-0.36070719361305237,0.01302015595138073
0.5303348302841187,0.09057743847370148,11.193371772766113,-0.1460491567850113,-0.391093373298645,0.013840461149811745
0.5657115578651428,0.10105445981025696,11.11037826538086,0.13124875724315643,0.36039304733276367,-0.011588986031711102
0.004692635033279657,0.26483699679374695,8.567113876342773,0.11754792183637619,0.277088463306427,-0.01014036312699318
0.07303272932767868,0.24304018914699554,8.92736530303955,-0.1665044128894806,-0.3767816722393036,0.014625859446823597
0.5563933253288269,0.10559386759996414,11.15051555633545,-0.06448991596698761,-0.16235052049160004,0.005375613924115896
0.3835989832878113,0.14447569847106934,10.541861534118652,0.14957471191883087,0.4010068476200104,-0.0126710906624794
-0.003600879106670618,0.2513241171836853,8.42737865447998,0.0027576202992349863,0.024591689929366112,-0.000715585018042475
0.25825774669647217,0.12223836034536362,10.128900527954102,-0.1465902030467987,-0.34405675530433655,0.012566370889544487
0.5060192942619324,0.11020030826330185,10.888225555419922,0.0397411473095417,0.11498229205608368,-0.004206243436783552
0.11834059655666351,0.2105652391910553,9.371930122375488,0.10220648348331451,0.24403193593025208,-0.006649704650044441
0.10741346329450607,0.23203644156455994,9.093340873718262,-0.08981464058160782,-0.200468510389328,0.006440265104174614
0.45149853825569153,0.12887507677078247,10.705538749694824,-0.045465826988220215,-0.11419688910245895,0.0033859387040138245
0.30368053913116455,0.15002067387104034,10.191216468811035,0.096761055290699,0.23525293171405792,-0.006702064536511898
0.08924625813961029,0.23126071691513062,8.973113059997559,-0.016022123396396637,-0.03419100120663643,0.0013089969288557768
0.3212348222732544,0.15379393100738525,10.277071952819824,-0.06984807550907135,-0.17247343063354492,0.006073745898902416
0.34606748819351196,0.15195518732070923,10.366969108581543,0.05208062380552292,0.13376203179359436,-0.004014257341623306
0.144782155752182,0.21758504211902618,9.285614013671875,0.022444933652877808,0.05483824387192726,-0.0013613568153232336
0.3027898967266083,0.14437036216259003,10.367304801940918,0.026511551812291145,0.039392080157995224,-0.0009773843921720982
0.16338030993938446,0.19886238873004913,9.475532531738281,0.007260569836944342,-0.0019896754529327154,0.0005235987482592463
0.28128036856651306,0.17488205432891846,10.027731895446777,-0.04914847016334534,-0.12999212741851807,0.004625122528523207
0.33878910541534424,0.1661575883626938,10.283660888671875,0.030630528926849365,0.07157595455646515,-0.0024260077625513077
0.19107644259929657,0.21261468529701233,9.47084903717041,0.01855284906923771,0.04354596510529518,-5.2359879191499203e-05
0.2608051598072052,0.18753302097320557,9.851248741149902,-0.03272492438554764,-0.09372418373823166,0.0027052604127675295
0.3269234299659729,0.1641368865966797,10.201089859008789,0.01638864167034626,0.029688050970435143,-0.0008028514566831291
0.2240493893623352,0.19473478198051453,9.673829078674316,0.0224623866379261,0.046390850096940994,-0.00031415926059708
0.25594013929367065,0.18986018002033234,9.816571235656738,-0.024172810837626457,-0.059149209409952164,0.002460914198309183
0.30142998695373535,0.16488388180732727,10.119964599609375,0.003176499158143997,0.0060388389974832535,0.00013962633966002613
0.2436148077249527,0.18419072031974792,9.7932710647583,0.017208946868777275,0.03757693991065025,-0.0006108652451075613
0.2837033271789551,0.17957469820976257,9.966334342956543,0.011379546485841274,0.024644048884510994,6.981316983001307e-05
0.241718590259552,0.18680518865585327,9.75825023651123,0.0045553091913461685,0.0026354470755904913,8.726646046852693e-05
0.2666661739349365,0.183750182390213,9.916688919067383,-0.010943214409053326,-0.02338741160929203,0.000715585018042475
0.26896461844444275,0.1707257330417633,9.958270072937012,0.00593411922454834,0.013596114702522755,0.00020943951676599681
0.24981099367141724,0.18251477181911469,9.81518268585205,0.0026354470755904913,0.006213372107595205,0.00015707963029854
0.26396551728248596,0.19261831045150757,9.897774696350098,-0.005794493015855551,-0.0159872155636549,0.0006632251315750182
0.27125346660614014,0.17992903292179108,9.930018424987793,0.0035604715812951326,0.007661995477974415,-0.0005061454721726477
0.24286781251430511,0.18232324719429016,9.84058952331543,0.004642575979232788,0.0018151424592360854,-8.726646046852693e-05
0.2580374777317047,0.1910189837217331,9.882210731506348,-0.003228859044611454,-0.012217304669320583,0.0006632251315750182
0.27869462966918945,0.18796397745609283,9.925115585327148,0.0024958208668977022,0.004625122528523207,0.00047123889089562
0.2582194209098816,0.18301276862621307,9.854640007019043,0.0003490658418741077,0.0028623400721699,0.00020943951676599681
0.2709565758705139,0.1945815533399582,9.898807525634766,-0.002914699725806713,-0.007173303049057722,0.0006457717972807586
0.27291983366012573,0.17881813645362854,9.916659355163574,0.0014486232539638877,0.0009250245057046413,0.00015707963029854
0.25605508685112,0.1822466254234314,9.861332893371582,0.0012391837080940604,0.0016755161341279745,-0.00015707963029854
0.25145819783210754,0.19492632150650024,9.887449264526367,-0.00205948855727911,-0.00617846567183733,0.0005934119690209627
0.2664076089859009,0.1880597472190857,9.903768539428711,0.00045378561480902135,0.0007679448463022709,0.00017453292093705386
0.27723896503448486,0.19506996870040894,9.869943618774414,0.0007853981805965304,0.0025307273026555777,0.0007679448463022709
0.2583726644515991,0.1771230399608612,9.882546424865723,-0.0018151424592360854,-0.00472984230145812,0.00027925267932005227
0.2787904143333435,0.17238251864910126,9.897601127624512,0.002478367416188121,0.0006981316837482154,0.0005235987482592463
0.26548823714256287,0.1992741823196411,9.873467445373535,0.0018151424592360854,0.002478367416188121,-5.2359879191499203e-05
0.28052380681037903,0.18290743231773376,9.819425582885742,6.981316983001307e-05,-0.0008901178953237832,0.0006457717972807586
0.2614085078239441,0.1989198476076126,9.877730369567871,-0.00094247778179124,-0.0012042771559208632,0.00029670598451048136
0.2642911374568939,0.18834705650806427,9.879002571105957,-0.0008203047327697277,0.00094247778179124,-0.00020943951676599681
0.2652200758457184,0.1865178793668747,9.877882957458496,-0.00038397242315113544,8.726646046852693e-05,-0.00012217304902151227
0.25012701749801636,0.17944061756134033,9.878111839294434,0.00024434609804302454,-0.0005585053586401045,-0.00017453292093705386
0.27544811367988586,0.18296489119529724,9.870967864990234,-0.00012217304902151227,-1.7453292457503267e-05,0.0002617993741296232
0.2782062292098999,0.18204551935195923,9.872213363647461,-0.0009250245057046413,0.0007679448463022709,0.00043633230961859226
0.277765691280365,0.1862688809633255,9.874223709106445,-0.0003665191470645368,-0.0009075712296180427,0.00041887903353199363
0.25523146986961365,0.18420986831188202,9.891701698303223,-0.002548180753365159,0.0009948377264663577,0.0015358896926045418
0.26065194606781006,0.1907699853181839,9.896347045898438,-0.00022689280740451068,0.0006632251315750182,-1.7453292457503267e-05
0.2601635158061981,0.18635506927967072,9.895637512207031,0.0019896754529327154,-0.004834562074393034,0.00015707963029854
0.26102542877197266,0.1938345581293106,9.907196998596191,0.0006981316837482154,-0.003176499158143997,0.00047123889089562
0.2773730456829071,0.18787778913974762,9.87095832824707,-0.0003316125657875091,-0.0038222710136324167,0.00022689280740451068
0.26683855056762695,0.17890432476997375,9.880697250366211,-0.00045378561480902135,0.0022165682166814804,8.726646046852693e-05
0.26472207903862,0.19057844579219818,9.876607894897461,0.0008028514566831291,-0.0026354470755904913,0.0005061454721726477
0.24927470088005066,0.19036775827407837,9.872539520263672,0.00031415926059708,0.0,0.0006632251315750182
0.2507399320602417,0.18860562145709991,9.875296592712402,-0.0005410520825535059,-0.0008901178953237832,0.00020943951676599681
0.2772676944732666,0.177285835146904,9.881799697875977,-0.002007128670811653,-0.00047123889089562,-8.726646046852693e-05
0.26623523235321045,0.18348203599452972,9.884634017944336,-0.0005410520825535059,0.0010471974965184927,0.00020943951676599681
0.27496927976608276,0.19338445365428925,9.874367713928223,0.0021118484437465668,-0.002199114765971899,0.00010471975838299841
0.2520998418331146,0.1741638034582138,9.919379234313965,0.0008028514566831291,0.00045378561480902135,0.00024434609804302454
0.2608434855937958,0.1811452955007553,9.876358985900879,-0.0012915435945615172,0.0026354470755904913,-0.00017453292093705386
0.24531947076320648,0.16967228055000305,10.401973724365234,0.16667895019054413,0.3718249499797821,-0.012636183761060238
0.032522834837436676,0.22151152789592743,9.000627517700195,-0.22509510815143585,-0.5218011140823364,0.018360864371061325
0.6031376719474792,0.08394070714712143,11.30554485321045,-0.12107349187135696,-0.3381924331188202,0.01202531810849905
0.6466259956359863,0.08051221072673798,11.295421600341797,0.027122415602207184,0.07291985303163528,-0.0024434609804302454
0.5345103144645691,0.1130446195602417,11.058568000793457,0.16008159518241882,0.43052035570144653,-0.014311700128018856
-0.02780146896839142,0.2878500819206238,8.328421592712402,0.10623819380998611,0.23413591086864471,-0.00783652812242508
0.08699570596218109,0.2428869605064392,9.06159496307373,-0.1835039108991623,-0.4210606813430786,0.0159872155636549
0.5500726103782654,0.099397674202919,11.206558227539062,-0.046355944126844406,-0.126728355884552,0.004433136433362961
0.560951828956604,0.10986512154340744,11.07309627532959,0.07841764390468597,0.22734658420085907,-0.00593411922454834
0.07498639076948166,0.2376771867275238,8.968737602233887,0.12712977826595306,0.29878291487693787,-0.008883725851774216
0.05504748225212097,0.24925553798675537,8.890390396118164,-0.12259192764759064,-0.28382542729377747,0.01029744278639555
0.5066418051719666,0.10387961566448212,10.9693603515625,-0.06354743987321854,-0.16634732484817505,0.005323254037648439
0.36680126190185547,0.1600571721792221,10.42555046081543,0.12205087393522263,0.32761573791503906,-0.010279988870024681
0.12409625947475433,0.21641667187213898,9.215789794921875,0.10822786390781403,0.2529331147670746,-0.006544984877109528
0.10259632766246796,0.24143129587173462,9.034204483032227,-0.09295623749494553,-0.21762509644031525,0.006824237294495106
0.4488266110420227,0.11117714643478394,10.79089641571045,-0.04602433368563652,-0.11505210399627686,0.004153883550316095
0.29896873235702515,0.16829322278499603,10.170252799987793,0.09452702850103378,0.2561096251010895,-0.008028514683246613
0.1682261824607849,0.19978176057338715,9.441668510437012,-0.08276351541280746,-0.19462166726589203,0.0067544239573180676
0.41704118251800537,0.12618400156497955,10.64255142211914,-0.008482299745082855,-0.015498523600399494,0.0016929693520069122
0.21996966004371643,0.1790575534105301,9.725916862487793,0.06899286806583405,0.1762433499097824,-0.004520402755588293
0.2789532244205475,0.1977514773607254,9.794084548950195,0.05145230516791344,0.1411273181438446,-0.0031939526088535786
0.16988296806812286,0.21133138239383698,9.380156517028809,-0.01794198527932167,-0.06845181435346603,0.0018500490114092827
0.21169529855251312,0.19480182230472565,9.59786605834961,0.024748768657445908,0.0440695621073246,-0.0003665191470645368
0.23956380784511566,0.1917276680469513,9.77904987335205,-0.026912976056337357,-0.07269296050071716,0.0030717793852090836
0.28608793020248413,0.1799960732460022,10.086935043334961,-0.017261305823922157,-0.04640830308198929,0.001972222002223134
0.2635537087917328,0.17698895931243896,9.940064430236816,0.02439970336854458,0.05513495206832886,-0.0012042771559208632
0.21118773519992828,0.20471380650997162,9.622834205627441,-0.002740166848525405,-0.011222466826438904,0.0004886921960860491
0.2798917293548584,0.1771613359451294,9.99589729309082,-0.013002702966332436,-0.037629298865795135,0.0006108652451075613
0.2934429347515106,0.15829503536224365,10.031158447265625,0.0040317103266716,0.00188495556358248,0.00047123889089562
0.2421974390745163,0.191248819231987,9.80339527130127,0.014468779787421227,0.030752701684832573,-6.981316983001307e-05
0.2475508749485016,0.170246884226799,9.803854942321777,-0.010663961991667747,-0.02989749051630497,0.0013089969288557768
0.27557259798049927,0.16406984627246857,9.988532066345215,0.0013962633674964309,-0.004468042869120836,0.0011344640515744686
0.25101765990257263,0.18250520527362823,9.83584976196289,0.010646508075296879,0.022165682166814804,-6.981316983001307e-05
0.2527798116207123,0.17642392218112946,9.919829368591309,-0.006963863503187895,-0.02050761878490448,0.0013788101496174932
0.24075134098529816,0.18562723696231842,9.832958221435547,0.007278022821992636,0.016318827867507935,0.0005759586347267032
0.2503185570240021,0.174412801861763,9.807646751403809,0.001658062799833715,0.00457276264205575,0.0005585053586401045
0.25405353307724,0.16917428374290466,9.903069496154785,0.0009773843921720982,0.009634217247366905,0.0005235987482592463
0.2484510838985443,0.1815379410982132,9.816591262817383,0.001029744278639555,0.0034382985904812813,-0.00020943951676599681
0.25648602843284607,0.1899368017911911,9.84904670715332,-0.0027925267349928617,-0.01111774705350399,0.00047123889089562
0.28207525610923767,0.15716497600078583,9.900274276733398,-0.0013089969288557768,-0.0024260077625513077,0.00027925267932005227
0.2604316771030426,0.18074306845664978,9.838579177856445,-0.0005410520825535059,0.009110618382692337,0.0003665191470645368
0.2545132040977478,0.1852250099182129,9.852665901184082,0.0015009831404313445,-0.00062831852119416,-0.00020943951676599681
0.2591387927532196,0.17673996090888977,9.855108261108398,0.0008901178953237832,-0.005323254037648439,0.00013962633966002613
0.2745383083820343,0.18057069182395935,9.862884521484375,0.0005061454721726477,0.002286381321027875,0.0008028514566831291
0.25771185755729675,0.1958361119031906,9.844267845153809,0.0005934119690209627,-0.0005235987482592463,0.000715585018042475
0.26717373728752136,0.17329230904579163,9.82740306854248,-0.003996803890913725,0.006963863503187895,0.0021293016616255045
0.2620597183704376,0.1794980764389038,9.853164672851562,-0.002024581888690591,0.00040142572834156454,0.0005410520825535059
0.2516593039035797,0.19446663558483124,9.85805892944336,0.0005061454721726477,0.0023911010939627886,-0.00019198621157556772
0.25629448890686035,0.17023731768131256,9.852800369262695,0.001972222002223134,-0.006108652334660292,0.00013962633966002613
0.2666853368282318,0.1695573627948761,9.863142967224121,-0.00563741335645318,0.0057246801443398,0.0007853981805965304
0.2544940412044525,0.17975665628910065,9.841252326965332,0.0023561944253742695,-0.004049163777381182,0.00024434609804302454
0.26210761070251465,0.18438225984573364,9.846163749694824,0.0008901178953237832,-0.00017453292093705386,0.0002617993741296232
0.26012521982192993,0.18953457474708557,9.837247848510742,-0.00047123889089562,0.0021118484437465668,0.0017278759041801095
0.2651626169681549,0.18632633984088898,9.844765663146973,5.2359879191499203e-05,-0.001029744278639555,0.0009599310578778386
0.25345975160598755,0.1792682409286499,9.848999977111816,0.0002617993741296232,-0.0005410520825535059,8.726646046852693e-05
0.26635971665382385,0.17582058906555176,9.806831359863281,-0.0006108652451075613,0.00041887903353199363,0.0006632251315750182
0.2641857862472534,0.17429786920547485,9.822710990905762,-0.0020420351065695286,0.00010471975838299841,0.0002617993741296232
0.27011382579803467,0.17738160490989685,9.834527969360352,-0.0016231562476605177,6.981316983001307e-05,0.0009075712296180427
0.27004680037498474,0.16817829012870789,9.819252967834473,-0.0026703537441790104,0.00041887903353199363,-3.490658491500653e-05
0.2551835775375366,0.1663874387741089,9.833828926086426,-0.0016057029133662581,-0.0011693706037476659,0.00043633230961859226
0.2575969398021698,0.16942328214645386,9.862846374511719,0.0023038345389068127,0.0017627825727686286,0.00020943951676599681
0.2481350600719452,0.18659450113773346,9.828619003295898,-0.0026529005263000727,-0.0036477381363511086,0.001117010717280209
0.259895384311676,0.1746618002653122,9.830419540405273,-0.0011344640515744686,0.003455751808360219,0.0013962633674964309
0.2709757387638092,0.18463124334812164,9.796919822692871,-0.0014137167017906904,0.0024085543118417263,0.00020943951676599681
0.26040294766426086,0.17892347276210785,9.826014518737793,-0.003577925032004714,-0.0012740903766825795,0.0003665191470645368
0.26341962814331055,0.17058207094669342,9.8289155960083,-0.00045378561480902135,0.002024581888690591,0.00041887903353199363
0.4968926012516022,0.0992923304438591,10.828753471374512,0.14969688653945923,0.4049513041973114,-0.012130037881433964
-0.011903970502316952,0.25021323561668396,8.449846267700195,0.09946631640195847,0.19954349100589752,-0.006405358202755451
0.3930034041404724,0.13717816770076752,10.65349006652832,-0.1264840066432953,-0.3321361541748047,0.010716321878135204
0.48011404275894165,0.0998956710100174,10.798357009887695,0.08705702424049377,0.2408030778169632,-0.005323254037648439
0.05784391239285469,0.23607785999774933,8.799524307250977,0.07766715437173843,0.17638297379016876,-0.004834562074393034
0.14966632425785065,0.21131223440170288,9.3319091796875,-0.11618656665086746,-0.2801777124404907,0.010908307507634163
0.46396753191947937,0.10839029401540756,10.762711524963379,-0.011885692365467548,-0.03591887652873993,0.00125663704238832
0.43068814277648926,0.12459424883127213,10.57787036895752,0.00783652812242508,0.02736676298081875,-0.00031415926059708
0.18645083904266357,0.22118592262268066,9.319391250610352,-0.049933869391679764,-0.12149237096309662,0.004328416660428047
0.3668874502182007,0.14069285988807678,10.38333797454834,-0.02125811018049717,-0.04965461790561676,0.00188495556358248
0.2627396881580353,0.16712485253810883,9.839115142822266,0.05314527451992035,0.1287529319524765,-0.0033859387040138245
0.17188452184200287,0.2056044638156891,9.356512069702148,-0.020367993041872978,-0.052639130502939224,0.0019373154500499368
0.3191949427127838,0.16050727665424347,10.142815589904785,-0.02612757869064808,-0.06689847260713577,0.002251474652439356
0.27800512313842773,0.167325958609581,9.935524940490723,0.035988688468933105,0.08881980180740356,-0.0014137167017906904
0.19324080646038055,0.19099025428295135,9.471959114074707,-0.00593411922454834,-0.014625859446823597,0.0009075712296180427
0.30251216888427734,0.16210660338401794,9.954630851745605,-0.023352505639195442,-0.05562364310026169,0.0024434609804302454
0.2865859270095825,0.1678909957408905,9.925288200378418,0.020350538194179535,0.05550146847963333,-0.0005235987482592463
0.21702000498771667,0.17091725766658783,9.84832763671875,0.010838494636118412,0.03977605327963829,0.00020943951676599681
0.23453599214553833,0.1905209869146347,9.881559371948242,-0.008325220085680485,-0.008115780539810658,0.00024434609804302454
0.2450321614742279,0.17348384857177734,9.6902437210083,-0.005462880712002516,-0.020525071769952774,0.00094247778179124
0.2485085427761078,0.18405663967132568,9.779375076293945,0.00945968460291624,0.02506292797625065,0.000715585018042475
0.25783637166023254,0.17869363725185394,9.751755714416504,-0.0070685832761228085,-0.01860520988702774,0.0007504915702156723
0.2627875804901123,0.1714535653591156,9.836654663085938,-0.007958701811730862,-0.023841196671128273,0.0008901178953237832
0.29988810420036316,0.16752707958221436,9.891587257385254,0.0067369709722697735,0.014800392091274261,0.0005061454721726477
0.24621011316776276,0.17511190474033356,9.725907325744629,0.005777040030807257,0.0015533430268988013,0.00020943951676599681
0.26750892400741577,0.18615396320819855,9.811389923095703,-0.00678933085873723,-0.016179202124476433,0.000715585018042475
0.2522626519203186,0.1619725227355957,9.795694351196289,0.00094247778179124,-0.00020943951676599681,0.000715585018042475
0.2608626186847687,0.16990211606025696,9.8264741897583,-0.0016057029133662581,-0.0027052604127675295,0.0006981316837482154
0.2635824382305145,0.18884503841400146,9.834088325500488,-6.981316983001307e-05,0.0027052604127675295,0.0006632251315750182
0.25241589546203613,0.17904797196388245,9.798290252685547,-8.726646046852693e-05,-0.0009948377264663577,0.00020943951676599681
0.3834936320781708,0.12043792009353638,11.072885513305664,0.10670942813158035,0.27150341868400574,-0.007627088576555252
0.09094135463237762,0.20421582460403442,9.43329906463623,0.11365584284067154,0.26427775621414185,-0.008272860199213028
0.00394564401358366,0.287016898393631,8.51426887512207,-0.09454448521137238,-0.21062633395195007,0.00799360778182745
0.2921500504016876,0.16146495938301086,10.24577522277832,-0.20436060428619385,-0.5035274624824524,0.017749998718500137
0.5774814486503601,0.10067138820886612,11.114429473876953,0.01661553420126438,0.05309291556477547,-0.0007679448463022709
0.0067229182459414005,0.2775837481021881,8.45515251159668,-0.06688101589679718,-0.15344934165477753,0.005881759338080883
0.4245877265930176,0.12632764875888824,10.673084259033203,-0.11458086222410202,-0.30115655064582825,0.01127482671290636
0.46273213624954224,0.108897864818573,10.728436470031738,0.09538224339485168,0.24954716861248016,-0.007976154796779156
0.08171889185905457,0.24737848341464996,8.783598899841309,0.06700319051742554,0.15336208045482635,-0.00457276264205575
0.17863616347312927,0.2092532217502594,9.460457801818848,-0.11562806367874146,-0.2782578468322754,0.0103672556579113
0.4866645634174347,0.12336841970682144,10.742227554321289,-0.008726646192371845,-0.021362829953432083,0.0013962633674964309
0.2298433482646942,0.1864795684814453,9.703794479370117,0.10098475217819214,0.24291492998600006,-0.006195918656885624
0.08985917270183563,0.23383688926696777,8.980218887329102,-0.04361577704548836,-0.10320131480693817,0.003717551240697503
0.3579522967338562,0.15146677196025848,10.398774147033691,-0.06010913848876953,-0.14667746424674988,0.00518362782895565
0.34443941712379456,0.15493357181549072,10.220961570739746,0.0670904591679573,0.17060592770576477,-0.0037873645778745413
0.12360783666372299,0.22532309591770172,9.136905670166016,0.00989601667970419,0.016091935336589813,0.00038397242315113544
0.28388527035713196,0.16038277745246887,9.981887817382812,-0.061138883233070374,-0.14615386724472046,0.004956734832376242
0.3871615529060364,0.15324805676937103,10.274486541748047,0.03159045800566673,0.07714354991912842,-0.0018500490114092827
0.17659631371498108,0.21032582223415375,9.404855728149414,0.027838001027703285,0.06630505621433258,-0.0012217304902151227
0.23831883072853088,0.18044619262218475,9.73414421081543,-0.04602433368563652,-0.10374236851930618,0.0037873645778745413
0.36242467164993286,0.1543685495853424,10.212343215942383,0.008709193207323551,0.023928463459014893,0.00012217304902151227
0.22636696696281433,0.1972726285457611,9.619874954223633,0.027227135375142097,0.06342526525259018,-0.0005759586347267032
0.24458205699920654,0.19007088243961334,9.671884536743164,-0.02591813914477825,-0.06497860699892044,0.0025830871891230345
0.31901299953460693,0.17210479080677032,10.112065315246582,-0.00010471975838299841,-0.00047123889089562,0.0008377580670639873
0.2607477009296417,0.1822466254234314,9.832670211791992,0.014748032204806805,0.03494149073958397,0.00020943951676599681
0.236844003200531,0.18729360401630402,9.695204734802246,-0.008203047327697277,-0.01912880875170231,0.001658062799833715
0.28675830364227295,0.14747324585914612,9.9312744140625,-0.00548033369705081,-0.012897983193397522,0.0007679448463022709
0.26467418670654297,0.18264885246753693,9.832622528076172,0.008011061698198318,0.024382250383496284,0.0
0.24869051575660706,0.17612704634666443,9.718572616577148,-0.004310963209718466,-0.01029744278639555,0.0005585053586401045
0.28736165165901184,0.17684531211853027,9.900168418884277,-0.0026703537441790104,-0.009477137587964535,0.0011868239380419254
0.2717227339744568,0.17165467143058777,9.897784233093262,0.004782202187925577,0.006963863503187895,0.0002617993741296232
0.23171083629131317,0.1756194829940796,9.791106224060059,0.004590216092765331,0.007470009382814169,0.0005061454721726477
0.2802077829837799,0.17219097912311554,9.879395484924316,0.0003665191470645368,0.005166174378246069,0.00031415926059708
0.25748202204704285,0.1772666871547699,9.848453521728516,0.004066617228090763,0.009948376566171646,-0.00022689280740451068
0.2509027421474457,0.18849070370197296,9.792006492614746,-0.00038397242315113544,-0.00411897711455822,0.0007853981805965304
0.25611254572868347,0.18014930188655853,9.859112739562988,-0.00038397242315113544,-0.004642575979232788,0.0011693706037476659
0.26737484335899353,0.16653108596801758,9.849812507629395,0.0003490658418741077,0.007557275705039501,0.0005061454721726477
0.25964638590812683,0.18478448688983917,9.820795059204102,-0.0019547687843441963,-0.0024085543118417263,0.0011868239380419254
0.27925968170166016,0.16641616821289062,9.867424964904785,0.00019198621157556772,-0.0007330382941290736,0.00047123889089562
0.2672599256038666,0.1754758208990097,9.84023666381836,0.0025830871891230345,0.0009773843921720982,0.00031415926059708
0.2510559856891632,0.1715589165687561,9.820162773132324,-0.0005934119690209627,-0.0017802357906475663,0.0006806784076616168
0.26368778944015503,0.17771679162979126,9.850004196166992,-0.0003665191470645368,-0.0015358896926045418,0.00027925267932005227
0.26354414224624634,0.17934484779834747,9.841577529907227,0.0003316125657875091,0.00205948855727911,0.00024434609804302454
0.26723119616508484,0.19490715861320496,9.829882621765137,0.00019198621157556772,-0.0019024088978767395,0.0010646508308127522
0.26308444142341614,0.18944838643074036,9.850454330444336,-0.0006981316837482154,-0.0017278759041801095,0.00019198621157556772
0.24708160758018494,0.1831659972667694,9.852743148803711,-0.0006632251315750182,0.00024434609804302454,0.00029670598451048136
0.266014963388443,0.1780615597963333,9.835658073425293,-0.00062831852119416,-0.00031415926059708,0.00017453292093705386
0.2694338858127594,0.18423859775066376,9.82481861114502,-0.0010646508308127522,0.00029670598451048136,0.00027925267932005227
0.25877487659454346,0.18967822194099426,9.835936546325684,-6.981316983001307e-05,-0.0011519172694534063,0.0007504915702156723
0.2686868906021118,0.18250520527362823,9.844612121582031,-0.00015707963029854,0.0005061454721726477,0.00043633230961859226
0.26265349984169006,0.17386692762374878,9.86512565612793,-0.0024260077625513077,-0.0003316125657875091,0.0009948377264663577
0.26210761070251465,0.1626812070608139,9.836520195007324,0.0005759586347267032,0.0009250245057046413,0.0003316125657875091
0.23014023900032043,0.18440140783786774,9.86158275604248,-0.0010122909443452954,0.0024260077625513077,-3.490658491500653e-05
0.28940150141716003,0.17475757002830505,9.792793273925781,-0.0006806784076616168,-0.0022689281031489372,0.0005061454721726477
0.25041434168815613,0.16834110021591187,9.909647941589355,-0.0007504915702156723,0.0031066860537976027,0.001658062799833715
0.27878084778785706,0.1993124932050705,9.777938842773438,-0.0024260077625513077,-0.00024434609804302454,-0.00012217304902151227
0.2787425220012665,0.13998417556285858,9.874185562133789,-0.023666664958000183,-0.07285004109144211,0.002722713630646467
0.3142533302307129,0.15248191356658936,10.298629760742188,0.014748032204806805,0.04565781354904175,-0.00047123889089562
0.21640709042549133,0.1913350224494934,9.485387802124023,0.0286583062261343,0.06967354565858841,-0.001117010717280209
0.23630769550800323,0.1816815882921219,9.756476402282715,-0.035011306405067444,-0.07878416031599045,0.0023387412074953318
0.34162384271621704,0.19517531991004944,10.142584800720215,-0.0005934119690209627,0.017872171476483345,-0.0003316125657875091
0.2214444875717163,0.1675366461277008,9.622123718261719,0.016266468912363052,0.04478514939546585,5.2359879191499203e-05
0.20809443295001984,0.1846216768026352,9.5260009765625,-0.011798425577580929,-0.010227628983557224,0.0008726646192371845
0.25827687978744507,0.16527652740478516,10.032145500183105,-0.02085668407380581,-0.035849060863256454,0.0021642083302140236
0.24112483859062195,0.20028932392597198,9.946854591369629,0.010873401537537575,0.04380776360630989,0.00027925267932005227
0.21557390689849854,0.18729360401630402,9.610191345214844,-0.01021017599850893,-0.0024958208668977022,0.0007330382941290736
0.2506824731826782,0.16287274658679962,10.027978897094727,-0.021537363529205322,-0.019512781873345375,0.0010821041651070118
0.28261154890060425,0.17876066267490387,9.860740661621094,0.0020769417751580477,0.026337018236517906,-0.00045378561480902135
0.20999063551425934,0.16719189286231995,9.785168647766113,-0.005113814491778612,0.0031415927223861217,0.00020943951676599681
0.2589472830295563,0.17954596877098083,9.919943809509277,-0.011676252819597721,-0.013962633907794952,0.0009599310578778386
0.2501749098300934,0.14475342631340027,9.82983684539795,0.002321287989616394,0.02085668407380581,-0.0002617993741296232
0.2093968689441681,0.17731456458568573,9.840035438537598,-0.0067369709722697735,-0.0017104226863011718,0.0005759586347267032
0.2741073668003082,0.16992127895355225,9.87570858001709,-0.006440265104174614,-0.01120501384139061,0.00020943951676599681
0.2523871660232544,0.13851892948150635,9.866677284240723,0.008621926419436932,0.014189526438713074,0.00024434609804302454
0.23078188300132751,0.1890844702720642,9.811429023742676,-0.0025656339712440968,-0.0034382985904812813,-0.00022689280740451068
0.25658178329467773,0.14936944842338562,9.850846290588379,-0.003525565145537257,-0.012845623306930065,6.981316983001307e-05
0.23017853498458862,0.16578409075737,9.906018257141113,0.0026354470755904913,0.005358160939067602,0.00019198621157556772
0.26513388752937317,0.180829256772995,9.797762870788574,-0.0009250245057046413,-0.011676252819597721,0.00020943951676599681
0.24170902371406555,0.15052823722362518,9.893760681152344,-0.0067544239573180676,-0.01235693134367466,0.0009599310578778386
0.25643813610076904,0.16944243013858795,9.827775955200195,0.0005934119690209627,0.002687806962057948,0.0008203047327697277
0.24821166694164276,0.15657120943069458,9.828628540039062,0.00188495556358248,0.005218534264713526,0.0003490658418741077
0.2520807087421417,0.18284039199352264,9.78814697265625,-0.00010471975838299841,0.0012740903766825795,8.726646046852693e-05
0.2263382375240326,0.16804422438144684,9.855291366577148,0.0015882495790719986,0.0035604715812951326,1.7453292457503267e-05
0.26229915022850037,0.17104175686836243,9.871572494506836,-0.00027925267932005227,0.0007679448463022709,0.0002617993741296232
0.25829604268074036,0.17141525447368622,9.810174942016602,0.0021816615480929613,0.0020769417751580477,0.00038397242315113544
0.24702414870262146,0.16717272996902466,9.893685340881348,0.00062831852119416,0.0013788101496174932,0.0005061454721726477
0.2669534683227539,0.19909222424030304,9.849467277526855,0.0008203047327697277,0.0007504915702156723,0.00125663704238832
0.2507782578468323,0.16848476231098175,9.840888023376465,-8.726646046852693e-05,-0.0020943949930369854,0.00013962633966002613
0.25548046827316284,0.17698895931243896,9.887219429016113,-0.0021293016616255045,0.0028448866214603186,0.0013613568153232336
0.2693668305873871,0.16875290870666504,9.818563461303711,0.0015707963611930609,0.00024434609804302454,0.0008901178953237832
0.2548196613788605,0.1706012338399887,9.856239318847656,0.0013962633674964309,-0.0044156829826533794,0.0008377580670639873
0.24201548099517822,0.18917065858840942,9.848270416259766,0.0011344640515744686,-3.490658491500653e-05,0.0006806784076616168
0.23883597552776337,0.16072754561901093,9.85318374633789,0.0008552113431505859,-0.0005410520825535059,0.00017453292093705386
0.22968055307865143,0.152740478515625,9.888110160827637,0.00013962633966002613,-0.0011693706037476659,0.0011519172694534063
0.22120507061481476,0.18112613260746002,9.854735374450684,-0.0008726646192371845,0.0026354470755904913,0.0012915435945615172
0.2231491655111313,0.1651807576417923,9.855683326721191,-0.0005061454721726477,-0.00020943951676599681,-0.00045378561480902135
0.24450545012950897,0.16722062230110168,9.862666130065918,8.726646046852693e-05,-0.0012915435945615172,0.00094247778179124
0.22992955148220062,0.17386692762374878,9.870699882507324,0.0,-8.726646046852693e-05,0.0005585053586401045
0.26641717553138733,0.1733689308166504,9.847504615783691,-0.00251327408477664,0.001658062799833715,0.0014137167017906904
0.2640421390533447,0.16724935173988342,9.832785606384277,0.0,-0.00022689280740451068,0.0002617993741296232
0.24094286561012268,0.16577452421188354,9.85983943939209,-8.726646046852693e-05,-0.0007679448463022709,0.00022689280740451068
0.25092190504074097,0.16368678212165833,9.863621711730957,0.00094247778179124,-0.00024434609804302454,0.00031415926059708
0.2562465965747833,0.16794845461845398,9.840734481811523,-0.00040142572834156454,0.00045378561480902135,0.0006806784076616168
0.259684681892395,0.16364847123622894,9.859763145446777,-6.981316983001307e-05,0.0,0.0005061454721726477
0.24360522627830505,0.22021865844726562,9.334609031677246,-0.010402162559330463,0.0024260077625513077,0.0005235987482592463
0.3162357211112976,0.15483780205249786,10.085373878479004,-0.028675759211182594,-0.07803367078304291,0.003089232835918665
0.32043036818504333,0.16648320853710175,10.17457103729248,0.043301619589328766,0.09231046587228775,-0.0015009831404313445
0.17583973705768585,0.18440140783786774,9.33234977722168,0.016580628231167793,0.0374373123049736,-0.0006806784076616168
