accX,accY,accZ,gyroX,gyroY,gyroZ
0.019400160759687424,0.11208947747945786,10.010111808776855,0.0032759467139840126,-0.0026900041848421097,-0.0015713870525360107
0.017005078494548798,0.1072993203997612,9.998136520385742,0.0032759467139840126,-0.0026900041848421097,-0.0005060397088527679
0.026585400104522705,0.10250915586948395,10.005322456359863,0.0022105975076556206,-0.0026900041848421097,-0.0005060397088527679
0.017005078494548798,0.10969439893960953,9.99574089050293,0.004341292195022106,-0.0016246549785137177,-0.0005060397088527679
0.02898048236966133,0.10011407732963562,10.014902114868164,0.0032759467139840126,-0.0037553496658802032,-0.0010387133806943893
0.019400160759687424,0.11448456346988678,10.012506484985352,0.003808620385825634,-0.003222677856683731,-0.0005060397088527679
0.01460999995470047,0.10011407732963562,9.986161231994629,0.0032759467139840126,-0.0026900041848421097,2.663489431142807e-05
0.009819842875003815,0.09771899878978729,9.988555908203125,0.0032759467139840126,-0.003222677856683731,2.663489431142807e-05
0.024190321564674377,0.10490424185991287,10.000531196594238,0.0032759467139840126,-0.004288027063012123,-0.0010387133806943893
0.017005078494548798,0.11208947747945786,9.98137092590332,0.003808620385825634,-0.003222677856683731,-0.0005060397088527679
0.024190321564674377,0.1072993203997612,9.990951538085938,0.0032759467139840126,-0.003222677856683731,-0.0015713870525360107
0.00742475688457489,0.1072993203997612,9.98137092590332,0.0032759467139840126,-0.002157328650355339,2.663489431142807e-05
0.01460999995470047,0.10250915586948395,9.978975296020508,0.0032759467139840126,-0.0026900041848421097,-0.0005060397088527679
0.01460999995470047,0.10490424185991287,9.974185943603516,0.003808620385825634,-0.0026900041848421097,-0.0010387133806943893
0.024190321564674377,0.10011407732963562,9.983766555786133,0.0032759467139840126,-0.0016246549785137177,-0.0010387133806943893
0.00742475688457489,0.09771899878978729,9.98137092590332,0.003808620385825634,-0.003222677856683731,-0.0010387133806943893
0.03137555718421936,0.09771899878978729,9.967000007629395,0.0032759467139840126,-0.0026900041848421097,-0.0005060397088527679
0.017005078494548798,0.09771899878978729,9.978975296020508,0.003808620385825634,-0.0037553496658802032,-0.0010387133806943893
0.019400160759687424,0.10250915586948395,9.978975296020508,0.0032759467139840126,-0.0037553496658802032,-0.0005060397088527679
0.02898048236966133,0.11208947747945786,9.969395637512207,0.003808620385825634,-0.0048207007348537445,-0.0010387133806943893
0.012214921414852142,0.10969439893960953,9.962210655212402,0.0032759467139840126,-0.004288027063012123,-0.0010387133806943893
0.002634607255458832,0.09053375571966171,9.976581573486328,0.0032759467139840126,-0.002157328650355339,-0.0010387133806943893
0.017005078494548798,0.09532392024993896,9.967000007629395,0.003808620385825634,-0.0026900041848421097,-0.0005060397088527679
0.01460999995470047,0.09292884171009064,9.955025672912598,0.0022105975076556206,-0.0026900041848421097,0.0005593085661530495
-0.08358827233314514,0.15759599208831787,9.552651405334473,-0.012171600013971329,-0.12200899422168732,2.663489431142807e-05
-0.021316200494766235,0.09532392024993896,9.825691223144531,0.010200709104537964,0.0314011350274086,0.0005593085661530495
0.05532635748386383,0.09292884171009064,9.998136520385742,0.0006125755608081818,-0.02026824653148651,-0.0005060397088527679
0.036165717989206314,0.09532392024993896,9.976581573486328,0.016060123220086098,0.06442692875862122,-0.0005060397088527679
0.012214921414852142,0.10969439893960953,9.928679466247559,0.013396752066910267,0.03672788292169571,-0.0005060397088527679
0.009819842875003815,0.1072993203997612,9.935864448547363,0.007537337951362133,0.011159520596265793,-0.0010387133806943893
0.024190321564674377,0.11687964200973511,9.978975296020508,0.004873969592154026,0.0021040625870227814,-0.0005060397088527679
0.01460999995470047,0.12166979908943176,9.943049430847168,0.004341292195022106,0.0005060397088527679,-0.0005060397088527679
0.012214921414852142,0.09532392024993896,9.955025672912598,0.0032759467139840126,-0.002157328650355339,-0.0010387133806943893
0.017005078494548798,0.09053375571966171,9.945444107055664,0.0032759467139840126,-0.0010919813066720963,-0.0005060397088527679
0.00742475688457489,0.09532392024993896,9.935864448547363,0.003808620385825634,-0.0016246549785137177,-0.0010387133806943893
0.026585400104522705,0.08813867717981339,9.950235366821289,0.003808620385825634,-2.6633962988853455e-05,-0.0005060397088527679
0.026585400104522705,0.1072993203997612,9.950235366821289,0.003808620385825634,-0.0010919813066720963,2.663489431142807e-05
0.01460999995470047,0.08574359863996506,9.955025672912598,0.0032759467139840126,-0.0026900041848421097,-0.0005060397088527679
0.024190321564674377,0.10490424185991287,9.955025672912598,0.003808620385825634,-0.002157328650355339,-0.0005060397088527679
0.033770639449357986,0.10011407732963562,9.945444107055664,0.003808620385825634,-0.0026900041848421097,-0.0010387133806943893
0.0050296783447265625,0.08813867717981339,9.950235366821289,0.003808620385825634,-0.0026900041848421097,-0.0010387133806943893
0.024190321564674377,0.11208947747945786,9.940655708312988,0.003808620385825634,-0.0016246549785137177,-0.0010387133806943893
0.024190321564674377,0.10250915586948395,9.955025672912598,0.003808620385825634,-0.0016246549785137177,-0.0005060397088527679
0.03137555718421936,0.10011407732963562,9.935864448547363,0.003808620385825634,-0.0026900041848421097,-0.0005060397088527679
-0.04766207933425903,0.11927472054958344,9.624504089355469,0.00647199060767889,-0.04370590299367905,-0.0010387133806943893
-0.018921121954917908,0.11687964200973511,9.837666511535645,0.009135360829532146,-0.005353374406695366,-0.0010387133806943893
0.036165717989206314,0.10490424185991287,9.974185943603516,0.004873969592154026,0.00956149771809578,-0.0015713870525360107
0.04095587879419327,0.09771899878978729,9.967000007629395,0.005939316935837269,0.034597188234329224,-0.0005060397088527679
0.019400160759687424,0.09053375571966171,9.947839736938477,0.0032759467139840126,0.00157138891518116,-0.0005060397088527679
0.02179523929953575,0.09292884171009064,9.940655708312988,0.0032759467139840126,-0.0010919813066720963,-0.0015713870525360107
0.019400160759687424,0.10250915586948395,9.935864448547363,0.003808620385825634,-0.0016246549785137177,2.663489431142807e-05
0.03137555718421936,0.10250915586948395,9.945444107055664,0.003808620385825634,-0.0016246549785137177,2.663489431142807e-05
0.017005078494548798,0.09053375571966171,9.935864448547363,0.003808620385825634,-0.002157328650355339,-0.0015713870525360107
0.017005078494548798,0.10250915586948395,9.974185943603516,0.002743271179497242,-0.0010919813066720963,-0.0010387133806943893
0.009819842875003815,0.09771899878978729,9.935864448547363,0.004341292195022106,-0.002157328650355339,-0.0010387133806943893
0.019400160759687424,0.10011407732963562,9.938260078430176,0.0032759467139840126,-0.0026900041848421097,-0.0015713870525360107
0.00023952871561050415,0.11448456346988678,9.931074142456055,0.003808620385825634,-0.003222677856683731,-0.0015713870525360107
0.012214921414852142,0.12166979908943176,9.935864448547363,0.002743271179497242,-0.0026900041848421097,-0.0010387133806943893
0.0050296783447265625,0.10969439893960953,9.92388916015625,0.0032759467139840126,-0.002157328650355339,-0.0010387133806943893
0.02179523929953575,0.11448456346988678,9.940655708312988,0.003808620385825634,-0.0026900041848421097,-0.0010387133806943893
0.012214921414852142,0.11208947747945786,9.947839736938477,0.0032759467139840126,-0.002157328650355339,-0.0010387133806943893
0.012214921414852142,0.10250915586948395,9.955025672912598,0.003808620385825634,-0.0026900041848421097,-0.0010387133806943893
0.026585400104522705,0.09292884171009064,9.952630043029785,0.0032759467139840126,-0.0026900041848421097,-0.0010387133806943893
0.024190321564674377,0.08813867717981339,9.945444107055664,0.0032759467139840126,-0.0026900041848421097,-0.0015713870525360107
0.019400160759687424,0.10250915586948395,9.947839736938477,0.004341292195022106,-0.002157328650355339,-0.0005060397088527679
0.026585400104522705,0.09532392024993896,9.938260078430176,0.002743271179497242,-0.0010919813066720963,-0.0010387133806943893
0.012214921414852142,0.11927472054958344,9.935864448547363,0.002743271179497242,-0.002157328650355339,2.663489431142807e-05
0.026585400104522705,0.10250915586948395,9.933469772338867,0.0032759467139840126,-0.003222677856683731,-0.0010387133806943893
0.033770639449357986,0.10490424185991287,9.935864448547363,0.0032759467139840126,-0.002157328650355339,-0.0010387133806943893
0.024190321564674377,0.10490424185991287,9.935864448547363,0.0032759467139840126,-0.0026900041848421097,-0.0005060397088527679
0.026585400104522705,0.10969439893960953,9.957420349121094,0.002743271179497242,-0.003222677856683731,-0.0010387133806943893
0.017005078494548798,0.10250915586948395,9.938260078430176,0.0032759467139840126,-0.002157328650355339,-0.0010387133806943893
0.00742475688457489,0.1072993203997612,9.943049430847168,0.0032759467139840126,-0.002157328650355339,2.663489431142807e-05
0.02179523929953575,0.10250915586948395,9.947839736938477,0.003808620385825634,-0.002157328650355339,-0.0010387133806943893
0.036165717989206314,0.09053375571966171,9.933469772338867,0.002743271179497242,-0.002157328650355339,-0.0005060397088527679
0.009819842875003815,0.09292884171009064,9.938260078430176,0.002743271179497242,-0.002157328650355339,-0.0005060397088527679
0.012214921414852142,0.09532392024993896,9.943049430847168,0.0032759467139840126,-0.0026900041848421097,-0.0010387133806943893
0.024190321564674377,0.09771899878978729,9.935864448547363,0.0032759467139840126,-0.003222677856683731,-0.0015713870525360107
0.02179523929953575,0.09053375571966171,9.931074142456055,0.003808620385825634,-0.0026900041848421097,-0.0005060397088527679
0.04095587879419327,0.09771899878978729,9.928679466247559,0.003808620385825634,-0.002157328650355339,-0.0005060397088527679
0.017005078494548798,0.11208947747945786,9.952630043029785,0.0032759467139840126,-0.0016246549785137177,-0.0005060397088527679
0.012214921414852142,0.1072993203997612,9.928679466247559,0.003808620385825634,-0.0026900041848421097,-0.0010387133806943893
-0.0021555647253990173,0.10490424185991287,9.945444107055664,0.004341292195022106,-0.003222677856683731,2.663489431142807e-05
0.017005078494548798,0.10969439893960953,9.931074142456055,0.002743271179497242,-0.002157328650355339,-0.0005060397088527679
0.012214921414852142,0.10490424185991287,9.938260078430176,0.004341292195022106,-0.0026900041848421097,-0.0010387133806943893
0.019400160759687424,0.08813867717981339,9.938260078430176,0.0032759467139840126,-0.0037553496658802032,-0.0005060397088527679
0.03137555718421936,0.11208947747945786,9.943049430847168,0.0032759467139840126,-0.0037553496658802032,-0.0010387133806943893
0.026585400104522705,0.11687964200973511,9.947839736938477,0.003808620385825634,-0.0037553496658802032,-0.0005060397088527679
0.01460999995470047,0.09771899878978729,9.935864448547363,0.003808620385825634,-0.0037553496658802032,-0.0010387133806943893
0.017005078494548798,0.1072993203997612,9.957420349121094,0.0032759467139840126,-0.003222677856683731,-0.0005060397088527679
0.017005078494548798,0.11687964200973511,9.931074142456055,0.003808620385825634,-0.0037553496658802032,-0.0005060397088527679
0.012214921414852142,0.09771899878978729,9.933469772338867,0.002743271179497242,-0.0026900041848421097,-0.0010387133806943893
0.01460999995470047,0.11687964200973511,9.921494483947754,0.0032759467139840126,-0.0026900041848421097,-0.0015713870525360107
0.01460999995470047,0.10490424185991287,9.952630043029785,0.003808620385825634,-0.003222677856683731,-0.0010387133806943893
-0.004550635814666748,0.09053375571966171,9.933469772338867,0.004873969592154026,-0.002157328650355339,-0.0010387133806943893
0.017005078494548798,0.10011407732963562,9.931074142456055,0.003808620385825634,-0.002157328650355339,-0.0005060397088527679
0.012214921414852142,0.09292884171009064,9.952630043029785,0.003808620385825634,-0.0026900041848421097,-0.0010387133806943893
0.02179523929953575,0.1072993203997612,9.935864448547363,0.0032759467139840126,-0.002157328650355339,-0.0010387133806943893
0.024190321564674377,0.09292884171009064,9.940655708312988,0.0032759467139840126,-0.0026900041848421097,-0.0005060397088527679
0.026585400104522705,0.1072993203997612,9.931074142456055,0.0032759467139840126,-0.0026900041848421097,-0.0010387133806943893
0.02179523929953575,0.08813867717981339,9.943049430847168,0.0032759467139840126,-0.003222677856683731,-0.0015713870525360107
0.02179523929953575,0.09771899878978729,9.945444107055664,0.002743271179497242,-0.002157328650355339,-0.0010387133806943893
0.0050296783447265625,0.10011407732963562,9.938260078430176,0.0032759467139840126,-0.002157328650355339,-0.0005060397088527679
0.026585400104522705,0.10490424185991287,9.938260078430176,0.003808620385825634,-0.002157328650355339,-0.0010387133806943893
0.012214921414852142,0.10011407732963562,9.940655708312988,0.003808620385825634,-0.0016246549785137177,-0.0005060397088527679
0.026585400104522705,0.09532392024993896,9.852036476135254,0.0032759467139840126,-0.0026900041848421097,-0.0010387133806943893
-0.021316200494766235,0.08334852010011673,10.252015113830566,0.002743271179497242,-0.002157328650355339,-0.0015713870525360107
-0.016526035964488983,0.10011407732963562,10.036458015441895,0.002743271179497242,0.01062684878706932,-0.0010387133806943893
0.00023952871561050415,0.09771899878978729,9.931074142456055,0.008070012554526329,-0.0287910308688879,-0.0015713870525360107
0.024190321564674377,0.11448456346988678,9.87598705291748,0.005406643263995647,-0.022398943081498146,-0.0005060397088527679
0.00742475688457489,0.10011407732963562,9.947839736938477,0.0032759467139840126,-0.005353374406695366,-0.0010387133806943893
0.017005078494548798,0.08813867717981339,9.940655708312988,0.002743271179497242,-0.005886048078536987,-0.0005060397088527679
0.03137555718421936,0.11208947747945786,9.933469772338867,0.002743271179497242,-0.004288027063012123,-0.0010387133806943893
0.019400160759687424,0.09771899878978729,9.931074142456055,0.002743271179497242,-0.003222677856683731,-0.0010387133806943893
0.024190321564674377,0.08574359863996506,9.945444107055664,0.003808620385825634,-0.003222677856683731,-0.0010387133806943893
0.024190321564674377,0.09053375571966171,9.921494483947754,0.003808620385825634,-0.0037553496658802032,-0.0021040616557002068
0.017005078494548798,0.09532392024993896,9.935864448547363,0.004341292195022106,-0.003222677856683731,-0.0015713870525360107
0.01460999995470047,0.09053375571966171,9.947839736938477,0.003808620385825634,-0.002157328650355339,-0.0005060397088527679
0.02179523929953575,0.10490424185991287,9.938260078430176,0.0032759467139840126,-0.002157328650355339,-0.0005060397088527679
0.009819842875003815,0.11448456346988678,9.933469772338867,0.003808620385825634,-0.004288027063012123,-0.0010387133806943893
0.01460999995470047,0.08334852010011673,9.938260078430176,0.0032759467139840126,-0.0026900041848421097,2.663489431142807e-05
0.026585400104522705,0.1072993203997612,9.919099807739258,0.002743271179497242,-0.0026900041848421097,-0.0005060397088527679
0.012214921414852142,0.11687964200973511,9.92388916015625,0.0032759467139840126,-0.0026900041848421097,-0.0015713870525360107
0.019400160759687424,0.09053375571966171,9.940655708312988,0.003808620385825634,-0.002157328650355339,-0.0005060397088527679
0.002634607255458832,0.11927472054958344,9.945444107055664,0.008602687157690525,0.03193381428718567,2.663489431142807e-05
0.00023952871561050415,0.10490424185991287,9.947839736938477,0.00647199060767889,0.00583278015255928,-0.0010387133806943893
-0.014130957424640656,0.09292884171009064,9.943049430847168,0.0032759467139840126,-0.013876158744096756,-0.0010387133806943893
-0.016526035964488983,0.10250915586948395,9.957420349121094,0.0006125755608081818,-0.03784649074077606,-0.0005060397088527679
0.03137555718421936,0.11448456346988678,9.909518241882324,7.99037516117096e-05,-0.03784649074077606,-0.0010387133806943893
0.017005078494548798,0.1072993203997612,9.943049430847168,0.0022105975076556206,-0.005353374406695366,-0.0005060397088527679
0.002634607255458832,0.10250915586948395,9.940655708312988,0.003808620385825634,-0.005353374406695366,-0.0015713870525360107
0.00742475688457489,0.08334852010011673,9.911913871765137,0.0022105975076556206,-0.0048207007348537445,-0.0010387133806943893
0.017005078494548798,0.12166979908943176,9.931074142456055,0.002743271179497242,-0.004288027063012123,-0.0010387133806943893
0.026585400104522705,0.10969439893960953,9.92388916015625,0.0032759467139840126,-0.003222677856683731,-0.0010387133806943893
0.02179523929953575,0.10250915586948395,9.931074142456055,0.0032759467139840126,-0.002157328650355339,-0.0010387133806943893
0.019400160759687424,0.09771899878978729,9.935864448547363,0.0032759467139840126,-0.003222677856683731,-0.0005060397088527679
0.0050296783447265625,0.08574359863996506,9.928679466247559,0.002743271179497242,-0.002157328650355339,-0.0010387133806943893
0.02179523929953575,0.09532392024993896,9.911913871765137,0.003808620385825634,-0.0026900041848421097,-0.0015713870525360107
0.036165717989206314,0.11208947747945786,9.919099807739258,0.003808620385825634,-0.0037553496658802032,-0.0010387133806943893
0.01460999995470047,0.09292884171009064,9.935864448547363,0.0032759467139840126,-0.0026900041848421097,-0.0005060397088527679
0.024190321564674377,0.10490424185991287,9.938260078430176,0.0032759467139840126,-0.002157328650355339,-0.0015713870525360107
0.02898048236966133,0.10011407732963562,9.933469772338867,0.003808620385825634,-0.002157328650355339,-0.0005060397088527679
0.017005078494548798,0.11208947747945786,9.947839736938477,0.0032759467139840126,-0.0026900041848421097,-0.0010387133806943893
0.00742475688457489,0.09053375571966171,9.935864448547363,0.0032759467139840126,-0.002157328650355339,-0.0015713870525360107
0.02898048236966133,0.09292884171009064,9.938260078430176,0.003808620385825634,-0.0026900041848421097,-0.0010387133806943893
0.019400160759687424,0.10250915586948395,9.919099807739258,0.004341292195022106,-0.0026900041848421097,-0.0005060397088527679
0.02179523929953575,0.09771899878978729,9.935864448547363,0.003808620385825634,-0.002157328650355339,-0.0005060397088527679
0.019400160759687424,0.09292884171009064,9.928679466247559,0.0032759467139840126,-0.0026900041848421097,-0.0010387133806943893
0.03137555718421936,0.10011407732963562,9.940655708312988,0.0032759467139840126,-0.002157328650355339,-0.0005060397088527679
0.0050296783447265625,0.10969439893960953,9.931074142456055,0.0032759467139840126,-0.0026900041848421097,-0.0015713870525360107
0.02179523929953575,0.10011407732963562,9.926283836364746,0.0032759467139840126,-0.0037553496658802032,-0.0010387133806943893
0.019400160759687424,0.08813867717981339,9.931074142456055,0.0032759467139840126,-0.0037553496658802032,-0.0010387133806943893
0.03137555718421936,0.1072993203997612,9.933469772338867,0.002743271179497242,-0.003222677856683731,-0.0010387133806943893
0.03137555718421936,0.09771899878978729,9.926283836364746,0.003808620385825634,-0.002157328650355339,-0.0005060397088527679
0.024190321564674377,0.10011407732963562,9.931074142456055,0.003808620385825634,-0.003222677856683731,-0.0010387133806943893
0.00742475688457489,0.12166979908943176,9.952630043029785,0.003808620385825634,-0.003222677856683731,-0.0010387133806943893
0.02898048236966133,0.09771899878978729,9.933469772338867,0.003808620385825634,-0.0026900041848421097,-0.0010387133806943893
0.0050296783447265625,0.11687964200973511,9.931074142456055,0.003808620385825634,-0.0016246549785137177,-0.0005060397088527679
0.01460999995470047,0.0809534341096878,9.931074142456055,0.004341292195022106,-0.002157328650355339,2.663489431142807e-05
0.012214921414852142,0.11687964200973511,9.92388916015625,0.003808620385825634,-0.003222677856683731,-0.0005060397088527679
0.01460999995470047,0.11208947747945786,9.933469772338867,0.002743271179497242,-0.0026900041848421097,-0.0010387133806943893
0.0050296783447265625,0.1072993203997612,9.933469772338867,0.0032759467139840126,-0.002157328650355339,-0.0010387133806943893
0.019400160759687424,0.1072993203997612,9.921494483947754,0.0032759467139840126,-0.0026900041848421097,-0.0010387133806943893
0.026585400104522705,0.09053375571966171,9.92388916015625,0.0032759467139840126,-0.002157328650355339,-0.0005060397088527679
0.002634607255458832,0.1072993203997612,9.92388916015625,0.003808620385825634,-0.002157328650355339,-0.0005060397088527679
0.017005078494548798,0.10250915586948395,9.935864448547363,0.002743271179497242,-0.003222677856683731,-0.0005060397088527679
0.019400160759687424,0.10490424185991287,9.935864448547363,0.0032759467139840126,-0.003222677856683731,-0.0010387133806943893
0.033770639449357986,0.10250915586948395,9.935864448547363,0.0032759467139840126,-0.002157328650355339,-0.0010387133806943893
0.026585400104522705,0.09532392024993896,9.914308547973633,0.004341292195022106,-0.0026900041848421097,-0.0010387133806943893
0.012214921414852142,0.10250915586948395,9.986161231994629,0.004873969592154026,-0.0037553496658802032,-0.0010387133806943893
0.009819842875003815,0.1072993203997612,9.940655708312988,0.0032759467139840126,-0.0005593076348304749,0.0005593085661530495
0.02179523929953575,0.09053375571966171,9.947839736938477,0.002743271179497242,-0.0016246549785137177,-0.0010387133806943893
0.01460999995470047,0.10490424185991287,9.931074142456055,0.002743271179497242,-0.002157328650355339,-0.0015713870525360107
0.02179523929953575,0.11448456346988678,9.931074142456055,0.002743271179497242,-0.004288027063012123,-0.0005060397088527679
0.0050296783447265625,0.09053375571966171,9.933469772338867,0.003808620385825634,-0.0026900041848421097,-0.0005060397088527679
0.00742475688457489,0.11687964200973511,9.935864448547363,0.004341292195022106,-0.0026900041848421097,-0.0010387133806943893
0.02179523929953575,0.10250915586948395,9.926283836364746,0.0032759467139840126,-0.0026900041848421097,2.663489431142807e-05
0.012214921414852142,0.11687964200973511,9.928679466247559,0.003808620385825634,-0.0026900041848421097,-0.0010387133806943893
0.017005078494548798,0.10250915586948395,9.928679466247559,0.0032759467139840126,-0.002157328650355339,-0.0005060397088527679
0.017005078494548798,0.1072993203997612,9.938260078430176,0.002743271179497242,-0.0026900041848421097,-0.0005060397088527679
0.00742475688457489,0.10250915586948395,9.928679466247559,0.002743271179497242,-0.0016246549785137177,-0.0005060397088527679
0.012214921414852142,0.09053375571966171,9.935864448547363,0.002743271179497242,-0.003222677856683731,-0.0010387133806943893
0.00023952871561050415,0.1072993203997612,9.938260078430176,0.003808620385825634,-0.0037553496658802032,-0.0010387133806943893
0.012214921414852142,0.10490424185991287,9.928679466247559,0.003808620385825634,-0.0026900041848421097,-0.0010387133806943893
0.01460999995470047,0.10011407732963562,9.92388916015625,0.002743271179497242,-0.003222677856683731,-0.0010387133806943893
0.009819842875003815,0.09771899878978729,9.926283836364746,0.002743271179497242,-0.0026900041848421097,-0.0010387133806943893
0.01460999995470047,0.09292884171009064,9.940655708312988,0.003808620385825634,-0.003222677856683731,2.663489431142807e-05
0.0050296783447265625,0.09532392024993896,9.938260078430176,0.0032759467139840126,-0.003222677856683731,-0.0005060397088527679
0.02179523929953575,0.11208947747945786,9.940655708312988,0.003808620385825634,-0.002157328650355339,-0.0005060397088527679
0.00742475688457489,0.09053375571966171,9.940655708312988,0.0032759467139840126,-0.0026900041848421097,-0.0015713870525360107
0.026585400104522705,0.0713731199502945,9.940655708312988,0.0032759467139840126,-0.0026900041848421097,-0.0010387133806943893
0.002634607255458832,0.11687964200973511,9.938260078430176,0.0032759467139840126,-0.003222677856683731,-0.0010387133806943893
0.019400160759687424,0.11208947747945786,9.935864448547363,0.002743271179497242,-0.002157328650355339,2.663489431142807e-05
0.024190321564674377,0.11927472054958344,9.945444107055664,0.003808620385825634,-0.002157328650355339,-0.0005060397088527679
0.012214921414852142,0.09532392024993896,9.938260078430176,0.0032759467139840126,-0.0026900041848421097,-0.0005060397088527679
0.017005078494548798,0.09532392024993896,9.926283836364746,0.003808620385825634,-0.0026900041848421097,-0.0010387133806943893
-0.0021555647253990173,0.09053375571966171,9.921494483947754,0.0032759467139840126,-0.0026900041848421097,-0.0015713870525360107
0.033770639449357986,0.09771899878978729,9.935864448547363,0.003808620385825634,-0.002157328650355339,-0.0015713870525360107
0.026585400104522705,0.10250915586948395,9.943049430847168,0.003808620385825634,-0.0026900041848421097,-0.0010387133806943893
0.019400160759687424,0.11448456346988678,9.935864448547363,0.0032759467139840126,-0.002157328650355339,2.663489431142807e-05
0.017005078494548798,0.09053375571966171,9.926283836364746,0.004341292195022106,-0.0026900041848421097,-0.0010387133806943893
0.019400160759687424,0.09292884171009064,9.92388916015625,0.0032759467139840126,-0.003222677856683731,-0.0010387133806943893
0.026585400104522705,0.10250915586948395,9.950235366821289,0.0032759467139840126,-0.0037553496658802032,-0.0005060397088527679
0.017005078494548798,0.09292884171009064,9.938260078430176,0.0032759467139840126,-0.003222677856683731,-0.0010387133806943893
0.01460999995470047,0.1072993203997612,9.92388916015625,0.003808620385825634,-0.0037553496658802032,-0.0010387133806943893
0.01460999995470047,0.11927472054958344,9.933469772338867,0.002743271179497242,-0.002157328650355339,-0.0015713870525360107
0.017005078494548798,0.10490424185991287,9.940655708312988,0.0032759467139840126,-0.002157328650355339,-0.0010387133806943893
0.01460999995470047,0.10250915586948395,9.931074142456055,0.0032759467139840126,-0.002157328650355339,-0.0010387133806943893
0.00742475688457489,0.11208947747945786,9.92388916015625,0.003808620385825634,-0.0026900041848421097,-0.0010387133806943893
0.026585400104522705,0.11208947747945786,9.947839736938477,0.0032759467139840126,-0.0010919813066720963,-0.0010387133806943893
0.01460999995470047,0.10011407732963562,9.947839736938477,0.0032759467139840126,-0.0026900041848421097,-0.0010387133806943893
0.01460999995470047,0.10969439893960953,9.940655708312988,0.0032759467139840126,-0.0026900041848421097,-0.0010387133806943893
0.017005078494548798,0.11448456346988678,9.933469772338867,0.002743271179497242,-0.003222677856683731,-0.0010387133806943893
0.00742475688457489,0.10969439893960953,9.928679466247559,0.0032759467139840126,-0.0037553496658802032,-0.0010387133806943893
0.02179523929953575,0.10011407732963562,9.928679466247559,0.0032759467139840126,-0.002157328650355339,-0.0010387133806943893
0.012214921414852142,0.09053375571966171,9.933469772338867,0.0032759467139840126,-0.0026900041848421097,-0.0015713870525360107
0.00742475688457489,0.10250915586948395,9.935864448547363,0.002743271179497242,-0.002157328650355339,-0.0005060397088527679
0.026585400104522705,0.11927472054958344,9.928679466247559,0.0032759467139840126,-0.002157328650355339,-0.0010387133806943893
0.026585400104522705,0.09771899878978729,9.945444107055664,0.002743271179497242,-0.002157328650355339,-0.0015713870525360107
-0.0021555647253990173,0.12166979908943176,9.193389892578125,0.004341292195022106,-0.002157328650355339,-0.0010387133806943893
0.03137555718421936,0.10969439893960953,9.787368774414062,0.0006125755608081818,-0.018670225515961647,-0.0005060397088527679
0.02179523929953575,0.09292884171009064,10.072383880615234,7.99037516117096e-05,-0.008016744628548622,-0.0005060397088527679
0.036165717989206314,0.10490424185991287,9.974185943603516,0.008070012554526329,0.003702085465192795,-0.0005060397088527679
0.02179523929953575,0.10490424185991287,9.95981502532959,0.010200709104537964,0.0063654575496912,-0.0005060397088527679
0.00023952871561050415,0.09771899878978729,9.947839736938477,0.002743271179497242,-0.0010919813066720963,-0.0005060397088527679
0.017005078494548798,0.10490424185991287,9.921494483947754,0.004341292195022106,-0.0016246549785137177,2.663489431142807e-05
0.02898048236966133,0.10490424185991287,9.916704177856445,0.0032759467139840126,-0.0026900041848421097,2.663489431142807e-05
0.017005078494548798,0.1072993203997612,9.935864448547363,0.003808620385825634,-0.002157328650355339,-0.0010387133806943893
0.00742475688457489,0.11687964200973511,9.90233325958252,0.003808620385825634,-0.002157328650355339,-0.0010387133806943893
0.02898048236966133,0.10969439893960953,9.940655708312988,0.002743271179497242,-0.0037553496658802032,-0.0010387133806943893
0.024190321564674377,0.10011407732963562,9.938260078430176,0.004341292195022106,-0.0026900041848421097,-0.0010387133806943893
0.009819842875003815,0.1072993203997612,9.940655708312988,0.0032759467139840126,-0.003222677856683731,-0.0010387133806943893
0.01460999995470047,0.10011407732963562,9.926283836364746,0.003808620385825634,-0.002157328650355339,-0.0005060397088527679
0.002634607255458832,0.11927472054958344,9.926283836364746,0.003808620385825634,-0.0026900041848421097,-0.0010387133806943893
0.017005078494548798,0.10011407732963562,9.935864448547363,0.002743271179497242,-0.002157328650355339,-0.0010387133806943893
0.009819842875003815,0.10011407732963562,9.935864448547363,0.004341292195022106,-0.002157328650355339,-0.0010387133806943893
0.019400160759687424,0.10011407732963562,9.919099807739258,0.003808620385825634,-0.004288027063012123,-0.0005060397088527679
0.02179523929953575,0.09053375571966171,9.940655708312988,0.0032759467139840126,-0.0026900041848421097,-0.0010387133806943893
0.017005078494548798,0.1072993203997612,9.943049430847168,0.0032759467139840126,-0.0026900041848421097,-0.0005060397088527679
0.019400160759687424,0.10490424185991287,9.933469772338867,0.0032759467139840126,-0.002157328650355339,-0.0010387133806943893
-0.09556367993354797,0.11927472054958344,9.36344051361084,0.003808620385825634,-0.04157520830631256,-0.0005060397088527679
-0.004550635814666748,0.11208947747945786,9.756233215332031,0.011798731051385403,0.021280329674482346,-0.0010387133806943893
0.026585400104522705,0.08334852010011673,9.907124519348145,0.0032759467139840126,0.0031694117933511734,-0.0005060397088527679
0.012214921414852142,0.10490424185991287,9.957420349121094,0.003808620385825634,-0.0016246549785137177,-0.0010387133806943893
0.012214921414852142,0.11927472054958344,9.940655708312988,0.0032759467139840126,-0.0016246549785137177,-0.0010387133806943893
0.02898048236966133,0.09532392024993896,9.938260078430176,0.003808620385825634,-0.0010919813066720963,-0.0005060397088527679
0.002634607255458832,0.1072993203997612,9.921494483947754,0.004341292195022106,-0.0005593076348304749,2.663489431142807e-05
0.009819842875003815,0.10969439893960953,9.92388916015625,0.004341292195022106,-0.0016246549785137177,-0.0010387133806943893
0.026585400104522705,0.09532392024993896,9.921494483947754,0.0032759467139840126,-0.002157328650355339,-0.0005060397088527679
0.009819842875003815,0.11448456346988678,9.940655708312988,0.0032759467139840126,-0.002157328650355339,-0.0005060397088527679
0.00742475688457489,0.1072993203997612,9.950235366821289,0.0032759467139840126,-0.0016246549785137177,-0.0005060397088527679
-0.0021555647253990173,0.09053375571966171,9.935864448547363,0.003808620385825634,-0.002157328650355339,-0.0015713870525360107
0.026585400104522705,0.08813867717981339,9.940655708312988,0.004341292195022106,-0.003222677856683731,-0.0015713870525360107
0.02179523929953575,0.10490424185991287,9.940655708312988,0.002743271179497242,-0.003222677856683731,-0.0010387133806943893
0.024190321564674377,0.10250915586948395,9.928679466247559,0.002743271179497242,-0.002157328650355339,-0.0010387133806943893
0.01460999995470047,0.10969439893960953,9.931074142456055,0.003808620385825634,-0.0026900041848421097,0.0005593085661530495
0.01460999995470047,0.09292884171009064,9.933469772338867,0.004341292195022106,-0.003222677856683731,2.663489431142807e-05
0.012214921414852142,0.08813867717981339,9.928679466247559,0.003808620385825634,-0.003222677856683731,-0.0010387133806943893
-0.06921778619289398,0.10011407732963562,9.6460599899292,0.005939316935837269,-0.021866269409656525,-0.0010387133806943893
0.002634607255458832,0.10011407732963562,9.957420349121094,0.0032759467139840126,-0.004288027063012123,-0.0005060397088527679
0.02898048236966133,0.09771899878978729,9.852036476135254,0.005939316935837269,-0.029323706403374672,-0.0010387133806943893
0.04574603959918022,0.09771899878978729,9.98137092590332,0.005406643263995647,0.00956149771809578,-0.0005060397088527679
0.04095587879419327,0.09053375571966171,9.933469772338867,0.005939316935837269,0.034597188234329224,-0.0005060397088527679
0.017005078494548798,0.11208947747945786,9.892752647399902,0.004341292195022106,0.005300108343362808,2.663489431142807e-05
0.02179523929953575,0.09532392024993896,9.928679466247559,0.003808620385825634,0.0010387152433395386,-0.0005060397088527679
0.02898048236966133,0.10011407732963562,9.933469772338867,0.003808620385825634,-0.0016246549785137177,-0.0005060397088527679
0.03137555718421936,0.1072993203997612,9.928679466247559,0.002743271179497242,-0.003222677856683731,-0.0010387133806943893
0.00742475688457489,0.10969439893960953,9.940655708312988,0.003808620385825634,-0.0037553496658802032,-0.0005060397088527679
0.036165717989206314,0.11448456346988678,9.928679466247559,0.002743271179497242,-0.002157328650355339,-0.0005060397088527679
0.024190321564674377,0.1072993203997612,9.933469772338867,0.003808620385825634,-0.0016246549785137177,-0.0005060397088527679
0.01460999995470047,0.09292884171009064,9.940655708312988,0.003808620385825634,-0.0037553496658802032,-0.0010387133806943893
0.00742475688457489,0.09771899878978729,9.931074142456055,0.0022105975076556206,-0.002157328650355339,2.663489431142807e-05
0.02898048236966133,0.11208947747945786,9.935864448547363,0.003808620385825634,-0.0016246549785137177,-0.0010387133806943893
0.02179523929953575,0.11208947747945786,9.931074142456055,0.003808620385825634,-0.002157328650355339,-0.0010387133806943893
0.01460999995470047,0.10490424185991287,9.935864448547363,0.003808620385825634,-0.0016246549785137177,-0.0005060397088527679
0.00742475688457489,0.09053375571966171,9.931074142456055,0.003808620385825634,-0.0026900041848421097,2.663489431142807e-05
0.02179523929953575,0.1072993203997612,9.921494483947754,0.0032759467139840126,-0.0026900041848421097,-0.0010387133806943893
0.02179523929953575,0.1072993203997612,9.955025672912598,0.0032759467139840126,-0.0010919813066720963,-0.0010387133806943893
0.012214921414852142,0.11687964200973511,9.928679466247559,0.004873969592154026,-0.002157328650355339,-0.0005060397088527679
0.00742475688457489,0.09771899878978729,9.928679466247559,0.0032759467139840126,-0.0026900041848421097,-0.0005060397088527679
0.012214921414852142,0.09053375571966171,9.935864448547363,0.003808620385825634,-0.003222677856683731,-0.0010387133806943893
0.017005078494548798,0.10969439893960953,9.916704177856445,0.003808620385825634,-0.0026900041848421097,-0.0005060397088527679
0.04095587879419327,0.09053375571966171,9.935864448547363,0.002743271179497242,-0.002157328650355339,-0.0010387133806943893
0.026585400104522705,0.10011407732963562,9.926283836364746,0.003808620385825634,-0.002157328650355339,-0.0015713870525360107
0.017005078494548798,0.10490424185991287,9.935864448547363,0.0032759467139840126,-0.0026900041848421097,-0.0005060397088527679
0.012214921414852142,0.09532392024993896,9.92388916015625,0.0032759467139840126,-0.0016246549785137177,2.663489431142807e-05
0.019400160759687424,0.08813867717981339,9.933469772338867,0.0032759467139840126,-0.002157328650355339,-0.0005060397088527679
0.009819842875003815,0.11448456346988678,9.945444107055664,0.003808620385825634,-0.002157328650355339,-0.0015713870525360107
0.012214921414852142,0.08574359863996506,9.933469772338867,0.0032759467139840126,-0.0037553496658802032,-0.0005060397088527679
0.03137555718421936,0.08574359863996506,9.926283836364746,0.002743271179497242,-0.003222677856683731,-0.0005060397088527679
0.02179523929953575,0.1072993203997612,9.933469772338867,0.003808620385825634,-0.002157328650355339,-0.0010387133806943893
0.02898048236966133,0.10011407732963562,9.931074142456055,0.003808620385825634,-0.003222677856683731,-0.0010387133806943893
0.017005078494548798,0.1072993203997612,9.947839736938477,0.003808620385825634,-0.0026900041848421097,-0.0005060397088527679
0.026585400104522705,0.10969439893960953,9.921494483947754,0.003808620385825634,-0.002157328650355339,-0.0005060397088527679
-0.004550635814666748,0.10250915586948395,9.943049430847168,0.0032759467139840126,-0.0026900041848421097,-0.0010387133806943893
0.017005078494548798,0.10250915586948395,9.938260078430176,0.0032759467139840126,-0.0016246549785137177,-0.0010387133806943893
0.00742475688457489,0.11687964200973511,9.940655708312988,0.002743271179497242,-0.002157328650355339,-0.0010387133806943893
0.10322795808315277,0.12166979908943176,9.11674690246582,0.0016779238358139992,0.0867992416024208,-0.0010387133806943893
-0.02610635757446289,0.09771899878978729,10.10831069946289,0.004873969592154026,0.02287834882736206,-0.0010387133806943893
-0.009340792894363403,0.11208947747945786,9.988555908203125,0.010200709104537964,-0.025594988837838173,-0.0010387133806943893
0.0050296783447265625,0.08813867717981339,9.97179126739502,0.008070012554526329,-0.05329403281211853,-0.0010387133806943893
0.017005078494548798,0.10969439893960953,9.811320304870605,0.007004664279520512,-0.0650128647685051,-0.0015713870525360107
0.024190321564674377,0.10250915586948395,9.976581573486328,0.0032759467139840126,-0.004288027063012123,-0.0010387133806943893
0.009819842875003815,0.10250915586948395,9.928679466247559,0.0032759467139840126,-0.004288027063012123,-0.0010387133806943893
0.033770639449357986,0.09771899878978729,9.945444107055664,0.003808620385825634,-0.004288027063012123,-0.0010387133806943893
0.00742475688457489,0.09771899878978729,9.933469772338867,0.0032759467139840126,-0.0026900041848421097,-0.0005060397088527679
0.00023952871561050415,0.10250915586948395,9.931074142456055,0.0032759467139840126,-0.003222677856683731,-0.0010387133806943893
0.01460999995470047,0.10011407732963562,9.933469772338867,0.003808620385825634,-0.0026900041848421097,-0.0005060397088527679
0.01460999995470047,0.08574359863996506,9.916704177856445,0.0032759467139840126,-0.0026900041848421097,-0.0010387133806943893
0.019400160759687424,0.10011407732963562,9.955025672912598,0.0032759467139840126,-0.003222677856683731,-0.0010387133806943893
0.026585400104522705,0.08813867717981339,9.931074142456055,0.003808620385825634,-0.0037553496658802032,-0.0010387133806943893
0.017005078494548798,0.09053375571966171,9.935864448547363,0.003808620385825634,-0.0026900041848421097,-0.0015713870525360107
-0.05245223641395569,0.07855835556983948,10.680733680725098,-0.05585087090730667,-0.0016246549785137177,0.0005593085661530495
-0.0021555647253990173,0.11687964200973511,9.37781047821045,0.01659279689192772,0.006898129358887672,-0.0005060397088527679
0.02179523929953575,0.1072993203997612,9.835271835327148,0.01499477494508028,-0.010147440247237682,-0.0010387133806943893
