accX,accY,accZ,gyroX,gyroY,gyroZ
-3.1110925674438477,4.223476886749268,7.4450860023498535,-0.5026722550392151,-0.6986203789710999,0.29014351963996887
-2.345867395401001,4.4105024337768555,7.506770133972168,-0.8178787231445312,-0.8012457489967346,0.15330971777439117
-2.2232842445373535,4.196910858154297,7.601302623748779,-1.1838393211364746,-0.836571216583252,-0.030403634533286095
-2.004042625427246,3.479292154312134,7.39527702331543,-1.5995419025421143,-1.0122036933898926,-0.22345450520515442
-1.4112956523895264,2.7068076133728027,8.043272018432617,-1.9551178216934204,-1.4154096841812134,-0.3029193580150604
-1.0137815475463867,1.6794557571411133,9.74035930633545,-1.9270005226135254,-1.663368582725525,-0.25384068489074707
-0.9528443813323975,1.189611792564392,10.32177734375,-1.728434443473816,-1.6832479238510132,-0.19531980156898499
-0.48156970739364624,1.6313132047653198,10.157142639160156,-1.2147316932678223,-1.7511062622070312,-0.0593411959707737
-1.0595300197601318,1.5928910970687866,9.317658424377441,-0.9931272268295288,-1.2068427801132202,0.2905973196029663
-0.1745373010635376,1.609315276145935,9.596487045288086,-0.9103811979293823,-1.0769379138946533,0.4499633312225342
1.2953684329986572,0.5728175044059753,10.674078941345215,-0.5910557508468628,-1.10275137424469,0.5179089903831482
1.3689757585525513,1.513748288154602,10.964648246765137,-0.21797417104244232,-0.3821747303009033,-0.08403760194778442
0.5004552006721497,1.5659801959991455,11.264853477478027,-0.06223843991756439,0.02480112947523594,-0.07291985303163528
0.24272416532039642,1.610933780670166,10.903443336486816,0.1523323357105255,0.2813645303249359,0.033021628856658936
0.35709038376808167,1.6623612642288208,10.426106452941895,0.27574455738067627,0.3661002516746521,0.06286676228046417
0.20515434443950653,1.6601872444152832,9.743807792663574,0.28560566902160645,0.47511354088783264,-0.043161991983652115
-0.06438487023115158,1.6306906938552856,9.620630264282227,0.2978578805923462,0.4625122547149658,-0.05108578875660896
-0.22770772874355316,1.6789003610610962,9.445575714111328,0.3320314288139343,0.3744080364704132,0.059725165367126465
-0.10420522838830948,1.8575173616409302,9.243629455566406,0.2606649100780487,0.4006054103374481,0.03420845419168472
-0.3990176320075989,1.8128224611282349,9.178651809692383,0.1941678822040558,0.34869933128356934,0.006126105785369873
-0.6184031367301941,1.7980549335479736,9.592090606689453,0.1751612424850464,0.2535265386104584,0.01647590845823288
-0.42149439454078674,1.8789119720458984,9.877911567687988,0.19853119552135468,0.2881014943122864,-0.004433136433362961
-0.318524569272995,1.8325411081314087,9.771809577941895,0.26712262630462646,0.42762312293052673,-0.051225412636995316
-0.582700788974762,1.9438139200210571,9.571356773376465,0.31637582182884216,0.4856727719306946,-0.014346606098115444
-0.7198023200035095,2.1729869842529297,9.52568531036377,0.3157126009464264,0.4423711597919464,0.018884463235735893
-0.5428420901298523,2.328753709793091,9.371777534484863,0.2508561611175537,0.3341781795024872,0.006841690745204687
-0.6872890591621399,2.309293746948242,9.228930473327637,0.07709119468927383,0.38203510642051697,-0.010646508075296879
-0.9287874102592468,2.030618190765381,9.69930362701416,0.0026529005263000727,0.3612307906150818,0.0200189258903265
-1.2258599996566772,2.40570330619812,9.287692070007324,0.24031437933444977,0.26569145917892456,0.1235693097114563
-0.9864014983177185,2.2249410152435303,8.963393211364746,0.11128219217061996,0.2007477730512619,0.08918632566928864
-1.1231296062469482,2.237668752670288,9.055349349975586,0.05037020146846771,0.026371924206614494,0.08211774379014969
-1.3093314170837402,2.4452075958251953,9.29211711883545,0.04450589418411255,-0.16550956666469574,0.05023057386279106
-1.1392090320587158,2.5952091217041016,9.210503578186035,0.002775073517113924,-0.13702580332756042,0.015446163713932037
-1.0507192611694336,2.5233161449432373,9.344139099121094,-0.01846558414399624,-0.11988666653633118,0.009861109778285027
-0.9639343023300171,2.446356773376465,9.604445457458496,0.005742133129388094,-0.04934045672416687,0.004310963209718466
-0.9930382370948792,2.299889326095581,9.644418716430664,0.04906120523810387,-0.07874925434589386,0.01235693134367466
-0.9371192455291748,2.4306509494781494,9.675898551940918,0.04797910153865814,-0.09185668081045151,0.004590216092765331
-0.8752626180648804,2.4530701637268066,9.937545776367188,0.15107570588588715,-0.22835887968540192,-0.010663961991667747
-0.6542204022407532,2.3648104667663574,9.446983337402344,0.16694074869155884,0.026197392493486404,0.007906341925263405
-0.8259037733078003,2.608511447906494,9.216201782226562,0.15371114015579224,0.08573057502508163,0.00708603672683239
-1.0835773944854736,2.49149227142334,9.247641563415527,0.13440780341625214,0.1221032366156578,-0.002478367416188121
-1.3391247987747192,2.4344050884246826,9.160866737365723,0.11297516524791718,0.0029321531765162945,0.009529497474431992
-1.260317325592041,2.78003191947937,9.05544662475586,0.06408849358558655,-0.271293967962265,0.058485984802246094
-0.9137422442436218,2.6305859088897705,9.253100395202637,-0.05679301545023918,-0.3833441138267517,0.08789478242397308
-0.6535117030143738,2.545448064804077,9.207160949707031,-0.16461946070194244,-0.07759733498096466,0.03839724510908127
-0.7342633008956909,2.5678961277008057,9.460966110229492,-0.18277087807655334,-0.02857103943824768,0.027523841708898544
-0.7193235158920288,2.364053726196289,9.933073043823242,-0.2096489518880844,0.066252700984478,0.0538608618080616
-0.7360445857048035,2.0608713626861572,9.49755859375,-0.22305308282375336,0.14365805685520172,0.08564330637454987
-0.49111777544021606,1.4693598747253418,9.746326446533203,-0.22457151114940643,0.12208577990531921,-0.030089477077126503
-1.296249508857727,3.5358142852783203,10.08951187133789,0.17502161860466003,-0.19650661945343018,-0.08607963472604752
-0.5580117702484131,2.932513952255249,9.929645538330078,0.37461745738983154,-0.21752038598060608,-0.02768092229962349
-0.5443360805511475,2.224165439605713,9.440308570861816,0.2816786766052246,-0.040055304765701294,-0.06621779501438141
-0.7854609489440918,2.5137200355529785,9.011305809020996,0.06161012127995491,-0.010908307507634163,-0.010035643354058266
-0.7590193748474121,2.6251845359802246,9.296503067016602,-0.13384929299354553,-0.014713125303387642,0.08372344076633453
-0.6493649482727051,2.5556187629699707,9.445873260498047,-0.21909117698669434,-0.04893903061747551,0.09665632992982864
-0.689740777015686,2.5438008308410645,9.457356452941895,-0.22080160677433014,-0.08550368249416351,0.08306021988391876
-0.6978810429573059,2.4397010803222656,9.745157241821289,0.09831439703702927,0.03242821618914604,0.005340707488358021
-0.6288130879402161,2.446720838546753,9.40085220336914,0.08436921238899231,-0.021240657195448875,0.0037873645778745413
-0.6089699864387512,2.4850375652313232,9.306721687316895,0.01251401100307703,-0.05331980809569359,0.005201081279665232
-0.6422589421272278,2.410520553588867,9.56728744506836,-0.07072073966264725,0.03392919898033142,-0.0028623400721699
-0.6793978214263916,2.408346652984619,9.513992309570312,-0.03574434295296669,0.037751469761133194,0.002321287989616394
-0.6989632248878479,2.411478042602539,9.439359664916992,-0.0077667152509093285,0.007801621686667204,0.00251327408477664
-0.6393954753875732,2.383197784423828,9.368607521057129,0.021031217649579048,-0.03183480724692345,0.0012391837080940604
-0.6073610782623291,2.424349308013916,9.37889289855957,0.03162536770105362,-0.047542769461870193,-0.0014660765882581472
-0.5873168110847473,2.4612679481506348,9.388736724853516,0.024434609338641167,-0.05342452973127365,-0.006422811653465033
-0.5886766910552979,2.4706339836120605,9.433337211608887,-0.0009599310578778386,-0.05318018049001694,-0.01811651699244976
-0.6129826307296753,2.4759299755096436,9.417583465576172,-0.04478514939546585,-0.041608650237321854,-0.02174680307507515
-0.659229040145874,2.4714672565460205,9.618035316467285,-0.0351334773004055,-0.06002187356352806,-0.011972958222031593
-0.49253514409065247,2.5091712474823,9.756171226501465,0.00753982225432992,-0.05682792142033577,-0.014521139673888683
-0.5528786182403564,2.4796650409698486,9.635502815246582,0.02626720443367958,-0.04255112633109093,-0.017418386414647102
-0.4600410461425781,2.5867719650268555,9.485751152038574,-0.009669124148786068,-0.08759807795286179,-0.027087509632110596
-0.6661626696586609,2.4448533058166504,9.686509132385254,-0.08185594528913498,-0.1549503356218338,-0.042935099452733994
-0.6231340765953064,2.4287068843841553,10.137739181518555,0.00205948855727911,-0.2211855798959732,-0.04970697686076164
-0.5749340057373047,2.461076498031616,10.071084976196289,0.12494812160730362,-0.22586305439472198,-0.048956483602523804
-0.5788604617118835,2.447199583053589,9.716282844543457,0.19561649858951569,-0.2111150324344635,-0.013665927574038506
-0.501613974571228,2.5241780281066895,9.294596672058105,0.1912182718515396,-0.2142915278673172,0.003490658476948738
-0.5108747482299805,2.489577054977417,9.341523170471191,0.15706217288970947,-0.19655898213386536,0.012967796064913273
-0.4295293390750885,2.480086326599121,9.482934951782227,0.14098769426345825,-0.20570451021194458,-0.017732545733451843
-0.3417004644870758,2.6729249954223633,9.72294807434082,0.15261158347129822,-0.16554448008537292,-0.03879866749048233
-0.5341846942901611,2.4444990158081055,8.482474327087402,0.29421016573905945,-0.3142814338207245,-0.08004079759120941
-0.15221376717090607,2.749912977218628,9.343764305114746,0.30771899223327637,-0.6631378531455994,-0.030892327427864075
0.3188214600086212,2.7538297176361084,10.1793794631958,0.2128778100013733,-0.21762509644031525,0.009616764262318611
0.44146203994750977,2.8655433654785156,10.012053489685059,0.1396612524986267,0.11676252633333206,0.014835298992693424
0.14337436854839325,3.1032395362854004,9.058462142944336,0.02272418700158596,0.37636280059814453,-0.016947146505117416
-0.31410008668899536,2.5046029090881348,9.480923652648926,0.07937757670879364,0.25190338492393494,-0.014137166552245617
-0.33033278584480286,2.964031219482422,9.921399116516113,0.21577505767345428,0.09396852552890778,0.004363323096185923
-0.3521966338157654,3.1896512508392334,9.120856285095215,0.17097245156764984,-0.03757693991065025,-0.008447393774986267
-0.37844666838645935,2.9363062381744385,9.000274658203125,0.024818582460284233,-0.2534741759300232,-0.0014660765882581472
-0.32437601685523987,2.8987460136413574,8.964092254638672,-0.0725707933306694,-0.5093045234680176,0.012409291230142117
0.22625204920768738,2.9825334548950195,10.07470417022705,-0.0391826406121254,-0.20542524755001068,-0.0003316125657875091
0.15965494513511658,2.94975209236145,9.646573066711426,-0.0538608618080616,-0.06166248396039009,0.016982054337859154
-0.0788075402379036,2.7999229431152344,9.499281883239746,-0.060528017580509186,-0.12594296038150787,0.043336525559425354
-0.05652230978012085,2.8328192234039307,9.067540168762207,-0.08377580344676971,-0.38357099890708923,0.0711570754647255
0.2754959762096405,2.790116310119629,9.541247367858887,-0.08616690337657928,-0.5209633111953735,0.025132741779088974
0.43108078837394714,2.858839511871338,9.950723648071289,-0.001117010717280209,-0.2837556302547455,0.0049916417337954044
0.5689389109611511,2.894331216812134,9.869770050048828,0.1042834222316742,-0.012601276859641075,-0.059725165367126465
0.28982290625572205,2.8048741817474365,9.464058876037598,0.18184585869312286,0.15212289988994598,-0.059725165367126465
0.27742093801498413,2.8129665851593018,8.721540451049805,0.16980308294296265,0.10711085796356201,-0.06054547056555748
0.2957126200199127,2.8822834491729736,9.04952621459961,0.129608154296875,-0.035901423543691635,-0.01864011585712433
0.44977471232414246,3.145320177078247,9.065385818481445,-0.04527384042739868,0.07520623505115509,0.04040437191724777
0.12272677570581436,2.7486584186553955,9.609683990478516,-0.19432495534420013,0.021903881803154945,0.055204764008522034
0.16304512321949005,2.914327621459961,10.3101806640625,-0.051923543214797974,0.059498272836208344,0.04628613218665123
0.3166283667087555,2.800478458404541,9.816716194152832,0.04256857931613922,0.07550293952226639,0.0017627825727686286
0.13396994769573212,2.8007752895355225,9.330808639526367,0.045465826988220215,0.05359905958175659,0.0005759586347267032
0.2565913796424866,2.965726137161255,9.160483360290527,-0.007714355364441872,0.024155355989933014,0.0012217304902151227
0.15728947520256042,2.8757712841033936,9.202803611755371,-0.06227334588766098,0.04132939502596855,0.0008203047327697277
0.258602499961853,2.9281277656555176,9.308531761169434,-0.11028735339641571,0.07211700081825256,-0.012217304669320583
0.15567098557949066,2.795402765274048,9.611686706542969,-0.11499974131584167,0.07042403519153595,-0.020053833723068237
0.12766841053962708,2.735346555709839,9.749284744262695,-0.06930702179670334,0.03574434295296669,0.006370451766997576
0.09839210659265518,2.8023841381073,9.433077812194824,0.0009948377264663577,0.10067059099674225,0.018151424825191498
0.07095456123352051,2.8100361824035645,9.422918319702148,-0.024469515308737755,0.10924015939235687,0.015969762578606606
0.04073973372578621,2.798323631286621,9.462133407592773,-0.04197516664862633,0.12140510231256485,0.010646508075296879
0.033921048045158386,2.741044759750366,9.401971817016602,-0.018221236765384674,0.02675589732825756,-0.010471975430846214
-0.03528095409274101,2.689626932144165,9.289895057678223,-0.0023911010939627886,0.018221236765384674,-0.009407324716448784
0.02737051248550415,2.6835649013519287,9.374361991882324,-0.010035643354058266,0.018151424825191498,0.0008028514566831291
0.10908940434455872,2.7557930946350098,9.370291709899902,-0.025569073855876923,0.05829399824142456,-0.008726646192371845
0.06947015225887299,2.731400966644287,9.555842399597168,-0.034435346722602844,0.07761479169130325,-0.04070107638835907
-0.035347990691661835,2.703714370727539,9.654799461364746,-0.026825711131095886,0.12911945581436157,-0.04504694789648056
-0.08961017429828644,2.740278720855713,9.726263046264648,6.981316983001307e-05,0.11958996206521988,-0.03951425477862358
-0.1798907369375229,2.692997932434082,9.690071105957031,0.057246800512075424,0.08454374969005585,-0.0285186804831028
-0.0959787517786026,2.780874729156494,9.608918190002441,0.08590510487556458,0.08576548099517822,-0.005235987715423107
-0.12303323298692703,2.8178889751434326,9.61001968383789,0.06590363383293152,0.13173745572566986,-0.01357866171747446
-0.2823529839515686,2.760255813598633,9.52879810333252,0.07239625602960587,0.08943066745996475,-0.007487462367862463
-0.26141807436943054,2.794454574584961,9.609415054321289,0.11047933995723724,0.02860594540834427,0.007155850064009428
-0.16850391030311584,2.870781898498535,9.634920120239258,0.13751448690891266,0.013805554248392582,0.0036826448049396276
-0.18961119651794434,2.8568763732910156,9.541861534118652,0.13561208546161652,0.06389650702476501,0.008569566532969475
-0.12084972113370895,2.8802053928375244,9.40377426147461,0.12718214094638824,0.09347983449697495,0.009494591504335403
-0.08413224667310715,2.8862483501434326,9.380548477172852,0.15126769244670868,0.12662363052368164,-0.0037000980228185654
-0.08831731230020523,2.9467833042144775,9.281928062438965,0.20558233559131622,0.08241444826126099,-0.0495498962700367
-0.08260953426361084,2.997731924057007,9.411847114562988,0.2538232207298279,0.12187634408473969,-0.11843804270029068
-0.28257325291633606,2.895786762237549,9.30443286895752,-0.0036128314677625895,0.4312359392642975,0.007609635591506958
-0.5393465757369995,3.143280267715454,9.621587753295898,0.044401176273822784,0.4181808829307556,0.06831218302249908
-0.37944263219833374,3.2679224014282227,9.608583450317383,0.12723450362682343,0.5228657126426697,0.09574875980615616
-0.4185734689235687,3.1201138496398926,9.542799949645996,0.1820029318332672,0.7120245099067688,0.07157595455646515
-0.5312445759773254,3.0188584327697754,9.266565322875977,0.2191784530878067,0.9341525435447693,0.07419394701719284
-0.7560601234436035,3.1409435272216797,9.032145500183105,0.1722639948129654,0.952164351940155,0.06696828454732895
-1.2053464651107788,3.2455127239227295,8.934528350830078,0.043161991983652115,0.7735299468040466,0.05475097894668579
-1.5107412338256836,3.196489095687866,8.963787078857422,-0.07206464558839798,0.5677905082702637,0.0823795422911644
-1.64644455909729,3.335611343383789,9.22429370880127,-0.1247386783361435,0.5113640427589417,0.09634217619895935
-1.8112901449203491,3.281310796737671,9.585282325744629,-0.11273081600666046,0.5743703842163086,0.09473647177219391
-1.8789502382278442,3.1430983543395996,9.706448554992676,-0.013439035043120384,0.6690370440483093,0.09098401665687561
-2.1119730472564697,3.091507911682129,9.45934772491455,0.1229759007692337,0.5637239217758179,0.10960667580366135
-2.1765494346618652,3.160106658935547,9.242538452148438,0.19034560024738312,0.348559707403183,0.15475834906101227
-2.01883864402771,3.276646852493286,9.106901168823242,0.20327849686145782,0.23827235400676727,0.1762607991695404
-1.891007423400879,3.272892713546753,9.059822082519531,0.2212204784154892,0.2485697865486145,0.13891075551509857
-1.8279441595077515,3.23547625541687,9.08131217956543,0.22589796781539917,0.3189240097999573,0.10848966240882874
-1.939054250717163,3.371830701828003,9.001996994018555,0.21617648005485535,0.3824540078639984,0.11782717704772949
-1.8948190212249756,3.3062870502471924,8.919254302978516,0.2214648276567459,0.37892842292785645,0.1252971887588501
-1.9160699844360352,3.2632968425750732,8.99274730682373,0.2661627233028412,0.32737141847610474,0.11938051879405975
-1.823309063911438,3.1755733489990234,9.002188682556152,0.3303035497665405,0.34168311953544617,0.09843657165765762
-2.1769039630889893,3.4674837589263916,8.994977951049805,0.37830010056495667,0.24760985374450684,0.10267771780490875
-1.7870129346847534,3.7936794757843018,9.295489311218262,0.3696083724498749,0.2583959996700287,0.07318165898323059
-2.2305052280426025,3.795882225036621,9.005244255065918,0.30379199981689453,0.5077860951423645,0.05323254317045212
-2.690804958343506,3.9537079334259033,6.067634582519531,0.15938346087932587,0.22835887968540192,0.014224433340132236
-3.1117916107177734,3.8623738288879395,8.030784606933594,-0.041172318160533905,-0.35817646980285645,0.0161268413066864
-2.739301919937134,4.37398624420166,9.874242782592773,-0.1206720620393753,-0.28131216764450073,0.029775317758321762
-2.9173824787139893,3.6616344451904297,8.98696231842041,-0.09002408385276794,-0.23795819282531738,-0.011082841083407402
-2.8697187900543213,3.455991744995117,8.047486305236816,-0.0483979806303978,-0.5079256892204285,0.05293583497405052
-1.8904328346252441,3.7718253135681152,8.028200149536133,-0.032183870673179626,-1.1165568828582764,-0.0070685832761228085
-1.6813712120056152,3.8997042179107666,8.188370704650879,-0.06949900835752487,-1.339173674583435,-0.06042329967021942
-1.912737250328064,3.8628528118133545,8.380337715148926,-0.18327702581882477,-1.580360770225525,-0.06736970692873001
-1.9534673690795898,3.493896722793579,8.421624183654785,-0.2108532190322876,-1.8438880443572998,-0.03064798191189766
-1.5202510356903076,3.3795018196105957,8.410965919494629,-0.190642312169075,-1.9845091104507446,-0.029478611424565315
-0.36434003710746765,3.5333914756774902,9.224123001098633,-0.17615607380867004,-1.9964122772216797,-0.08651597052812576
-0.21649327874183655,3.1226229667663574,9.660622596740723,-0.3681248426437378,-0.6103940010070801,0.028536133468151093
0.17325399816036224,3.327049493789673,9.90219783782959,-0.23923228681087494,-0.5825908780097961,0.09442231059074402
0.49484315514564514,3.457868814468384,9.725764274597168,-0.13273228704929352,-0.4533143639564514,0.05708971992135048
0.40839332342147827,3.373525857925415,9.440030097961426,-0.08173377066850662,-0.44566982984542847,-0.007382742594927549
0.712064266204834,3.155088424682617,9.613677978515625,-0.09948376566171646,-0.37924259901046753,-0.043388884514570236
1.2072235345840454,3.1345653533935547,9.333948135375977,-0.07337363809347153,-0.20877628028392792,-0.12973032891750336
1.2550692558288574,3.4157979488372803,9.127558708190918,-0.02830924093723297,-0.23322834074497223,-0.1595754474401474
0.6370683312416077,3.4613356590270996,9.567326545715332,0.045867253094911575,0.08059930801391602,-0.09435249865055084
0.6144957542419434,3.314188003540039,9.624690055847168,0.061191242188215256,0.14367550611495972,-0.043999750167131424
0.8224944472312927,3.2457520961761475,9.258416175842285,0.013508847914636135,0.18427185714244843,0.04581489413976669
0.6985514163970947,3.4710750579833984,8.848749160766602,-0.06270968168973923,0.13212142884731293,0.05420992523431778
0.34819352626800537,3.0778610706329346,9.456618309020996,-0.04403465613722801,0.10101965814828873,0.042097341269254684
0.1524723321199417,3.3128855228424072,9.846136093139648,0.038117989897727966,0.2646617293357849,0.02542944625020027
0.46515506505966187,3.759873390197754,9.608352661132812,0.06492624431848526,0.31579986214637756,-0.04656538367271423
0.3124241530895233,3.239919900894165,9.395307540893555,0.08761552721261978,0.2538232207298279,-0.1203928142786026
-0.01824381574988365,3.020869493484497,9.015270233154297,0.12004374712705612,0.1567305624485016,-0.09868091344833374
0.12618400156497955,3.1731693744659424,8.90294361114502,0.07222172617912292,0.12163199484348297,-0.03450515866279602
0.3006734251976013,3.2119364738464355,9.104757308959961,0.009948376566171646,0.22558380663394928,-0.023090705275535583
0.15277878940105438,3.1966710090637207,9.185450553894043,-0.006492624990642071,0.25769785046577454,-0.029024824500083923
-0.1410950869321823,3.219090223312378,9.689582824707031,0.01886700838804245,0.24214698374271393,-0.032393310219049454
-0.21287325024604797,3.169731378555298,9.72854232788086,0.1523846983909607,0.20954422652721405,-0.030019663274288177
-0.09725246578454971,3.077688694000244,8.89062786102295,0.27488934993743896,0.4553389549255371,-0.015603243373334408
-0.3750756084918976,3.3631253242492676,8.705623626708984,0.2584308981895447,0.18449875712394714,-0.0024260077625513077
0.07897992432117462,3.4995758533477783,8.674766540527344,0.010838494636118412,-0.0031415927223861217,-0.004520402755588293
-0.0197856817394495,3.1966710090637207,9.88143539428711,-0.2816786766052246,0.0406138114631176,-0.06668902933597565
-0.07901822775602341,3.205740213394165,9.8616304397583,-0.10342821478843689,-0.010402162559330463,-0.053127821534872055
-0.20233877003192902,3.3826334476470947,9.60571002960205,0.0351334773004055,-0.008412486873567104,-0.02206096239387989
-0.11819694191217422,3.438169240951538,9.133745193481445,0.030141836032271385,0.08548622578382492,-0.003263765713199973
-0.07293695956468582,3.3595054149627686,8.88779354095459,-0.05441936478018761,0.11171852797269821,-0.005846852902323008
-0.11371500045061111,3.3726255893707275,8.908758163452148,-0.10622073709964752,0.09096655994653702,-0.00815068744122982
-0.2833106517791748,3.2929751873016357,9.295621871948242,-0.1578126698732376,0.038292523473501205,-0.011972958222031593
-0.34149932861328125,3.1870367527008057,9.531355857849121,-0.1347743272781372,0.05138249322772026,-0.008569566532969475
-0.21317970752716064,3.140732765197754,9.573033332824707,-0.06784094870090485,0.07236135005950928,-0.009616764262318611
-0.29961997270584106,3.163477659225464,9.289636611938477,-0.041119955480098724,0.03893829509615898,0.02453932911157608
-0.21665608882904053,3.179030418395996,9.265205383300781,-0.0751538798213005,0.012705996632575989,0.022078415378928185
-0.2811463177204132,3.171684980392456,9.398266792297363,-0.0956440418958664,0.004886921960860491,0.015411256812512875
-0.1403864026069641,3.248922109603882,9.501015663146973,-0.08436921238899231,0.019809486344456673,0.009110618382692337
-0.16286316514015198,3.189976692199707,9.561139106750488,-0.03724532574415207,0.0383099764585495,0.00022689280740451068
-0.16014336049556732,3.2545435428619385,9.390422821044922,-0.02200860157608986,0.03445279970765114,-0.0027576202992349863
-0.18443013727664948,3.235121726989746,9.45347785949707,-0.06677629798650742,0.031782444566488266,-0.00663225119933486
-0.17162594199180603,3.215632915496826,9.525043487548828,-0.06314601004123688,0.03136356547474861,-0.00769690191373229
-0.20366036891937256,3.1703922748565674,9.499099731445312,-0.056182149797677994,0.04049163684248924,-0.005235987715423107
-0.19404524564743042,3.16843843460083,9.342500686645508,-0.05970771238207817,0.04110250249505043,-0.007627088576555252
-0.1733497679233551,3.172661781311035,9.220704078674316,-0.11545352637767792,0.04930555075407028,-0.01705186627805233
-0.14235922694206238,3.135944366455078,9.118383407592773,-0.20256291329860687,0.05639158934354782,-0.03579670190811157
-0.4072536826133728,2.9685513973236084,8.96024227142334,-0.4326322078704834,-0.005393067374825478,-0.0009948377264663577
-0.35643914341926575,2.776402473449707,9.417746543884277,-0.4561941623687744,-0.004241149872541428,0.022532200440764427
-0.18926642835140228,2.6671597957611084,9.762223243713379,-0.3762231767177582,0.10266026854515076,0.025987952947616577
-0.3040923476219177,2.4106545448303223,9.639718055725098,-0.2572615444660187,0.16509069502353668,0.00823795422911644
-0.4179030954837799,2.3734869956970215,9.507221221923828,-0.18245671689510345,0.16496852040290833,0.0022689281031489372
-0.6057138442993164,2.4506378173828125,9.33167839050293,-0.14672982692718506,0.10414379835128784,0.013124875724315643
-0.6328449249267578,2.5775208473205566,9.265484809875488,-0.16280430555343628,0.03378957509994507,0.008255407214164734
-0.3953401446342468,2.6493277549743652,9.537675857543945,-0.17448055744171143,0.06433283537626266,-0.0006108652451075613
-0.4258805811405182,2.573450803756714,9.652377128601074,-0.1595405489206314,0.10590657591819763,-0.012409291230142117
-0.44856804609298706,2.5175700187683105,9.728302955627441,-0.14969688653945923,0.06635741889476776,-0.025220006704330444
-0.4448617994785309,2.547468900680542,9.953280448913574,-0.12325514853000641,-0.006859143730252981,-0.03200933709740639
-0.5008956789970398,2.5070738792419434,10.18718433380127,-0.06009168550372124,-0.01202531810849905,-0.024260075762867928
-0.4185734689235687,2.5559442043304443,10.180719375610352,0.01572541706264019,0.033021628856658936,-0.008534659631550312
-0.5018438100814819,2.4754798412323,9.867720603942871,0.06536258012056351,0.06819001585245132,-0.008499753661453724
-0.4795202612876892,2.443723201751709,9.510822296142578,0.06944665312767029,0.09923942387104034,-0.0009075712296180427
-0.5834094882011414,2.448913812637329,9.320311546325684,0.0429176464676857,0.048520151525735855,0.013159782625734806
-0.5260252356529236,2.5404012203216553,9.143407821655273,-0.015655603259801865,-0.062029000371694565,0.022602014243602753
-0.4749808609485626,2.539634943008423,9.301156997680664,-0.031293753534555435,-0.09834930300712585,0.003403391921892762
-0.47942450642585754,2.4542291164398193,9.573856353759766,-0.030281461775302887,-0.08990190923213959,-0.006702064536511898
-0.37000948190689087,2.3923628330230713,9.570544242858887,-0.027384215965867043,-0.07271041721105576,0.0036128314677625895
-0.38296690583229065,2.309619188308716,9.775956153869629,-0.008779006078839302,0.02750638872385025,-0.011536626145243645
-0.4683728814125061,2.1800832748413086,9.288267135620117,0.19435986876487732,-0.27996826171875,0.003298672381788492
-0.7834306359291077,2.058084487915039,9.85074234008789,0.29513517022132874,-0.2777516841888428,0.05167919769883156
-0.16369634866714478,2.8058223724365234,9.992879867553711,0.2994635999202728,-0.10142108052968979,0.0463733971118927
-0.32174238562583923,2.678173065185547,9.464001655578613,0.14100514352321625,0.06236061453819275,-0.05412266030907631
-0.6847416758537292,2.4807662963867188,9.003214836120605,0.0013962633674964309,-0.0031241392716765404,-0.04105014353990555
-0.7478144764900208,2.5338122844696045,9.117676734924316,0.05405284836888313,-0.377951055765152,0.004485496319830418
-0.4960881471633911,2.7458715438842773,9.985678672790527,0.14563027024269104,-0.5377184748649597,0.06199409440159798
-0.04564305767416954,2.9525678157806396,10.020940780639648,0.1898220032453537,-0.3943571448326111,0.021013764664530754
-0.18857689201831818,2.5559825897216797,9.301042556762695,0.19163715839385986,-0.3818954825401306,-0.005358160939067602
-0.07817547023296356,2.514246940612793,9.044403076171875,0.13522811233997345,-0.43156754970550537,0.03595378249883652
0.09275136888027191,2.7506790161132812,9.14487361907959,0.06496115773916245,-0.4510628879070282,0.028379052877426147
0.16972973942756653,2.835366725921631,9.385540008544922,0.023090705275535583,-0.36503562331199646,0.009128072299063206
0.3374004662036896,2.717169761657715,9.37114429473877,-0.001483529806137085,-0.2972644865512848,-0.023806290701031685
0.40646839141845703,2.6554665565490723,9.455937385559082,0.019634954631328583,-0.2615724802017212,-0.059061940759420395
0.36092111468315125,2.6898951530456543,9.508870124816895,0.02963569015264511,-0.2618691921234131,-0.054908059537410736
0.48156970739364624,2.8585426807403564,9.697636604309082,0.04269075393676758,-0.3162711262702942,-0.035988688468933105
0.5373258590698242,2.8362479209899902,9.728885650634766,0.046879544854164124,-0.3303384780883789,-0.028187068179249763
0.5565273761749268,2.902758836746216,9.609099388122559,0.0014137167017906904,-0.2903878688812256,-0.027488935738801956
0.737375795841217,2.7843990325927734,9.666091918945312,-0.04597197100520134,-0.19167205691337585,-0.03619812801480293
0.6496139168739319,2.6777517795562744,8.654435157775879,-0.05745624005794525,-0.20359265804290771,-0.029967302456498146
1.1737046241760254,2.9949259757995605,10.14225959777832,-0.012164944782853127,0.08740609139204025,-0.022654373198747635
0.8230020403862,3.077813148498535,10.056835174560547,0.020350538194179535,0.28616419434547424,-0.012304571457207203
0.5246461629867554,2.806119203567505,9.43901538848877,-0.030770154669880867,0.2821848392486572,0.027314402163028717
0.5839457511901855,2.5856516361236572,9.561253547668457,-0.06663667410612106,0.18476055562496185,0.04811872914433479
0.34760934114456177,2.8285481929779053,10.058528900146484,-0.0429176464676857,0.18648843467235565,0.035150930285453796
0.1475115418434143,2.6927011013031006,9.720717430114746,0.1828930526971817,0.2540675699710846,-0.008482299745082855
0.36790260672569275,2.7770345211029053,9.387434959411621,0.23038345575332642,0.2888869047164917,-0.02776818908751011
0.16367720067501068,2.861607313156128,9.106184005737305,-0.01432915311306715,0.15055209398269653,-0.0077841682359576225
0.19484013319015503,2.8175251483917236,9.478320121765137,-0.035814154893159866,0.16521286964416504,-0.014695672318339348
0.10658027976751328,2.8575658798217773,9.699323654174805,0.014625859446823597,0.1858251988887787,-0.018727382645010948
0.03697605058550835,2.8350603580474854,9.651726722717285,0.045064400881528854,0.18425440788269043,-0.013055062852799892
0.024842236191034317,2.841151237487793,9.529468536376953,0.07045894116163254,0.16282176971435547,0.005759586580097675
0.01772666908800602,2.933586597442627,9.348152160644531,0.025621432811021805,0.14496704936027527,0.004590216092765331
0.03433285281062126,3.0130739212036133,9.40096664428711,-0.026598818600177765,0.13521066308021545,-6.981316983001307e-05
-0.011846509762108326,2.983893394470215,9.474468231201172,-0.04372049868106842,0.16454963386058807,0.0036826448049396276
-0.09736739099025726,2.901197671890259,9.471240997314453,-0.050911255180835724,0.20898573100566864,0.02736676298081875
-0.29761841893196106,2.8600940704345703,9.359556198120117,-0.15940092504024506,0.42299798130989075,0.033126350492239
-0.34539708495140076,2.7754158973693848,9.431382179260254,-0.1610415279865265,0.449841171503067,0.04337143152952194
-0.3996018171310425,2.732578992843628,9.518024444580078,-0.15683528780937195,0.49584802985191345,0.052866023033857346
-0.33979466557502747,2.6602165699005127,9.494791030883789,-0.1287529319524765,0.4683067500591278,0.035150930285453796
-0.5339548587799072,2.857173204421997,9.448573112487793,-0.0015882495790719986,0.07838273793458939,-0.026110125705599785
-0.6783826351165771,2.8192012310028076,9.559473991394043,0.0020769417751580477,0.08141960948705673,-0.030839968472719193
-0.7905941009521484,2.773988962173462,9.535041809082031,0.017610372975468636,0.07337363809347153,-0.020367993041872978
-0.7633576393127441,2.827820301055908,9.506608009338379,0.04242895543575287,0.043214350938797,0.002809980185702443
-0.6556760668754578,2.8815653324127197,9.569605827331543,0.06775368005037308,0.05239478498697281,0.0005585053586401045
-0.6594876050949097,2.927706241607666,9.522611618041992,0.06141813471913338,0.11136946082115173,0.003508111694827676
-0.7113556265830994,2.8291993141174316,9.398066520690918,0.041434116661548615,0.14781193435192108,0.007033676840364933
-0.7890809774398804,2.800009250640869,9.301732063293457,0.01940806210041046,0.18390534818172455,0.018989183008670807
-0.8177731037139893,2.812880516052246,9.238611221313477,0.0013962633674964309,0.20486675202846527,0.032096605747938156
-0.8188744187355042,2.853907346725464,9.17026138305664,-0.05590289458632469,0.2433861643075943,0.06227334588766098
-0.7710669636726379,2.816960096359253,9.26147174835205,-0.10559242218732834,0.3154158890247345,0.023945916444063187
-0.8065394759178162,2.769765615463257,9.263463020324707,-0.11054915189743042,0.33341023325920105,-0.0011868239380419254
-0.87636399269104,2.7567508220672607,9.25052547454834,-0.1068665087223053,0.33651694655418396,-0.013439035043120384
-0.9083026051521301,2.7603516578674316,9.14590835571289,-0.0863937959074974,0.30199432373046875,-0.017697637900710106
-1.0237222909927368,2.751014232635498,9.07226276397705,-0.08744099736213684,0.23408356308937073,-0.045238934457302094
-1.1729097366333008,2.6971256732940674,9.125374794006348,-0.11611675471067429,0.09105382859706879,-0.045605454593896866
-1.131595492362976,2.704815626144409,9.451665878295898,-0.15102334320545197,0.00427605677396059,-0.044889867305755615
-1.0875804424285889,2.787731647491455,9.662281036376953,-0.1679181307554245,-0.04281292483210564,-0.05199335888028145
-1.1449742317199707,2.723222255706787,9.819090843200684,0.004433136433362961,-0.15704472362995148,-0.026947883889079094
-1.0950216054916382,2.7607059478759766,9.727930068969727,0.09491100162267685,-0.23094196617603302,-0.027750734239816666
-1.1188678741455078,2.742711067199707,9.588001251220703,0.12922418117523193,-0.2923251986503601,-0.031520646065473557
-0.9209248423576355,2.7752723693847656,9.378872871398926,0.06429792940616608,-0.28358110785484314,-0.04101523756980896
-0.692020058631897,2.8565316200256348,9.127720832824707,-0.07934267073869705,-0.24230405688285828,-0.07768460363149643
-0.828307569026947,2.7541937828063965,9.142948150634766,-0.15111060440540314,-0.344999223947525,-0.059777528047561646
-0.5596781373023987,2.63521146774292,9.876225471496582,0.019565140828490257,-0.19189895689487457,-0.05804964900016785
-0.5351423621177673,2.6371748447418213,9.48670768737793,0.06297148019075394,-0.00020943951676599681,-0.038379788398742676
-0.5559335947036743,2.735212564468384,9.123401641845703,0.02967059798538685,0.010035643354058266,-0.024382250383496284
-0.5710649490356445,2.690354824066162,9.245295524597168,-0.020350538194179535,-0.01909390278160572,-0.03460988029837608
-0.6443562507629395,2.700544595718384,9.557721138000488,-0.0460941456258297,0.050248030573129654,-0.039653878659009933
-0.6926137804985046,2.643543243408203,9.555825233459473,-0.020176006481051445,0.10302678495645523,-0.03241076320409775
-0.75406813621521,2.601041555404663,9.556264877319336,0.0535816065967083,0.14355333149433136,-0.0017976891249418259
-0.803637683391571,2.5958220958709717,9.4840087890625,0.06024876609444618,0.1472010612487793,-0.0003665191470645368
-0.766173243522644,2.6225223541259766,9.459443092346191,0.04708898440003395,0.1702045053243637,-0.0031590459402650595
-0.8404222130775452,2.617867946624756,9.366642951965332,0.026075219735503197,0.2097013145685196,-0.0015009831404313445
-0.9517621994018555,2.667140483856201,9.302947998046875,-0.019198622554540634,0.2330189049243927,0.00815068744122982
-0.9893224239349365,2.666489362716675,9.441017150878906,-0.027000242844223976,0.232774555683136,0.008674286305904388
-0.982905924320221,2.6504673957824707,9.592024803161621,-0.0031066860537976027,0.29482102394104004,0.0005759586347267032
-1.0395336151123047,2.743879556655884,9.36645221710205,0.09431759268045425,0.12475613504648209,0.06743951886892319
-0.9737409353256226,2.7079856395721436,9.250093460083008,0.03640756756067276,0.09096655994653702,0.051138147711753845
-0.9251099228858948,2.711155652999878,9.397844314575195,-0.010943214409053326,0.10969394445419312,0.020717058330774307
-1.0441688299179077,2.6741604804992676,9.654751777648926,-0.018413223326206207,0.1471836119890213,0.010227628983557224
-1.096142053604126,2.5952954292297363,9.764081001281738,0.017243852838873863,0.17112953960895538,0.032707471400499344
-0.9852905869483948,2.6647942066192627,9.89210319519043,0.10171778500080109,0.22647392749786377,0.028675759211182594
-0.963838517665863,2.6645069122314453,9.858298301696777,0.14437364041805267,0.2595304548740387,0.021711895242333412
-1.2161011695861816,2.7101690769195557,9.581499099731445,0.1915673315525055,0.3164980113506317,0.02338741160929203
-1.278379201889038,2.6497108936309814,9.408944129943848,0.1981995850801468,0.317318320274353,0.03879866749048233
-1.3999567031860352,2.906742811203003,8.97179126739502,0.14615386724472046,0.2162986546754837,0.0645073652267456
-1.601423978805542,2.8417928218841553,8.760469436645508,0.04640830308198929,0.0319744311273098,0.07386233657598495
-1.705667495727539,2.5498151779174805,8.953547477722168,0.0711396187543869,-0.24029693007469177,0.12123057246208191
-1.349084734916687,3.1428396701812744,9.804121017456055,0.042062435299158096,-0.482217013835907,0.06054547056555748
-1.1993896961212158,3.0773725509643555,9.809715270996094,-0.09009389579296112,-0.3968704044818878,0.02042035199701786
-0.884600043296814,2.609689235687256,9.4844388961792,-0.06288421154022217,-0.2866179645061493,0.004433136433362961
-0.7853651642799377,2.877763271331787,9.303312301635742,0.06187192350625992,-0.6105859875679016,0.02321287989616394
-0.46411117911338806,2.958045721054077,9.64321231842041,0.051225412636995316,-0.4968952238559723,0.02108357660472393
-0.2867870330810547,2.895413398742676,10.022990226745605,0.07581710070371628,-0.31155872344970703,0.016022123396396637
-0.2744904160499573,2.6996729373931885,9.974800109863281,0.15369369089603424,0.07251843065023422,0.018500490114092827
-0.3425527811050415,2.890998363494873,9.171956062316895,0.15563100576400757,0.14761994779109955,-0.020350538194179535
-0.6344634294509888,2.9848031997680664,8.797005653381348,0.023631757125258446,0.1082976832985878,-0.0737401619553566
-0.6942801475524902,2.9738857746124268,8.800243377685547,-0.1437627673149109,0.06620033830404282,-0.09461429715156555
-0.9272072315216064,2.809767961502075,9.30105209350586,-0.17978636920452118,-0.06892304867506027,-0.06284930557012558
-0.7606857419013977,2.6611647605895996,9.728934288024902,-0.05497787147760391,-0.15796974301338196,-0.026563910767436028
-0.5491053462028503,2.7413320541381836,9.657548904418945,0.046041786670684814,-0.1002517119050026,-0.03663446009159088
-0.7535893321037292,2.8464949131011963,9.515591621398926,0.05492551252245903,-0.07463027536869049,-0.03431317210197449
-0.7805001735687256,2.8794009685516357,9.46741008758545,0.03274237737059593,-0.083531454205513,-0.026249751448631287
-0.6451894640922546,2.8861334323883057,9.428041458129883,-0.0253421813249588,-0.10183995962142944,-0.034924037754535675
-0.6959943771362305,2.8530359268188477,9.52379035949707,-0.033510319888591766,-0.16830210387706757,-0.05555383116006851
-0.5863495469093323,2.874526262283325,9.39573860168457,-0.008866272866725922,-0.13817772269248962,-0.04017747938632965
-0.3540162146091461,2.739474296569824,9.092604637145996,0.007487462367862463,0.27054348587989807,-0.02546435408294201
-0.9596630334854126,2.856205940246582,9.29866886138916,0.07045894116163254,0.06986553221940994,-0.04906120523810387
-0.7619690299034119,2.9162333011627197,9.068737983703613,0.001518436474725604,-0.1563815027475357,0.002007128670811653
-0.7038856744766235,2.8068087100982666,8.975239753723145,-0.06063273921608925,-0.22486822307109833,-0.016685348004102707
-0.5718407034873962,2.8373682498931885,9.378087997436523,-0.18025760352611542,-0.03694862127304077,-0.04691445082426071
-0.7650719285011292,2.771116018295288,9.861085891723633,-0.11849040538072586,-0.03050835430622101,-0.04616395756602287
-0.7322426438331604,2.7605624198913574,10.057246208190918,0.03387684002518654,-0.1518261879682541,-0.014206980355083942
-0.5490478873252869,2.798783302307129,9.784106254577637,0.1425585001707077,-0.09894271194934845,-0.017435839399695396
-0.5598026514053345,2.8339877128601074,9.324946403503418,0.11274827271699905,0.0154810706153512,-0.011239920742809772
-0.6690356731414795,2.928415060043335,9.213203430175781,-0.0034382985904812813,0.04300491139292717,-0.015550883486866951
-0.6490201950073242,2.9304356575012207,9.325809478759766,-0.08161159604787827,0.04136430472135544,-0.01638864167034626
-0.5851141214370728,2.8258187770843506,9.503735542297363,0.03569198399782181,-0.026022858917713165,-0.007906341925263405
-0.6038176417350769,2.811539649963379,9.430022239685059,-0.015847589820623398,0.02949606440961361,-0.01302015595138073
-0.6371065974235535,2.7797255516052246,9.473817825317383,-0.02480112947523594,0.017959438264369965,-0.013159782625734806
-0.6680014133453369,2.7760958671569824,9.528989791870117,-0.010716321878135204,0.02577851340174675,-0.0044156829826533794
-0.6926329731941223,2.7819952964782715,9.34853458404541,-0.02122320421040058,0.06346017122268677,8.726646046852693e-05
-0.7345889210700989,2.77422833442688,9.25854206085205,-0.05455899238586426,0.08604472875595093,0.006003932561725378
-0.7762576341629028,2.7440614700317383,9.326985359191895,-0.06771877408027649,0.07567747682332993,0.025220006704330444
-0.7776175141334534,2.714200973510742,9.39660930633545,-0.055867988616228104,0.07782422751188278,0.03438298776745796
-0.7205397486686707,2.6994240283966064,9.445183753967285,-0.01595230959355831,0.07168067246675491,0.04286528751254082
-0.6007147431373596,2.721642255783081,9.49364185333252,-0.0022165682166814804,0.11629128456115723,0.03651228919625282
-0.48842671513557434,2.7010998725891113,9.603469848632812,0.014852751977741718,0.22615976631641388,0.025446901097893715
-0.5223956108093262,2.655552625656128,9.788570404052734,0.04054399952292442,0.37077775597572327,-0.016266468912363052
-0.8021724820137024,2.704681634902954,9.843463897705078,0.08136724680662155,0.5615073442459106,-0.026319565251469612
-0.9941012263298035,2.7744007110595703,9.60997200012207,0.1215621829032898,0.5847551226615906,0.017680184915661812
-1.4650311470031738,2.968149185180664,9.110550880432129,0.10248573124408722,0.422264963388443,0.04115486517548561
-1.5037884712219238,2.9582085609436035,9.154967308044434,0.07799876481294632,0.335871160030365,0.04239404574036598
-1.4202978610992432,2.9056127071380615,9.541535377502441,0.0028797932900488377,0.236753910779953,0.009773843921720982
-1.457226037979126,2.867860794067383,9.524182319641113,0.06839945167303085,0.282882958650589,0.008272860199213028
-1.6404973268508911,2.9523091316223145,9.249451637268066,0.12795008718967438,0.2758667469024658,0.0478045679628849
-1.8847825527191162,2.9643280506134033,9.148703575134277,0.12430234998464584,0.16233307123184204,0.07848745584487915
-1.674255609512329,2.971845865249634,8.979711532592773,0.13866640627384186,0.05457644537091255,0.11908381432294846
-1.623268723487854,3.1954450607299805,9.052610397338867,0.05780530348420143,-0.14320427179336548,0.03190461918711662
-1.501930594444275,3.1641194820404053,9.594657897949219,-0.1506044566631317,-0.07470009475946426,-0.00996582955121994
-1.3877750635147095,2.829601526260376,9.831722259521484,-0.03960151970386505,0.2263517528772354,-0.01251401100307703
-1.704039454460144,3.0242598056793213,9.615316390991211,0.12061970680952072,0.21050415933132172,0.007033676840364933
-1.7495101690292358,3.201650857925415,9.542166709899902,0.19657643139362335,0.14121459424495697,0.04974188283085823
-1.7844271659851074,3.211160659790039,9.371709823608398,0.2390577495098114,0.12224286049604416,0.060178954154253006
-1.643743872642517,3.240877389907837,9.624289512634277,0.2721317410469055,0.13988813757896423,0.08255407214164734
-1.5563843250274658,3.2887136936187744,9.533126831054688,0.28787460923194885,0.3015579879283905,0.0763232484459877
-1.682376742362976,3.2831878662109375,9.126649856567383,0.3017674386501312,0.3680375814437866,0.07796385884284973
-1.7234325408935547,3.298443555831909,8.709379196166992,0.2850995361804962,0.30435052514076233,0.08100073039531708
-2.401958703994751,3.3920857906341553,8.179215431213379,0.058538343757390976,-0.11644836515188217,0.08157669007778168
-1.8859988451004028,3.286846160888672,9.281946182250977,-0.08868017792701721,-0.2278701812028885,0.016231561079621315
-1.6536846160888672,3.3016998767852783,9.31578254699707,-0.12320279330015182,-0.11391764134168625,-0.00855211354792118
-1.7851933240890503,3.1132569313049316,9.132068634033203,-0.07784168422222137,-0.13110913336277008,-0.04951499029994011
-2.022200107574463,3.2646567821502686,9.109822273254395,-0.05506513640284538,-0.3303384780883789,-0.022881265729665756
-1.9041372537612915,3.1557109355926514,8.890170097351074,0.0013613568153232336,-0.4948183000087738,0.028413960710167885
-1.6970100402832031,3.2603375911712646,8.812012672424316,0.01595230959355831,-0.6003234386444092,0.027436574921011925
-1.3514693975448608,3.4477365016937256,8.975679397583008,-0.007871435023844242,-0.6305176615715027,0.0042236968874931335
-1.2896414995193481,3.4965782165527344,9.140660285949707,-0.04120722413063049,-0.5837427973747253,-0.012234757654368877
-1.40119206905365,3.298395872116089,9.36280345916748,-0.1016828790307045,-0.45835837721824646,-0.011100294068455696
-1.3437025547027588,3.2500712871551514,9.38319206237793,-0.13465215265750885,-0.3782652020454407,-0.010332348756492138
-1.3055390119552612,3.250511646270752,9.373030662536621,-0.1923876404762268,-0.28478536009788513,-0.019425515085458755
-1.2401772737503052,3.303500175476074,9.3568754196167,-0.1998925656080246,-0.3026575446128845,-0.04845033958554268
-0.9889202117919922,3.041938543319702,9.686805725097656,0.10377727448940277,-0.36243507266044617,-0.03380702808499336
-0.8348963856697083,3.1143486499786377,9.413138389587402,0.1661728024482727,-0.2973342835903168,-0.003543018363416195
-0.5114206075668335,3.192974328994751,9.174293518066406,0.11742575466632843,-0.2535090744495392,-0.003228859044611454
-0.6126570105552673,3.1675479412078857,9.314077377319336,0.05340707674622536,-0.25960028171539307,-0.025237461552023888
-0.7878934144973755,3.219568967819214,9.36536979675293,0.03591887652873993,-0.17699383199214935,-0.047909289598464966
-0.9000857472419739,3.321274757385254,9.271248817443848,0.014102260582149029,-0.0846659243106842,-0.06468190252780914
-0.8036760091781616,3.406479597091675,9.099660873413086,-0.04075343906879425,-0.013631021603941917,-0.06729989498853683
-0.8010615706443787,3.2708911895751953,9.17158317565918,-0.09955357760190964,-0.06656685471534729,-0.0866905003786087
-0.7721491456031799,3.249563694000244,9.440394401550293,-0.1203928142786026,-0.08049458265304565,-0.06138322874903679
-0.7274733781814575,3.171531915664673,9.730132102966309,-0.1097288504242897,0.0005061454721726477,-0.0028972465079277754
-0.809680700302124,3.0287511348724365,9.56613826751709,-0.04335397854447365,-0.01719149388372898,0.003351032268255949
-0.7996824979782104,3.096545457839966,9.351273536682129,-0.023771384730935097,-0.057822756469249725,0.027872908860445023
-0.682941198348999,3.1387503147125244,9.398850440979004,-0.031206486746668816,-0.0564439482986927,0.025220006704330444
-0.4985685348510742,3.1417958736419678,9.43595027923584,0.04384266957640648,-0.07930775731801987,0.024818582460284233
-0.5846161246299744,3.0958175659179688,9.340191841125488,0.05515240505337715,-0.1215272769331932,0.013665927574038506
-0.47363054752349854,3.197341203689575,9.5061674118042,0.0337023064494133,-0.10011208802461624,-0.02183406800031662
-0.5063832402229309,3.1158523559570312,9.618188858032227,0.05085889250040054,-0.0507018156349659,-0.07358308136463165
-0.9196128249168396,2.9434218406677246,8.394693374633789,0.15055209398269653,-0.17016960680484772,-0.06035348400473595
-0.6862931251525879,2.9966211318969727,9.509117126464844,0.2223374992609024,-0.21783454716205597,-0.0068765971809625626
-0.25012701749801636,3.5087215900421143,10.316605567932129,0.2945766746997833,0.027436574921011925,0.08761552721261978
-0.11974838376045227,3.545620918273926,9.685647010803223,0.2952922582626343,0.1785471886396408,0.10957176983356476
0.20573852956295013,2.903170585632324,9.473128318786621,0.2842617630958557,0.26426029205322266,0.13934709131717682
-0.17103219032287598,3.096813678741455,9.532925605773926,0.3557853698730469,0.3027448058128357,0.07276277989149094
-0.10896490514278412,3.6576218605041504,9.389120101928711,0.34084534645080566,0.6621255278587341,0.0074525559321045876
-0.9287490844726562,3.269904851913452,9.407890319824219,0.5729043483734131,0.7183949947357178,0.046303585171699524
-1.0637054443359375,4.160116672515869,8.967223167419434,0.7032105922698975,0.9527927041053772,0.011780972592532635
-1.274586796760559,4.192543983459473,8.506264686584473,0.5536009669303894,1.069659948348999,-0.06696828454732895
-1.2683618068695068,4.153671741485596,8.618389129638672,0.41725584864616394,1.032554268836975,-0.12679816782474518
-1.349869966506958,4.191643714904785,8.853462219238281,0.3729768693447113,1.0721383094787598,-0.15201817452907562
-1.430918574333191,4.050414562225342,9.423243522644043,0.38145914673805237,1.2832183837890625,-0.21123719215393066
-2.7025556564331055,3.9365174770355225,8.65530776977539,0.5573359727859497,1.2938300371170044,-0.23033110797405243
-2.797950267791748,4.215825080871582,7.637810707092285,0.5071403384208679,1.0222219228744507,-0.19619245827198029
-3.2965188026428223,4.385315418243408,6.525970935821533,0.21942278742790222,0.6110048890113831,-0.18256144225597382
-3.6001322269439697,4.268995761871338,6.088866710662842,-0.02085668407380581,0.3511078953742981,-0.1676563322544098
-3.2962985038757324,4.527205467224121,7.5676116943359375,-0.37924259901046753,-0.25185102224349976,-0.12206833064556122
-2.4960126876831055,4.044955730438232,8.904572486877441,-0.4971221387386322,-0.29511773586273193,-0.1569400131702423
