accX,accY,accZ,gyroX,gyroY,gyroZ
-3.4118659496307373,4.4389848709106445,9.09990406036377,0.1540098637342453,0.21410197019577026,-0.12629267573356628
-3.2347970008850098,4.616054058074951,8.680861473083496,0.09063446521759033,-0.61481773853302,0.05337277799844742
-3.292224884033203,4.917848587036133,8.03210735321045,0.09002361446619034,-0.6844543814659119,-0.020616095513105392
-3.25872540473938,4.790729999542236,7.814360618591309,-0.0429883748292923,-0.8139539957046509,-0.05604523420333862
-3.1339993476867676,4.683053016662598,7.728219032287598,-0.24365170300006866,-0.9630007147789001,-0.07559234648942947
-2.648256540298462,4.836193561553955,8.106285095214844,-0.41262730956077576,-1.1199884414672852,-0.10185877978801727
-2.140678882598877,4.695017337799072,8.369794845581055,-0.4865398406982422,-1.253764033317566,-0.2038702666759491
-2.171785593032837,4.041477680206299,8.01057243347168,-0.5269321203231812,-1.3905937671661377,-0.39323291182518005
-2.2794625759124756,4.551447868347168,8.489435195922852,-0.666663408279419,-1.434574842453003,-0.5483881235122681
-1.7024933099746704,4.381557464599609,8.02492904663086,-0.8648833632469177,-1.5811781883239746,-0.5825955867767334
-1.0274182558059692,3.189333438873291,6.890132904052734,-1.2115391492843628,-1.31790292263031,-0.7120952010154724
-1.7766708135604858,3.6655051708221436,8.81515884399414,-1.732744574546814,-1.176186442375183,-0.8837432861328125
-2.23639178276062,3.5075788497924805,8.259724617004395,-2.0980312824249268,-1.060125470161438,-0.9167290329933167
-2.186142683029175,2.909074068069458,8.597112655639648,-2.4329283237457275,-0.7919634580612183,-0.8519791960716248
-2.4517459869384766,2.791825771331787,10.06002426147461,-2.8063087463378906,-1.0332481861114502,-0.682774543762207
-2.2531416416168213,3.9625144004821777,11.517851829528809,-2.871516704559326,-1.2775870561599731,-0.4653128981590271
-0.9436694383621216,2.564208507537842,11.36949634552002,-2.3273279666900635,-0.8310576677322388,-0.4549284875392914
-0.31375887989997864,0.4217349886894226,9.31047248840332,-1.6756303310394287,-0.2501419484615326,-0.6119162440299988
-0.27308088541030884,-0.698704183101654,9.432806015014648,-1.3301962614059448,-0.018019994720816612,-0.5996993184089661
-1.0633105039596558,-0.03559323772788048,12.458828926086426,-1.0338590145111084,-0.38452833890914917,-0.37857258319854736
-1.3887344598770142,0.5629115104675293,13.689338684082031,-0.5424323678016663,-1.0637905597686768,0.019088976085186005
-1.0106685161590576,0.32572299242019653,11.029715538024902,0.10491301864385605,-0.9520054459571838,0.4858526289463043
-0.5150550603866577,-0.45942193269729614,8.341080665588379,0.6882721781730652,0.15546062588691711,0.92138671875
-0.2754737138748169,-0.9981061220169067,8.00100040435791,1.1280821561813354,1.5800328254699707,1.2097066640853882
1.4865410327911377,-4.028914928436279,15.578472137451172,1.3082821369171143,1.4645826816558838,1.0686008930206299
-0.1941177397966385,-1.215852975845337,8.386544227600098,1.0616525411605835,-0.39979952573776245,0.31176117062568665
-3.6559338569641113,2.885145902633667,8.348258972167969,0.33413344621658325,1.5281107425689697,0.20241950452327728
-3.0071799755096436,3.1339993476867676,9.190832138061523,0.008017370477318764,1.206194281578064,0.6923190355300903
-4.00319242477417,3.5793635845184326,7.8693952560424805,-0.082082599401474,1.5543771982192993,1.203598141670227
-2.2722842693328857,2.3895325660705566,8.525327682495117,-0.18707197904586792,1.7553459405899048,1.4180055856704712
-1.410269856452942,2.140678882598877,8.508578300476074,-0.5871769189834595,1.4767996072769165,1.1266313791275024
-0.4145565330982208,-1.2230315208435059,9.159725189208984,-0.8791618943214417,1.8188741207122803,0.7277481555938721
-2.150250196456909,0.08883354067802429,8.343473434448242,-0.9108496308326721,3.0466771125793457,0.3166479468345642
-4.663910388946533,3.2802608013153076,12.74866008758545,-0.671015739440918,3.0411794185638428,0.07169819623231888
-2.7870402336120605,1.316949725151062,12.387044906616211,0.058335911482572556,1.2856043577194214,-0.21181128919124603
-3.2228329181671143,1.048953652381897,9.281759262084961,0.4975350797176361,0.10292776674032211,-0.6113054156303406
-3.440579891204834,0.857228696346283,8.52054214477539,0.6807892918586731,-1.2922474145889282,0.025197450071573257
-4.3911285400390625,2.018345832824707,7.223034381866455,0.7162184119224548,-0.9086353182792664,0.34902286529541016
-3.7567315101623535,1.9872392416000366,8.604290962219238,0.5528167486190796,-0.26907822489738464,0.7430193424224854
-2.0497517585754395,1.5517455339431763,10.246665000915527,0.7659261226654053,-0.14018943905830383,0.783335268497467
-1.4991034269332886,0.04815555736422539,9.135796546936035,0.9672002792358398,-0.10353861004114151,0.449812650680542
-2.9282166957855225,0.8979067206382751,6.466304302215576,0.6354338526725769,0.6796439290046692,-0.18798823654651642
-4.922634601593018,1.7647067308425903,7.333104133605957,-0.16034740209579468,1.87140691280365,-0.5111264586448669
-6.169893264770508,2.085644006729126,11.422139167785645,-0.5299863815307617,2.4846975803375244,-0.5037962794303894
-5.911169052124023,2.281855583190918,12.420543670654297,-0.053525492548942566,1.603855848312378,-0.2838912606239319
-5.705386638641357,2.580958366394043,10.541280746459961,0.5304445028305054,0.03451287001371384,0.16271443665027618
-5.274379253387451,2.4996023178100586,6.930810928344727,0.5124244689941406,-0.6740699410438538,0.4595862030982971
-4.781158924102783,2.4349961280822754,7.574779033660889,0.2459423840045929,-0.14629791676998138,0.658111572265625
-4.836193561553955,2.588136672973633,10.048060417175293,0.4534013867378235,0.20738264918327332,0.7729508280754089
-3.340081214904785,1.6235301494598389,8.970691680908203,0.7286643981933594,-0.6019899845123291,0.6794912219047546
-4.015156269073486,1.9728822708129883,6.176772594451904,0.422324538230896,-0.9746068120002747,0.1847049444913864
-5.411069393157959,2.1526429653167725,6.904489517211914,-0.16599774360656738,0.022906772792339325,0.08086090534925461
-5.336592674255371,2.425424814224243,10.040882110595703,-0.12247487902641296,0.9050465822219849,0.27327778935432434
-4.00319242477417,2.6362924575805664,10.081560134887695,0.3000023663043976,0.4811185598373413,0.32397812604904175
-3.9218363761901855,2.6554348468780518,7.206284523010254,0.39376741647720337,0.0791047215461731,0.1853157877922058
-4.264009952545166,2.8827531337738037,6.942774772644043,0.07070557028055191,0.49761146306991577,0.15171918272972107
-4.360022068023682,3.1818559169769287,8.757431983947754,0.04337015375494957,1.0492064952850342,0.20974968373775482
-3.8979079723358154,2.885145902633667,9.669695854187012,0.28694549202919006,0.7523347735404968,0.15171918272972107
-3.4836506843566895,2.988037347793579,8.180462837219238,0.323596328496933,-0.5586197972297668,-0.16599774360656738
-4.8074798583984375,2.7248268127441406,6.830312252044678,-0.1056765764951706,-0.9794935584068298,-0.39078953862190247
-5.597709655761719,2.4661028385162354,10.936097145080566,-0.3032856583595276,-0.15912571549415588,-0.16721943020820618
-4.855635166168213,2.597707986831665,9.784550666809082,0.17630578577518463,-1.0472975969314575,0.13644801080226898
-4.819443702697754,2.720041036605835,10.258628845214844,0.09246700257062912,-1.1859599351882935,-0.08292251825332642
-3.8189449310302734,1.8532410860061646,8.43440055847168,0.28694549202919006,-0.222042977809906,-0.1372879147529602
-5.860919952392578,3.615255832672119,9.662516593933105,0.6578061580657959,0.7425612211227417,0.022754060104489326
-5.090131759643555,3.6631124019622803,8.175676345825195,0.7410340905189514,0.46340399980545044,0.20730629563331604
-4.735694885253906,3.94815731048584,6.272485256195068,0.2309766262769699,-0.17989452183246613,0.14316733181476593
-3.9194436073303223,3.591327667236328,10.048060417175293,-0.3106921911239624,0.4695124626159668,0.014202198944985867
-3.9050865173339844,1.683350682258606,12.298510551452637,0.2558686435222626,1.0876898765563965,-0.07986827939748764
-6.105287075042725,3.340081214904785,10.983953475952148,1.452365756034851,1.2788851261138916,-0.13179029524326324
-6.2536420822143555,3.8524444103240967,8.214261054992676,1.8462858200073242,1.200696587562561,0.04421006888151169
-5.537889003753662,4.067798614501953,6.2174506187438965,1.7201459407806396,1.0858573913574219,0.21036052703857422
-4.989633560180664,3.6104702949523926,5.494519233703613,1.0492064952850342,0.7694385051727295,0.2653367817401886
-5.820241928100586,3.6966118812561035,7.177570819854736,0.30992862582206726,0.22631891071796417,0.15171918272972107
-5.585745334625244,3.1941192150115967,6.255735874176025,-0.021837789565324783,-0.2721324563026428,0.053983625024557114
-4.850849628448486,3.543471336364746,4.314259052276611,-0.48279839754104614,0.44813281297683716,-0.01695101149380207
-4.098905086517334,3.9936211109161377,8.158926963806152,-0.5580089688301086,1.2648355960845947,-0.014507622458040714
-5.346164226531982,3.653541088104248,9.727123260498047,-0.047951508313417435,0.46462568640708923,-0.13423368334770203
-5.248058319091797,3.0550363063812256,5.6309099197387695,-0.02680092304944992,-0.07482878863811493,-0.31137940287590027
-6.337390899658203,3.0717861652374268,4.148855209350586,-0.695907711982727,1.0137773752212524,-0.04993676394224167
-6.902396202087402,4.0797624588012695,8.123034477233887,-0.9307021498680115,2.03816819190979,0.523725152015686
-6.672685146331787,4.680660247802734,10.787741661071777,-0.48096585273742676,1.0333244800567627,0.893898606300354
-4.630411148071289,4.247260093688965,8.740681648254395,0.17508409917354584,-0.37231141328811646,0.8700755834579468
-4.3193440437316895,3.8213376998901367,7.208677291870117,0.5373165011405945,-0.8536590337753296,0.6043570041656494
-4.817050933837891,4.54426908493042,7.062416076660156,0.6590278148651123,-0.8487722873687744,0.5677061676979065
-4.596911430358887,4.561018943786621,6.210271835327148,0.5267030596733093,-0.7046123147010803,0.6330668330192566
-3.4764721393585205,3.988835334777832,5.439484119415283,0.25709033012390137,-0.013744063675403595,0.46813806891441345
-4.192225456237793,4.302295207977295,6.550352096557617,0.04153761267662048,0.4774535000324249,0.21524730324745178
-4.6423749923706055,4.72373104095459,7.943572998046875,-0.04604261368513107,0.31977853178977966,0.17554223537445068
-5.281557559967041,4.817050933837891,8.408080101013184,0.07070557028055191,-0.5751127004623413,0.23662695288658142
-4.7596235275268555,4.256831645965576,7.0169525146484375,0.24097923934459686,-0.980715274810791,0.1077381819486618
-5.216951370239258,4.271188259124756,5.9662041664123535,0.17447324097156525,-0.8561024069786072,-0.05238015204668045
-5.597709655761719,4.687838554382324,6.145665645599365,-0.12003148347139359,-0.7009472250938416,0.12728530168533325
-5.853741645812988,4.814658164978027,8.475078582763672,-0.3318427801132202,-0.9116895198822021,0.5451048016548157
-4.029513359069824,4.048655986785889,7.333104133605957,-0.17653486132621765,-0.8536590337753296,0.6196281909942627
-3.596113443374634,4.175475597381592,7.184749126434326,-0.02993151545524597,-0.305118203163147,0.32275640964508057
-4.096512317657471,4.7596235275268555,7.256533622741699,-0.12003148347139359,-0.03573456406593323,0.14011308550834656
-4.465306282043457,4.630411148071289,8.362615585327148,-0.21257483959197998,-0.04856235533952713,0.1346154659986496
-4.048655986785889,4.740480899810791,7.948358535766602,-0.1274380087852478,0.08338065445423126,0.10712733864784241
-3.840480327606201,4.716552734375,8.417651176452637,0.029091600328683853,0.4187358021736145,-0.05604523420333862
-4.527519702911377,4.867300510406494,7.70668363571167,0.15149012207984924,0.4566846787929535,-0.1623326539993286
-5.075775146484375,4.7835516929626465,8.29561710357666,0.09865183383226395,0.3264978528022766,-0.02244863659143448
-4.635196685791016,4.539483547210693,8.120641708374023,0.08628217875957489,0.2507528066635132,0.09613208472728729
-4.254438877105713,4.742873668670654,7.804789066314697,0.13408097624778748,0.11514470726251602,0.013591351918876171
-4.582554340362549,5.027918815612793,7.685148239135742,0.09063446521759033,-0.37475478649139404,-0.2313583940267563
-4.379164695739746,4.271188259124756,7.354639530181885,0.21982865035533905,-0.20371755957603455,-0.32665055990219116
-4.407878398895264,4.252045631408691,6.308377742767334,0.047111593186855316,0.22692975401878357,-0.4549284875392914
-5.322235584259033,4.833800792694092,7.318747043609619,-0.33741676807403564,0.3826957941055298,-0.3852919042110443
-5.123631477355957,4.687838554382324,8.958727836608887,-0.35169529914855957,0.16156910359859467,-0.19776180386543274
-5.042275428771973,4.568197727203369,9.662516593933105,0.11300674080848694,-0.26846736669540405,-0.0590994730591774
-4.60648250579834,4.019941806793213,8.075178146362305,0.5012765526771545,-0.42362257838249207,0.07353074103593826
-4.90827751159668,4.7835516929626465,6.703492641448975,0.6149705052375793,-0.7357655167579651,0.13889139890670776
-4.434199333190918,4.503591537475586,5.374578952789307,0.051463883370161057,-0.7418739795684814,0.01725643500685692
-4.058227062225342,4.019941806793213,6.763313293457031,-0.39766156673431396,0.305118203163147,-0.12751436233520508
-4.434199333190918,4.374378681182861,8.417651176452637,-0.4256841838359833,0.9081007838249207,-0.3180987238883972
-5.216951370239258,4.539483547210693,10.002596855163574,-0.1951656937599182,0.41445985436439514,-0.40361732244491577
-5.889633655548096,4.790729999542236,9.17886734008789,0.1086544543504715,-0.46332764625549316,-0.2545706033706665
-5.992824077606201,4.702195644378662,8.41286563873291,0.2763320207595825,-0.8799254894256592,0.07353074103593826
-4.649553298950195,4.338486671447754,7.416852951049805,0.3067980408668518,-0.7718055248260498,0.2775537371635437
-3.481257915496826,4.517948150634766,6.787241458892822,0.08689302206039429,-0.29229041934013367,0.09307785332202911
-3.4764721393585205,4.381557464599609,7.682755470275879,-0.12934690713882446,0.33077380061149597,-0.30221667885780334
-3.7878382205963135,4.72373104095459,8.415258407592773,-0.047951508313417435,0.8445726633071899,-0.5935907959938049
-4.448556423187256,4.450949192047119,9.478269577026367,0.4527905285358429,0.734009325504303,-0.7298097610473633
-5.545067310333252,3.94815731048584,8.743074417114258,0.9286405444145203,0.25258535146713257,-0.9051229357719421
-6.617650032043457,5.281557559967041,6.617351055145264,1.1684744358062744,-0.2757975459098816,-0.5911474227905273
-5.439783096313477,4.374378681182861,5.025226593017578,0.5391490459442139,-0.2892361879348755,-0.30038413405418396
-5.023132801055908,4.424628257751465,6.035595893859863,-0.34612134099006653,-0.091932512819767,-0.17210622131824493
-4.5083770751953125,3.1818559169769287,6.171987056732178,-0.873587965965271,0.032069481909275055,-0.26128992438316345
-4.01037073135376,2.650649309158325,10.110274314880371,-0.9387958645820618,-0.18966807425022125,-0.6308525204658508
-4.4054856300354,2.0303099155426025,9.72233772277832,-0.6529957056045532,-1.4687821865081787,-1.057223916053772
-6.090929985046387,4.59930419921875,8.609076499938965,-0.280913382768631,-2.4071199893951416,-1.311947226524353
-5.961418628692627,5.219344615936279,7.914859294891357,0.23662695288658142,-1.8273495435714722,-0.9436063170433044
-5.875277042388916,3.9768712520599365,6.555137634277344,0.6789567470550537,-0.4969242513179779,-0.4659237563610077
-4.805087089538574,2.5067808628082275,5.393721103668213,0.6286382079124451,0.9215394258499146,-0.14828316867351532
-4.12761926651001,3.1028928756713867,7.546065330505371,0.011071606539189816,1.192144751548767,-0.1378987729549408
-3.5219359397888184,2.648256540298462,6.638886451721191,-0.777303159236908,-0.6319214701652527,-0.29916244745254517
-5.652744293212891,5.061418056488037,6.909275531768799,-1.5588058233261108,-2.108950138092041,-0.3889569938182831
-5.9566330909729,5.44217586517334,7.086643218994141,-1.9712804555892944,-2.414450168609619,-0.13301199674606323
-3.9840497970581055,3.2084760665893555,9.59791088104248,-1.661962628364563,-1.4425158500671387,0.20974968373775482
-2.5307090282440186,1.7240287065505981,9.097511291503906,-1.0624160766601562,-0.9874345660209656,0.15843850374221802
-2.346461772918701,2.29860520362854,10.41894817352295,-0.611992597579956,-1.0363023281097412,-0.0590994730591774
-2.8875386714935303,3.368795156478882,10.55085277557373,-0.23800136148929596,-2.0087711811065674,-0.14767232537269592
-2.588136672973633,3.261118173599243,9.786943435668945,0.07566870748996735,-2.5806005001068115,-0.27533939480781555
-2.071287155151367,2.9114668369293213,9.07119083404541,0.3527642786502838,-2.304497718811035,-0.4946335554122925
-1.8005990982055664,2.751147747039795,9.274580955505371,0.5435013771057129,-1.8719414472579956,-0.5880932211875916
-1.5278172492980957,3.189333438873291,8.784051895141602,0.5360184907913208,-1.7045692205429077,-0.31565532088279724
-1.3624134063720703,3.5171501636505127,8.920442581176758,0.2763320207595825,-1.3960914611816406,0.021532366052269936
-0.7950153350830078,3.0287153720855713,8.508578300476074,-0.11873343586921692,-1.0191986560821533,0.044820915907621384
-1.1207382678985596,3.07417893409729,9.186046600341797,-0.44431501626968384,-0.7968502640724182,-0.05482354015111923
-0.8691928386688232,3.145963668823242,9.068798065185547,-0.6170321106910706,-0.6752916574478149,-0.04810422286391258
-0.15104693174362183,2.940180778503418,8.96112060546875,-0.8276216983795166,-0.38391751050949097,-0.1250709742307663
-0.5629115104675293,3.3017961978912354,9.554840087890625,-1.0443960428237915,0.03695625811815262,-0.12873606383800507
-1.0082756280899048,2.681756019592285,10.82124137878418,-1.0220237970352173,0.2599155008792877,0.07597412914037704
-0.11515458673238754,1.4437693357467651,11.290534019470215,0.7640172243118286,0.2208212912082672,0.6684959530830383
0.7178468108177185,0.8213363885879517,10.847562789916992,1.2678898572921753,0.1682884246110916,0.44187164306640625
0.6867401003837585,1.0513464212417603,10.112667083740234,1.3983057737350464,0.15546062588691711,0.22929678857326508
-0.45523449778556824,2.150250196456909,9.145368576049805,1.4269392490386963,0.3148917555809021,-0.14156384766101837
-1.4413765668869019,2.2962124347686768,9.186046600341797,1.1504544019699097,0.21593450009822845,-0.2289150059223175
-2.1287147998809814,2.8253252506256104,7.996214866638184,0.890157163143158,0.0009162708884105086,-0.20997874438762665
-2.150250196456909,3.213261604309082,7.699504852294922,0.26762744784355164,0.09376505762338638,-0.02489202655851841
-1.9752750396728516,3.1076784133911133,8.82233715057373,-0.308859646320343,0.21654535830020905,0.2402920424938202
-1.903490424156189,2.933002471923828,9.20997428894043,-0.6852942705154419,0.12186402827501297,0.4345414638519287
-1.4919248819351196,2.8827531337738037,10.12463092803955,-0.7654679417610168,0.25563958287239075,0.47119230031967163
-0.953240692615509,2.5953152179718018,10.354341506958008,-0.5299863815307617,0.5898494124412537,0.37406760454177856
-1.1877373456954956,2.5953152179718018,10.71834945678711,-0.11063970625400543,0.7767686247825623,0.2763320207595825
-1.542174220085144,2.7224340438842773,10.881061553955078,0.34902286529541016,0.5373165011405945,0.24395711719989777
-1.4943177700042725,2.8588249683380127,10.258628845214844,0.7031615376472473,0.1316375881433487,0.24578966200351715
-1.5948163270950317,2.9593234062194824,9.832406997680664,0.8448017835617065,-0.06322269141674042,0.2384594976902008
-1.5828521251678467,3.169891834259033,8.613862037658691,0.8106706738471985,-0.1169772520661354,0.22807510197162628
-1.379163146018982,3.457329511642456,8.180462837219238,0.5553365349769592,-0.03817795217037201,0.188370019197464
-1.3001999855041504,3.622434377670288,8.101499557495117,0.1918824017047882,0.03023693896830082,0.13156123459339142
-1.352842092514038,3.4070804119110107,8.611469268798828,-0.10758547484874725,0.15973655879497528,0.09307785332202911
-1.4724832773208618,3.2491540908813477,8.86780071258545,-0.23739051818847656,0.38697174191474915,0.1492757946252823
-1.410269856452942,2.925823926925659,8.707182884216309,-0.23364907503128052,0.5776324272155762,0.2409028857946396
-1.5014961957931519,3.3209388256073,9.111868858337402,-0.2480039894580841,0.5147151947021484,0.11506835371255875
-1.810170292854309,3.708575963973999,9.650552749633789,-0.29206135869026184,-0.14629791676998138,0.044820915907621384
-1.714457392692566,3.2659037113189697,9.538089752197266,-0.28396761417388916,-0.5164713859558105,0.06986565887928009
-1.2451651096343994,3.1148569583892822,10.320842742919922,-0.0590994730591774,-0.4847072958946228,0.15049749612808228
-0.4049852192401886,3.153141975402832,10.859526634216309,0.2384594976902008,-0.3124483823776245,0.12362021207809448
-0.5365904569625854,3.0143582820892334,9.947562217712402,0.5397599339485168,0.08338065445423126,-0.05665608495473862
-1.5469598770141602,3.177070379257202,9.798908233642578,0.8137248754501343,0.6093965172767639,-0.19470755755901337
-2.202892303466797,3.8572301864624023,9.375378608703613,0.7596648931503296,0.21715620160102844,-0.2411319613456726
-2.001596212387085,4.0319061279296875,7.780860900878906,0.39437827467918396,-0.4590517282485962,-0.0859767496585846
-1.5038890838623047,3.6320056915283203,7.091429233551025,-0.10132429003715515,-0.430341899394989,0.0686439573764801
-1.597209095954895,3.526721477508545,8.711968421936035,-0.5592306852340698,-0.14141114056110382,0.17737478017807007
-1.5996019840240479,3.1507492065429688,9.717552185058594,-0.6952968835830688,0.20738264918327332,0.3807868957519531
-1.3193426132202148,2.7702903747558594,10.117452621459961,-0.5176166892051697,0.5483117699623108,0.42904382944107056
-1.410269856452942,3.002394199371338,10.40219783782959,-0.2038702666759491,0.5886276960372925,0.2897706627845764
-1.6019947528839111,3.3424742221832275,10.02173900604248,0.06390989571809769,0.20188501477241516,0.12850698828697205
-1.7647067308425903,3.337688446044922,9.128618240356445,0.18936264514923096,-0.1322484314441681,0.05215108394622803
-1.8340985774993896,3.519542932510376,9.140582084655762,0.17882554233074188,-0.22815145552158356,0.15599511563777924
-1.3336994647979736,3.4860434532165527,9.593125343322754,0.23662695288658142,0.01252236869186163,0.40338826179504395
-1.0704890489578247,3.306581735610962,9.550054550170898,0.37269318103790283,0.21715620160102844,0.45531028509140015
-1.2690932750701904,3.457329511642456,9.035298347473145,0.47829338908195496,0.30084228515625,0.3019876182079315
-1.6187444925308228,3.809373617172241,8.609076499938965,0.45775365829467773,0.17806197702884674,0.21830153465270996
-1.9250258207321167,3.9314076900482178,9.18843936920166,0.3384857475757599,-0.14690876007080078,0.2885489761829376
-1.5038890838623047,3.670290946960449,9.430413246154785,0.34841200709342957,-0.504865288734436,0.40094485878944397
-0.828514814376831,3.478864908218384,8.63061237335205,0.4676799178123474,-0.4566083252429962,0.45225605368614197
-0.7184450030326843,3.6391842365264893,8.262117385864258,0.4614951014518738,-0.22509720921516418,0.4504235088825226
-1.297807216644287,4.084548473358154,8.774480819702148,-0.2740413546562195,0.7242357730865479,0.26961269974708557
-1.324128270149231,3.926621913909912,9.471091270446777,-0.3473430275917053,0.3820849657058716,0.23051849007606506
-1.2714861631393433,3.8021950721740723,9.435198783874512,-0.19768545031547546,0.30817243456840515,0.22318831086158752
-1.3504493236541748,3.924229145050049,9.545269012451172,-0.011300674639642239,0.4389701187610626,0.2262425571680069
-1.2403794527053833,4.005585193634033,9.095118522644043,0.11048699915409088,0.5238778591156006,0.1492757946252823
-1.7048860788345337,4.1970109939575195,9.20997428894043,0.0942995473742485,0.36253786087036133,0.008093725889921188
-2.035095691680908,3.996013879776001,8.738288879394531,0.060779303312301636,0.2244863659143448,-0.07314895838499069
-2.1047866344451904,3.9457645416259766,9.250652313232422,0.012293301522731781,0.15973655879497528,0.001985253533348441
-1.8245272636413574,3.6415770053863525,9.200403213500977,0.03962871432304382,0.3020639717578888,0.10957072675228119
-1.6713865995407104,3.8261234760284424,9.36341381072998,0.12911784648895264,0.6814764738082886,0.1614927500486374
-1.7910277843475342,4.0319061279296875,8.738288879394531,0.09804098308086395,0.8494594693183899,-0.0261137206107378
-2.463710069656372,4.185046672821045,8.585148811340332,-0.06100837141275406,0.7352310419082642,-0.17271706461906433
-3.323331594467163,4.2209391593933105,9.276973724365234,-0.14858859777450562,0.2635805904865265,-0.08719844371080399
-2.7176482677459717,4.098905086517334,9.542876243591309,-0.10201149433851242,-0.4083513915538788,0.10957072675228119
-1.6666009426116943,3.6966118812561035,9.181260108947754,0.04337015375494957,-0.5231906771659851,-0.004123218823224306
-2.140678882598877,3.8907296657562256,8.82233715057373,0.025961007922887802,0.1713426560163498,-0.11896250396966934
-2.241177558898926,3.8285162448883057,9.07119083404541,0.06887302547693253,0.36192700266838074,-0.05604523420333862
-2.054537296295166,3.9936211109161377,8.894122123718262,0.1477486789226532,0.1310267299413681,-0.010842538438737392
-1.9824535846710205,3.9074792861938477,8.506185531616211,0.10117157548666,-0.28068432211875916,-0.050547610968351364
-2.0665013790130615,4.110869407653809,8.81515884399414,0.06452073901891708,-0.4077405333518982,-0.07925742864608765
-2.1047866344451904,3.8596229553222656,8.831908226013184,0.0328330397605896,-0.5115845799446106,-0.09147437661886215
-1.8699909448623657,3.751945972442627,8.673683166503906,0.03596363216638565,-0.2770192325115204,-0.0853659063577652
-1.9154545068740845,3.9385859966278076,8.606683731079102,0.0017561858985573053,-0.145687073469162,-0.043828289955854416
-1.7934205532073975,3.9601213932037354,8.8438720703125,-0.10262233763933182,-0.03390202298760414,0.041766680777072906
-1.7288143634796143,4.0797624588012695,9.18843936920166,-0.1355317384004593,-0.055892523378133774,0.044820915907621384
-1.8771693706512451,3.9984066486358643,9.29611587524414,-0.04856235533952713,-0.07055285573005676,0.005650337319821119
-2.102393865585327,3.9625144004821777,8.980263710021973,0.007330167107284069,-0.12430741637945175,0.030695075169205666
-1.8771693706512451,3.7710886001586914,8.86780071258545,-0.024968381971120834,0.03390202298760414,0.1346154659986496
-1.8269200325012207,3.9672999382019043,8.872586250305176,-0.09269607067108154,0.21654535830020905,0.16760121285915375
-1.8771693706512451,4.151547431945801,8.594719886779785,-0.14667969942092896,0.305118203163147,0.09185615926980972
-1.4676976203918457,3.7181472778320312,9.291330337524414,-0.1951656937599182,0.2782409191131592,-0.029167955741286278
-1.9680966138839722,3.9672999382019043,8.666504859924316,-0.16469968855381012,0.627721905708313,-0.04321744292974472
-2.23639178276062,3.7878382205963135,8.568398475646973,-0.13301199674606323,1.1292275190353394,-0.030389651656150818
-2.5618157386779785,4.237689018249512,9.087940216064453,-0.27029991149902344,1.1127346754074097,-0.0584886260330677
-2.8109683990478516,3.529114246368408,8.772088050842285,-0.32374903559684753,0.5141043066978455,-0.05543438717722893
-3.4214372634887695,3.574577808380127,8.82951545715332,-0.2411319613456726,0.6533774733543396,0.15233004093170166
-2.470888376235962,3.5793635845184326,8.999405860900879,-0.1963873952627182,0.6912500262260437,0.267169326543808
-2.1765713691711426,3.4070804119110107,8.515756607055664,-0.23739051818847656,0.2727433145046234,0.1590493619441986
-1.9657038450241089,2.557030200958252,7.608278751373291,-0.3778090178966522,0.197609081864357,-0.16111096739768982
-4.1730828285217285,3.2347970008850098,7.773682594299316,-0.6442911624908447,0.9252045154571533,-0.16844113171100616
-4.156332969665527,4.12761926651001,9.154939651489258,-0.7716528177261353,1.8598008155822754,0.19386765360832214
-2.696112871170044,3.4764721393585205,10.684850692749023,-0.503948986530304,1.8707960844039917,0.22990763187408447
-1.9561325311660767,3.009572744369507,10.426126480102539,-0.11499200016260147,1.2068051099777222,-0.23319093883037567
-4.153940200805664,3.8356947898864746,8.012965202331543,0.03161134570837021,0.882445216178894,-0.6687250137329102
-5.087738990783691,3.6631124019622803,8.087141990661621,-0.20883341133594513,0.7963157296180725,-0.5489989519119263
-4.845765113830566,3.416651725769043,9.150154113769531,-0.35230615735054016,0.6032879948616028,-0.23929941654205322
-4.3432722091674805,3.1866414546966553,9.7366943359375,-0.29267218708992004,0.44752198457717896,-0.12873606383800507
-3.955335855484009,3.1746773719787598,10.036096572875977,-0.16034740209579468,0.2489202618598938,-0.10308047384023666
-3.759124279022217,3.067000389099121,9.435198783874512,0.1769929975271225,-0.26907822489738464,-0.2166980654001236
-4.699802875518799,3.488436222076416,8.30997371673584,0.25709033012390137,-0.9214630722999573,-0.3101576864719391
-4.534698009490967,2.8636105060577393,8.422436714172363,0.15026842057704926,-1.0320264101028442,-0.2435753494501114
-4.18983268737793,2.6362924575805664,8.4200439453125,0.10369132459163666,-0.9006943106651306,-0.3382566571235657
-4.54426908493042,2.870789051055908,9.147761344909668,-0.011300674639642239,-1.1712995767593384,-0.478751540184021
-4.6974101066589355,2.854039192199707,9.739087104797363,-0.13240113854408264,-1.859724521636963,-0.43110546469688416
-4.546662330627441,3.761517286300659,10.282557487487793,-0.2777827978134155,-2.3802425861358643,-0.16660858690738678
-2.9976086616516113,3.067000389099121,8.886942863464355,-0.061619218438863754,-2.008160352706909,0.1608818918466568
-1.9178473949432373,2.6096723079681396,8.621041297912598,0.22914408147335052,-0.740652322769165,0.012369656935334206
-2.4684956073760986,2.2962124347686768,9.552447319030762,0.3676536977291107,0.07727217674255371,-0.38040512800216675
-2.9449665546417236,2.1765713691711426,10.430912017822266,0.49196112155914307,0.05344913527369499,-0.5984776020050049
-3.040679454803467,3.145963668823242,10.70399284362793,0.5602996349334717,-0.7962393760681152,-0.533727765083313
-2.7942185401916504,3.4381871223449707,9.454340934753418,0.49501535296440125,-1.6862438917160034,-0.42927291989326477
-0.8859425783157349,3.830909013748169,6.729813575744629,-0.4343124032020569,-1.7815359830856323,-0.876413106918335
-1.0345966815948486,3.9433717727661133,8.707182884216309,-0.7058340311050415,-1.0766183137893677,-0.5777087807655334
-1.4557334184646606,2.6458635330200195,9.332307815551758,-0.9704836010932922,-1.2995775938034058,-0.34375429153442383
-1.2954143285751343,2.0159530639648438,9.739087104797363,-0.8654941916465759,-1.272700309753418,-0.18126893043518066
-0.3329014480113983,2.322533369064331,10.531709671020508,-0.3635304868221283,-0.9996515512466431,0.01175880990922451
0.014057832770049572,2.1358933448791504,10.122238159179688,0.3067980408668518,0.14080029726028442,0.26167169213294983
-0.17976079881191254,2.2962124347686768,9.284152030944824,0.3459686040878296,0.29473379254341125,0.1492757946252823
-0.005084747914224863,2.7559335231781006,8.398508071899414,0.1769929975271225,0.37414395809173584,-0.0065666078589856625
-0.6370890140533447,3.4190444946289062,8.750253677368164,-0.15477342903614044,0.353985995054245,-0.07620319724082947
-0.6610172390937805,3.08135724067688,8.970691680908203,-0.43866467475891113,0.08887827396392822,-0.0065666078589856625
-0.6897311210632324,2.641077995300293,9.731908798217773,-0.596492350101471,-0.04184303805232048,0.11751174181699753
-0.6275177597999573,2.394318103790283,10.098309516906738,-0.6132906675338745,0.026571854948997498,0.2402920424938202
-0.5437689423561096,2.2531416416168213,10.083952903747559,-0.5238015055656433,0.3161134421825409,0.29832252860069275
-0.40737804770469666,2.1430718898773193,10.107880592346191,-0.3790307343006134,0.7071320414543152,0.26900187134742737
-0.5748756527900696,2.042274236679077,10.534102439880371,-0.15973655879497528,0.8512920141220093,0.1590493619441986
-1.0633105039596558,2.3273191452026367,11.510673522949219,0.0794101431965828,0.29717719554901123,0.023975754156708717
-1.2667005062103271,2.4206392765045166,10.57956600189209,0.3167243003845215,-0.44011545181274414,0.031916771084070206
-0.7782655358314514,2.2244277000427246,10.158130645751953,0.5080721974372864,-0.7516475319862366,0.07780666649341583
-0.4265206456184387,2.4661028385162354,9.28893756866455,0.6639909744262695,-0.689341127872467,0.017867282032966614
-0.005084747914224863,2.2866411209106445,9.358628273010254,0.7342383861541748,-0.4566083252429962,-0.14706148207187653
-0.2826521694660187,2.8564319610595703,9.231510162353516,0.660936713218689,-0.3900259733200073,-0.2918322682380676
-0.6586244106292725,3.2802608013153076,9.193224906921387,0.5726693272590637,-0.19821994006633759,-0.12934690713882446
-0.7639086246490479,2.973680257797241,8.987442016601562,0.5397599339485168,0.041232191026210785,0.12239851802587509
-0.7591229677200317,2.995215654373169,9.406484603881836,0.488219678401947,0.24708771705627441,0.18898087739944458
-0.8644071817398071,3.0239295959472656,9.870692253112793,0.4521796703338623,0.005803049076348543,0.20913882553577423
-0.8213363885879517,2.650649309158325,9.454340934753418,0.43538138270378113,-0.15057384967803955,0.24273543059825897
-0.5653043389320374,2.3081765174865723,8.743074417114258,0.4155288338661194,-0.24647687375545502,0.2622825503349304
0.2991028428077698,2.1382861137390137,8.93958568572998,0.43477052450180054,-0.1823379099369049,0.15782766044139862
0.28235307335853577,2.6865415573120117,9.392127990722656,0.48631078004837036,-0.3142809271812439,-0.031000498682260513
-0.15104693174362183,3.495614767074585,9.250652313232422,0.5050179958343506,-0.26968905329704285,-0.1366770714521408
-0.46719861030578613,3.323331594467163,8.11107063293457,0.44095537066459656,0.17867282032966614,-0.06032116711139679
0.05473581701517105,2.877967357635498,7.596314430236816,0.33535513281822205,0.7144622206687927,0.07536327838897705
-0.8787640929222107,3.1989047527313232,9.19561767578125,-0.32374903559684753,1.919053077697754,-0.062153708189725876
-3.481257915496826,4.965705394744873,9.490233421325684,-0.577861487865448,1.9214963912963867,0.047264307737350464
-3.6559338569641113,5.054239749908447,8.134998321533203,-0.6952968835830688,1.9227180480957031,0.19570018351078033
-1.786242127418518,3.0167510509490967,9.334700584411621,-0.7716528177261353,1.8701852560043335,0.21952323615550995
-3.768695592880249,3.6870405673980713,8.324331283569336,-0.8847358822822571,2.327099084854126,0.45775365829467773
-3.85483717918396,3.9074792861938477,11.628220558166504,-0.9009233713150024,2.86220121383667,0.7589013576507568
-3.3185458183288574,3.553042411804199,11.242676734924316,-0.48218756914138794,2.170722007751465,0.8285379409790039
-2.2244277000427246,2.140678882598877,9.72951602935791,0.04153761267662048,1.9117228984832764,0.6355102062225342
-4.1730828285217285,3.3041889667510986,9.238688468933105,0.16699036955833435,2.3374834060668945,0.5744255185127258
-4.872385025024414,3.581756353378296,10.727921485900879,0.37269318103790283,1.8524706363677979,0.6086329221725464
-4.3193440437316895,3.4214372634887695,6.705885410308838,0.14034216105937958,0.1426328420639038,0.4504235088825226
-4.182653903961182,2.973680257797241,7.957930088043213,-0.3716242015361786,0.38758260011672974,0.41743773221969604
-4.865206718444824,3.313760280609131,9.573982238769531,-0.2890070974826813,0.46034976840019226,0.35268792510032654
-4.647160530090332,3.6655051708221436,8.8438720703125,0.060779303312301636,0.18600298464298248,0.45286688208580017
-3.5243287086486816,3.612863063812256,7.2182488441467285,0.07200361788272858,0.003970507066696882,0.6935406923294067
-2.9353952407836914,3.0933215618133545,7.151249408721924,-0.2038702666759491,0.41018393635749817,0.6159631013870239
-4.015156269073486,3.3113675117492676,7.907680511474609,-0.16783028841018677,0.9991170763969421,0.2653367817401886
-3.6894333362579346,3.0287153720855713,7.450352191925049,-0.14301460981369019,0.650934100151062,-0.27595025300979614
-5.954239845275879,3.361616611480713,7.1249284744262695,-0.29083964228630066,0.678422212600708,-0.5367820262908936
-6.4354963302612305,3.1004998683929443,8.01057243347168,-0.3417690396308899,0.919096052646637,-0.293664813041687
-4.742873668670654,3.28983211517334,9.523733139038086,-0.29832252860069275,0.3668137788772583,0.03436015918850899
-4.005585193634033,2.868396043777466,8.769695281982422,-0.03489464893937111,-0.3637595474720001,-0.3382566571235657
-6.545865535736084,2.696112871170044,6.167201042175293,-0.09139802306890488,-0.22509720921516418,-0.6803311109542847
-8.219346046447754,2.9449665546417236,7.895716667175293,-0.511966347694397,0.9026032090187073,-0.22524993121623993
-5.937490463256836,2.8827531337738037,10.055238723754883,-0.41445985436439514,1.3631820678710938,0.20241950452327728
-4.66869592666626,3.237190008163452,10.304092407226562,0.21173493564128876,1.2385691404342651,-0.04016320779919624
-5.585745334625244,3.7806596755981445,6.911668300628662,0.5906893014907837,-0.29412296414375305,-0.3828485310077667
-8.57348346710205,3.8356947898864746,5.743372440338135,0.07261446863412857,-1.258650779724121,0.017867282032966614
-5.597709655761719,2.063809633255005,7.270890712738037,-0.20822255313396454,-0.6349757313728333,0.4846309423446655
-3.9696927070617676,2.3392832279205322,8.365009307861328,-0.005650337319821119,0.22937314212322235,0.09307785332202911
-5.418247699737549,3.153141975402832,8.436793327331543,0.22731153666973114,0.06933116167783737,-0.4359922409057617
-6.823432922363281,2.8277182579040527,7.709076404571533,0.2683146595954895,-0.9324583411216736,-0.5282301902770996
-8.563912391662598,2.971287488937378,5.427519798278809,-0.38155046105384827,-1.3582189083099365,-0.18371231853961945
-7.144370079040527,2.8420751094818115,8.731110572814941,-0.9201650619506836,-0.6917845010757446,0.4742465317249298
-4.738088130950928,2.415853500366211,11.101500511169434,-0.4859289824962616,-0.5079194903373718,0.45225605368614197
-5.173880577087402,2.8971099853515625,11.09192943572998,0.4515688419342041,-0.4297310411930084,0.1871483325958252
-6.064609050750732,2.688934564590454,7.677969455718994,0.8131140470504761,-0.3038965165615082,0.15171918272972107
-5.853741645812988,2.9425735473632812,7.371389389038086,0.5254813432693481,0.8555679321289062,0.28671643137931824
-5.020740032196045,2.720041036605835,8.685647010803223,0.2782409191131592,1.2068051099777222,0.2806079685688019
-5.868098258972168,3.7301113605499268,10.881061553955078,0.37826716899871826,0.4187358021736145,0.03749075159430504
-5.971288681030273,3.869194269180298,9.166903495788574,0.6988092660903931,-0.8988617658615112,0.06314633786678314
-4.596911430358887,3.972085475921631,5.937191009521484,0.6366555690765381,-0.9080244302749634,0.2677801549434662
-4.063013076782227,2.6072793006896973,6.054738521575928,0.2160872220993042,-0.12247487902641296,0.3038201630115509
-4.6734819412231445,1.8005990982055664,6.581458568572998,-0.15477342903614044,0.38880428671836853,-0.16905197501182556
-7.0531439781188965,2.2292134761810303,5.934798240661621,-0.9326110482215881,0.7633299827575684,-0.35291701555252075
-6.169893264770508,3.471686601638794,5.695516109466553,-1.6277552843093872,1.5232239961624146,0.1853157877922058
-5.171487808227539,2.092822551727295,11.046465873718262,-1.3966258764266968,1.3717339038848877,0.575036346912384
-4.72373104095459,4.472484588623047,11.982358932495117,-0.5219689607620239,-0.6826218366622925,0.5951942801475525
-4.6184468269348145,3.519542932510376,7.0408806800842285,-0.05665608495473862,-2.0894031524658203,0.5127299427986145
-3.08135724067688,1.8340985774993896,7.170392036437988,-0.2734304964542389,-2.036259412765503,-0.025502873584628105
-2.8396823406219482,1.4653047323226929,7.716254711151123,-0.7437065243721008,-2.2446346282958984,-0.5147915482521057
-3.87876558303833,2.9377880096435547,9.116654396057129,-1.0220237970352173,-2.922675132751465,-0.7096518278121948
-3.203690528869629,3.2802608013153076,9.075976371765137,-1.1083823442459106,-2.3002216815948486,-0.4653128981590271
-3.2324042320251465,2.573779821395874,6.054738521575928,-0.9766684174537659,-0.33260634541511536,0.11629004776477814
-5.027918815612793,2.157428741455078,9.557232856750488,-0.6226060390472412,2.012512683868408,0.5334987044334412
-5.640780448913574,2.940180778503418,11.807682037353516,-0.3343625068664551,1.0382112264633179,0.6874322295188904
-3.8835511207580566,2.830111026763916,8.060821533203125,-0.3169533610343933,-0.19394400715827942,0.7424085140228271
-2.8253252506256104,2.3249263763427734,8.803194046020508,-0.559841513633728,-0.7583668828010559,0.4779116213321686
-2.854039192199707,2.415853500366211,9.655338287353516,-0.7169819474220276,-1.9263068437576294,0.2244100123643875
-3.0215368270874023,1.9130617380142212,9.684052467346191,-0.503948986530304,-2.4205586910247803,-0.034665580838918686
-2.2292134761810303,1.7216359376907349,9.741479873657227,-0.09330692142248154,-1.937912940979004,-0.29794076085090637
-1.477268934249878,1.108774185180664,10.222736358642578,0.38697174191474915,-1.0033166408538818,-0.4885250926017761
-1.8915263414382935,1.6163517236709595,9.72951602935791,0.7603521347045898,-0.7803573608398438,-0.49585527181625366
-2.1981067657470703,3.1555347442626953,9.119047164916992,0.9100096821784973,-1.5842323303222656,-0.22463907301425934
-1.6163517236709595,2.712862730026245,8.817551612854004,0.8063184022903442,-1.6819679737091064,-0.2796153426170349
-1.084846019744873,2.5378875732421875,8.654540061950684,0.6671215891838074,-1.702125906944275,-0.2838912606239319
-0.42412781715393066,2.8037898540496826,8.937192916870117,0.08376242965459824,-0.7443174123764038,-0.2020377367734909
-0.4097708761692047,2.612065076828003,8.858229637145996,-0.05291464552283287,-0.3142809271812439,-0.19226416945457458
-0.5246263742446899,2.712862730026245,9.131011009216309,-0.126216322183609,-0.20066332817077637,-0.15378080308437347
-0.527019202709198,2.8420751094818115,9.200403213500977,-0.19951798021793365,-0.23059484362602234,-0.17088451981544495
-0.5605186820030212,2.9186453819274902,9.439984321594238,-0.2933593988418579,-0.2648022770881653,-0.25212720036506653
-0.5246263742446899,2.8803603649139404,9.353842735290527,-0.352993369102478,-0.2739650011062622,-0.3217637836933136
-0.4145565330982208,2.6626133918762207,9.420842170715332,-0.36666107177734375,-0.2867927849292755,-0.4121691882610321
-0.5341976284980774,2.4924237728118896,9.588339805603027,-0.3796415627002716,-0.48043137788772583,-0.4891359508037567
-0.6035895347595215,2.3967108726501465,9.449555397033691,-0.3877353072166443,-0.6667397618293762,-0.4811949133872986
-0.47676992416381836,2.2938196659088135,9.51176929473877,-0.35230615735054016,-0.7522584199905396,-0.40422818064689636
-0.4576273262500763,2.2316062450408936,10.349555969238281,-0.24426254630088806,-0.828003466129303,-0.3180987238883972
0.1624128371477127,1.8795621395111084,9.911669731140137,-0.0584886260330677,-0.7901309132575989,-0.3046600818634033
0.7465606927871704,1.6857435703277588,9.083154678344727,-0.019318044185638428,-0.3906368315219879,-0.34131091833114624
0.34217363595962524,1.812563180923462,9.37059211730957,-0.10941801220178604,0.08765657991170883,-0.346808522939682
-0.04576273262500763,1.9369899034500122,9.784550666809082,-0.2026485800743103,0.351542592048645,-0.31443363428115845
-0.3233301639556885,1.903490424156189,10.150951385498047,-0.2635042369365692,0.3252761662006378,-0.30099499225616455
-0.4336991012096405,1.8795621395111084,9.786943435668945,-0.3175642192363739,0.23425991833209991,-0.28633466362953186
-0.5461617708206177,1.9513468742370605,9.7366943359375,-0.39208757877349854,0.2586938142776489,-0.1776038408279419
-0.2994019389152527,1.8556339740753174,9.748658180236816,-0.4312581717967987,0.23975755274295807,-0.08108997344970703
-0.246759831905365,1.726421594619751,9.947562217712402,-0.4243861436843872,0.2843494117259979,-0.1360662281513214
-0.5198407173156738,1.750349760055542,10.150951385498047,-0.37406760454177856,0.29473379254341125,-0.19715094566345215
-0.7567301392555237,1.6857435703277588,10.2418794631958,-0.26907822489738464,0.2501419484615326,-0.13973131775856018
-0.5222335457801819,1.5035899877548218,10.028918266296387,-0.12186402827501297,0.144465371966362,-0.07009471952915192
-0.41934216022491455,1.568495273590088,9.892526626586914,0.013591351918876171,0.03634541109204292,-0.12751436233520508
-0.6825526356697083,1.7407784461975098,10.344770431518555,0.10117157548666,-0.026571854948997498,-0.19348587095737457
-0.8333004713058472,1.6354942321777344,9.945169448852539,0.1713426560163498,-0.09559759497642517,-0.11896250396966934
-0.582054078578949,1.4581263065338135,9.30329418182373,0.18134528398513794,-0.022906772792339325,-0.0010689827613532543
-0.4384847581386566,1.6211373805999756,8.863015174865723,0.10735640674829483,0.07971556484699249,0.056427016854286194
-0.6825526356697083,1.8891334533691406,9.976275444030762,0.035352785140275955,0.15179555118083954,0.0429883748292923
-0.6418746709823608,1.9920248985290527,10.186843872070312,0.005497625097632408,-0.16584503650665283,0.0007635590736754239
-0.2826521694660187,1.7431713342666626,9.993025779724121,0.10369132459163666,-0.22509720921516418,-0.0035123717971146107
-0.05294119939208031,1.8747764825820923,10.739885330200195,0.31298285722732544,-0.19027891755104065,-0.020616095513105392
0.03559323772788048,2.2244277000427246,10.569994926452637,0.6193227767944336,-0.09315420687198639,0.04909684881567955
0.2799602448940277,1.7647067308425903,10.217950820922852,0.9149728417396545,0.20677179098129272,0.08330429345369339
-0.2874378263950348,1.903490424156189,10.457531929016113,1.1579372882843018,0.29839888215065,0.03749075159430504
-0.649053156375885,2.633899450302124,10.459924697875977,1.3492852449417114,0.1682884246110916,0.07841751724481583
-0.6897311210632324,3.0167510509490967,10.074381828308105,1.4716837406158447,0.04734066128730774,0.2011978179216385
-0.9723833203315735,2.6240291595458984,10.282557487487793,1.5747642517089844,-0.1169772520661354,0.3019876182079315
-0.09361918270587921,2.9138598442077637,10.440483093261719,1.7325918674468994,-0.5732801556587219,0.29954421520233154
0.26081767678260803,3.253939628601074,9.255437850952148,1.900956630706787,-0.9287932515144348,0.2512872815132141
-0.22043879330158234,3.6870405673980713,8.336295127868652,1.913326382637024,-0.8817580342292786,0.1859266310930252
-0.8213363885879517,4.225724697113037,7.890930652618408,1.6860147714614868,-0.8194515705108643,0.24456797540187836
-0.4408775866031647,4.5801615715026855,7.239784240722656,1.2691115140914917,-0.6520794630050659,0.3594072461128235
0.5264210104942322,4.3911285400390625,7.349853992462158,0.8236511945724487,-0.14018943905830383,0.40033403038978577
1.043569803237915,4.244867324829102,7.261319637298584,0.33291175961494446,0.37536564469337463,0.28427302837371826
-0.06729813665151596,4.472484588623047,8.13260555267334,-0.20944425463676453,0.42789849638938904,0.1621035933494568
-0.48873403668403625,4.867300510406494,8.338687896728516,-0.4076641798019409,0.3686463236808777,0.18348324298858643
-0.5892325639724731,4.874777793884277,9.013762474060059,-0.5635829567909241,0.32038938999176025,0.3142045736312866
0.37806597352027893,4.338486671447754,9.317651748657227,-0.47287213802337646,0.5782433152198792,0.2922140657901764
0.39481574296951294,4.244867324829102,9.47348403930664,-0.371013343334198,0.7462263107299805,0.2244100123643875
-0.29700911045074463,4.718945503234863,9.614660263061523,-0.13797512650489807,0.9227611422538757,0.16393613815307617
-0.34725838899612427,4.728516578674316,8.963513374328613,0.06016845628619194,0.752945601940155,0.1859266310930252
-0.18933209776878357,4.826622486114502,8.752646446228027,0.09994988143444061,0.4162923991680145,0.07658497244119644
-0.06251249462366104,4.613661289215088,8.182855606079102,-0.0889546349644661,-0.2354816198348999,-0.15561333298683167
-0.41216370463371277,4.534698009490967,8.781659126281738,-0.23433628678321838,-0.6007682681083679,-0.2954973578453064
-0.22522443532943726,4.687838554382324,8.216653823852539,-0.17592400312423706,-0.3765873312950134,-0.29916244745254517
0.20578274130821228,3.7420754432678223,7.874181270599365,-0.13988402485847473,0.19333316385746002,-0.33886751532554626
-0.2802593410015106,4.144368648529053,8.489435195922852,-0.3262687921524048,0.07605048269033432,-0.3962871730327606
-0.44327038526535034,4.510769844055176,8.870193481445312,-0.6579588651657104,-0.4682144224643707,-0.31260108947753906
-0.11276176571846008,4.118047714233398,9.176474571228027,-0.7356891632080078,-0.5720584392547607,-0.15500248968601227
0.38285163044929504,3.643969774246216,9.739087104797363,-0.5412106513977051,-0.21776704490184784,-0.0859767496585846
0.46899324655532837,3.636791229248047,9.337093353271484,-0.33741676807403564,0.1841704547405243,-0.0841442123055458
0.4618147611618042,3.902693748474121,8.9850492477417,-0.33001023530960083,0.544646680355072,-0.11407572776079178
0.1983051747083664,3.8213376998901367,8.702396392822266,-0.5480063557624817,0.5660263299942017,-0.23807771503925323
-0.4289134442806244,3.893122434616089,8.484649658203125,-0.8896990418434143,0.28496024012565613,-0.3840702176094055
-1.3313066959381104,3.88594388961792,8.305188179016113,-1.2593380212783813,-0.05100574716925621,-0.39506545662879944
-0.7543373107910156,3.11246395111084,9.008976936340332,-1.5053566694259644,0.018630841746926308,-0.1366770714521408
-0.8404789566993713,2.6458635330200195,9.399306297302246,-1.6035504341125488,0.41018393635749817,-0.005344913341104984
-1.0106685161590576,3.347259759902954,10.071989059448242,-1.5389533042907715,0.517158567905426,0.15416257083415985
-0.6825526356697083,2.7798616886138916,10.028918266296387,-1.3022500276565552,0.6808656454086304,0.2922140657901764
-0.02183450572192669,1.994417667388916,9.904491424560547,-0.965520441532135,0.9319238662719727,0.09918632358312607
0.33499518036842346,1.0704890489578247,9.981060981750488,-0.6903337836265564,1.0027821063995361,-0.40789327025413513
-0.48873403668403625,1.688136339187622,10.361519813537598,-0.4107184112071991,0.7291225790977478,-0.8305995464324951
-1.0609177350997925,2.3895325660705566,10.837990760803223,-0.04107947647571564,0.3655920922756195,-0.92711341381073
-0.9628120064735413,2.4373888969421387,9.59073257446289,0.25029465556144714,0.29839888215065,-0.9240592122077942
-0.7495517134666443,2.3727827072143555,8.702396392822266,0.22662433981895447,0.623445987701416,-1.0792144536972046
-1.2212368249893188,2.281855583190918,9.265008926391602,-0.04169032722711563,0.7749360799789429,-1.2869024276733398
-1.4030914306640625,2.3895325660705566,9.138189315795898,-0.3200076222419739,0.5990120768547058,-1.4145694971084595
-2.0159530639648438,2.0207388401031494,9.72233772277832,-0.5045598149299622,0.41445985436439514,-1.5740007162094116
-2.767897605895996,1.7718851566314697,9.61226749420166,-0.6194754838943481,-0.09071081876754761,-1.7279342412948608
-2.549851655960083,1.8652052879333496,10.122238159179688,-0.6921663284301758,-0.11209046840667725,-1.661962628364563
-3.8596229553222656,3.2419755458831787,9.983454704284668,-0.5921400785446167,-0.15057384967803955,-1.1995513439178467
-4.54426908493042,3.447758436203003,10.830812454223633,-0.22189027070999146,0.328330397605896,-0.30221667885780334
-4.043870449066162,2.257927179336548,10.737492561340332,0.28938889503479004,0.6692595481872559,0.4595862030982971
-3.385545015335083,1.7096717357635498,10.555638313293457,0.7889092564582825,0.7156839370727539,0.8865684270858765
-1.9968105554580688,0.11036894470453262,10.450353622436523,1.0280559062957764,0.5086066722869873,1.0423344373703003
-0.2228316068649292,-0.7226324677467346,9.791728973388672,0.664678156375885,-0.8182299137115479,0.768674910068512
-0.44805604219436646,0.21326032280921936,7.9866437911987305,0.3459686040878296,-1.388761281967163,0.394225537776947
-0.9819545745849609,0.43130627274513245,7.804789066314697,0.1701209545135498,-0.8842014074325562,0.15110833942890167
-1.0680961608886719,0.05294119939208031,9.411270141601562,0.1310267299413681,-0.5525113344192505,0.1083490327000618
-0.9915258884429932,0.4695914387702942,10.213165283203125,0.18195612728595734,-0.5512896776199341,0.3044309914112091
-0.7399803996086121,1.0274182558059692,8.642576217651367,0.42362257838249207,0.04978405311703682,0.7063685059547424
-0.15104693174362183,1.0513464212417603,7.610671520233154,0.5938199162483215,0.8977164030075073,0.9806389212608337
-0.9508479237556458,1.6402798891067505,7.550850868225098,0.17882554233074188,0.37231141328811646,0.8700755834579468
-1.8340985774993896,2.978466033935547,7.52213716506958,-0.5107446908950806,-1.063179612159729,0.6782695055007935
-1.95852530002594,3.0957143306732178,6.811169624328613,-0.7828771471977234,-1.5078765153884888,0.6825454831123352
-1.1183454990386963,2.2076780796051025,6.887740135192871,-1.154348611831665,-1.5512466430664062,0.8407548666000366
-0.12711870670318604,1.9130617380142212,8.029714584350586,-1.378682255744934,-1.4510676860809326,1.0673792362213135
0.8760721683502197,0.7256234884262085,9.454340934753418,-0.810823380947113,-0.8438854813575745,0.7008708715438843
0.4737788736820221,-0.5288137793540955,9.827621459960938,-0.4883723855018616,0.37414395809173584,-0.18065807223320007
-0.8309076428413391,1.7910277843475342,9.652945518493652,-0.2032594233751297,0.7474479675292969,-0.17149536311626434
-0.6634100675582886,1.8532410860061646,13.459627151489258,-0.18585027754306793,0.6118398904800415,0.32397812604904175
-1.7431713342666626,1.8556339740753174,10.876276016235352,-0.5095229744911194,-0.8115105628967285,0.42721131443977356
-0.6035895347595215,0.7998009920120239,11.76461124420166,-0.4399627447128296,-0.2092151790857315,0.5267794132232666
0.21296121180057526,0.6825526356697083,10.823634147644043,-0.1579040139913559,0.493946373462677,0.8957311511039734
0.519242525100708,0.6107679605484009,10.016953468322754,-0.0584886260330677,0.8861103057861328,1.121133804321289
-0.8165507316589355,1.9226330518722534,9.17886734008789,-0.37406760454177856,1.1157888174057007,0.7912762761116028
-1.3313066959381104,1.3815559148788452,9.004191398620605,-0.7052231431007385,1.3088165521621704,0.49440449476242065
-1.9848463535308838,0.3735794425010681,9.104690551757812,-0.8282325267791748,1.4645826816558838,0.5341095924377441
-1.20687997341156,-1.134497046470642,11.431710243225098,-0.8437327742576599,1.4151040315628052,0.8401440382003784
-1.8963119983673096,-0.6436693072319031,12.74148178100586,-0.6840725541114807,0.5067741274833679,0.44126078486442566
-3.4597225189208984,0.737587571144104,10.823634147644043,-0.4039227366447449,-0.19883078336715698,0.14255647361278534
-3.10528564453125,0.031405795365571976,9.89970588684082,-0.23364907503128052,-0.3136700689792633,0.3313082754611969
-2.4206392765045166,-0.4163511395454407,10.323235511779785,-0.1814979910850525,-0.2996205687522888,0.5890858173370361
-2.126322031021118,0.009870393201708794,10.172487258911133,0.09002361446619034,-0.21410197019577026,0.7931088209152222
-1.5086746215820312,0.5940182209014893,8.376973152160645,0.2596100866794586,0.2354816198348999,0.6709393858909607
-0.7040880918502808,0.3616153299808502,7.512565612792969,-0.05413633957505226,0.8616763949394226,0.4125509560108185
-1.2164511680603027,0.09840483218431473,8.54447078704834,-0.46851983666419983,1.187258005142212,0.21585814654827118
-1.7982062101364136,0.2826521694660187,11.402996063232422,-0.47470468282699585,1.2727766036987305,0.15049749612808228
-2.2244277000427246,0.1941177397966385,12.466008186340332,-0.0653606578707695,0.5360948443412781,0.07414158433675766
-2.5761725902557373,0.263509601354599,10.967203140258789,0.2770192325115204,-0.050394900143146515,-0.04932591691613197
-2.8660032749176025,-0.6293123364448547,11.027322769165039,0.26518407464027405,-0.3802524209022522,-0.008399149402976036
-3.5865421295166016,-0.20817556977272034,10.57956600189209,0.40125030279159546,0.13408097624778748,0.2751103341579437
-2.775076150894165,0.2874378263950348,11.075180053710938,0.672695517539978,1.01133394241333,0.5127299427986145
-2.0039889812469482,0.8524430394172668,9.739087104797363,0.7292752861976624,1.1591590642929077,0.4259895980358124
-1.6019947528839111,0.5892325639724731,9.648159980773926,0.5292227864265442,0.9013814926147461,0.0692548081278801
-2.760719060897827,0.6227321028709412,9.542876243591309,0.4143071472644806,0.5971795320510864,-0.12812520563602448
-3.7423746585845947,1.3025928735733032,9.686445236206055,0.40308284759521484,0.18600298464298248,0.011147962883114815
-3.5171501636505127,0.984347403049469,9.791728973388672,0.2689255177974701,-0.8335011005401611,0.08025006204843521
-2.7726831436157227,1.111167073249817,10.186843872070312,0.44843825697898865,-0.9965972900390625,0.08269345015287399
-2.408675193786621,0.893121063709259,9.416056632995605,0.532353401184082,-0.9739959836006165,0.020310672000050545
-2.580958366394043,0.771087110042572,9.116654396057129,0.5092939138412476,-1.0014840364456177,-0.060932014137506485
-3.2874391078948975,1.3767703771591187,9.72233772277832,0.22043950855731964,-1.2824738025665283,-0.07559234648942947
-3.0789644718170166,1.8245272636413574,12.530613899230957,0.3086305856704712,-1.441904902458191,0.1621035933494568
-1.328913927078247,0.8763712644577026,12.461221694946289,0.9727742671966553,-1.6068336963653564,0.16943375766277313
-0.6442674994468689,0.09122636169195175,9.274580955505371,1.2330715656280518,-1.6312675476074219,-0.0853659063577652
-2.025524377822876,1.9752750396728516,9.059226989746094,0.783335268497467,-1.8975969552993774,-0.1769929975271225
-1.6235301494598389,2.1287147998809814,10.68245792388916,0.4894413650035858,-1.7546586990356445,-0.027946261689066887
0.14087744057178497,1.810170292854309,11.939288139343262,0.7348492741584778,-1.2849172353744507,-0.14889401197433472
1.1632108688354492,0.8668000102043152,10.115059852600098,1.1722159385681152,-0.6807892918586731,-0.4695888161659241
0.07627122104167938,1.9010975360870361,9.703194618225098,1.1473238468170166,-0.6496360301971436,-0.7597413063049316
-0.48394837975502014,2.8803603649139404,8.269295692443848,0.9149728417396545,-0.6001574397087097,-0.9203941226005554
-0.24197418987751007,2.894717216491699,7.5843505859375,0.4900522232055664,0.09804098308086395,-0.9930849075317383
0.25363919138908386,2.760719060897827,7.929215908050537,0.08254073560237885,0.8482377529144287,-1.1286929845809937
1.0316057205200195,1.474876046180725,8.642576217651367,-0.13797512650489807,0.8971055746078491,-1.2270394563674927
0.28953152894973755,1.6115660667419434,7.5412797927856445,-0.4467584192752838,1.368068814277649,-1.3889139890670776
-0.3643072545528412,0.9747761487960815,6.610172748565674,-0.7399650812149048,2.9446656703948975,-1.385859727859497
-0.8356932997703552,1.108774185180664,7.270890712738037,-0.8791618943214417,3.5189383029937744,-1.413347840309143
-3.2563323974609375,2.078465461730957,10.680065155029297,-1.1040300130844116,2.9275617599487305,-1.5092508792877197
-4.671088695526123,3.6822550296783447,10.780563354492188,-1.1189957857131958,1.2324607372283936,-1.162900447845459
-3.1316065788269043,2.032702922821045,10.100702285766602,-0.611992597579956,0.7566106915473938,0.0050394898280501366
-2.478066921234131,1.2834502458572388,10.646565437316895,-0.48898324370384216,-0.3509317636489868,-0.08780929446220398
-1.7934205532073975,0.7830511927604675,8.307580947875977,-0.3480302393436432,-0.46210595965385437,-0.08231166750192642
-2.4110679626464844,1.5780665874481201,7.392924785614014,-0.3429907262325287,1.2642247676849365,0.17187714576721191
-2.6195425987243652,1.9178473949432373,8.879764556884766,-0.32252734899520874,2.2855613231658936,0.10895988345146179
-2.4038894176483154,1.4940186738967896,8.8438720703125,-0.3877353072166443,2.196377754211426,-0.03833066672086716
-2.025524377822876,1.2882359027862549,9.425627708435059,-0.5424323678016663,1.3619602918624878,-0.15866757929325104
-2.650649309158325,1.1279168128967285,9.995418548583984,-0.5666372179985046,0.44996535778045654,-0.15683503448963165
-3.838087558746338,0.5509474277496338,10.636994361877441,-0.33741676807403564,0.3179459869861603,-0.22402822971343994
-4.482056140899658,0.09840483218431473,10.684850692749023,0.11300674080848694,0.5580853223800659,-0.36635565757751465
-4.101297855377197,0.2922234535217285,9.49501895904541,0.4583645164966583,0.7101863026618958,-0.40606072545051575
-4.295415878295898,1.1255239248275757,8.223832130432129,0.24899661540985107,0.4034646153450012,-0.2686200737953186
-4.486841678619385,0.5676971673965454,8.453543663024902,-0.03298575058579445,0.3558185398578644,-0.111632339656353
-5.226522922515869,0.45523449778556824,9.9140625,0.06139015033841133,0.7236249446868896,0.03130592033267021
-4.338486671447754,-0.2105683982372284,9.255437850952148,0.43477052450180054,1.0015604496002197,-0.016340164467692375
-4.757230281829834,1.3313066959381104,8.83669376373291,0.45653197169303894,0.5043307542800903,0.005650337319821119
-5.228915691375732,1.0322039127349854,8.405686378479004,0.18378867208957672,0.2770192325115204,0.23479440808296204
-5.528317451477051,0.6777670383453369,9.284152030944824,0.22792237997055054,0.7883747220039368,0.26961269974708557
-4.201796531677246,0.13190434873104095,9.219545364379883,0.5534276366233826,1.4835189580917358,0.04787515476346016
-4.9393839836120605,1.4964114427566528,10.158130645751953,0.8491540551185608,0.8598438501358032,-0.26495498418807983
-5.988038539886475,2.0736799240112305,8.465507507324219,0.7466844320297241,-0.6642963886260986,-0.01817270554602146
-6.215356826782227,1.415055513381958,7.560422420501709,0.5298336148262024,-1.3350067138671875,0.23357272148132324
-5.178666591644287,0.6514459848403931,6.660421848297119,0.4117874205112457,-1.0344698429107666,0.32458895444869995
-4.240081787109375,0.1462612897157669,7.105785846710205,0.28755635023117065,-0.3710896968841553,0.28732728958129883
-4.913063049316406,0.9699904918670654,9.152546882629395,0.1540098637342453,0.5134934782981873,-0.018783552572131157
-6.320641040802002,1.7096717357635498,11.597113609313965,0.5229616165161133,0.15912571549415588,-0.10857810080051422
-6.067001819610596,1.6546368598937988,7.965108394622803,0.8491540551185608,-0.9581139087677002,0.2549523711204529
-5.317450046539307,0.9652048349380493,6.705885410308838,0.4453076422214508,-0.72599196434021,0.41560521721839905
-4.77876615524292,2.0518453121185303,7.1249284744262695,-0.12560546398162842,0.08154810965061188,0.20913882553577423
-3.957728624343872,1.2499507665634155,10.227521896362305,-0.2554105222225189,0.6301652789115906,-0.07070557028055191
-4.8915276527404785,1.0202397108078003,10.392626762390137,0.36521029472351074,0.6265002489089966,-0.25029465556144714
-6.895217418670654,2.377568483352661,10.694421768188477,1.0181297063827515,-0.2489202618598938,-0.032222192734479904
-6.782754898071289,2.5713870525360107,9.822835922241211,1.3859360218048096,-1.5891191959381104,0.44431501626968384
-5.365306377410889,2.4062821865081787,7.874181270599365,1.3573026657104492,-2.7589681148529053,0.8248728513717651
-3.8572301864624023,3.0550363063812256,6.361020088195801,0.8541171550750732,-2.89152193069458,0.7393542528152466
-2.6937201023101807,2.621636390686035,5.829514026641846,0.1682884246110916,-2.05702805519104,0.6122980117797852
-2.265105724334717,2.2148563861846924,5.937191009521484,-0.3200076222419739,-0.7040014863014221,0.44064992666244507
-2.6315066814422607,2.6530420780181885,8.298009872436523,-0.5846571922302246,0.47256672382354736,0.2897706627845764
-2.6697919368743896,2.9521448612213135,10.445268630981445,-0.5685460567474365,0.46462568640708923,0.08819106966257095
-3.306581735610962,1.872383713722229,9.849157333374023,-0.5250232219696045,0.2476985603570938,-0.28694549202919006
-3.378366470336914,2.1143579483032227,9.123832702636719,-0.3970507085323334,0.08704573661088943,-0.478751540184021
-3.90987229347229,1.6378871202468872,8.934800148010254,-0.3623087704181671,0.2513636350631714,-0.8104416131973267
-3.7782669067382812,2.1909282207489014,10.92173957824707,-0.1740151196718216,-0.20432840287685394,-1.0712733268737793
-4.941776752471924,2.178964138031006,9.016156196594238,0.028480753302574158,-1.5005463361740112,-1.1842801570892334
-4.829015254974365,2.729612350463867,8.13260555267334,0.09368869662284851,-0.8683193922042847,-0.9655967950820923
-4.290630340576172,2.8875386714935303,9.9140625,0.4745519757270813,0.10903623700141907,-0.34131091833114624
-3.91705060005188,2.5785655975341797,10.325628280639648,0.8832851648330688,0.3014531135559082,0.37467843294143677
-3.5769708156585693,2.2459630966186523,10.02173900604248,1.0585219860076904,-0.21288026869297028,0.8230403065681458
-3.026322364807129,1.9680966138839722,8.855836868286133,1.0609652996063232,-0.9434536099433899,0.8694646954536438
-2.6530420780181885,2.5211377143859863,9.145368576049805,1.1417498588562012,-1.559187650680542,0.7210288047790527
-2.0231316089630127,3.026322364807129,8.664112091064453,1.1461021900177002,-2.1162803173065186,0.5640410780906677
-0.768694281578064,2.9042885303497314,7.790432453155518,1.0802834033966064,-1.8884342908859253,0.341081827878952
-0.45284169912338257,2.9976086616516113,7.605885982513428,0.8398386240005493,-1.3227897882461548,0.09246700257062912
-0.8333004713058472,3.838087558746338,7.881359577178955,0.5565581917762756,-0.929404079914093,0.03008422814309597
-1.0226325988769531,4.833800792694092,8.496614456176758,0.31924405694007874,-0.9538379907608032,0.15721681714057922
-0.6370890140533447,4.781158924102783,7.550850868225098,0.12293300777673721,-0.7663078904151917,0.2512872815132141
-0.39062830805778503,3.9433717727661133,7.70668363571167,-0.17035003006458282,-0.07543963938951492,0.16515782475471497
-0.9221340417861938,3.871587038040161,8.101499557495117,-0.46729815006256104,0.3674246370792389,0.16821207106113434
-1.316949725151062,4.237689018249512,8.944371223449707,-0.6729246377944946,0.4701233208179474,0.32214558124542236
-0.7040880918502808,4.036691665649414,9.413662910461426,-0.7648571133613586,0.41079479455947876,0.40522080659866333
-0.6897311210632324,3.3640096187591553,10.246665000915527,-0.7505785822868347,0.15423893928527832,0.25800660252571106
-0.9556335210800171,3.0454649925231934,10.201201438903809,-0.5610632300376892,-0.21226942539215088,0.014813045971095562
-0.9939187169075012,3.0717861652374268,10.567602157592773,-0.26785650849342346,-0.34848836064338684,-0.18432316184043884
-0.9002995491027832,2.978466033935547,10.378270149230957,0.022906772792339325,-0.2916795611381531,-0.2967190444469452
-1.163809061050415,2.956930637359619,10.057631492614746,0.2689255177974701,-0.055892523378133774,-0.3242071866989136
-1.4847464561462402,3.0837502479553223,9.7366943359375,0.419881135225296,0.06383354216814041,-0.22219568490982056
-1.4796617031097412,3.251546859741211,8.877371788024902,0.3925457298755646,0.03512371703982353,-0.12751436233520508
-1.7288143634796143,3.4932219982147217,8.750253677368164,0.16767756640911102,0.1316375881433487,-0.0975828468799591
-1.8340985774993896,3.3592238426208496,7.977072715759277,-0.07398887723684311,0.29412296414375305,-0.007788302376866341
-2.0159530639648438,3.402294635772705,9.870692253112793,-0.09200886636972427,0.3533751368522644,0.1083490327000618
-1.5326029062271118,3.4764721393585205,9.971489906311035,-0.07963921129703522,-0.30572906136512756,0.15599511563777924
-0.8045865893363953,3.5865421295166016,9.461520195007324,-0.07773031294345856,-0.5995466113090515,0.09613208472728729
-0.17976079881191254,3.129213809967041,8.379365921020508,-0.059710320085287094,-0.3521534502506256,-0.07864658534526825
-0.5700899958610535,2.7631118297576904,8.750253677368164,-0.04107947647571564,-0.07421794533729553,-0.3889569938182831
-1.9537396430969238,3.567399501800537,9.032905578613281,-0.05169294774532318,0.1053711548447609,-0.5172349214553833
-1.8221344947814941,4.122833251953125,10.069596290588379,0.06948387622833252,0.13591352105140686,-0.28999972343444824
-1.328913927078247,4.005585193634033,9.640981674194336,0.31985488533973694,-0.25380703806877136,-0.06704048812389374
-0.29700911045074463,3.481257915496826,8.056035995483398,0.5229616165161133,-0.21715620160102844,-0.1776038408279419
0.1743769496679306,2.846860647201538,7.519744396209717,0.4763845205307007,0.31000497937202454,-0.580763041973114
-1.1925230026245117,2.9617161750793457,8.065607070922852,0.30183491110801697,0.627721905708313,-0.7768449783325195
-3.1869406700134277,2.9449665546417236,8.982656478881836,0.0005344913806766272,0.7443937659263611,-0.6027535200119019
-2.9282166957855225,3.643969774246216,8.54447078704834,-0.4107184112071991,0.5391490459442139,-0.24724042415618896
-2.29142689704895,3.251546859741211,7.2349982261657715,-0.6493306159973145,0.946584165096283,0.1865374743938446
-2.4278175830841064,2.760719060897827,7.998608112335205,-0.7965448498725891,1.7577893733978271,0.6110763549804688
-2.5522444248199463,2.394318103790283,10.304092407226562,-0.8145648241043091,2.060769557952881,0.9415447115898132
-1.226022481918335,2.7391836643218994,9.50459098815918,-0.7660788297653198,0.910544216632843,0.1462215632200241
-3.261118173599243,3.3807592391967773,8.28843879699707,-0.6610894203186035,0.804256796836853,-0.399952232837677
-4.470091819763184,5.092525005340576,9.681659698486328,-0.4790569543838501,0.8555679321289062,-0.5856497883796692
-2.7966115474700928,3.2467613220214844,9.902098655700684,-0.441795289516449,0.0393996499478817,-0.32909396290779114
-2.98085880279541,2.1119651794433594,8.424829483032227,-0.5368583798408508,0.04489727318286896,-0.21120044589042664
-3.8572301864624023,2.0832512378692627,9.961918830871582,-0.6374954581260681,0.9850675463676453,-0.1757712960243225
-4.771587371826172,2.3895325660705566,11.771790504455566,-0.4027010500431061,1.216578722000122,-0.10613471269607544
-3.4597225189208984,1.5493526458740234,9.17886734008789,-0.09078717231750488,1.297210454940796,-0.21303297579288483
-3.7878382205963135,1.95852530002594,8.786444664001465,-0.3243598937988281,1.7144192457199097,-0.3718532621860504
-5.080560684204102,1.8221344947814941,10.861919403076172,-0.4846309423446655,1.947152018547058,-0.47386476397514343
-6.1124653816223145,1.6235301494598389,10.82124137878418,-0.17531315982341766,1.6191270351409912,-0.5606050491333008
-6.356533527374268,2.3584258556365967,9.061619758605957,0.11735902726650238,1.465193510055542,-0.2295258641242981
-6.421139717102051,3.1818559169769287,9.095118522644043,0.30183491110801697,1.5079528093338013,0.26961269974708557
-5.868098258972168,2.6001009941101074,10.581958770751953,0.6807892918586731,0.7786011695861816,0.6013027429580688
-5.906383514404297,2.3297119140625,9.772586822509766,1.2778160572052002,-0.2782409191131592,0.8248728513717651
-4.855635166168213,1.8580267429351807,6.461518287658691,1.5163519382476807,-0.6533011198043823,1.0313392877578735
-3.622434377670288,2.2244277000427246,4.922335147857666,0.923677384853363,-0.16217994689941406,0.8352572917938232
-4.12761926651001,2.186142683029175,7.589136123657227,0.2396811991930008,0.6032879948616028,0.29587915539741516
-6.87607479095459,3.2252259254455566,9.607481956481934,0.40063944458961487,0.7480587959289551,-0.04321744292974472
-6.289534091949463,2.978466033935547,9.916455268859863,0.9106205701828003,0.48844873905181885,0.15660595893859863
-4.328915119171143,3.292224884033203,7.6274213790893555,1.2268867492675781,0.042453885078430176,0.2751103341579437
-3.9792640209198,3.299403429031372,4.773681163787842,0.9876636862754822,-0.13469181954860687,-0.20814619958400726
-7.46500825881958,3.596113443374634,4.646861553192139,0.27946263551712036,0.34971004724502563,-0.4366030693054199
-7.740482330322266,3.806980848312378,7.3761749267578125,-0.280913382768631,0.26602399349212646,0.082082599401474
-5.0015974044799805,2.901895761489868,11.09910774230957,-0.16034740209579468,-0.61481773853302,0.36612656712532043
-4.527519702911377,3.299403429031372,7.613064289093018,0.3931565582752228,-1.855448603630066,0.0686439573764801
-3.591327667236328,3.0239295959472656,6.6484575271606445,-0.16966283321380615,0.41079479455947876,0.16882291436195374
-2.9688947200775146,2.822932481765747,7.754539966583252,-0.43499961495399475,0.26724568009376526,-0.3584146201610565
-5.327021598815918,3.8907296657562256,10.172487258911133,-0.308859646320343,-0.4840964674949646,-0.7114843726158142
-6.940680980682373,4.29033088684082,9.712766647338867,-0.04604261368513107,-1.4999353885650635,-0.5013529062271118
-5.968596935272217,3.806980848312378,9.140582084655762,0.10613471269607544,-1.9599034786224365,-0.06704048812389374
-3.708575963973999,2.7008986473083496,7.491030216217041,0.09002361446619034,-1.6819679737091064,-0.0719272643327713
-3.9290146827697754,3.292224884033203,6.784848690032959,-0.1814979910850525,-0.8854231238365173,-0.2692309319972992
-4.54426908493042,3.340081214904785,8.271688461303711,-0.5436540842056274,0.011300674639642239,-0.22402822971343994
-5.231308460235596,3.1941192150115967,10.864312171936035,-0.35795649886131287,0.16340164840221405,-0.032222192734479904
-4.889134883880615,3.0933215618133545,10.500602722167969,0.20432840287685394,-0.1682884246110916,0.13766969740390778
-4.386343002319336,3.5626137256622314,9.416056632995605,0.5018873810768127,-0.4450022280216217,0.23112933337688446
-2.8516464233398438,2.9210381507873535,7.953144073486328,0.6074876189231873,-0.3277195692062378,0.17798562347888947
-3.3664023876190186,3.3975090980529785,8.52054214477539,0.5894675850868225,-0.1450762301683426,-0.050547610968351364
-4.235296249389648,3.996013879776001,8.28126049041748,0.4049917459487915,-0.42362257838249207,-0.13301199674606323
-3.924229145050049,3.8835511207580566,8.31715202331543,0.24403348565101624,-0.5158604979515076,-0.02489202655851841
-3.0311081409454346,3.9529430866241455,8.199604988098145,0.24097923934459686,-0.45477578043937683,0.11018157750368118
-3.090928554534912,3.759124279022217,8.958727836608887,0.26640576124191284,-0.4059080183506012,0.082082599401474
-3.2970104217529297,3.584149122238159,7.694719314575195,0.31298285722732544,-0.504865288734436,0.025197450071573257
-3.4764721393585205,3.529114246368408,6.67717170715332,0.027259059250354767,-0.09437590092420578,0.1480541080236435
-2.892324447631836,3.5865421295166016,7.979465484619141,-0.25418880581855774,0.4389701187610626,0.28427302837371826
-2.767897605895996,3.553042411804199,9.274580955505371,-0.25296711921691895,0.4340069890022278,0.12239851802587509
-3.4692938327789307,3.7878382205963135,9.312865257263184,-0.009391776286065578,0.029626091942191124,-0.13484452664852142
-3.70139741897583,3.933800458908081,8.20947551727295,0.08811471611261368,-0.5616740584373474,-0.05604523420333862
-3.4453654289245605,3.78544545173645,7.610671520233154,-0.06658235192298889,-0.4816530644893646,0.00015271181473508477
-3.340081214904785,3.6655051708221436,8.13260555267334,-0.25296711921691895,-0.04734066128730774,-0.0004581354442052543
-3.6248271465301514,3.7734813690185547,9.38734245300293,-0.28396761417388916,0.21593450009822845,-0.004734066314995289
-3.3496525287628174,3.6008989810943604,9.940383911132812,-0.039857782423496246,0.23425991833209991,0.050929389894008636
-3.2635109424591064,3.5769708156585693,9.269794464111328,0.2626643180847168,0.22631891071796417,0.1358371526002884
-3.423830032348633,3.6104702949523926,8.29561710357666,0.3372640311717987,0.30695074796676636,0.12423106282949448
-3.8356947898864746,3.6870405673980713,8.115856170654297,0.2235700935125351,0.5012765526771545,-0.1769929975271225
-4.381557464599609,3.8213376998901367,8.219046592712402,-0.008780929259955883,0.37292224168777466,-0.22036315500736237
-3.9290146827697754,3.8021950721740723,8.503792762756348,-0.16164545714855194,0.2208212912082672,-0.1501157134771347
-3.94815731048584,3.8045880794525146,8.757431983947754,-0.4082750380039215,-0.1572931706905365,-0.17149536311626434
-3.677469253540039,3.684647798538208,8.115856170654297,0.09063446521759033,-0.8561024069786072,-0.19226416945457458
-3.3568310737609863,3.0622148513793945,7.412067413330078,0.044668205082416534,-0.3784198760986328,-0.09636115282773972
-3.8428730964660645,3.160320520401001,7.716254711151123,-0.3473430275917053,0.1560714691877365,-0.07925742864608765
-4.06540584564209,3.1794631481170654,8.788837432861328,-0.5753417611122131,0.47623178362846375,-0.032222192734479904
-3.6272199153900146,3.1172497272491455,8.56600570678711,-0.5399889945983887,0.6069530844688416,-0.03771981969475746
-3.019144058227539,2.3081765174865723,8.839086532592773,-0.3193967640399933,0.7963157296180725,-0.15988926589488983
-3.6966118812561035,3.5219359397888184,9.813264846801758,-0.19890713691711426,0.4548521339893341,-0.49829864501953125
-4.371985912322998,3.91705060005188,9.312865257263184,-0.14545799791812897,-0.09804098308086395,-0.4408790171146393
-4.208974838256836,3.177070379257202,7.290033340454102,-0.5772506594657898,-0.8799254894256592,-0.21853061020374298
-3.9696927070617676,2.511566400527954,5.2166523933410645,-1.3314179182052612,-0.9049702286720276,-0.01695101149380207
-4.067798614501953,1.5302101373672485,7.7832536697387695,-1.710983157157898,0.6607076525688171,0.16454698145389557
-3.9601213932037354,2.20528507232666,12.253046989440918,-1.3662362098693848,0.9875109791755676,0.023364907130599022
-4.448556423187256,1.9752750396728516,10.617851257324219,-0.7207233905792236,0.40102121233940125,0.1987544298171997
-4.089334011077881,2.265105724334717,9.399306297302246,-0.3852919042110443,0.18600298464298248,0.5316661596298218
-4.268795490264893,1.7096717357635498,9.971489906311035,-0.1821088343858719,0.44813281297683716,0.6965949535369873
-4.513162612915039,2.384746789932251,9.72233772277832,0.14095300436019897,0.4095730781555176,0.5976377129554749
-4.115654945373535,2.1382861137390137,10.057631492614746,0.47019967436790466,0.05528167635202408,0.5231143236160278
-3.4453654289245605,2.7966115474700928,8.28126049041748,0.5217399001121521,-0.0791047215461731,0.5915291905403137
-3.2467613220214844,3.3041889667510986,8.678468704223633,0.3434488773345947,0.10842538625001907,0.6214607357978821
-3.299403429031372,2.8564319610595703,9.133403778076172,0.261442631483078,0.03634541109204292,0.45897534489631653
-3.3951163291931152,2.621636390686035,8.82233715057373,0.2987042963504791,-0.1175880953669548,0.17859646677970886
-3.3185458183288574,2.8037898540496826,7.941180229187012,0.26579490303993225,-0.06261184066534042,0.0692548081278801
-3.529114246368408,3.478864908218384,7.874181270599365,-0.05169294774532318,0.003359660040587187,0.1602710485458374
-3.4860434532165527,3.3831520080566406,8.099106788635254,-0.37467843294143677,-0.09071081876754761,0.2531198263168335
-3.2491540908813477,2.7080769538879395,9.049654960632324,-0.4530195891857147,-0.07238540053367615,0.211582213640213
-3.220440149307251,2.6096723079681396,9.30329418182373,-0.2635042369365692,-0.002748812548816204,0.1340046226978302
-3.0622148513793945,2.6168506145477295,9.123832702636719,-0.10262233763933182,0.12552911043167114,0.1077381819486618
-3.11246395111084,2.8348965644836426,9.207581520080566,0.15210096538066864,0.16279079020023346,0.025197450071573257
-3.2659037113189697,2.923431158065796,9.001798629760742,0.193104088306427,-0.017409147694706917,-0.02733541466295719
-3.653541088104248,2.7798616886138916,8.475078582763672,0.11361759155988693,-0.43767204880714417,-0.09391776472330093
-3.6894333362579346,2.7176482677459717,8.333902359008789,-0.036727190017700195,-0.545181155204773,-0.10735640674829483
-3.557828187942505,2.5785655975341797,8.68325424194336,-0.12995775043964386,-0.3032856583595276,-0.15866757929325104
-3.4549367427825928,2.4062821865081787,9.976275444030762,-0.08582404255867004,-0.2098260372877121,-0.24968381226062775
-3.5554354190826416,2.815753936767578,10.043274879455566,0.08628217875957489,-0.4590517282485962,-0.2429644912481308
-3.533900022506714,3.0239295959472656,9.337093353271484,0.33169007301330566,-0.3002314269542694,-0.05543438717722893
-3.026322364807129,2.564208507537842,8.649754524230957,0.46332764625549316,0.05528167635202408,0.09613208472728729
-3.1773693561553955,2.5929224491119385,8.099106788635254,0.34902286529541016,0.48905959725379944,0.021532366052269936
-4.067798614501953,3.423830032348633,9.61944580078125,0.29626092314720154,0.46279314160346985,0.0814717561006546
-2.1358933448791504,2.2555344104766846,6.473482608795166,0.8006680607795715,-0.7088882327079773,0.012980503961443901
-3.1316065788269043,3.1411778926849365,5.199902534484863,0.13782241940498352,0.8012025356292725,-0.3333698809146881
-4.015156269073486,3.8763725757598877,7.115357398986816,-0.5089121460914612,1.343634843826294,-0.3852919042110443
-4.237689018249512,2.8325037956237793,8.819944381713867,-0.8015079498291016,1.1945881843566895,-0.510515570640564
-4.656732082366943,3.0622148513793945,10.761421203613281,-0.7027034163475037,0.4798968732357025,-0.474475622177124
-5.0327043533325195,2.6626133918762207,9.710372924804688,-0.4760027229785919,-0.29229041934013367,-0.004123218823224306
-4.925027370452881,2.9760732650756836,8.101499557495117,-0.2504473626613617,0.003359660040587187,0.37712183594703674
-3.3329029083251953,2.281855583190918,8.408080101013184,-0.06902574002742767,0.6772005558013916,0.2390703409910202
-3.8668015003204346,1.6235301494598389,7.816753387451172,-0.18646112084388733,0.9258154034614563,-0.164165198802948
-5.49721097946167,2.7320053577423096,8.156534194946289,-0.603975236415863,1.2049726247787476,0.014202198944985867
-6.119643688201904,3.184248685836792,10.110274314880371,-0.7797465324401855,1.4401487112045288,0.5377746820449829
-4.043870449066162,2.4206392765045166,11.101500511169434,0.5012765526771545,0.9905651807785034,0.023364907130599022
-5.25045108795166,2.789433002471924,8.570791244506836,0.9473477602005005,0.23181653022766113,-0.2802261710166931
-6.08614444732666,3.0000014305114746,6.200700759887695,0.6373427510261536,-0.14080029726028442,-0.1360662281513214
-5.798706531524658,2.463710069656372,5.800800323486328,-0.21631628274917603,0.6222242712974548,0.14133478701114655
-5.44217586517334,2.6434707641601562,8.405686378479004,-0.6139014959335327,1.6343982219696045,0.2512872815132141
-4.829015254974365,3.1100711822509766,10.529316902160645,-0.15912571549415588,1.23368239402771,0.16882291436195374
-5.557031631469727,2.7870402336120605,9.686445236206055,0.35772743821144104,0.008246437646448612,-0.11957334727048874
-6.727719783782959,2.641077995300293,6.67717170715332,0.3850628435611725,-0.36314868927001953,0.01175880990922451
-5.717350482940674,2.518744945526123,6.698707103729248,0.06887302547693253,-0.07971556484699249,0.317869633436203
-6.284748554229736,3.0071799755096436,8.003393173217773,-0.03924693539738655,-0.37047886848449707,0.3404709994792938
-6.21774959564209,2.6386852264404297,8.726325035095215,0.006719320081174374,-0.647192656993866,0.4742465317249298
-5.157131195068359,2.870789051055908,8.245368003845215,0.12163496017456055,-0.7528692483901978,0.630623459815979
-3.768695592880249,2.478066921234131,8.182855606079102,0.1086544543504715,-0.5512896776199341,0.3832302987575531
-4.735694885253906,3.2347970008850098,8.934800148010254,0.2079934924840927,-0.6080984473228455,-0.05421269312500954
-5.633601665496826,3.2228329181671143,8.01775074005127,0.2770192325115204,-0.6649072170257568,-0.09941539168357849
-5.578567028045654,3.629612922668457,7.52213716506958,0.1769929975271225,-0.45355409383773804,0.15660595893859863
-4.587339878082275,3.2874391078948975,8.613862037658691,-0.07276718318462372,-0.041232191026210785,0.20669543743133545
-4.355236530303955,3.10528564453125,10.074381828308105,-0.000687203137204051,0.032069481909275055,-0.04443913698196411
-4.824229717254639,2.8013970851898193,9.985847473144531,0.32733777165412903,-0.41201648116111755,-0.30099499225616455
-5.085346221923828,3.596113443374634,7.270890712738037,0.47951510548591614,-0.2513636350631714,-0.31687700748443604
-5.260022163391113,3.340081214904785,7.357032299041748,0.15897299349308014,0.2861819267272949,-0.03405473381280899
-5.398806095123291,2.7415764331817627,9.140582084655762,-0.13675342500209808,0.8421292901039124,0.15233004093170166
-5.7149577140808105,2.5139594078063965,9.382556915283203,-0.04046862944960594,0.7828771471977234,0.2506764531135559
-5.365306377410889,3.5386855602264404,7.642077445983887,0.11545012891292572,0.6936933994293213,0.3972797989845276
-4.01754903793335,3.85483717918396,9.095118522644043,0.255257785320282,0.6423822641372681,0.3337516784667969
-4.261617183685303,3.5769708156585693,9.329915046691895,0.4304182529449463,-0.4865398406982422,-0.06642963737249374
-4.829015254974365,3.3281171321868896,8.338687896728516,0.4869979918003082,-1.484053373336792,-0.4805840849876404
-5.295914649963379,3.1268210411071777,7.043273448944092,0.3683409094810486,-1.6385977268218994,-0.49890950322151184
-4.948955535888672,3.261118173599243,5.587839126586914,-0.02680092304944992,-1.2555965185165405,-0.35230615735054016
-4.486841678619385,3.4453654289245605,6.370591163635254,-0.5002075433731079,-0.5891621708869934,-0.18004722893238068
-4.9393839836120605,2.954537868499756,8.55882740020752,-0.7797465324401855,-0.7351546883583069,-0.09147437661886215
-4.776372909545898,2.123929262161255,7.45992374420166,-0.9350544214248657,-1.3325632810592651,-0.01511846948415041
-3.574577808380127,2.8971099853515625,7.3522467613220215,-1.178629755973816,-1.4076975584030151,-0.004123218823224306
-4.336093902587891,2.8013970851898193,6.370591163635254,-1.371199369430542,-0.5989357233047485,0.25922831892967224
-4.424628257751465,2.1693928241729736,10.737492561340332,-1.1922974586486816,0.31916770339012146,0.5707604289054871
-3.4310085773468018,2.461317300796509,11.108678817749023,-0.6859814524650574,0.2348707765340805,0.7393542528152466
-2.8277182579040527,2.3201406002044678,8.798408508300781,-0.14301460981369019,0.6265002489089966,0.8016606569290161
-2.901895761489868,2.39192533493042,10.198808670043945,0.12232216447591782,1.2562837600708008,0.6098546385765076
-3.8356947898864746,2.782254457473755,9.37059211730957,0.2757211923599243,0.7260683178901672,0.44370418787002563
-3.871587038040161,3.4669008255004883,8.913264274597168,0.28007346391677856,-0.022906772792339325,0.3007659316062927
-3.9744784832000732,3.1172497272491455,8.0081787109375,0.13782241940498352,-0.41262730956077576,0.36551573872566223
-3.361616611480713,2.9928228855133057,7.704290866851807,-0.14423631131649017,-0.2898470163345337,0.42904382944107056
-2.7415764331817627,2.837289333343506,6.959524631500244,-0.5070032477378845,0.2641914486885071,0.3080960810184479
-3.519542932510376,2.899502754211426,9.801301002502441,-0.559841513633728,0.5079958438873291,0.0949103906750679
-3.533900022506714,2.6434707641601562,10.522138595581055,-0.2566322088241577,-0.37414395809173584,-0.020005248486995697
-3.653541088104248,2.614457845687866,10.012167930603027,0.08131904155015945,-1.0711206197738647,-0.02367033064365387
-3.392723321914673,2.39192533493042,8.515756607055664,0.1782146841287613,-1.0857809782028198,-0.05115845799446106
-3.2563323974609375,2.1598215103149414,7.345067977905273,0.27946263551712036,-0.197609081864357,-0.18065807223320007
-4.264009952545166,3.059821844100952,9.93559741973877,0.323596328496933,-0.40163207054138184,-0.05787777900695801
-3.529114246368408,3.275475025177002,9.902098655700684,0.5373165011405945,-0.6752916574478149,0.17126630246639252
-2.7774689197540283,3.471686601638794,9.068798065185547,0.9056574106216431,-0.4596625566482544,0.3062635362148285
-2.061715841293335,3.4525439739227295,7.912466049194336,1.0920422077178955,0.2641914486885071,0.22990763187408447
-2.233999013900757,2.4062821865081787,8.231010437011719,0.990183413028717,0.919096052646637,0.10285140573978424
-3.11246395111084,3.2228329181671143,9.233902931213379,0.8386169075965881,0.7486696839332581,0.05703786388039589
-3.88594388961792,4.232903480529785,8.621041297912598,0.7895200848579407,0.3564293682575226,0.3019876182079315
-3.88594388961792,4.3983073234558105,8.685647010803223,0.6336013078689575,0.42728766798973083,0.6910973191261292
-4.1347975730896,3.344866991043091,8.522934913635254,0.4291965663433075,0.3503209054470062,0.8682430386543274
-3.6798620223999023,3.5482568740844727,8.060821533203125,0.2701472043991089,0.1969982385635376,0.6159631013870239
-2.8636105060577393,3.792623996734619,8.355437278747559,0.1782146841287613,0.30817243456840515,0.24701136350631714
-2.837289333343506,3.955335855484009,8.898907661437988,0.16515782475471497,0.47317755222320557,0.0038177953101694584
-3.8045880794525146,3.8189449310302734,8.96829891204834,0.30244573950767517,0.6643727421760559,-0.12323843687772751
-4.987240791320801,4.362414836883545,8.793622970581055,0.5186856985092163,0.5092175602912903,-0.19226416945457458
-5.226522922515869,4.458127498626709,7.969893932342529,0.5683169960975647,0.14690876007080078,-0.08842013776302338
-4.656732082366943,4.381557464599609,7.471887588500977,0.43415969610214233,-0.18844637274742126,0.07169819623231888
-3.830909013748169,4.4150567054748535,7.311568737030029,0.18501035869121552,-0.7211052179336548,0.04787515476346016
-3.761517286300659,4.089334011077881,8.604290962219238,0.03840702027082443,-0.7828007340431213,-0.1757712960243225
-4.180261135101318,4.063013076782227,8.367402076721191,0.18501035869121552,-0.12064233422279358,-0.323596328496933
