accX,accY,accZ,gyroX,gyroY,gyroZ
-3.604950189590454,2.8650002479553223,8.635950088500977,-0.5431249737739563,-1.119937539100647,0.007699999958276749
-4.026000022888184,3.0900001525878906,10.34595012664795,-0.4345000088214874,-1.1412500143051147,0.1662375032901764
-3.2290501594543457,3.787050247192383,11.394001007080078,-0.20996250212192535,-0.9006249904632568,0.3610749840736389
-2.3209500312805176,3.80400013923645,11.457000732421875,0.04963750019669533,-0.5889124870300293,0.2162874937057495
-2.986950159072876,3.397050142288208,11.731950759887695,0.2316875010728836,-0.4548499882221222,0.057750001549720764
-2.9850001335144043,3.0450000762939453,11.113950729370117,0.3231250047683716,-0.36217498779296875,0.08428750187158585
-2.0629501342773438,3.805950164794922,9.520050048828125,0.17627499997615814,-0.16321249306201935,0.12581250071525574
-1.1749500036239624,3.5809502601623535,9.163050651550293,-0.10243749618530273,-0.1769624948501587,-0.07741250097751617
-1.0069500207901,2.8510501384735107,10.521000862121582,-0.30469998717308044,-0.22921249270439148,-0.4222624897956848
-1.807050108909607,2.137050151824951,12.016950607299805,-0.25891250371932983,-0.02914999984204769,-0.718162477016449
-2.5440001487731934,0.8440500497817993,12.09795093536377,-0.16747500002384186,0.16458749771118164,-0.8915500044822693
-2.9509501457214355,1.2199500799179077,12.000000953674316,-0.11948750168085098,0.6637125015258789,-0.6872249841690063
-1.9840500354766846,1.8190500736236572,10.63800048828125,0.11041250079870224,1.0903749465942383,-0.3531000018119812
-1.7040001153945923,1.696950078010559,8.683950424194336,0.3913249969482422,1.1500500440597534,-0.2083124965429306
-1.4280000925064087,1.5430500507354736,7.549050331115723,0.5478000044822693,0.8339374661445618,-0.12319999933242798
-1.2919501066207886,2.1040501594543457,7.573050498962402,0.47753748297691345,0.7169250249862671,-0.06792499870061874
-1.6800000667572021,2.269050121307373,6.759000301361084,0.33701249957084656,0.8595125079154968,-0.04867500066757202
-2.470050096511841,3.0040502548217773,7.705050468444824,-0.13337500393390656,0.774399995803833,-0.29026249051094055
-3.376950263977051,3.5809502601623535,9.838050842285156,-0.22591249644756317,-0.36959999799728394,-0.6946499943733215
-3.198000192642212,2.92995023727417,8.047050476074219,-0.14396250247955322,-1.020937442779541,-0.8362749814987183
-2.53695011138916,3.267000198364258,7.249950408935547,-0.4334000051021576,-1.6031124591827393,-0.8053374886512756
-1.7710500955581665,3.346050262451172,7.108950138092041,-0.7048249840736389,-2.378887414932251,-0.7745375037193298
-1.3810501098632812,2.6730000972747803,6.831000328063965,-1.1581624746322632,-2.8470749855041504,-0.9202874898910522
-1.3810501098632812,2.9250001907348633,7.482000350952148,-1.5881249904632568,-2.611949920654297,-1.016124963760376
-0.22905001044273376,3.195000171661377,9.201000213623047,-2.0266125202178955,-2.5502123832702637,-1.2171499729156494
0.18195000290870667,1.921950101852417,11.313000679016113,-2.1000375747680664,-2.8535375595092773,-1.4470499753952026
-0.8940000534057617,2.39805006980896,10.906050682067871,-1.799875020980835,-2.573587417602539,-1.152250051498413
0.7110000252723694,0.9850500226020813,10.582950592041016,-1.12090003490448,-1.0922999382019043,-0.6467999815940857
2.2510499954223633,0.8830500245094299,10.66200065612793,-0.35791251063346863,0.5966125130653381,-0.369049996137619
1.3980001211166382,-0.5820000171661377,12.607950210571289,0.430649995803833,1.203262448310852,-0.2529999911785126
1.3819500207901,-1.603950023651123,14.383050918579102,1.5299625396728516,-1.4423749446868896,-0.3531000018119812
1.068000078201294,-0.21300001442432404,11.988000869750977,2.3739373683929443,-2.115987539291382,-1.0938124656677246
1.4050500392913818,1.2439500093460083,9.244050025939941,2.5016748905181885,-0.045099999755620956,-1.8642250299453735
0.4330500066280365,0.7770000100135803,6.523950099945068,1.120212435722351,0.23801249265670776,-1.786537528038025
-2.908050060272217,2.0940001010894775,7.381950378417969,-0.17270000278949738,0.31033748388290405,-0.8766999840736389
-2.5489501953125,1.9620001316070557,8.032950401306152,-0.46639999747276306,0.5018749833106995,-0.04441250115633011
-1.2850500345230103,1.5910500288009644,7.723950386047363,-0.32491248846054077,-0.4218499958515167,0.14396250247955322
-2.278050184249878,2.389050006866455,8.545050621032715,-0.48454999923706055,-1.6020125150680542,0.06091250106692314
-2.0250000953674316,1.998000144958496,10.947000503540039,-1.0773124694824219,-1.5701124668121338,0.25891250371932983
0.7090500593185425,0.06105000153183937,11.944950103759766,-1.548799991607666,-0.15152500569820404,0.43546250462532043
-0.07605000585317612,-3.0739500522613525,12.541050910949707,-1.658387541770935,0.5328124761581421,0.7473124861717224
-1.3230000734329224,-2.133000135421753,13.498950958251953,-1.3285249471664429,0.9744625091552734,1.0719499588012695
-1.120050072669983,-0.22005000710487366,13.549050331115723,-0.5909749865531921,0.7445625066757202,1.3773374557495117
-0.853950023651123,0.4759500324726105,12.211050987243652,0.07204999774694443,0.40933749079704285,1.0762125253677368
-1.231950044631958,-0.7710000276565552,9.484050750732422,0.5615500211715698,-0.09515000134706497,0.6345624923706055
-1.2420001029968262,-0.5749500393867493,7.651950359344482,0.4604874849319458,-0.2994749844074249,0.4599374830722809
-1.117050051689148,-0.30900001525878906,8.188050270080566,0.008249999955296516,-0.3004375100135803,0.7026249766349792
-0.6169500350952148,0.018000001087784767,9.187050819396973,-0.07163749635219574,-0.46117499470710754,0.8238999843597412
-0.6049500107765198,-0.8860500454902649,9.793050765991211,0.0411125011742115,-0.6282374858856201,0.8016250133514404
0.7519500255584717,-0.1770000010728836,9.160950660705566,0.12306249886751175,-0.19511249661445618,0.8888000249862671
0.661050021648407,0.5209500193595886,8.81100082397461,0.010312499478459358,-0.15674999356269836,0.7367249727249146
-0.1469999998807907,0.5620500445365906,8.79900074005127,-0.03863750025629997,0.0826374962925911,0.619575023651123
0.040950000286102295,0.6810000538825989,8.967000007629395,0.09652499854564667,0.18479999899864197,0.647350013256073
0.42900002002716064,0.7770000100135803,8.518950462341309,0.2965874969959259,0.1592250019311905,0.6440500020980835
0.559950053691864,1.311000108718872,7.825050354003906,0.3188624978065491,-0.015262499451637268,0.5941374897956848
0.3060000240802765,1.609950065612793,7.456050395965576,0.16458749771118164,-0.2611125111579895,0.5291000008583069
0.0019500000635161996,1.8259501457214355,8.119050025939941,0.11027500033378601,-0.7048249840736389,0.47382500767707825
0.1579500138759613,1.7400001287460327,9.25200080871582,0.24969999492168427,-0.6122875213623047,0.40892499685287476
1.1209501028060913,1.5630000829696655,9.892950057983398,0.34443750977516174,-0.1036750003695488,0.28971248865127563
1.0699501037597656,1.5739500522613525,9.77400016784668,0.2784374952316284,0.49334999918937683,0.15674999356269836
0.4330500066280365,1.5889500379562378,9.136950492858887,0.22632500529289246,0.38596248626708984,0.09171249717473984
-0.27000001072883606,1.612950086593628,9.067049980163574,0.1742125004529953,0.2433750033378601,0.1321374922990799
-0.23400001227855682,1.5769500732421875,10.35105037689209,0.08689999580383301,0.24117499589920044,0.16087499260902405
0.031050002202391624,1.194000005722046,11.293950080871582,0.12209999561309814,0.25189998745918274,0.1588124930858612
0.34995001554489136,0.7270500063896179,11.446950912475586,0.23485000431537628,0.08043749630451202,0.1311749964952469
0.25095000863075256,0.8320500254631042,11.133000373840332,0.31363749504089355,-0.08868750184774399,0.12044999748468399
0.13395000994205475,1.426050066947937,10.180950164794922,0.2699125111103058,-0.05252499878406525,0.10243749618530273
0.6390000581741333,1.0639500617980957,9.880950927734375,0.09858749806880951,-0.059950001537799835,0.035337500274181366
1.1130000352859497,1.1100000143051147,10.284000396728516,-0.10573749989271164,-0.10793749988079071,-0.13378749787807465
1.3960500955581665,0.6739500164985657,10.422000885009766,-0.2887499928474426,-0.18878750503063202,-0.32752498984336853
1.5319501161575317,-0.19200000166893005,11.325000762939453,-0.4908750057220459,-0.2952125072479248,-0.392425000667572
0.984000027179718,-0.38805001974105835,12.48900032043457,-0.35791251063346863,-0.12594999372959137,-0.32436248660087585
0.7950000166893005,0.06795000284910202,12.646950721740723,0.1284250020980835,0.16142499446868896,-0.15729999542236328
0.9739500284194946,0.4129500091075897,10.975050926208496,0.6477624773979187,0.49018749594688416,0.05238749831914902
0.8329500555992126,0.5070000290870667,8.410950660705566,0.9255124926567078,0.6093999743461609,0.1588124930858612
1.009950041770935,0.8179500102996826,7.183050155639648,0.7519875168800354,0.062424998730421066,0.027912499383091927
1.4770500659942627,0.7770000100135803,8.071050643920898,0.2167000025510788,-0.48358750343322754,-0.1391499936580658
1.8649500608444214,0.7270500063896179,8.527950286865234,-0.10573749989271164,-0.1685750037431717,-0.1891999989748001
1.9390500783920288,0.7720500230789185,9.010050773620605,-0.317487508058548,-0.07590000331401825,-0.18177500367164612
1.5970500707626343,0.8509500622749329,9.904950141906738,-0.41964998841285706,0.18369999527931213,-0.20295000076293945
1.2450000047683716,0.43995001912117004,10.153950691223145,-0.2110625058412552,0.5636125206947327,-0.27431249618530273
0.7330500483512878,0.6100500226020813,9.096000671386719,0.24873749911785126,0.5817624926567078,-0.3232625126838684
0.49605002999305725,1.1149500608444214,7.698000431060791,0.550962507724762,0.24227499961853027,-0.3221625089645386
0.5670000314712524,1.2540000677108765,7.591950416564941,0.5148000121116638,-0.4016374945640564,-0.39668750762939453
0.5869500041007996,1.88100004196167,8.301000595092773,0.17311249673366547,-0.7070249915122986,-0.46268749237060547
1.0489500761032104,1.6770000457763672,7.870050430297852,-0.12264999747276306,-0.17489999532699585,-0.5307499766349792
0.4050000309944153,1.858950138092041,7.849050521850586,-0.3684999942779541,0.008112499490380287,-0.5275874733924866
0.1290000081062317,1.9579501152038574,8.586000442504883,-0.46213749051094055,-0.2961750030517578,-0.4254249930381775
0.18900001049041748,1.6249500513076782,9.265950202941895,-0.2727999985218048,-0.6740249991416931,-0.3349500000476837
0.6820500493049622,1.5169501304626465,9.57705020904541,-0.0471624992787838,-0.8889374732971191,-0.2956250011920929
1.0609500408172607,1.6249500513076782,9.927000045776367,0.09968750178813934,-0.7101874947547913,-0.23278750479221344
1.26705002784729,2.058000087738037,10.14900016784668,0.22632500529289246,-0.5112249851226807,-0.19882500171661377
1.2469500303268433,2.3650500774383545,9.64905071258545,0.25616249442100525,-0.5240125060081482,-0.18273749947547913
1.2910500764846802,2.496000051498413,8.72700023651123,0.18053749203681946,-0.7932375073432922,-0.1434125006198883
2.0179500579833984,2.5230000019073486,9.867000579833984,0.06778749823570251,-0.8666625022888184,-0.08703749626874924
2.7649500370025635,2.515050172805786,11.494950294494629,-0.0471624992787838,-0.22384999692440033,-0.07741250097751617
1.6900501251220703,2.341050148010254,11.574000358581543,-0.10243749618530273,0.2763749957084656,-0.01251249946653843
0.19200000166893005,2.140050172805786,11.560050964355469,0.018837500363588333,0.42102500796318054,0.10449999570846558
-0.27900001406669617,1.8469500541687012,10.879950523376465,0.20295000076293945,0.5626500248908997,0.24186250567436218
-0.33195000886917114,1.990950107574463,10.092000007629395,0.16885000467300415,0.4124999940395355,0.3429250121116638
0.3520500063896179,1.9960501194000244,9.472050666809082,-0.14822499454021454,0.12416250258684158,0.34072500467300415
0.25905001163482666,0.5659500360488892,10.735950469970703,-0.5388625264167786,-0.2153249979019165,0.25244998931884766
0.016950000077486038,-0.49605002999305725,13.132950782775879,-0.5036625266075134,-0.18658749759197235,0.2652375102043152
0.32295000553131104,0.4900500178337097,13.3410005569458,0.22852499783039093,0.2975499927997589,0.2917749881744385
0.5389500260353088,1.6819500923156738,11.584050178527832,0.7860875129699707,0.5391374826431274,0.3876124918460846
0.43095001578330994,1.636950135231018,9.180000305175781,0.6807624697685242,0.6870874762535095,0.4067249894142151
-0.17100000381469727,0.7219500541687012,7.876950263977051,0.19552500545978546,0.6509249806404114,0.32161250710487366
-0.612000048160553,0.7800000309944153,8.647950172424316,-0.1919499933719635,0.170912504196167,0.24818749725818634
-0.26205000281333923,1.0360500812530518,9.715950012207031,-0.31212499737739563,-0.3078624904155731,0.2694999873638153
0.48600003123283386,0.8899500370025635,10.063050270080566,-0.19511249661445618,-0.3909125030040741,0.296037495136261
0.5410500168800354,0.8490000367164612,9.697050094604492,0.03478749841451645,-0.16637499630451202,0.28971248865127563
1.0339500904083252,1.01895010471344,8.538000106811523,0.18906250596046448,0.2326499968767166,0.24392500519752502
0.5580000281333923,1.2420001029968262,8.14995002746582,0.1551000028848648,0.3891249895095825,0.13323749601840973
-0.21705001592636108,1.5120000839233398,8.095050811767578,0.07411249727010727,0.3008500039577484,0.08428750187158585
-1.0330500602722168,1.579050064086914,8.308050155639648,0.07837499678134918,0.11453749984502792,0.2120250016450882
-0.21900001168251038,1.864050030708313,8.52405071258545,0.19552500545978546,0.13048750162124634,0.38128748536109924
0.8280000686645508,2.2380001544952393,8.253000259399414,0.3082749843597412,0.24433749914169312,0.3525499999523163
0.4330500066280365,2.3310000896453857,7.723950386047363,0.30621248483657837,0.05816249921917915,0.1779250055551529
-0.5500500202178955,2.2860000133514404,7.353000164031982,0.1093124970793724,-0.30153748393058777,0.14822499454021454
-0.04200000315904617,2.3449501991271973,9.076950073242188,-0.021587500348687172,-0.2994749844074249,0.2461249977350235
0.20400001108646393,2.805000066757202,9.108000755310059,-0.0002749999985098839,0.03148749843239784,0.25244998931884766
0.4600500166416168,2.5249500274658203,9.393000602722168,0.03904999792575836,0.2773374915122986,0.26413750648498535
0.39705002307891846,2.707050085067749,10.606950759887695,0.13695000112056732,0.5795624852180481,0.234437495470047
0.2370000183582306,2.4840002059936523,10.59000015258789,0.3614875078201294,0.645562469959259,0.11412499845027924
0.21105000376701355,2.307000160217285,10.165950775146484,0.39448750019073486,0.18796250224113464,-0.007149999961256981
0.14400000870227814,2.1850500106811523,10.729050636291504,0.09858749806880951,-0.4142875075340271,-0.06792499870061874
0.40905001759529114,2.095950126647949,11.338950157165527,-0.11948750168085098,-0.7378249764442444,-0.12636250257492065
1.1680500507354736,2.2829999923706055,11.133000373840332,0.0411125011742115,-0.8347625136375427,-0.22536249458789825
2.2699501514434814,1.749000072479248,10.46505069732666,0.062424998730421066,-0.8857749700546265,-0.2679874897003174
2.230950117111206,1.503000020980835,9.706050872802734,-0.29727500677108765,-0.785812497138977,-0.2498375028371811
2.5189502239227295,0.8869500160217285,10.915950775146484,-0.7016624808311462,-0.5207124948501587,-0.2583625018596649
2.9670002460479736,0.5809500217437744,12.241950988769531,-0.684612512588501,-0.15578749775886536,-0.30841249227523804
2.5690500736236572,0.6960000395774841,11.95995044708252,-0.3642374873161316,0.11247500032186508,-0.3371500074863434
1.801050066947937,0.7080000042915344,10.3410005569458,0.07204999774694443,0.12306249886751175,-0.3115749955177307
1.8990000486373901,0.2670000195503235,8.409000396728516,0.29452499747276306,0.09652499854564667,-0.2732124924659729
1.912950038909912,0.6169500350952148,7.537050247192383,0.2806375026702881,0.4497624933719635,-0.4690124988555908
1.2190500497817993,1.3729500770568848,8.74905014038086,-0.15358750522136688,0.023099999874830246,-0.46584999561309814
1.9470001459121704,1.3489500284194946,9.666000366210938,-0.3334375023841858,-0.3057999908924103,-0.39352500438690186
2.902050256729126,0.6169500350952148,9.199050903320312,-0.18768750131130219,-0.08332499861717224,-0.414837509393692
2.026050090789795,0.6240000128746033,8.907000541687012,-0.05678749829530716,0.11453749984502792,-0.5648499727249146
1.264050006866455,0.7459500432014465,8.866050720214844,-0.1311749964952469,0.08057499676942825,-0.5702124834060669
1.0530000925064087,0.7510500550270081,8.365950584411621,-0.14506250619888306,-0.15152500569820404,-0.5435374975204468
1.4560500383377075,0.6859500408172607,8.14995002746582,-0.05458749830722809,0.037950001657009125,-0.5031124949455261
1.7070001363754272,1.8379501104354858,8.683950424194336,-0.14932499825954437,0.5296499729156494,-0.453062504529953
1.3140000104904175,1.8570001125335693,8.629050254821777,-0.1769624948501587,0.7425000071525574,-0.32862499356269836
1.068000078201294,1.8520500659942627,8.602950096130371,-0.0812624990940094,0.5498625040054321,-0.2913624942302704
0.40905001759529114,1.665000081062317,9.144000053405762,-0.06847500056028366,0.43697500228881836,-0.31790000200271606
0.2350500077009201,2.1250500679016113,9.64905071258545,0.01347499992698431,0.38376250863075256,-0.2806375026702881
0.814050018787384,2.605950117111206,9.016950607299805,0.17847499251365662,0.21353749930858612,-0.2572624981403351
1.1490000486373901,2.48895001411438,8.988000869750977,0.28600001335144043,0.04331250116229057,-0.32010000944137573
0.51705002784729,2.2980000972747803,8.641050338745117,0.2997500002384186,-0.07699999958276749,-0.2913624942302704
0.559950053691864,2.6610000133514404,8.79900074005127,0.19236250221729279,-0.19511249661445618,-0.26468750834465027
0.8400000333786011,3.4230000972747803,9.343050003051758,0.016637500375509262,0.12099999934434891,-0.2679874897003174
0.5820000171661377,2.745000123977661,9.400050163269043,-0.15991249680519104,0.14217500388622284,-0.17957499623298645
0.9600000381469727,2.6020500659942627,10.908000946044922,-0.09611249715089798,0.34127500653266907,0.027912499383091927
0.9480000734329224,2.620950222015381,12.043050765991211,0.08910000324249268,0.5732374787330627,0.10986249893903732
-0.33195000886917114,2.26200008392334,12.919950485229492,0.28696250915527344,0.783887505531311,0.07906249910593033
-1.4689500331878662,1.8930001258850098,12.52695083618164,0.6019750237464905,0.7158250212669373,0.10766249895095825
-0.781950056552887,2.4559500217437744,10.243050575256348,0.9010375142097473,0.682824969291687,0.14492499828338623
-0.5809500217437744,2.9029500484466553,8.683950424194336,0.7851250171661377,0.5242875218391418,0.031075000762939453
-1.8310500383377075,2.4630000591278076,9.112950325012207,0.2572624981403351,0.24763749539852142,-0.11687500029802322
-1.858950138092041,1.1650500297546387,10.89900016784668,-0.3057999908924103,0.05609999969601631,-0.03918749839067459
-1.665000081062317,1.0549499988555908,12.436050415039062,-0.5335000157356262,-0.13227500021457672,0.09927500039339066
-1.689000129699707,1.0600500106811523,12.478950500488281,-0.3312374949455261,-0.303600013256073,0.22261250019073486
-1.6849501132965088,0.8730000257492065,11.19105052947998,0.15606249868869781,-0.17806249856948853,0.43230000138282776
-1.6459500789642334,1.0999500751495361,9.2989501953125,0.5552250146865845,0.08057499676942825,0.638824999332428
-1.287000060081482,1.665000081062317,7.815000534057617,0.5999125242233276,-0.015262499451637268,0.7430499792098999
-0.8940000534057617,2.061000108718872,7.839000225067139,0.370012491941452,-0.3068999946117401,0.6835125088691711
-0.527999997138977,2.001000165939331,8.74905014038086,0.10078749805688858,-0.4877125024795532,0.5409250259399414
-0.44700002670288086,1.4310001134872437,9.373950004577637,-0.1237500011920929,-0.4409624934196472,0.4450874924659729
-0.5659500360488892,1.3090500831604004,10.243050575256348,-0.1929125040769577,-0.23017500340938568,0.44398748874664307
-0.4230000078678131,1.6630500555038452,10.555950164794922,0.009212499484419823,-0.09831249713897705,0.46736249327659607
-0.37005001306533813,1.7950501441955566,9.784950256347656,0.3731749951839447,-0.1120624989271164,0.49939998984336853
-0.49500003457069397,1.9930500984191895,8.338950157165527,0.6573874950408936,-0.15578749775886536,0.6132500171661377
-0.2770500183105469,2.419950008392334,7.249950408935547,0.7095000147819519,-0.16637499630451202,0.7664250135421753
-0.016050001606345177,2.7090001106262207,6.50100040435791,0.5807999968528748,-0.1344749927520752,0.8196374773979187
-0.006000000052154064,3.0210001468658447,6.2989501953125,0.2732124924659729,-0.0471624992787838,0.7834749817848206
0.012000000104308128,3.2029502391815186,7.195050239562988,-0.05348749831318855,-0.05678749829530716,0.7217375040054321
0.10500000417232513,2.92995023727417,8.497050285339355,-0.15468749403953552,-0.25891250371932983,0.6291999816894531
0.453000009059906,2.719050168991089,9.321000099182129,0.01251249946653843,-0.4622749984264374,0.5291000008583069
0.9460500478744507,2.9629502296447754,9.31605052947998,0.2572624981403351,-0.4068624973297119,0.47808748483657837
1.6279500722885132,3.81600022315979,7.954050540924072,0.2529999911785126,-0.7357624769210815,0.44398748874664307
2.710050106048584,4.672950267791748,10.561050415039062,0.20611250400543213,0.04647500067949295,0.36313748359680176
2.293950080871582,4.6870503425598145,9.201000213623047,0.1050499975681305,0.5647125244140625,0.1821874976158142
1.489050030708313,3.96405029296875,7.963050365447998,-0.22907499969005585,0.38596248626708984,0.002337499987334013
0.5890500545501709,3.2029502391815186,9.51300048828125,-0.5101249814033508,-0.09088750183582306,-0.01251249946653843
1.1779500246047974,2.386050224304199,11.610000610351562,-0.5398250222206116,-0.20143750309944153,0.08855000138282776
1.7239500284194946,2.6230502128601074,11.854050636291504,-0.4558124840259552,0.12526249885559082,0.1289750039577484
2.0929501056671143,3.1909501552581787,11.51400089263916,-0.21848750114440918,0.5242875218391418,-0.0147124994546175
1.7910001277923584,2.4750001430511475,10.699950218200684,0.116737499833107,0.4614500105381012,-0.19978749752044678
1.9350000619888306,2.187000036239624,10.0489501953125,0.25189998745918274,0.0826374962925911,-0.3488374948501587
1.4719500541687012,1.6800000667572021,10.758000373840332,-0.015262499451637268,-0.25575000047683716,-0.5062749981880188
0.856950044631958,1.002000093460083,11.518950462341309,-0.46639999747276306,-0.21326249837875366,-0.4977499842643738
0.8070000410079956,0.7840500473976135,11.100000381469727,-0.7187125086784363,0.12416250258684158,-0.39352500438690186
0.9000000357627869,1.0290000438690186,10.690950393676758,-0.6536750197410583,0.44769999384880066,-0.3147374987602234
1.1299500465393066,1.2250500917434692,9.93600082397461,-0.318450003862381,0.6498249769210815,-0.3030500113964081
1.4560500383377075,1.6180500984191895,8.962050437927246,-0.03231250122189522,0.4349125027656555,-0.3636874854564667
1.4940000772476196,1.9069501161575317,8.569050788879395,-0.028049999848008156,-0.002474999986588955,-0.443574994802475
1.7170500755310059,1.579050064086914,8.983050346374512,-0.2153249979019165,-0.3536500036716461,-0.5020124912261963
1.7500500679016113,1.0210500955581665,9.345000267028809,-0.39723750948905945,-0.3951750099658966,-0.559487521648407
1.8220500946044922,0.9739500284194946,9.62700080871582,-0.46639999747276306,-0.20047499239444733,-0.6032124757766724
2.064000129699707,1.218000054359436,9.841050148010254,-0.3675374984741211,0.09542500227689743,-0.6649500131607056
1.6330500841140747,1.64205002784729,9.390000343322754,-0.16101250052452087,0.16664999723434448,-0.7532249689102173
1.374000072479248,1.5979501008987427,8.679000854492188,0.05926249921321869,0.09968750178813934,-0.75638747215271
0.9670500755310059,1.609950065612793,7.8100504875183105,0.19016249477863312,0.06778749823570251,-0.6936874985694885
0.8020500540733337,1.7970000505447388,7.819950580596924,0.20721249282360077,0.13378749787807465,-0.5776374936103821
1.225950002670288,2.1919500827789307,7.906050205230713,0.23278750479221344,0.21353749930858612,-0.5563250184059143
1.0200001001358032,2.647050142288208,7.723950386047363,0.17531250417232513,0.05706249922513962,-0.5956500172615051
0.5869500041007996,2.9220001697540283,7.882050514221191,0.02199999988079071,-0.2727999985218048,-0.6137999892234802
0.5869500041007996,2.6110501289367676,8.70300006866455,-0.06627500057220459,-0.4589749872684479,-0.6148999929428101
0.5359500050544739,2.3140501976013184,9.253950119018555,-0.002474999986588955,-0.3260124921798706,-0.559487521648407
0.6460500359535217,2.5510501861572266,9.466950416564941,0.12526249885559082,-0.08662500232458115,-0.44673749804496765
0.7350000143051147,2.7520501613616943,9.795000076293945,0.2667500078678131,-0.0013749999925494194,-0.38926249742507935
0.5820000171661377,2.946000099182129,9.859950065612793,0.439175009727478,-0.26317501068115234,-0.36258751153945923
0.534000039100647,3.0210001468658447,9.982050895690918,0.5849249958992004,-0.49197500944137573,-0.36588749289512634
0.283050000667572,2.797950029373169,9.946050643920898,0.5647125244140625,-0.46543750166893005,-0.34347498416900635
0.6559500098228455,2.805000066757202,10.306950569152832,0.3572250008583069,-0.2536875009536743,-0.27541249990463257
0.43095001578330994,2.82705020904541,10.669050216674805,0.12099999934434891,-0.014162499457597733,-0.22756250202655792
0.05505000427365303,3.3919501304626465,10.248000144958496,0.035887498408555984,0.19538749754428864,-0.1508374959230423
-0.4729500114917755,3.103950262069702,9.868950843811035,0.10395000129938126,0.28380000591278076,-0.11261250078678131
-0.7990500330924988,3.145050048828125,9.87405014038086,0.10615000128746033,0.2124374955892563,-0.055137500166893005
-0.37005001306533813,2.7430500984191895,10.195050239562988,-0.07796250283718109,0.05816249921917915,-0.06998749822378159
0.24900001287460327,1.3609501123428345,11.290950775146484,-0.38981249928474426,-0.11948750168085098,-0.12856249511241913
-0.37995001673698425,1.0810500383377075,12.750000953674316,-0.5878124833106995,-0.0056374999694526196,-0.1083500012755394
-0.8560500144958496,1.194000005722046,12.706950187683105,-0.39201250672340393,0.31363749504089355,0.04496249929070473
-0.5089499950408936,1.5670500993728638,10.819950103759766,0.047575000673532486,0.5094375014305115,0.16417500376701355
-1.120050072669983,1.6609500646591187,9.438000679016113,0.37853750586509705,0.3913249969482422,0.27912500500679016
-0.9019500613212585,1.9410001039505005,8.622000694274902,0.45086249709129333,0.11769999563694,0.3546124994754791
-0.6769500374794006,2.4240000247955322,8.16195011138916,0.2784374952316284,-0.08758749812841415,0.34402498602867126
-0.35295000672340393,2.3359501361846924,8.326950073242188,-0.030112499371170998,-0.1919499933719635,0.34402498602867126
0.16995000839233398,1.7730001211166382,8.81100082397461,-0.2961750030517578,-0.2759625017642975,0.3258749842643738
0.012000000104308128,1.8019500970840454,9.223050117492676,-0.4281750023365021,-0.2503874897956848,0.2620750069618225
0.1870500147342682,1.711050033569336,9.57705020904541,-0.18658749759197235,-0.3004375100135803,0.22481249272823334
0.17505000531673431,1.665000081062317,9.967050552368164,0.12732499837875366,-0.15468749403953552,0.21738749742507935
0.5550000071525574,2.1540000438690186,9.349950790405273,0.17957499623298645,0.2934249937534332,0.24818749725818634
-0.06405000388622284,2.5200002193450928,8.593050003051758,0.05073750019073486,0.6477624773979187,0.3003000020980835
-0.44700002670288086,2.616000175476074,7.887000560760498,-0.006737499963492155,0.45512500405311584,0.341825008392334
-1.333050012588501,2.6299500465393066,7.414950370788574,0.06778749823570251,0.2667500078678131,0.4226749837398529
-0.7960500121116638,2.866950035095215,7.707000255584717,0.12732499837875366,0.2582249939441681,0.5696625113487244
0.0499500036239624,2.77905011177063,7.9830002784729,0.15399999916553497,0.32848748564720154,0.611050009727478
0.16305001080036163,2.9800500869750977,8.381999969482422,0.11783749610185623,0.5264874696731567,0.5131499767303467
-1.062000036239624,3.1740002632141113,9.706050872802734,0.15936249494552612,0.09748750180006027,0.22261250019073486
-0.9330000281333923,3.2719502449035645,9.586950302124023,0.00494999997317791,-0.06104999780654907,0.11728750169277191
-0.736050009727478,2.745000123977661,8.995050430297852,-0.028049999848008156,0.3018124997615814,0.09927500039339066
-0.7890000343322754,3.1500000953674316,8.896950721740723,0.02736249938607216,0.015537500381469727,0.07796250283718109
-0.14505000412464142,3.3700501918792725,9.844950675964355,-0.11742500215768814,-0.49623748660087585,0.1311749964952469
0.6679500341415405,2.9539501667022705,11.631000518798828,-0.18658749759197235,-0.7815499901771545,0.03959999978542328
0.9070500135421753,3.088050127029419,12.441000938415527,0.01251249946653843,-0.3792249858379364,-0.0966624990105629
0.4429500102996826,3.6379501819610596,10.659000396728516,0.15936249494552612,0.05706249922513962,-0.17008750140666962
-0.2460000067949295,2.91795015335083,8.560050010681152,0.12526249885559082,0.06132499873638153,-0.12430000305175781
0.5629500150680542,2.7360000610351562,8.785050392150879,-0.04496249929070473,-0.32065001130104065,-0.006187499966472387
1.8480000495910645,2.4940500259399414,10.236000061035156,-0.2876499891281128,-0.34732499718666077,-0.1891999989748001
2.014050006866455,1.3759500980377197,12.189000129699707,-0.5324000120162964,-0.11110000312328339,-0.4296875
1.1710500717163086,0.8149500489234924,13.498950958251953,-0.4345000088214874,0.36355000734329224,-0.49252501130104065
0.10305000841617584,1.171950101852417,12.556050300598145,0.05389999970793724,0.7541875243186951,-0.2765125036239624
0.6130500435829163,1.7830500602722168,9.856950759887695,0.607337474822998,0.7084000110626221,-0.038087498396635056
-0.28905001282691956,1.7329500913619995,7.846050262451172,0.8999375104904175,0.20295000076293945,-0.14135000109672546
0.32805001735687256,1.6870501041412354,7.165950298309326,0.3806000053882599,-0.08662500232458115,-0.2157374918460846
0.6990000605583191,1.4119501113891602,7.683000564575195,-0.15248750150203705,0.2124374955892563,-0.27541249990463257
0.5839500427246094,1.7970000505447388,8.91195011138916,-0.3482874929904938,0.18700000643730164,-0.2307250052690506
0.7350000143051147,1.7970000505447388,10.02495002746582,-0.2727999985218048,0.029424998909235,-0.12856249511241913
0.38100001215934753,1.7089500427246094,10.045950889587402,-0.1237500011920929,0.1751749962568283,-0.11893749982118607
0.45705002546310425,1.977000117301941,9.004950523376465,-0.04606249928474426,0.3529624938964844,-0.12430000305175781
0.2850000262260437,1.5910500288009644,8.358000755310059,-0.004537499975413084,0.5572875142097473,-0.02213750034570694
0.18405000865459442,1.8000000715255737,8.590950012207031,0.25616249442100525,0.36465001106262207,-0.005087499972432852
-0.1380000114440918,2.4409501552581787,8.442000389099121,0.5233250260353088,0.2815999984741211,-0.06888750195503235
-0.21705001592636108,3.0210001468658447,8.314949989318848,0.6254875063896179,0.0518375001847744,-0.1434125006198883
0.34005001187324524,3.2149500846862793,7.477050304412842,0.21463750302791595,-0.03863750025629997,-0.1732500046491623
0.19200000166893005,2.9610002040863037,7.456050395965576,-0.2227499932050705,-0.08236250281333923,-0.22756250202655792
-0.09495000541210175,3.205050230026245,7.437000274658203,-0.4111250042915344,-0.5665000081062317,-0.2722499966621399
0.364050030708313,3.205050230026245,8.422950744628906,-0.571862518787384,-1.020937442779541,-0.22852499783039093
0.9529500603675842,2.914950132369995,9.714000701904297,-0.6058250069618225,-1.0752500295639038,-0.17641249299049377
0.831000030040741,2.5489501953125,10.579950332641602,-0.4207499921321869,-0.8229374885559082,-0.11041250079870224
0.6150000095367432,2.8510501384735107,10.6399507522583,-0.05678749829530716,-0.6271374821662903,-0.12636250257492065
0.6060000061988831,3.3630001544952393,10.171050071716309,0.22948749363422394,-0.28338751196861267,-0.16898749768733978
0.5629500150680542,3.412950277328491,9.225000381469727,0.3583250045776367,0.014574999921023846,-0.15826250612735748
0.6109500527381897,3.097050189971924,9.271050453186035,0.3040125072002411,0.20721249282360077,-0.05719999969005585
0.11505000293254852,2.914950132369995,9.807000160217285,0.23801249265670776,0.21147499978542328,0.020487500354647636
-0.4440000355243683,3.186000108718872,10.449000358581543,0.22426250576972961,0.21353749930858612,0.10766249895095825
-0.7270500063896179,3.3610501289367676,11.113950729370117,0.346637487411499,0.22206249833106995,0.0672374963760376
-0.5430000424385071,3.1429500579833984,10.34595012664795,0.28380000591278076,0.037950001657009125,0.050324998795986176
0.11295000463724136,2.8939502239227295,9.679950714111328,0.037950001657009125,0.3423750102519989,0.11302500218153
-0.5539500117301941,1.858950138092041,9.991050720214844,-0.3004375100135803,0.34869998693466187,0.025849999859929085
-0.9450000524520874,1.4329500198364258,11.260050773620605,-0.6356624960899353,-0.13557499647140503,0.02681249938905239
-0.6739500164985657,1.5310500860214233,12.417000770568848,-0.6697624921798706,-0.12058749794960022,0.16513749957084656
-0.44895002245903015,1.696950078010559,11.872950553894043,-0.2737624943256378,0.346637487411499,0.2971374988555908
-0.8989500403404236,1.752000093460083,9.82395076751709,0.18053749203681946,0.8084999918937683,0.40039998292922974
-1.5940500497817993,1.812000036239624,7.923000335693359,0.3540624976158142,0.8276125192642212,0.4345000088214874
-2.2759501934051514,2.1160500049591064,7.846050262451172,0.22316250205039978,0.18796250224113464,0.3993000090122223
-2.070000171661377,2.3809502124786377,8.859000205993652,-0.0929500013589859,-0.8325625061988831,0.3119874894618988
-0.8749500513076782,2.032050132751465,9.571950912475586,-0.5313000082969666,-0.869825005531311,0.29081249237060547
-1.0690500736236572,1.6489500999450684,9.493050575256348,-0.554812490940094,-0.7283374667167664,0.2609750032424927
-0.6649500131607056,1.689000129699707,9.619950294494629,-0.4600749909877777,-0.7580375075340271,0.296037495136261
-0.09195000678300858,1.527000069618225,9.131999969482422,-0.2844874858856201,-0.8996624946594238,0.29081249237060547
0.06495000422000885,1.8709501028060913,9.400050163269043,0.09226249903440475,-1.011312484741211,0.29823750257492065
0.4639500081539154,2.697000026702881,8.208000183105469,0.4147000014781952,-0.7867749929428101,0.34072500467300415
0.48600003123283386,2.2380001544952393,7.276050567626953,0.029424998909235,0.11247500032186508,0.3961375057697296
-0.14505000412464142,2.5729501247406006,7.510950565338135,-0.3716624975204468,0.6084374785423279,0.46956250071525574
-0.3460500240325928,2.152050018310547,8.718000411987305,-0.40369999408721924,0.4977499842643738,0.5908374786376953
0.3949500322341919,2.451000213623047,9.53895092010498,-0.14822499454021454,0.34869998693466187,0.6078875064849854
0.5100000500679016,2.8000500202178955,10.492050170898438,0.21037499606609344,0.408237487077713,0.49197500944137573
0.286950021982193,2.91795015335083,10.486950874328613,0.33701249957084656,0.2656500041484833,0.3205125033855438
-0.18300001323223114,2.5129501819610596,9.370950698852539,0.19442500174045563,0.5541250109672546,0.23539999127388
-0.8080500364303589,2.5729501247406006,8.797050476074219,0.10188750177621841,0.34869998693466187,0.2652375102043152
-0.0880500078201294,3.1020002365112305,9.361950874328613,0.02419999986886978,-0.15358750522136688,0.28008750081062317
0.4720500111579895,2.9800500869750977,10.509000778198242,0.047575000673532486,-0.6080250144004822,0.07479999959468842
1.2859500646591187,2.688000202178955,11.920950889587402,0.33274999260902405,-0.8186749815940857,-0.08057499676942825
1.2829500436782837,3.076050043106079,11.224050521850586,0.34017500281333923,-0.1652749925851822,-0.11783749610185623
0.26100000739097595,2.700000047683716,9.606000900268555,0.3242250084877014,0.42748749256134033,0.021587500348687172
0.3160500228404999,2.0629501342773438,8.505000114440918,0.22948749363422394,0.589187502861023,0.32161250710487366
1.2930001020431519,2.142000198364258,9.34695053100586,0.06668750196695328,0.40933749079704285,0.3610749840736389
1.7070001363754272,1.7710500955581665,11.193000793457031,0.062424998730421066,0.16775000095367432,0.089649997651577
1.2090001106262207,1.3039500713348389,12.559950828552246,0.10615000128746033,-0.23663750290870667,-0.30524998903274536
1.3410000801086426,1.3470001220703125,12.955950736999512,-0.09501250088214874,0.17737500369548798,-0.35420000553131104
1.2739500999450684,1.540950059890747,11.622000694274902,0.34443750977516174,0.56045001745224,-0.2083124965429306
1.1830500364303589,2.0650501251220703,8.93595027923584,0.9084625244140625,0.38376250863075256,-0.03382499888539314
1.009950041770935,2.2230000495910645,6.826050281524658,0.9798250198364258,0.09858749806880951,0.029975000768899918
0.42600002884864807,2.3929500579833984,7.212000370025635,0.5031124949455261,-0.35475000739097595,-0.10298749804496765
1.420050024986267,2.419950008392334,8.422950744628906,-0.06091250106692314,-0.7654625177383423,-0.34031251072883606
3.226950168609619,2.5489501953125,8.335050582885742,-0.5770875215530396,-0.6868125200271606,-0.5850625038146973
2.763000249862671,2.2069501876831055,8.866050720214844,-1.0432125329971313,-0.6271374821662903,-0.6744375228881836
2.2510499954223633,1.456950068473816,9.484050750732422,-1.2358499765396118,-0.5568749904632568,-0.7148625254631042
2.0160000324249268,0.9949500560760498,9.661050796508789,-1.0506374835968018,-0.5644375085830688,-0.7671124935150146
1.8439500331878662,1.1149500608444214,9.33495044708252,-0.6590374708175659,-0.49623748660087585,-0.7031750082969666
1.3120501041412354,1.5670500993728638,8.833050727844238,-0.3057999908924103,-0.27059999108314514,-0.5733749866485596
1.051050066947937,1.9840500354766846,8.290950775146484,-0.033275000751018524,0.008112499490380287,-0.46158748865127563
1.0579500198364258,2.1319501399993896,7.783950328826904,0.10615000128746033,0.24763749539852142,-0.41690000891685486
1.3240500688552856,2.556000232696533,7.722000598907471,0.09652499854564667,0.1667875051498413,-0.43188750743865967
1.5010501146316528,2.7120001316070557,8.18595027923584,0.006049999967217445,0.17627499997615814,-0.46584999561309814
0.8689500689506531,2.7520501613616943,9.199050903320312,-0.07590000331401825,0.33274999260902405,-0.5286874771118164
0.453000009059906,2.737950086593628,9.838050842285156,0.03368749842047691,0.19126249849796295,-0.5935875177383423
0.7249500155448914,3.1500000953674316,9.782999992370605,0.1966249942779541,-0.18232500553131104,-0.5935875177383423
1.128000020980835,3.3390002250671387,9.131999969482422,0.21779999136924744,-0.3792249858379364,-0.559487521648407
1.2739500999450684,3.265050172805786,8.641050338745117,0.014574999921023846,-0.17270000278949738,-0.4402749836444855
1.1560500860214233,3.00600004196167,9.643950462341309,-0.17806249856948853,0.05073750019073486,-0.3338499963283539
0.6030000448226929,2.9220001697540283,10.521000862121582,-0.19607499241828918,0.09006249904632568,-0.2870999872684479
0.4740000367164612,2.647050142288208,10.722000122070312,-0.089649997651577,0.07631249725818634,-0.19030000269412994
0.4240500330924988,2.281050205230713,10.63800048828125,-0.014162499457597733,0.1816374957561493,-0.07218749821186066
0.0,1.864050030708313,11.23905086517334,0.09542500227689743,0.11879999935626984,-0.023237500339746475
-0.1380000114440918,2.593950033187866,10.996950149536133,0.3540624976158142,0.18796250224113464,-0.07961250096559525
-0.28200000524520874,3.2719502449035645,9.8860502243042,0.513700008392334,0.644599974155426,-0.10724999755620956
-1.1080501079559326,3.1549501419067383,9.168000221252441,0.383899986743927,0.858412504196167,0.050324998795986176
-1.4860501289367676,2.7090001106262207,9.388050079345703,0.14657500386238098,0.8084999918937683,0.17476250231266022
-1.467000126838684,1.555050015449524,10.846050262451172,0.01993750035762787,0.22852499783039093,0.29081249237060547
-0.8470500111579895,1.3690500259399414,12.283050537109375,0.1859000027179718,-0.14190000295639038,0.3162499964237213
-1.0980000495910645,1.9930500984191895,12.070050239562988,0.30621248483657837,-0.3590124845504761,0.3482874929904938
-0.7960500121116638,1.8019500970840454,10.867950439453125,0.3338499963283539,0.06558749824762344,0.5068249702453613
-1.1700000762939453,1.8190500736236572,9.735000610351562,0.38279998302459717,0.5689749717712402,0.5919374823570251
-1.218000054359436,2.6730000972747803,8.860950469970703,0.30195000767707825,0.5637499690055847,0.6557375192642212
-1.2630000114440918,2.8410000801086426,8.301000595092773,0.0859375,0.2741749882698059,0.7046874761581421
-0.9300000667572021,2.470050096511841,8.21505069732666,0.02419999986886978,-0.1504250019788742,0.6930000185966492
-0.5590500235557556,2.1319501399993896,8.551950454711914,-0.04179999977350235,-0.3866499960422516,0.6206749677658081
-0.29805001616477966,1.8690000772476196,9.096000671386719,-0.055687498301267624,-0.3345375061035156,0.5493124723434448
-0.1789500117301941,1.9069501161575317,9.562950134277344,0.0518375001847744,-0.32711249589920044,0.4632374942302704
0.27300000190734863,2.3910000324249268,8.992950439453125,0.062424998730421066,-0.3983374834060669,0.44288748502731323
0.14805001020431519,2.3239500522613525,7.686000347137451,0.014574999921023846,-0.20886249840259552,0.4493499994277954
0.15105000138282776,2.4100501537323,7.090050220489502,-0.042899999767541885,-0.18768750131130219,0.5164499878883362
0.2179500162601471,2.760000228881836,7.6110005378723145,-0.1428624987602234,-0.21216249465942383,0.6451500058174133
0.6150000095367432,2.8750500679016113,8.517000198364258,-0.16307500004768372,-0.17916250228881836,0.7122499942779541
0.6559500098228455,2.998950242996216,8.66295051574707,-0.05664999783039093,-0.1354375034570694,0.6579374670982361
0.7710000276565552,2.989950180053711,9.034049987792969,0.03272499889135361,-0.04936249926686287,0.5695250034332275
0.27300000190734863,2.7960002422332764,9.285000801086426,0.28600001335144043,-0.11316250264644623,0.39393749833106995
0.7729500532150269,3.3130502700805664,9.201000213623047,0.26785001158714294,-0.29301249980926514,0.3876124918460846
1.0699501037597656,3.318000078201294,8.73900032043457,0.18067499995231628,0.05816249921917915,0.3546124994754791
0.6780000329017639,3.5209500789642334,8.68695068359375,0.1358499974012375,0.23375000059604645,0.3078624904155731
0.673050045967102,3.5400002002716064,9.139050483703613,0.09652499854564667,-0.02488750033080578,0.2578125
0.9190500378608704,3.115950107574463,10.236000061035156,0.01677500084042549,-0.20569999516010284,0.19717499613761902
1.221000075340271,2.785950183868408,11.51205062866211,0.03698749840259552,-0.2503874897956848,0.15661250054836273
1.5610500574111938,2.7210001945495605,11.481000900268555,0.20721249282360077,-0.20253749191761017,0.1280124932527542
1.6740000247955322,3.5470502376556396,10.092000007629395,0.3030500113964081,-0.06627500057220459,0.09391249716281891
1.5799500942230225,3.207000255584717,9.103050231933594,0.28696250915527344,0.02736249938607216,0.018287500366568565
2.0500500202178955,2.994000196456909,9.619950294494629,0.1625249981880188,-0.1237500011920929,-0.06998749822378159
2.2170000076293945,3.432000160217285,10.13700008392334,-0.010999999940395355,-0.10147500038146973,-0.29878750443458557
2.4570000171661377,2.4910500049591064,10.461000442504883,-0.1545500010251999,-0.08332499861717224,-0.35942500829696655
2.2579500675201416,2.1060001850128174,10.875000953674316,-0.26633748412132263,-0.03437500074505806,-0.3254624903202057
1.954050064086914,2.31000018119812,10.705050468444824,-0.2694999873638153,0.1592250019311905,-0.2924624979496002
2.2099502086639404,2.1660001277923584,10.057950019836426,-0.059950001537799835,0.37111249566078186,-0.30098751187324524
1.8169500827789307,2.3140501976013184,9.201000213623047,0.19868749380111694,0.27101248502731323,-0.38926249742507935
1.7790000438690186,2.5609500408172607,8.200050354003906,0.2540999948978424,0.07947500050067902,-0.45416250824928284
1.7239500284194946,2.518050193786621,7.915950298309326,-0.0056374999694526196,0.05609999969601631,-0.4339500069618225
2.2480502128601074,2.25,8.293950080871582,-0.2525874972343445,0.20721249282360077,-0.34031251072883606
1.585050106048584,1.735050082206726,8.605050086975098,-0.07686249911785126,0.3731749951839447,-0.4328500032424927
1.1850000619888306,1.9720500707626343,9.094050407409668,-0.2578125,-0.3727625012397766,-0.45526251196861267
1.0080000162124634,1.8430501222610474,8.694000244140625,-0.44302499294281006,-0.2579500079154968,-0.3955875039100647
0.970050036907196,1.6300500631332397,8.671950340270996,-0.45471251010894775,-0.08552499860525131,-0.24777500331401825
1.4269500970840454,1.9309500455856323,9.088950157165527,-0.19827499985694885,-0.2227499932050705,-0.2722499966621399
1.2880500555038452,2.6730000972747803,8.859000205993652,0.01347499992698431,-0.35791251063346863,-0.39778751134872437
1.1059499979019165,2.91795015335083,8.265000343322754,0.021037500351667404,-0.21312500536441803,-0.3722124993801117
1.2400500774383545,2.9800500869750977,8.076000213623047,0.01347499992698431,-0.018424998968839645,-0.3147374987602234
0.9720000624656677,3.265050172805786,7.678950309753418,-0.007699999958276749,0.03368749842047691,-0.32010000944137573
1.3120501041412354,3.487950086593628,7.765050411224365,-0.09184999763965607,0.08579999953508377,-0.31267499923706055
1.1440500020980835,3.5779502391815186,8.245950698852539,-0.14396250247955322,0.017737500369548798,-0.3306874930858612
1.3140000104904175,3.5400002002716064,8.822999954223633,-0.08332499861717224,-0.16417500376701355,-0.40741249918937683
1.3620001077651978,3.756000280380249,9.084000587463379,-0.011962499469518661,-0.3590124845504761,-0.47327500581741333
1.0890001058578491,3.95205020904541,9.337950706481934,0.03272499889135361,-0.46639999747276306,-0.41690000891685486
1.1680500507354736,3.586050271987915,9.109950065612793,0.3572250008583069,-0.6814500093460083,-0.32752498984336853
1.870050072669983,3.207000255584717,8.916000366210938,0.09226249903440475,-0.059950001537799835,-0.13378749787807465
1.5250500440597534,3.1909501552581787,9.928950309753418,-0.34622499346733093,0.4104374945163727,-0.04235000163316727
1.0800000429153442,2.797950029373169,11.392050743103027,-0.4174500107765198,0.5413374900817871,0.08318749815225601
0.48600003123283386,3.634050130844116,12.172950744628906,-0.16733749210834503,0.5392749905586243,0.18754999339580536
0.14100000262260437,3.5470502376556396,11.791950225830078,0.2125750035047531,0.5253875255584717,0.2003374993801117
0.13395000994205475,3.217050075531006,11.053950309753418,0.45938751101493835,0.30937498807907104,0.16417500376701355
-0.33195000886917114,2.5729501247406006,10.597050666809082,0.31679999828338623,0.08483749628067017,0.11618749797344208
-0.4900500178337097,1.4640001058578491,11.551950454711914,-0.08648750185966492,-0.1929125040769577,0.13323749601840973
-0.42795002460479736,1.2540000677108765,12.952950477600098,-0.32807499170303345,0.08910000324249268,0.20569999516010284
-0.42795002460479736,1.821000099182129,12.630001068115234,-0.2387000024318695,0.7530875205993652,0.2854500114917755
-0.89205002784729,2.01705002784729,10.606950759887695,0.07947500050067902,1.3969999551773071,0.4419249892234802
-1.290000081062317,2.4820501804351807,8.220000267028809,0.3614875078201294,1.444849967956543,0.5748875141143799
-1.960050106048584,2.6110501289367676,7.783950328826904,0.5159000158309937,0.6329125165939331,0.4716250002384186
-1.4209500551223755,3.1429500579833984,7.5319504737854,0.26688748598098755,-0.3451249897480011,0.28654998540878296
-0.9930000305175781,2.3209500312805176,7.255050182342529,-0.18548749387264252,-0.28984999656677246,0.21312500536441803
-0.76500004529953,2.0269501209259033,7.879950523376465,-0.5739250183105469,-0.38554999232292175,0.2046000063419342
-0.4420500099658966,2.197050094604492,9.559950828552246,-0.6931374669075012,-0.8260999917984009,0.25671249628067017
0.1680000126361847,2.0820000171661377,10.710000038146973,-0.36217498779296875,-0.8229374885559082,0.3119874894618988
0.6180000305175781,2.2450501918792725,9.79995059967041,-0.14190000295639038,0.0017874999903142452,0.28751251101493835
-0.043950002640485764,2.3170502185821533,8.14995002746582,-0.14932499825954437,0.4636499881744385,0.21312500536441803
-0.8490000367164612,2.0940001010894775,7.07295036315918,-0.1588124930858612,0.19126249849796295,0.3386625051498413
-0.4159500300884247,2.4100501537323,7.858050346374512,-0.08112499862909317,-0.028049999848008156,0.5046250224113464
0.226950004696846,2.8530001640319824,8.341950416564941,0.10395000129938126,0.06984999775886536,0.5014625191688538
0.226950004696846,3.1330502033233643,7.566000461578369,0.2381500005722046,0.24873749911785126,0.4599374830722809
0.3469500243663788,2.9820001125335693,7.678950309753418,0.18067499995231628,0.46254998445510864,0.4982999861240387
0.1960500031709671,3.2100000381469727,8.619000434875488,0.3392125070095062,0.3881624937057495,0.36313748359680176
-0.1279500126838684,3.52305006980896,9.438000679016113,0.2615250051021576,0.054999999701976776,0.14822499454021454
0.29205000400543213,3.1399500370025635,9.115050315856934,0.20611250400543213,0.17104999721050262,0.09075000137090683
0.010050000622868538,3.516000270843506,9.26400089263916,0.2626250088214874,0.10711249709129333,0.0193875003606081
0.2350500077009201,3.5809502601623535,10.288050651550293,0.2381500005722046,-0.1120624989271164,0.023649999871850014
0.24900001287460327,3.3630001544952393,11.212050437927246,0.009349999949336052,0.11879999935626984,0.020487500354647636
0.010050000622868538,2.946000099182129,12.148950576782227,-0.19827499985694885,0.6329125165939331,0.08002500236034393
-0.39900001883506775,3.265050172805786,11.964000701904297,-0.033275000751018524,0.7766000032424927,0.05871250107884407
-0.45900002121925354,3.853950262069702,10.36500072479248,0.3455374836921692,0.7158250212669373,0.03217500075697899
-0.1399500072002411,3.397050142288208,9.414000511169434,0.6584874987602234,0.27211248874664307,-0.043449997901916504
0.18405000865459442,3.576000213623047,9.249000549316406,0.6701750159263611,-0.4302375018596649,-0.3647874891757965
0.843000054359436,2.050950050354004,9.547950744628906,0.12416250258684158,-0.4398624897003174,-0.680899977684021
0.6199500560760498,1.7470500469207764,11.044950485229492,-0.4217124879360199,-0.4643374979496002,-0.7350749969482422
0.7249500155448914,2.0149500370025635,12.04995059967041,-0.5909749865531921,-0.29081249237060547,-0.6010124683380127
0.6850500106811523,1.8259501457214355,11.406000137329102,-0.2769249975681305,0.007149999961256981,-0.42336249351501465
0.6420000195503235,2.020050048828125,9.91200065612793,0.19442500174045563,0.10188750177621841,-0.2817375063896179
0.7330500483512878,2.11995005607605,8.563950538635254,0.48922500014305115,0.03368749842047691,-0.22426250576972961
0.7950000166893005,2.3740501403808594,7.710000514984131,0.46584999561309814,0.05816249921917915,-0.20941250026226044
0.7690500617027283,2.3050501346588135,8.071050643920898,0.2157374918460846,0.06888750195503235,-0.22756250202655792
0.7519500255584717,2.170950174331665,8.572050094604492,-0.015124999918043613,0.13901250064373016,-0.24667499959468842
0.6490500569343567,2.3209500312805176,8.469000816345215,-0.1120624989271164,0.3529624938964844,-0.24021250009536743
0.38805001974105835,2.3550000190734863,8.2339506149292,-0.14190000295639038,0.45512500405311584,-0.2615250051021576
0.14595000445842743,2.158950090408325,8.653050422668457,-0.09501250088214874,0.4221250116825104,-0.2626250088214874
0.2749500274658203,2.0749499797821045,9.022050857543945,0.09542500227689743,0.6104999780654907,-0.21051250398159027
0.15600000321865082,2.5819501876831055,8.827950477600098,0.3158375024795532,0.9818875193595886,-0.2264624983072281
-0.16395001113414764,2.9320502281188965,7.7310004234313965,0.4263874888420105,1.1767250299453735,-0.3328875005245209
-0.8350500464439392,3.775050163269043,5.73900032043457,0.4647499918937683,0.8265125155448914,-0.522225022315979
-0.33900001645088196,3.586050271987915,7.348050117492676,0.17641249299049377,-0.1993750035762787,-0.6755374670028687
