accX,accY,accZ,gyroX,gyroY,gyroZ
-0.12000000476837158,0.9330000281333923,9.745950698852539,0.0006874999962747097,-0.0013749999925494194,-0.0002749999985098839
-0.1270500123500824,0.9379500150680542,9.775050163269043,0.0006874999962747097,-0.0002749999985098839,-0.0002749999985098839
-0.11805000901222229,0.9330000281333923,9.756000518798828,-0.0005499999970197678,-0.0002749999985098839,0.0009624999947845936
-0.1099500060081482,0.9259500503540039,9.781949996948242,0.0006874999962747097,-0.0002749999985098839,-0.0002749999985098839
-0.12495000660419464,0.9450000524520874,9.765000343322754,-0.0005499999970197678,-0.0013749999925494194,-0.0002749999985098839
-0.12000000476837158,0.9330000281333923,9.777000427246094,0.0006874999962747097,-0.0002749999985098839,-0.0002749999985098839
-0.12195000797510147,0.9330000281333923,9.765000343322754,0.0006874999962747097,-0.0013749999925494194,-0.0002749999985098839
-0.12195000797510147,0.9310500621795654,9.772050857543945,0.0006874999962747097,-0.0002749999985098839,-0.0002749999985098839
-0.1270500123500824,0.9430500268936157,9.772050857543945,0.0006874999962747097,-0.0013749999925494194,-0.0002749999985098839
-0.12000000476837158,0.9450000524520874,9.760050773620605,0.0006874999962747097,-0.0002749999985098839,-0.0002749999985098839
-0.13005000352859497,0.934950053691864,9.769950866699219,-0.0005499999970197678,-0.0002749999985098839,-0.0002749999985098839
-0.11805000901222229,0.934950053691864,9.781949996948242,0.0006874999962747097,-0.0002749999985098839,0.0009624999947845936
-0.11805000901222229,0.9400500655174255,9.756000518798828,0.0006874999962747097,-0.0002749999985098839,0.0009624999947845936
-0.12495000660419464,0.9330000281333923,9.775050163269043,0.0006874999962747097,-0.0002749999985098839,-0.0002749999985098839
-0.13395000994205475,0.9259500503540039,9.756000518798828,0.0006874999962747097,-0.0002749999985098839,-0.0002749999985098839
-0.12495000660419464,0.9430500268936157,9.781949996948242,-0.0005499999970197678,-0.0013749999925494194,-0.0002749999985098839
-0.13199999928474426,0.934950053691864,9.763050079345703,-0.0005499999970197678,-0.0013749999925494194,-0.0002749999985098839
-0.13395000994205475,0.9430500268936157,9.793950080871582,-0.0005499999970197678,-0.0002749999985098839,-0.0002749999985098839
-0.13395000994205475,0.9280500411987305,9.763050079345703,0.0006874999962747097,-0.0002749999985098839,0.0009624999947845936
-0.12495000660419464,0.9379500150680542,9.787050247192383,-0.0005499999970197678,-0.0002749999985098839,-0.0002749999985098839
-0.12195000797510147,0.9379500150680542,9.777000427246094,0.0006874999962747097,-0.0013749999925494194,-0.0002749999985098839
-0.12000000476837158,0.9499500393867493,9.769950866699219,0.0006874999962747097,-0.0002749999985098839,-0.0002749999985098839
-0.13695000112056732,0.9310500621795654,9.777000427246094,0.0006874999962747097,-0.0002749999985098839,-0.0002749999985098839
-0.13199999928474426,0.934950053691864,9.768000602722168,0.0006874999962747097,-0.0002749999985098839,0.0009624999947845936
-0.13905000686645508,0.922950029373169,9.799050331115723,0.0006874999962747097,-0.0002749999985098839,-0.0002749999985098839
-0.13905000686645508,0.9400500655174255,9.775050163269043,0.0006874999962747097,-0.0002749999985098839,-0.0002749999985098839
-0.13199999928474426,0.9259500503540039,9.796050071716309,0.0006874999962747097,-0.0013749999925494194,-0.0002749999985098839
-0.1270500123500824,0.9520500302314758,9.784050941467285,0.0006874999962747097,-0.0002749999985098839,0.0009624999947845936
-0.13005000352859497,0.9379500150680542,9.772050857543945,0.0006874999962747097,-0.0002749999985098839,-0.0002749999985098839
-0.12195000797510147,0.934950053691864,9.781949996948242,0.0006874999962747097,-0.0002749999985098839,-0.0002749999985098839
-0.1270500123500824,0.9259500503540039,9.760050773620605,0.0006874999962747097,-0.0013749999925494194,-0.0002749999985098839
-0.12495000660419464,0.921000063419342,9.780000686645508,0.0006874999962747097,-0.0002749999985098839,-0.0002749999985098839
-0.11505000293254852,0.9450000524520874,9.622050285339355,-0.0017874999903142452,-0.007562499959021807,-0.0002749999985098839
-0.13005000352859497,0.9430500268936157,9.712950706481934,-0.0005499999970197678,-0.0038499999791383743,-0.0002749999985098839
-0.1270500123500824,0.922950029373169,9.744000434875488,0.0031624999828636646,0.0009624999947845936,-0.0015124999918043613
-0.13905000686645508,0.9379500150680542,9.763050079345703,0.0031624999828636646,0.0034374999813735485,0.0009624999947845936
-0.12195000797510147,0.934950053691864,9.756000518798828,0.0019249999895691872,0.0034374999813735485,-0.0002749999985098839
-0.12195000797510147,0.934950053691864,9.787050247192383,0.0019249999895691872,0.002199999988079071,-0.0002749999985098839
-0.11505000293254852,0.9430500268936157,9.757950782775879,-0.0005499999970197678,-0.0002749999985098839,0.0009624999947845936
-0.12495000660419464,0.934950053691864,9.781949996948242,0.0006874999962747097,-0.0002749999985098839,-0.0002749999985098839
-0.13695000112056732,0.9400500655174255,9.775050163269043,-0.0005499999970197678,-0.0002749999985098839,-0.0002749999985098839
-0.11805000901222229,0.9499500393867493,9.772050857543945,0.0006874999962747097,-0.0002749999985098839,-0.0002749999985098839
-0.09105000644922256,0.9040500521659851,9.760050773620605,-0.0005499999970197678,-0.0002749999985098839,-0.0002749999985098839
-0.10605000704526901,0.934950053691864,9.780000686645508,-0.0005499999970197678,-0.0002749999985098839,-0.0002749999985098839
-0.13695000112056732,0.9259500503540039,9.792000770568848,-0.0005499999970197678,-0.0002749999985098839,0.0009624999947845936
-0.14205001294612885,0.9400500655174255,9.765000343322754,0.0006874999962747097,-0.0002749999985098839,-0.0002749999985098839
-0.13695000112056732,0.9280500411987305,9.796050071716309,0.0006874999962747097,-0.0013749999925494194,-0.0002749999985098839
-0.1680000126361847,0.9760500192642212,9.480000495910645,-0.0030249999836087227,0.010724999941885471,-0.0002749999985098839
-0.12195000797510147,0.9619500637054443,9.42300033569336,0.006737499963492155,0.0009624999947845936,-0.0002749999985098839
-0.13199999928474426,0.9540000557899475,9.507000923156738,0.007974999956786633,-0.0038499999791383743,-0.0002749999985098839
-0.10605000704526901,0.9280500411987305,9.634050369262695,0.0031624999828636646,-0.002612499985843897,0.0009624999947845936
-0.22305001318454742,0.9330000281333923,9.775050163269043,-0.0005499999970197678,-0.0002749999985098839,0.0009624999947845936
-0.1270500123500824,0.9450000524520874,9.769950866699219,-0.0005499999970197678,-0.0013749999925494194,-0.0002749999985098839
-0.13199999928474426,0.9280500411987305,9.763050079345703,-0.0005499999970197678,-0.0013749999925494194,0.0009624999947845936
-0.12195000797510147,0.934950053691864,9.777000427246094,0.0006874999962747097,0.0009624999947845936,0.0009624999947845936
-0.11505000293254852,0.9379500150680542,9.748050689697266,-0.0005499999970197678,-0.0002749999985098839,-0.0002749999985098839
-0.11805000901222229,0.934950053691864,9.760050773620605,0.0006874999962747097,-0.0002749999985098839,-0.0002749999985098839
-0.13395000994205475,0.9310500621795654,9.760050773620605,0.0006874999962747097,-0.0002749999985098839,-0.0002749999985098839
-0.12195000797510147,0.9330000281333923,9.768000602722168,0.0006874999962747097,-0.0002749999985098839,-0.0002749999985098839
-0.13199999928474426,0.9430500268936157,9.784050941467285,0.0006874999962747097,-0.0002749999985098839,-0.0002749999985098839
-0.1099500060081482,0.9160500168800354,10.195950508117676,-0.005499999970197678,-0.0002749999985098839,-0.0002749999985098839
-0.13395000994205475,0.9330000281333923,9.982950210571289,-0.0017874999903142452,-0.0002749999985098839,-0.0002749999985098839
-0.12195000797510147,0.9280500411987305,9.886950492858887,-0.0017874999903142452,-0.0015124999918043613,-0.0002749999985098839
-0.09105000644922256,0.9019500613212585,9.871050834655762,-0.0005499999970197678,-0.0015124999918043613,-0.0002749999985098839
-0.13695000112056732,0.9280500411987305,9.775050163269043,0.0006874999962747097,-0.0002749999985098839,-0.0002749999985098839
-0.13905000686645508,0.9430500268936157,9.789000511169434,-0.0005499999970197678,-0.0002749999985098839,-0.0002749999985098839
-0.1270500123500824,0.921000063419342,9.753000259399414,-0.0005499999970197678,-0.0002749999985098839,-0.0015124999918043613
-0.1270500123500824,0.9379500150680542,9.787050247192383,0.0006874999962747097,-0.0002749999985098839,0.0009624999947845936
-0.12495000660419464,0.934950053691864,9.753000259399414,0.0006874999962747097,-0.0015124999918043613,-0.0002749999985098839
-0.12495000660419464,0.9469500184059143,9.775050163269043,0.0006874999962747097,-0.0002749999985098839,-0.0002749999985098839
-0.14205001294612885,0.9310500621795654,9.780000686645508,-0.0005499999970197678,0.0009624999947845936,0.0009624999947845936
-0.13005000352859497,0.9430500268936157,9.775050163269043,0.0006874999962747097,-0.0002749999985098839,-0.0002749999985098839
-0.13005000352859497,0.9330000281333923,9.789000511169434,-0.0005499999970197678,-0.0002749999985098839,-0.0002749999985098839
-0.13199999928474426,0.934950053691864,9.787050247192383,-0.0005499999970197678,-0.0015124999918043613,-0.0002749999985098839
-0.13199999928474426,0.9379500150680542,9.784050941467285,-0.0005499999970197678,-0.0002749999985098839,-0.0002749999985098839
-0.13005000352859497,0.9400500655174255,9.784050941467285,-0.0005499999970197678,-0.0002749999985098839,-0.0002749999985098839
-0.13905000686645508,0.9450000524520874,9.796050071716309,0.0006874999962747097,-0.0015124999918043613,-0.0002749999985098839
-0.13005000352859497,0.9379500150680542,9.781949996948242,0.0006874999962747097,0.0009624999947845936,-0.0002749999985098839
-0.1270500123500824,0.9330000281333923,9.799050331115723,-0.0005499999970197678,-0.0002749999985098839,-0.0002749999985098839
-0.12495000660419464,0.9379500150680542,9.777000427246094,-0.0005499999970197678,-0.0002749999985098839,-0.0002749999985098839
-0.12195000797510147,0.9379500150680542,9.796050071716309,-0.0005499999970197678,-0.0002749999985098839,0.0009624999947845936
-0.14205001294612885,0.9400500655174255,9.777000427246094,0.0006874999962747097,0.0009624999947845936,-0.0002749999985098839
-0.13695000112056732,0.9469500184059143,9.804000854492188,0.0006874999962747097,-0.0002749999985098839,0.0009624999947845936
-0.13905000686645508,0.922950029373169,9.760050773620605,0.0006874999962747097,-0.0002749999985098839,-0.0002749999985098839
-0.12195000797510147,0.9400500655174255,9.780000686645508,0.0006874999962747097,-0.0015124999918043613,-0.0002749999985098839
-0.12000000476837158,0.934950053691864,9.777000427246094,0.0006874999962747097,-0.0015124999918043613,0.0009624999947845936
-0.12495000660419464,0.9379500150680542,9.799050331115723,-0.0005499999970197678,-0.0002749999985098839,0.0009624999947845936
-0.12495000660419464,0.9310500621795654,9.789000511169434,-0.0005499999970197678,-0.0002749999985098839,-0.0002749999985098839
-0.12000000476837158,0.9469500184059143,9.784050941467285,-0.0005499999970197678,-0.0002749999985098839,-0.0002749999985098839
-0.13695000112056732,0.9430500268936157,9.781949996948242,-0.0005499999970197678,-0.0002749999985098839,0.0009624999947845936
-0.13199999928474426,0.9310500621795654,9.781949996948242,0.0006874999962747097,-0.0002749999985098839,-0.0002749999985098839
-0.13199999928474426,0.9469500184059143,9.799050331115723,0.0006874999962747097,-0.0002749999985098839,0.0009624999947845936
-0.1270500123500824,0.9379500150680542,9.789000511169434,0.0006874999962747097,-0.0002749999985098839,-0.0002749999985098839
-0.11295000463724136,0.9330000281333923,9.805950164794922,0.0006874999962747097,-0.0002749999985098839,-0.0002749999985098839
-0.11505000293254852,0.9280500411987305,9.769950866699219,0.0006874999962747097,-0.0002749999985098839,-0.0002749999985098839
-0.12000000476837158,0.934950053691864,9.787050247192383,0.0006874999962747097,-0.0002749999985098839,-0.0002749999985098839
-0.13695000112056732,0.922950029373169,9.784050941467285,-0.0005499999970197678,-0.0015124999918043613,0.0009624999947845936
-0.13005000352859497,0.9400500655174255,9.777000427246094,-0.0005499999970197678,-0.0002749999985098839,0.0009624999947845936
-0.13005000352859497,0.9430500268936157,9.792000770568848,0.0006874999962747097,-0.0002749999985098839,-0.0002749999985098839
-0.13905000686645508,0.922950029373169,9.781949996948242,0.0006874999962747097,-0.0002749999985098839,-0.0002749999985098839
-0.13395000994205475,0.9379500150680542,9.789000511169434,-0.0005499999970197678,-0.0015124999918043613,-0.0002749999985098839
-0.12195000797510147,0.922950029373169,9.777000427246094,0.0006874999962747097,-0.0002749999985098839,-0.0002749999985098839
-0.12495000660419464,0.921000063419342,9.792000770568848,-0.0005499999970197678,-0.0015124999918043613,-0.0002749999985098839
-0.13395000994205475,0.921000063419342,9.769950866699219,0.0006874999962747097,-0.0002749999985098839,-0.0002749999985098839
-0.12495000660419464,0.9330000281333923,9.805950164794922,-0.0005499999970197678,-0.0002749999985098839,-0.0002749999985098839
-0.13395000994205475,0.9430500268936157,9.780000686645508,-0.0005499999970197678,-0.0002749999985098839,-0.0002749999985098839
-0.12000000476837158,0.9330000281333923,9.793950080871582,-0.0005499999970197678,-0.0002749999985098839,0.0009624999947845936
-0.12495000660419464,0.9379500150680542,9.765000343322754,-0.0005499999970197678,-0.0002749999985098839,0.0009624999947845936
-0.13395000994205475,0.934950053691864,9.801000595092773,-0.0005499999970197678,-0.0002749999985098839,-0.0002749999985098839
-0.13695000112056732,0.9400500655174255,9.768000602722168,-0.0005499999970197678,-0.0002749999985098839,-0.0002749999985098839
-0.12000000476837158,0.9330000281333923,9.789000511169434,-0.0005499999970197678,-0.0002749999985098839,-0.0002749999985098839
-0.12195000797510147,0.9330000281333923,9.787050247192383,0.0006874999962747097,-0.0002749999985098839,-0.0002749999985098839
-0.13395000994205475,0.9379500150680542,9.796050071716309,0.0006874999962747097,-0.0015124999918043613,0.0009624999947845936
-0.12495000660419464,0.9450000524520874,9.789000511169434,0.0006874999962747097,-0.0002749999985098839,-0.0002749999985098839
-0.12495000660419464,0.9400500655174255,9.789000511169434,-0.0005499999970197678,-0.0002749999985098839,-0.0002749999985098839
-0.13395000994205475,0.934950053691864,9.801000595092773,-0.0005499999970197678,-0.0002749999985098839,-0.0002749999985098839
-0.13199999928474426,0.9280500411987305,9.765000343322754,-0.0005499999970197678,-0.0002749999985098839,0.0009624999947845936
-0.12495000660419464,0.934950053691864,9.781949996948242,-0.0005499999970197678,-0.0002749999985098839,-0.0002749999985098839
-0.12000000476837158,0.9330000281333923,9.775050163269043,0.0006874999962747097,-0.0013749999925494194,-0.0002749999985098839
-0.1270500123500824,0.9310500621795654,9.780000686645508,0.0006874999962747097,-0.0013749999925494194,-0.0002749999985098839
-0.13005000352859497,0.9330000281333923,9.793950080871582,0.0006874999962747097,-0.0002749999985098839,0.0009624999947845936
-0.1270500123500824,0.9430500268936157,9.777000427246094,0.0006874999962747097,-0.0013749999925494194,-0.0002749999985098839
-0.13395000994205475,0.9450000524520874,9.801000595092773,-0.0005499999970197678,-0.0002749999985098839,-0.0002749999985098839
-0.1270500123500824,0.9430500268936157,9.769950866699219,0.0006874999962747097,-0.0002749999985098839,0.0009624999947845936
-0.13395000994205475,0.9400500655174255,9.793950080871582,0.0006874999962747097,-0.0002749999985098839,0.0009624999947845936
-0.12000000476837158,0.9379500150680542,9.775050163269043,0.0006874999962747097,-0.0002749999985098839,0.0009624999947845936
-0.12195000797510147,0.9469500184059143,9.796050071716309,-0.0005499999970197678,-0.0002749999985098839,-0.0002749999985098839
-0.11295000463724136,0.9400500655174255,9.756000518798828,0.0006874999962747097,0.0009624999947845936,0.0009624999947845936
-0.1270500123500824,0.934950053691864,9.799050331115723,-0.0005499999970197678,-0.0002749999985098839,-0.0002749999985098839
-0.14400000870227814,0.922950029373169,9.781949996948242,0.0006874999962747097,-0.0002749999985098839,0.0009624999947845936
-0.13199999928474426,0.9469500184059143,9.789000511169434,-0.0005499999970197678,-0.0002749999985098839,-0.0002749999985098839
-0.1270500123500824,0.9430500268936157,9.772050857543945,0.0006874999962747097,-0.0002749999985098839,-0.0002749999985098839
-0.11505000293254852,0.8970000147819519,10.207950592041016,-0.006599999964237213,-0.002612499985843897,-0.0002749999985098839
-0.12495000660419464,0.9160500168800354,10.066950798034668,-0.0017874999903142452,0.0009624999947845936,-0.0002749999985098839
-0.14400000870227814,0.9330000281333923,9.90195083618164,-0.0005499999970197678,0.002199999988079071,-0.0002749999985098839
-0.13695000112056732,0.9330000281333923,9.801000595092773,0.0006874999962747097,-0.0002749999985098839,-0.0002749999985098839
-0.1080000028014183,0.9430500268936157,9.801000595092773,-0.0005499999970197678,-0.0013749999925494194,0.0009624999947845936
-0.12195000797510147,0.9430500268936157,9.808050155639648,0.0006874999962747097,-0.0002749999985098839,-0.0002749999985098839
-0.1099500060081482,0.9400500655174255,9.777000427246094,-0.0005499999970197678,-0.0002749999985098839,-0.0002749999985098839
-0.13695000112056732,0.9280500411987305,9.799050331115723,0.0006874999962747097,-0.0002749999985098839,-0.0002749999985098839
-0.13695000112056732,0.921000063419342,9.784050941467285,-0.0005499999970197678,-0.0002749999985098839,0.0009624999947845936
-0.13395000994205475,0.9469500184059143,9.787050247192383,0.0006874999962747097,-0.0002749999985098839,-0.0002749999985098839
-0.11805000901222229,0.9450000524520874,9.768000602722168,0.0006874999962747097,-0.0015124999918043613,-0.0002749999985098839
-0.1270500123500824,0.9379500150680542,9.801000595092773,0.0006874999962747097,-0.0002749999985098839,0.0009624999947845936
-0.1270500123500824,0.9330000281333923,9.768000602722168,-0.0005499999970197678,-0.0002749999985098839,-0.0002749999985098839
-0.1270500123500824,0.9330000281333923,9.799050331115723,0.0006874999962747097,-0.0002749999985098839,-0.0002749999985098839
-0.14595000445842743,0.9330000281333923,9.780000686645508,0.0006874999962747097,-0.0002749999985098839,0.0009624999947845936
-0.1270500123500824,0.9400500655174255,9.772050857543945,-0.0005499999970197678,-0.0002749999985098839,-0.0002749999985098839
-0.13395000994205475,0.9310500621795654,9.789000511169434,0.0006874999962747097,-0.0002749999985098839,0.0009624999947845936
-0.11805000901222229,0.9330000281333923,9.769950866699219,0.0006874999962747097,-0.0002749999985098839,-0.0002749999985098839
-0.1270500123500824,0.9400500655174255,9.793950080871582,-0.0005499999970197678,0.0009624999947845936,-0.0002749999985098839
-0.1270500123500824,0.9330000281333923,9.775050163269043,-0.0005499999970197678,-0.0002749999985098839,0.0009624999947845936
-0.14205001294612885,0.9379500150680542,9.799050331115723,0.0006874999962747097,-0.0002749999985098839,0.0009624999947845936
-0.12495000660419464,0.9469500184059143,9.669000625610352,0.0006874999962747097,0.0009624999947845936,-0.0002749999985098839
-0.12495000660419464,0.921000063419342,9.97800064086914,-0.0030249999836087227,0.0034374999813735485,0.0009624999947845936
-0.13395000994205475,0.9379500150680542,9.925950050354004,-0.0005499999970197678,-0.0015124999918043613,-0.0002749999985098839
-0.13005000352859497,0.9379500150680542,9.850950241088867,0.0006874999962747097,-0.0038499999791383743,-0.0002749999985098839
-0.1270500123500824,0.9310500621795654,9.793950080871582,-0.0005499999970197678,-0.002749999985098839,0.0009624999947845936
-0.1270500123500824,0.9469500184059143,9.784050941467285,0.0006874999962747097,-0.0002749999985098839,-0.0002749999985098839
-0.14205001294612885,0.934950053691864,9.775050163269043,0.0006874999962747097,-0.0002749999985098839,-0.0002749999985098839
-0.13199999928474426,0.9310500621795654,9.784050941467285,-0.0005499999970197678,-0.0002749999985098839,-0.0002749999985098839
-0.13199999928474426,0.9520500302314758,9.784050941467285,0.0006874999962747097,-0.0015124999918043613,-0.0002749999985098839
-0.14205001294612885,0.909000039100647,9.805950164794922,0.0006874999962747097,-0.0002749999985098839,-0.0002749999985098839
-0.11505000293254852,0.9280500411987305,9.805950164794922,-0.0005499999970197678,-0.0002749999985098839,-0.0002749999985098839
-0.12495000660419464,0.9430500268936157,9.655050277709961,0.0006874999962747097,0.002199999988079071,-0.0002749999985098839
-0.10605000704526901,0.9280500411987305,9.801000595092773,-0.0005499999970197678,-0.0002749999985098839,-0.0002749999985098839
-0.1270500123500824,0.9400500655174255,9.753000259399414,0.0031624999828636646,-0.005087499972432852,0.0009624999947845936
-0.13199999928474426,0.922950029373169,9.775050163269043,-0.0005499999970197678,-0.0015124999918043613,0.0009624999947845936
-0.040950000286102295,0.8989500403404236,9.777000427246094,-0.0005499999970197678,-0.0015124999918043613,-0.0002749999985098839
-0.15105000138282776,0.9400500655174255,9.789000511169434,0.0006874999962747097,-0.0015124999918043613,-0.0002749999985098839
-0.12000000476837158,0.9310500621795654,9.768000602722168,0.0006874999962747097,-0.0002749999985098839,-0.0002749999985098839
-0.13199999928474426,0.9450000524520874,9.792000770568848,0.0006874999962747097,0.0009624999947845936,-0.0002749999985098839
-0.13905000686645508,0.9280500411987305,9.792000770568848,-0.0005499999970197678,-0.0002749999985098839,0.0009624999947845936
-0.13005000352859497,0.934950053691864,9.787050247192383,0.0006874999962747097,-0.0002749999985098839,-0.0002749999985098839
-0.1270500123500824,0.9379500150680542,9.801000595092773,-0.0005499999970197678,-0.0002749999985098839,-0.0002749999985098839
-0.13395000994205475,0.9570000171661377,9.768000602722168,-0.0005499999970197678,-0.0015124999918043613,-0.0002749999985098839
-0.1270500123500824,0.9400500655174255,9.793950080871582,-0.0005499999970197678,-0.0002749999985098839,-0.0002749999985098839
-0.14400000870227814,0.9450000524520874,9.772050857543945,0.0006874999962747097,-0.0015124999918043613,-0.0002749999985098839
-0.12495000660419464,0.9379500150680542,9.804000854492188,0.0006874999962747097,-0.0002749999985098839,-0.0002749999985098839
-0.12000000476837158,0.9379500150680542,9.769950866699219,0.0019249999895691872,-0.0002749999985098839,-0.0002749999985098839
-0.12495000660419464,0.934950053691864,9.814950942993164,0.0006874999962747097,0.0009624999947845936,-0.0002749999985098839
-0.12495000660419464,0.9450000524520874,9.772050857543945,0.0006874999962747097,-0.0002749999985098839,-0.0002749999985098839
-0.12195000797510147,0.9139500260353088,10.111950874328613,-0.009074999950826168,-0.0002749999985098839,-0.0002749999985098839
-0.1270500123500824,0.9160500168800354,9.997050285339355,-0.0017874999903142452,0.0009624999947845936,-0.0002749999985098839
-0.1270500123500824,0.9379500150680542,9.789000511169434,0.0006874999962747097,-0.0015124999918043613,-0.0002749999985098839
-0.13695000112056732,0.9430500268936157,9.813000679016113,-0.0005499999970197678,-0.0002749999985098839,-0.0002749999985098839
-0.10605000704526901,0.921000063419342,9.793950080871582,-0.0005499999970197678,-0.0002749999985098839,-0.0002749999985098839
-0.14400000870227814,0.9310500621795654,9.741000175476074,0.0006874999962747097,-0.0002749999985098839,0.0009624999947845936
-0.13005000352859497,0.9190500378608704,9.792000770568848,-0.0005499999970197678,-0.0002749999985098839,-0.0002749999985098839
-0.13395000994205475,0.9499500393867493,9.787050247192383,0.0006874999962747097,0.0009624999947845936,-0.0002749999985098839
-0.11805000901222229,0.9310500621795654,9.799050331115723,0.0006874999962747097,-0.0002749999985098839,-0.0002749999985098839
-0.13695000112056732,0.9280500411987305,9.799050331115723,0.0019249999895691872,-0.0002749999985098839,-0.0002749999985098839
-0.13005000352859497,0.9430500268936157,9.796050071716309,0.0006874999962747097,-0.0002749999985098839,0.0009624999947845936
-0.13005000352859497,0.9400500655174255,9.769950866699219,0.0006874999962747097,-0.0002749999985098839,-0.0002749999985098839
-0.13005000352859497,0.9450000524520874,9.792000770568848,0.0006874999962747097,-0.0002749999985098839,0.0009624999947845936
-0.13395000994205475,0.922950029373169,9.780000686645508,-0.0005499999970197678,0.0009624999947845936,-0.0002749999985098839
-0.13199999928474426,0.934950053691864,9.777000427246094,0.0006874999962747097,-0.0002749999985098839,0.0009624999947845936
-0.12495000660419464,0.9280500411987305,9.793950080871582,0.0006874999962747097,-0.0015124999918043613,-0.0002749999985098839
-0.13199999928474426,0.9430500268936157,9.781949996948242,-0.0005499999970197678,-0.0015124999918043613,-0.0002749999985098839
-0.11505000293254852,0.934950053691864,9.799050331115723,0.0019249999895691872,-0.0002749999985098839,-0.0002749999985098839
-0.1270500123500824,0.9330000281333923,9.780000686645508,0.0006874999962747097,-0.0002749999985098839,-0.0002749999985098839
-0.13695000112056732,0.9450000524520874,9.796050071716309,-0.0005499999970197678,-0.0002749999985098839,-0.0002749999985098839
-0.1270500123500824,0.9379500150680542,9.777000427246094,-0.0005499999970197678,0.0009624999947845936,-0.0002749999985098839
-0.13005000352859497,0.9499500393867493,9.792000770568848,-0.0005499999970197678,0.0009624999947845936,-0.0002749999985098839
-0.14205001294612885,0.9400500655174255,9.769950866699219,0.0019249999895691872,-0.0002749999985098839,-0.0002749999985098839
-0.1270500123500824,0.9259500503540039,9.787050247192383,0.0006874999962747097,-0.0015124999918043613,-0.0002749999985098839
-0.11805000901222229,0.9400500655174255,9.781949996948242,0.0006874999962747097,-0.0002749999985098839,-0.0002749999985098839
-0.13905000686645508,0.9469500184059143,9.793950080871582,0.0006874999962747097,-0.0002749999985098839,0.0009624999947845936
-0.13395000994205475,0.9400500655174255,9.784050941467285,0.0006874999962747097,-0.0015124999918043613,0.0009624999947845936
-0.14205001294612885,0.9379500150680542,9.805950164794922,-0.0005499999970197678,-0.0002749999985098839,-0.0002749999985098839
-0.14205001294612885,0.922950029373169,9.781949996948242,0.0006874999962747097,-0.0002749999985098839,-0.0002749999985098839
-0.13199999928474426,0.934950053691864,9.793950080871582,0.0006874999962747097,-0.0015124999918043613,0.0009624999947845936
-0.12195000797510147,0.9430500268936157,9.780000686645508,0.0006874999962747097,-0.0002749999985098839,-0.0002749999985098839
-0.13695000112056732,0.9330000281333923,9.789000511169434,-0.0005499999970197678,-0.0002749999985098839,0.0009624999947845936
-0.12195000797510147,0.9330000281333923,9.775050163269043,0.0006874999962747097,-0.0002749999985098839,-0.0002749999985098839
-0.12000000476837158,0.9280500411987305,9.768000602722168,0.0006874999962747097,-0.0002749999985098839,-0.0002749999985098839
-0.12195000797510147,0.9310500621795654,9.787050247192383,-0.0005499999970197678,-0.0002749999985098839,-0.0002749999985098839
-0.11805000901222229,0.9469500184059143,9.781949996948242,0.0006874999962747097,-0.0002749999985098839,0.0009624999947845936
-0.12195000797510147,0.9330000281333923,9.772050857543945,0.0006874999962747097,-0.0002749999985098839,-0.0002749999985098839
-0.14205001294612885,0.921000063419342,9.787050247192383,0.0006874999962747097,-0.0002749999985098839,-0.0002749999985098839
-0.13395000994205475,0.9330000281333923,9.780000686645508,0.0006874999962747097,-0.0002749999985098839,-0.0002749999985098839
-0.13695000112056732,0.921000063419342,9.792000770568848,0.0006874999962747097,-0.0002749999985098839,-0.0002749999985098839
-0.13905000686645508,0.9450000524520874,9.757950782775879,-0.0005499999970197678,-0.002749999985098839,-0.0002749999985098839
-0.1270500123500824,0.9310500621795654,9.835050582885742,-0.0017874999903142452,-0.0038499999791383743,-0.0002749999985098839
-0.12000000476837158,0.9379500150680542,9.784050941467285,-0.0005499999970197678,-0.0015124999918043613,-0.0002749999985098839
-0.13395000994205475,0.9450000524520874,9.775050163269043,0.0006874999962747097,0.0009624999947845936,0.0009624999947845936
-0.13695000112056732,0.9379500150680542,9.780000686645508,0.0006874999962747097,0.0009624999947845936,0.0009624999947845936
-0.12495000660419464,0.9499500393867493,9.768000602722168,0.0006874999962747097,-0.0002749999985098839,0.0009624999947845936
-0.13199999928474426,0.9139500260353088,9.781949996948242,-0.0005499999970197678,-0.0015124999918043613,-0.0002749999985098839
-0.13395000994205475,0.9259500503540039,9.768000602722168,-0.0005499999970197678,0.0009624999947845936,-0.0002749999985098839
-0.12195000797510147,0.9330000281333923,9.796050071716309,-0.0005499999970197678,-0.0015124999918043613,-0.0002749999985098839
-0.07200000435113907,0.921000063419342,9.768000602722168,0.0006874999962747097,-0.0015124999918043613,-0.0002749999985098839
-0.1099500060081482,0.9280500411987305,9.796050071716309,-0.0005499999970197678,-0.0002749999985098839,-0.0002749999985098839
-0.13695000112056732,0.9499500393867493,9.781949996948242,0.0006874999962747097,-0.0002749999985098839,-0.0002749999985098839
-0.13395000994205475,0.9430500268936157,9.801000595092773,-0.0005499999970197678,-0.0002749999985098839,0.0009624999947845936
-0.13395000994205475,0.9430500268936157,9.787050247192383,0.0006874999962747097,-0.0015124999918043613,-0.0002749999985098839
-0.12195000797510147,0.9400500655174255,9.765000343322754,-0.0005499999970197678,-0.0002749999985098839,-0.0002749999985098839
-0.12000000476837158,0.934950053691864,9.793950080871582,-0.0005499999970197678,-0.0002749999985098839,-0.0002749999985098839
-0.13005000352859497,0.9259500503540039,9.769950866699219,0.0006874999962747097,-0.0002749999985098839,-0.0002749999985098839
-0.12000000476837158,0.9280500411987305,9.805950164794922,-0.0005499999970197678,-0.0002749999985098839,-0.0002749999985098839
-0.12495000660419464,0.934950053691864,9.772050857543945,0.0006874999962747097,-0.0002749999985098839,-0.0015124999918043613
-0.12495000660419464,0.9310500621795654,9.796050071716309,0.0006874999962747097,-0.0002749999985098839,-0.0002749999985098839
-0.13005000352859497,0.934950053691864,9.780000686645508,0.0006874999962747097,-0.0002749999985098839,-0.0002749999985098839
-0.11295000463724136,0.9330000281333923,9.792000770568848,-0.0005499999970197678,-0.0015124999918043613,-0.0002749999985098839
-0.13199999928474426,0.9280500411987305,9.801000595092773,-0.0005499999970197678,-0.0002749999985098839,-0.0002749999985098839
-0.1270500123500824,0.9430500268936157,9.772050857543945,-0.0005499999970197678,-0.0002749999985098839,-0.0002749999985098839
-0.12495000660419464,0.9430500268936157,9.780000686645508,0.0006874999962747097,-0.0002749999985098839,-0.0002749999985098839
-0.13199999928474426,0.9400500655174255,9.789000511169434,0.0006874999962747097,-0.0002749999985098839,-0.0002749999985098839
-0.13199999928474426,0.9430500268936157,9.792000770568848,-0.0005499999970197678,-0.0002749999985098839,-0.0002749999985098839
-0.1270500123500824,0.9430500268936157,9.784050941467285,0.0006874999962747097,-0.0015124999918043613,-0.0002749999985098839
-0.13199999928474426,0.9379500150680542,9.768000602722168,-0.0005499999970197678,-0.0002749999985098839,0.0009624999947845936
-0.12000000476837158,0.9379500150680542,9.801000595092773,0.0006874999962747097,-0.0002749999985098839,-0.0002749999985098839
-0.13395000994205475,0.934950053691864,9.792000770568848,-0.0005499999970197678,-0.0002749999985098839,0.0009624999947845936
-0.13395000994205475,0.9450000524520874,9.769950866699219,0.0006874999962747097,-0.0002749999985098839,0.0009624999947845936
-0.13695000112056732,0.9310500621795654,9.792000770568848,-0.0005499999970197678,-0.0002749999985098839,0.0009624999947845936
-0.13005000352859497,0.9379500150680542,9.781949996948242,0.0006874999962747097,-0.0002749999985098839,-0.0002749999985098839
-0.13695000112056732,0.9400500655174255,9.775050163269043,-0.0005499999970197678,-0.0002749999985098839,-0.0002749999985098839
-0.12000000476837158,0.9310500621795654,9.744000434875488,-0.0005499999970197678,-0.0002749999985098839,-0.0002749999985098839
-0.12495000660419464,0.9160500168800354,10.01400089263916,-0.0005499999970197678,-0.0002749999985098839,-0.0002749999985098839
-0.13199999928474426,0.9330000281333923,9.892050743103027,0.0019249999895691872,0.0009624999947845936,-0.0002749999985098839
-0.11505000293254852,0.9280500411987305,9.856050491333008,-0.0017874999903142452,-0.0015124999918043613,0.0009624999947845936
-0.022050000727176666,0.9310500621795654,9.796050071716309,-0.0005499999970197678,-0.0002749999985098839,0.0009624999947845936
-0.14400000870227814,0.9259500503540039,9.793950080871582,-0.0005499999970197678,-0.0015124999918043613,0.0009624999947845936
-0.1099500060081482,0.9379500150680542,9.801000595092773,0.0006874999962747097,-0.0002749999985098839,-0.0002749999985098839
-0.13005000352859497,0.9450000524520874,9.763050079345703,0.0006874999962747097,-0.0002749999985098839,-0.0002749999985098839
-0.12195000797510147,0.9450000524520874,9.789000511169434,0.0006874999962747097,-0.0015124999918043613,0.0009624999947845936
-0.12495000660419464,0.9450000524520874,9.753000259399414,0.0006874999962747097,-0.0002749999985098839,0.0009624999947845936
-0.13005000352859497,0.9310500621795654,9.801000595092773,0.0006874999962747097,-0.0002749999985098839,-0.0002749999985098839
-0.12000000476837158,0.9310500621795654,9.712950706481934,0.0006874999962747097,-0.0015124999918043613,-0.0002749999985098839
-0.12195000797510147,0.9379500150680542,9.895050048828125,0.0006874999962747097,-0.0015124999918043613,-0.0002749999985098839
-0.13395000994205475,0.9190500378608704,9.844050407409668,0.0019249999895691872,0.002199999988079071,0.0009624999947845936
-0.13005000352859497,0.9330000281333923,9.873000144958496,-0.0017874999903142452,-0.0015124999918043613,-0.0002749999985098839
-0.15105000138282776,0.934950053691864,9.849000930786133,-0.0005499999970197678,-0.0002749999985098839,-0.0002749999985098839
-0.12495000660419464,0.9469500184059143,9.801000595092773,-0.0005499999970197678,-0.0015124999918043613,-0.0002749999985098839
-0.13005000352859497,0.9190500378608704,9.768000602722168,-0.0005499999970197678,-0.0002749999985098839,-0.0002749999985098839
-0.1080000028014183,0.934950053691864,9.769950866699219,-0.0005499999970197678,-0.0002749999985098839,-0.0002749999985098839
-0.12195000797510147,0.9450000524520874,9.781949996948242,-0.0005499999970197678,-0.0002749999985098839,-0.0002749999985098839
-0.12000000476837158,0.9330000281333923,9.781949996948242,0.0006874999962747097,-0.0002749999985098839,-0.0002749999985098839
-0.14400000870227814,0.934950053691864,9.781949996948242,-0.0005499999970197678,-0.0015124999918043613,-0.0002749999985098839
-0.13395000994205475,0.9400500655174255,9.760050773620605,0.0006874999962747097,-0.0002749999985098839,-0.0002749999985098839
-0.13905000686645508,0.9379500150680542,9.793950080871582,0.0006874999962747097,-0.0002749999985098839,-0.0002749999985098839
-0.14400000870227814,0.9379500150680542,9.769950866699219,-0.0005499999970197678,-0.0002749999985098839,-0.0002749999985098839
-0.12195000797510147,0.9379500150680542,9.799050331115723,-0.0005499999970197678,-0.0015124999918043613,-0.0002749999985098839
-0.12195000797510147,0.9379500150680542,9.768000602722168,-0.0005499999970197678,-0.0002749999985098839,-0.0002749999985098839
-0.13905000686645508,0.9310500621795654,9.801000595092773,0.0006874999962747097,-0.0002749999985098839,0.0009624999947845936
-0.12195000797510147,0.934950053691864,9.777000427246094,-0.0005499999970197678,-0.0002749999985098839,-0.0002749999985098839
-0.1270500123500824,0.9499500393867493,9.772050857543945,-0.0005499999970197678,-0.0002749999985098839,-0.0002749999985098839
-0.13695000112056732,0.934950053691864,9.780000686645508,0.0006874999962747097,-0.0002749999985098839,-0.0002749999985098839
-0.12495000660419464,0.9469500184059143,9.777000427246094,-0.0005499999970197678,-0.0002749999985098839,-0.0002749999985098839
-0.13695000112056732,0.9330000281333923,9.799050331115723,0.0006874999962747097,-0.0002749999985098839,-0.0002749999985098839
-0.13395000994205475,0.934950053691864,9.768000602722168,0.0006874999962747097,-0.0002749999985098839,-0.0002749999985098839
-0.13199999928474426,0.9379500150680542,9.801000595092773,0.0006874999962747097,-0.0002749999985098839,-0.0002749999985098839
-0.13395000994205475,0.9379500150680542,9.769950866699219,0.0006874999962747097,-0.0015124999918043613,-0.0002749999985098839
-0.1270500123500824,0.9259500503540039,9.801000595092773,-0.0005499999970197678,-0.0002749999985098839,-0.0002749999985098839
-0.12495000660419464,0.9499500393867493,9.768000602722168,0.0006874999962747097,-0.0002749999985098839,0.0009624999947845936
-0.13695000112056732,0.9379500150680542,9.811050415039062,-0.0005499999970197678,-0.0002749999985098839,-0.0002749999985098839
-0.14400000870227814,0.9520500302314758,9.576000213623047,-0.0030249999836087227,0.0034374999813735485,0.0009624999947845936
-0.11805000901222229,0.9520500302314758,9.564000129699707,0.004399999976158142,-0.0002749999985098839,-0.0002749999985098839
-0.11505000293254852,0.9640500545501709,9.624000549316406,0.005499999970197678,-0.0015124999918043613,-0.0002749999985098839
-0.13199999928474426,0.9450000524520874,9.756000518798828,0.0019249999895691872,-0.0002749999985098839,-0.0002749999985098839
-0.1270500123500824,0.9400500655174255,9.804000854492188,-0.0005499999970197678,-0.0002749999985098839,-0.0002749999985098839
-0.18495000898838043,0.9640500545501709,9.780000686645508,-0.0005499999970197678,-0.0002749999985098839,-0.0002749999985098839
-0.13695000112056732,0.9379500150680542,9.753000259399414,-0.0005499999970197678,-0.0002749999985098839,-0.0002749999985098839
-0.12000000476837158,0.9400500655174255,9.789000511169434,-0.0005499999970197678,-0.0002749999985098839,-0.0002749999985098839
-0.12195000797510147,0.9400500655174255,9.757950782775879,-0.0005499999970197678,-0.0002749999985098839,-0.0002749999985098839
-0.12195000797510147,0.9400500655174255,9.765000343322754,0.0006874999962747097,-0.0002749999985098839,-0.0002749999985098839
-0.11805000901222229,0.9310500621795654,9.792000770568848,0.0006874999962747097,-0.0002749999985098839,-0.0002749999985098839
-0.13695000112056732,0.934950053691864,9.757950782775879,0.0006874999962747097,-0.0002749999985098839,0.0009624999947845936
-0.13905000686645508,0.9379500150680542,9.804000854492188,0.0006874999962747097,-0.0015124999918043613,-0.0015124999918043613
-0.1270500123500824,0.9280500411987305,9.769950866699219,0.0006874999962747097,-0.0015124999918043613,0.0009624999947845936
-0.13395000994205475,0.9400500655174255,9.814950942993164,0.0006874999962747097,-0.0015124999918043613,0.0009624999947845936
-0.13199999928474426,0.9379500150680542,9.781949996948242,-0.0005499999970197678,-0.0015124999918043613,-0.0002749999985098839
-0.13005000352859497,0.934950053691864,9.781949996948242,0.0006874999962747097,-0.0002749999985098839,0.0009624999947845936
-0.12495000660419464,0.9430500268936157,9.784050941467285,0.0006874999962747097,-0.0002749999985098839,0.0009624999947845936
-0.13905000686645508,0.934950053691864,9.775050163269043,-0.0005499999970197678,-0.0002749999985098839,-0.0002749999985098839
-0.1270500123500824,0.9469500184059143,9.799050331115723,0.0006874999962747097,-0.0002749999985098839,0.0009624999947845936
-0.12495000660419464,0.9379500150680542,9.772050857543945,-0.0005499999970197678,-0.0002749999985098839,0.0009624999947845936
-0.13005000352859497,0.9330000281333923,9.799050331115723,0.0006874999962747097,-0.0002749999985098839,-0.0002749999985098839
-0.12195000797510147,0.9379500150680542,9.765000343322754,0.0006874999962747097,0.0009624999947845936,-0.0002749999985098839
-0.14400000870227814,0.934950053691864,9.804000854492188,-0.0005499999970197678,-0.0002749999985098839,-0.0002749999985098839
-0.13199999928474426,0.921000063419342,9.781949996948242,-0.0005499999970197678,-0.0002749999985098839,-0.0002749999985098839
-0.12195000797510147,0.9310500621795654,9.775050163269043,-0.0005499999970197678,0.0009624999947845936,-0.0002749999985098839
-0.12000000476837158,0.9430500268936157,9.787050247192383,-0.0005499999970197678,-0.0002749999985098839,0.0009624999947845936
-0.13695000112056732,0.9450000524520874,9.777000427246094,0.0006874999962747097,-0.0002749999985098839,-0.0002749999985098839
-0.13199999928474426,0.9310500621795654,9.792000770568848,0.0006874999962747097,-0.0002749999985098839,-0.0002749999985098839
-0.12195000797510147,0.9379500150680542,9.780000686645508,-0.0005499999970197678,-0.0002749999985098839,-0.0002749999985098839
-0.12000000476837158,0.9330000281333923,9.792000770568848,0.0006874999962747097,-0.0002749999985098839,-0.0002749999985098839
-0.1270500123500824,0.9400500655174255,9.760050773620605,-0.0005499999970197678,-0.0002749999985098839,-0.0002749999985098839
-0.13199999928474426,0.9430500268936157,9.784050941467285,-0.0005499999970197678,-0.0002749999985098839,-0.0002749999985098839
-0.13695000112056732,0.9400500655174255,9.784050941467285,0.0006874999962747097,-0.0002749999985098839,-0.0002749999985098839
-0.13395000994205475,0.9379500150680542,9.799050331115723,-0.0005499999970197678,0.0009624999947845936,0.0009624999947845936
-0.13695000112056732,0.9379500150680542,9.757950782775879,-0.0005499999970197678,-0.0002749999985098839,0.0009624999947845936
-0.13005000352859497,0.9330000281333923,9.801000595092773,-0.0005499999970197678,-0.0002749999985098839,-0.0002749999985098839
-0.12495000660419464,0.934950053691864,9.772050857543945,0.0006874999962747097,-0.0002749999985098839,-0.0002749999985098839
-0.13395000994205475,0.9450000524520874,9.781949996948242,-0.0005499999970197678,-0.0015124999918043613,0.0009624999947845936
-0.1270500123500824,0.9280500411987305,9.792000770568848,0.0006874999962747097,-0.0002749999985098839,0.0009624999947845936
-0.1270500123500824,0.9330000281333923,9.780000686645508,-0.0005499999970197678,-0.0015124999918043613,-0.0002749999985098839
-0.12195000797510147,0.9280500411987305,9.813000679016113,0.0006874999962747097,-0.0015124999918043613,-0.0002749999985098839
-0.13199999928474426,0.9540000557899475,9.768000602722168,0.0006874999962747097,-0.0002749999985098839,-0.0002749999985098839
-0.13199999928474426,0.9450000524520874,9.793950080871582,0.0006874999962747097,0.0009624999947845936,-0.0002749999985098839
-0.13905000686645508,0.9330000281333923,9.769950866699219,0.0006874999962747097,-0.0015124999918043613,-0.0002749999985098839
-0.12495000660419464,0.9430500268936157,9.804000854492188,0.0006874999962747097,-0.0002749999985098839,-0.0002749999985098839
-0.13199999928474426,0.9379500150680542,9.781949996948242,-0.0005499999970197678,-0.0002749999985098839,-0.0002749999985098839
-0.1270500123500824,0.9259500503540039,9.793950080871582,-0.0005499999970197678,-0.0002749999985098839,-0.0002749999985098839
-0.12000000476837158,0.9310500621795654,9.765000343322754,-0.0005499999970197678,-0.0002749999985098839,0.0009624999947845936
-0.14205001294612885,0.9330000281333923,9.784050941467285,0.0006874999962747097,-0.0002749999985098839,-0.0002749999985098839
-0.13395000994205475,0.934950053691864,9.906000137329102,-0.005362499970942736,0.0009624999947845936,-0.0002749999985098839
-0.12195000797510147,0.934950053691864,9.765000343322754,0.0019249999895691872,-0.0015124999918043613,-0.0002749999985098839
-0.13199999928474426,0.9379500150680542,9.693000793457031,0.0019249999895691872,-0.0002749999985098839,-0.0002749999985098839
-0.14205001294612885,0.9400500655174255,9.784050941467285,-0.0005499999970197678,-0.0002749999985098839,-0.0002749999985098839
-0.13695000112056732,0.9310500621795654,9.792000770568848,0.0006874999962747097,0.0009624999947845936,-0.0002749999985098839
-0.12195000797510147,0.9499500393867493,9.757950782775879,0.0006874999962747097,-0.0002749999985098839,-0.0002749999985098839
-0.12495000660419464,0.9160500168800354,9.804000854492188,0.0006874999962747097,-0.0002749999985098839,-0.0002749999985098839
-0.10605000704526901,0.9330000281333923,9.760050773620605,0.0006874999962747097,-0.0002749999985098839,0.0009624999947845936
-0.13199999928474426,0.9379500150680542,9.793950080871582,-0.0005499999970197678,0.0009624999947845936,0.0009624999947845936
-0.13199999928474426,0.9379500150680542,9.768000602722168,-0.0005499999970197678,-0.0002749999985098839,-0.0002749999985098839
-0.13395000994205475,0.9499500393867493,9.780000686645508,0.0006874999962747097,-0.0002749999985098839,-0.0002749999985098839
-0.12495000660419464,0.9450000524520874,9.787050247192383,-0.0005499999970197678,-0.0002749999985098839,-0.0002749999985098839
-0.12195000797510147,0.9330000281333923,9.777000427246094,0.0006874999962747097,-0.0002749999985098839,0.0009624999947845936
-0.13905000686645508,0.9259500503540039,9.792000770568848,0.0006874999962747097,0.0009624999947845936,-0.0002749999985098839
-0.13695000112056732,0.9450000524520874,9.768000602722168,0.0006874999962747097,-0.0002749999985098839,-0.0002749999985098839
-0.13395000994205475,0.9400500655174255,9.799050331115723,0.0006874999962747097,-0.0015124999918043613,-0.0002749999985098839
-0.13395000994205475,0.9469500184059143,9.789000511169434,0.0006874999962747097,-0.0002749999985098839,-0.0002749999985098839
-0.12195000797510147,0.9379500150680542,9.801000595092773,-0.0005499999970197678,0.0009624999947845936,0.0009624999947845936
-0.12000000476837158,0.934950053691864,9.804000854492188,-0.0005499999970197678,-0.0015124999918043613,-0.0002749999985098839
-0.12495000660419464,0.9330000281333923,9.781949996948242,0.0006874999962747097,-0.0002749999985098839,-0.0002749999985098839
-0.1270500123500824,0.9400500655174255,9.792000770568848,-0.0005499999970197678,-0.0015124999918043613,-0.0002749999985098839
-0.13005000352859497,0.9280500411987305,9.760050773620605,-0.0005499999970197678,-0.0002749999985098839,-0.0002749999985098839
-0.13395000994205475,0.9400500655174255,9.789000511169434,-0.0005499999970197678,0.0009624999947845936,-0.0002749999985098839
-0.13005000352859497,0.9400500655174255,9.765000343322754,0.0006874999962747097,-0.0002749999985098839,-0.0002749999985098839
-0.1270500123500824,0.9450000524520874,9.804000854492188,-0.0005499999970197678,-0.0002749999985098839,-0.0002749999985098839
-0.12000000476837158,0.9379500150680542,9.775050163269043,0.0006874999962747097,-0.0015124999918043613,-0.0002749999985098839
-0.12000000476837158,0.9330000281333923,9.793950080871582,-0.0005499999970197678,0.0009624999947845936,-0.0002749999985098839
-0.13199999928474426,0.9400500655174255,9.769950866699219,-0.0005499999970197678,-0.0015124999918043613,0.0009624999947845936
-0.12000000476837158,0.9280500411987305,9.799050331115723,0.0006874999962747097,-0.0015124999918043613,-0.0002749999985098839
-0.1099500060081482,0.9310500621795654,9.789000511169434,0.0006874999962747097,-0.0015124999918043613,-0.0002749999985098839
-0.13005000352859497,0.922950029373169,9.799050331115723,0.0006874999962747097,-0.0015124999918043613,-0.0002749999985098839
-0.12195000797510147,0.9310500621795654,9.775050163269043,0.0006874999962747097,-0.0015124999918043613,-0.0002749999985098839
-0.13005000352859497,0.934950053691864,9.796050071716309,0.0006874999962747097,-0.0002749999985098839,-0.0002749999985098839
-0.13199999928474426,0.9330000281333923,9.768000602722168,0.0019249999895691872,-0.0002749999985098839,-0.0002749999985098839
-0.13905000686645508,0.9379500150680542,9.801000595092773,0.0006874999962747097,-0.0015124999918043613,0.0009624999947845936
-0.1270500123500824,0.9379500150680542,9.777000427246094,-0.0005499999970197678,0.0009624999947845936,0.0009624999947845936
-0.13905000686645508,0.9430500268936157,9.787050247192383,-0.0005499999970197678,-0.0015124999918043613,0.0009624999947845936
-0.13199999928474426,0.9280500411987305,9.768000602722168,-0.0005499999970197678,-0.0002749999985098839,-0.0002749999985098839
-0.12495000660419464,0.934950053691864,9.769950866699219,-0.0005499999970197678,-0.0015124999918043613,-0.0002749999985098839
-0.1270500123500824,0.9499500393867493,9.793950080871582,-0.0005499999970197678,-0.0002749999985098839,-0.0002749999985098839
-0.13395000994205475,0.9379500150680542,9.805950164794922,0.0006874999962747097,-0.0015124999918043613,0.0009624999947845936
-0.14205001294612885,0.9310500621795654,9.781949996948242,-0.0005499999970197678,-0.0015124999918043613,-0.0002749999985098839
-0.13905000686645508,0.9430500268936157,9.792000770568848,-0.0005499999970197678,-0.0002749999985098839,0.0009624999947845936
-0.13199999928474426,0.9330000281333923,9.772050857543945,-0.0005499999970197678,-0.0002749999985098839,0.0009624999947845936
-0.13199999928474426,0.9400500655174255,9.789000511169434,0.0006874999962747097,-0.0002749999985098839,-0.0002749999985098839
-0.12000000476837158,0.9310500621795654,9.777000427246094,-0.0005499999970197678,-0.0002749999985098839,-0.0002749999985098839
-0.11295000463724136,0.9330000281333923,9.799050331115723,-0.0005499999970197678,-0.0002749999985098839,-0.0002749999985098839
-0.12495000660419464,0.9259500503540039,9.781949996948242,0.0006874999962747097,-0.0015124999918043613,-0.0002749999985098839
-0.13005000352859497,0.9379500150680542,9.789000511169434,0.0006874999962747097,-0.0002749999985098839,0.0009624999947845936
-0.13905000686645508,0.9520500302314758,9.789000511169434,0.0006874999962747097,-0.0002749999985098839,0.0009624999947845936
-0.1270500123500824,0.9310500621795654,9.787050247192383,-0.0005499999970197678,-0.0002749999985098839,-0.0002749999985098839
-0.12000000476837158,0.934950053691864,9.793950080871582,-0.0005499999970197678,-0.0015124999918043613,-0.0002749999985098839
-0.12195000797510147,0.934950053691864,9.763050079345703,0.0006874999962747097,-0.0002749999985098839,-0.0002749999985098839
-0.13199999928474426,0.9379500150680542,9.768000602722168,0.0006874999962747097,-0.0002749999985098839,-0.0002749999985098839
-0.1270500123500824,0.9379500150680542,9.781949996948242,0.0006874999962747097,-0.0002749999985098839,-0.0002749999985098839
-0.14205001294612885,0.9520500302314758,9.781949996948242,-0.0005499999970197678,-0.0002749999985098839,0.0009624999947845936
-0.13695000112056732,0.9400500655174255,9.772050857543945,-0.0005499999970197678,-0.0002749999985098839,-0.0002749999985098839
-0.12000000476837158,0.9190500378608704,9.781949996948242,0.0006874999962747097,-0.0015124999918043613,-0.0002749999985098839
-0.13395000994205475,0.9540000557899475,9.796050071716309,-0.0005499999970197678,-0.0002749999985098839,-0.0002749999985098839
-0.13395000994205475,0.9379500150680542,9.781949996948242,-0.0005499999970197678,-0.0002749999985098839,-0.0002749999985098839
-0.13199999928474426,0.9379500150680542,9.772050857543945,-0.0005499999970197678,-0.0002749999985098839,-0.0002749999985098839
-0.12195000797510147,0.934950053691864,9.799050331115723,-0.0005499999970197678,-0.0002749999985098839,-0.0002749999985098839
-0.13395000994205475,0.9280500411987305,9.804000854492188,-0.0005499999970197678,-0.0002749999985098839,0.0009624999947845936
-0.12495000660419464,0.9430500268936157,9.784050941467285,0.0006874999962747097,-0.0002749999985098839,0.0009624999947845936
-0.14205001294612885,0.9280500411987305,9.787050247192383,0.0006874999962747097,-0.0002749999985098839,0.0009624999947845936
-0.13395000994205475,0.9430500268936157,9.801000595092773,0.0006874999962747097,-0.0015124999918043613,0.0009624999947845936
-0.13199999928474426,0.9379500150680542,9.772050857543945,0.0006874999962747097,-0.0015124999918043613,-0.0002749999985098839
-0.14205001294612885,0.934950053691864,9.814950942993164,-0.0005499999970197678,-0.0002749999985098839,0.0009624999947845936
-0.12195000797510147,0.9280500411987305,9.769950866699219,0.0006874999962747097,-0.0015124999918043613,-0.0002749999985098839
-0.10605000704526901,0.9430500268936157,9.793950080871582,0.0006874999962747097,-0.0002749999985098839,-0.0002749999985098839
-0.11805000901222229,0.9400500655174255,9.789000511169434,0.0006874999962747097,-0.0002749999985098839,-0.0002749999985098839
-0.1080000028014183,0.9430500268936157,9.780000686645508,0.0006874999962747097,-0.0002749999985098839,-0.0002749999985098839
-0.12000000476837158,0.9330000281333923,9.781949996948242,-0.0005499999970197678,-0.0002749999985098839,-0.0002749999985098839
-0.1270500123500824,0.9400500655174255,9.772050857543945,-0.0005499999970197678,-0.0002749999985098839,-0.0002749999985098839
-0.1270500123500824,0.934950053691864,9.781949996948242,-0.0005499999970197678,-0.0002749999985098839,0.0009624999947845936
-0.13395000994205475,0.9379500150680542,9.781949996948242,-0.0005499999970197678,-0.0002749999985098839,-0.0002749999985098839
-0.13005000352859497,0.9280500411987305,9.793950080871582,0.0006874999962747097,0.0009624999947845936,0.0009624999947845936
-0.12495000660419464,0.9430500268936157,9.780000686645508,0.0006874999962747097,-0.0002749999985098839,-0.0002749999985098839
-0.13005000352859497,0.9400500655174255,9.769950866699219,-0.0005499999970197678,-0.0002749999985098839,-0.0002749999985098839
-0.12195000797510147,0.9430500268936157,9.789000511169434,0.0006874999962747097,-0.0002749999985098839,-0.0002749999985098839
-0.1270500123500824,0.9450000524520874,9.760050773620605,0.0006874999962747097,-0.0002749999985098839,0.0009624999947845936
-0.12000000476837158,0.9330000281333923,9.789000511169434,0.0006874999962747097,-0.0002749999985098839,-0.0002749999985098839
-0.13695000112056732,0.9310500621795654,9.768000602722168,-0.0005499999970197678,-0.0002749999985098839,-0.0002749999985098839
-0.14205001294612885,0.9379500150680542,9.796050071716309,-0.0005499999970197678,-0.0002749999985098839,-0.0002749999985098839
-0.1270500123500824,0.9450000524520874,9.781949996948242,0.0006874999962747097,-0.0002749999985098839,-0.0002749999985098839
-0.12495000660419464,0.934950053691864,9.799050331115723,-0.0005499999970197678,-0.0002749999985098839,-0.0002749999985098839
-0.13395000994205475,0.934950053691864,9.784050941467285,0.0006874999962747097,-0.0002749999985098839,0.0009624999947845936
-0.12195000797510147,0.9430500268936157,9.789000511169434,0.0006874999962747097,-0.0015124999918043613,-0.0002749999985098839
-0.15405000746250153,0.934950053691864,9.859050750732422,-0.0030249999836087227,0.008249999955296516,-0.0015124999918043613
-0.1270500123500824,0.9430500268936157,9.808050155639648,-0.0005499999970197678,0.0009624999947845936,-0.0002749999985098839
-0.12000000476837158,0.9430500268936157,9.760050773620605,0.0006874999962747097,-0.002749999985098839,-0.0002749999985098839
-0.12495000660419464,0.9379500150680542,9.768000602722168,0.0006874999962747097,-0.003987499978393316,-0.0002749999985098839
-0.12195000797510147,0.9430500268936157,9.760050773620605,-0.0005499999970197678,-0.0002749999985098839,0.0009624999947845936
-0.13395000994205475,0.9400500655174255,9.769950866699219,-0.0005499999970197678,-0.0002749999985098839,-0.0002749999985098839
-0.13005000352859497,0.9469500184059143,9.769950866699219,0.0006874999962747097,-0.0015124999918043613,-0.0002749999985098839
-0.13199999928474426,0.934950053691864,9.780000686645508,0.0006874999962747097,-0.0015124999918043613,-0.0002749999985098839
-0.2160000056028366,0.9589500427246094,9.772050857543945,0.0006874999962747097,-0.0002749999985098839,-0.0002749999985098839
-0.1489500105381012,0.9450000524520874,9.805950164794922,-0.0005499999970197678,-0.0002749999985098839,-0.0002749999985098839
-0.13199999928474426,0.9469500184059143,9.757950782775879,0.0006874999962747097,0.0009624999947845936,-0.0002749999985098839
-0.12195000797510147,0.9330000281333923,9.781949996948242,-0.0005499999970197678,-0.0002749999985098839,0.0009624999947845936
-0.13395000994205475,0.934950053691864,9.805950164794922,-0.0005499999970197678,-0.0015124999918043613,-0.0002749999985098839
-0.1270500123500824,0.9400500655174255,9.796050071716309,0.0006874999962747097,-0.0002749999985098839,-0.0002749999985098839
-0.13199999928474426,0.9430500268936157,9.760050773620605,-0.0005499999970197678,-0.0002749999985098839,0.0009624999947845936
-0.1270500123500824,0.9330000281333923,9.801000595092773,-0.0005499999970197678,-0.0015124999918043613,-0.0002749999985098839
-0.12495000660419464,0.9379500150680542,9.799050331115723,-0.0005499999970197678,-0.0002749999985098839,-0.0002749999985098839
-0.12495000660419464,0.9540000557899475,9.789000511169434,0.0006874999962747097,0.0009624999947845936,-0.0002749999985098839
-0.13199999928474426,0.9330000281333923,9.796050071716309,-0.0005499999970197678,-0.0002749999985098839,-0.0002749999985098839
-0.13395000994205475,0.9450000524520874,9.787050247192383,0.0006874999962747097,-0.0002749999985098839,0.0009624999947845936
-0.13005000352859497,0.9430500268936157,9.799050331115723,-0.0005499999970197678,-0.0002749999985098839,-0.0002749999985098839
-0.14400000870227814,0.9760500192642212,9.756000518798828,-0.0005499999970197678,-0.0002749999985098839,-0.0002749999985098839
-0.14400000870227814,0.934950053691864,9.787050247192383,0.0006874999962747097,-0.0015124999918043613,0.0009624999947845936
-0.11295000463724136,0.9400500655174255,9.780000686645508,-0.0005499999970197678,-0.0015124999918043613,-0.0002749999985098839
-0.13695000112056732,0.9430500268936157,9.793950080871582,0.0006874999962747097,-0.0002749999985098839,-0.0002749999985098839
-0.13199999928474426,0.9280500411987305,9.772050857543945,0.0006874999962747097,-0.0002749999985098839,-0.0002749999985098839
-0.13199999928474426,0.934950053691864,9.787050247192383,0.0006874999962747097,-0.0002749999985098839,-0.0002749999985098839
-0.12495000660419464,0.9430500268936157,9.777000427246094,0.0006874999962747097,-0.0002749999985098839,-0.0002749999985098839
-0.12195000797510147,0.934950053691864,9.801000595092773,-0.0005499999970197678,-0.0002749999985098839,0.0009624999947845936
-0.13199999928474426,0.9379500150680542,9.781949996948242,0.0006874999962747097,-0.0002749999985098839,-0.0002749999985098839
-0.12000000476837158,0.9259500503540039,9.796050071716309,0.0006874999962747097,-0.0015124999918043613,-0.0002749999985098839
-0.13005000352859497,0.9310500621795654,9.801000595092773,-0.0005499999970197678,-0.0002749999985098839,-0.0002749999985098839
-0.13199999928474426,0.9400500655174255,9.736050605773926,0.0006874999962747097,-0.0002749999985098839,-0.0002749999985098839
-0.13199999928474426,0.9330000281333923,9.813000679016113,-0.0005499999970197678,0.0009624999947845936,-0.0002749999985098839
-0.11505000293254852,0.9520500302314758,9.796050071716309,-0.0005499999970197678,0.0009624999947845936,-0.0002749999985098839
-0.12495000660419464,0.9310500621795654,9.796050071716309,-0.0005499999970197678,-0.0002749999985098839,0.0009624999947845936
-0.13005000352859497,0.9280500411987305,9.768000602722168,-0.0005499999970197678,-0.0015124999918043613,-0.0002749999985098839
-0.1270500123500824,0.9450000524520874,9.787050247192383,-0.0005499999970197678,-0.0002749999985098839,-0.0002749999985098839
-0.13695000112056732,0.9520500302314758,9.823050498962402,-0.0005499999970197678,-0.0002749999985098839,-0.0002749999985098839
-0.14205001294612885,0.9450000524520874,9.765000343322754,0.0006874999962747097,-0.0002749999985098839,-0.0002749999985098839
-0.11805000901222229,0.9430500268936157,9.801000595092773,-0.0005499999970197678,-0.0002749999985098839,-0.0002749999985098839
-0.1270500123500824,0.9330000281333923,9.757950782775879,0.0006874999962747097,-0.0002749999985098839,0.0009624999947845936
-0.12495000660419464,0.9430500268936157,9.801000595092773,0.0006874999962747097,-0.0015124999918043613,-0.0002749999985098839
-0.12495000660419464,0.934950053691864,9.768000602722168,0.0006874999962747097,-0.0002749999985098839,-0.0002749999985098839
-0.13199999928474426,0.9330000281333923,9.780000686645508,-0.0005499999970197678,-0.0002749999985098839,-0.0002749999985098839
-0.13395000994205475,0.9330000281333923,9.780000686645508,0.0006874999962747097,-0.0002749999985098839,-0.0002749999985098839
-0.12000000476837158,0.9430500268936157,9.787050247192383,0.0006874999962747097,-0.0002749999985098839,0.0009624999947845936
-0.12000000476837158,0.9450000524520874,9.793950080871582,0.0006874999962747097,-0.0002749999985098839,-0.0002749999985098839
-0.12000000476837158,0.9379500150680542,9.765000343322754,0.0006874999962747097,-0.0002749999985098839,-0.0002749999985098839
-0.13695000112056732,0.9430500268936157,9.801000595092773,-0.0005499999970197678,-0.0002749999985098839,-0.0002749999985098839
-0.12195000797510147,0.934950053691864,9.772050857543945,-0.0005499999970197678,-0.0015124999918043613,0.0009624999947845936
-0.13005000352859497,0.9259500503540039,9.801000595092773,-0.0006874999962747097,0.00013749999925494194,-0.0002749999985098839
-0.1099500060081482,0.9310500621795654,9.729000091552734,0.0005499999970197678,0.00013749999925494194,0.0009624999947845936
-0.13005000352859497,0.9259500503540039,9.98805046081543,-0.0031624999828636646,0.00013749999925494194,0.0009624999947845936
-0.13199999928474426,0.9379500150680542,9.904050827026367,-0.0006874999962747097,0.00013749999925494194,-0.0002749999985098839
-0.15105000138282776,0.9379500150680542,9.817950248718262,-0.0019249999895691872,-0.0010999999940395355,-0.0002749999985098839
-0.14205001294612885,0.9379500150680542,9.811050415039062,-0.0006874999962747097,0.00013749999925494194,0.0009624999947845936
-0.18495000898838043,0.9540000557899475,9.811050415039062,-0.0006874999962747097,0.00013749999925494194,-0.0002749999985098839
-0.11295000463724136,0.9330000281333923,9.789000511169434,0.0005499999970197678,-0.0010999999940395355,-0.0002749999985098839
-0.13199999928474426,0.9379500150680542,9.775050163269043,0.0005499999970197678,-0.0010999999940395355,0.0009624999947845936
-0.1270500123500824,0.9400500655174255,9.799050331115723,0.0005499999970197678,0.0013749999925494194,-0.0002749999985098839
-0.12195000797510147,0.9520500302314758,9.772050857543945,0.0005499999970197678,-0.0010999999940395355,-0.0002749999985098839
-0.10095000267028809,0.922950029373169,9.684000015258789,0.0005499999970197678,0.0013749999925494194,-0.0002749999985098839
-0.11805000901222229,0.922950029373169,9.906000137329102,-0.0006874999962747097,-0.0010999999940395355,-0.0002749999985098839
-0.13005000352859497,0.9330000281333923,9.835050582885742,0.0017874999903142452,-0.0010999999940395355,-0.0002749999985098839
-0.14595000445842743,0.9499500393867493,9.808050155639648,0.0005499999970197678,-0.0010999999940395355,0.0009624999947845936
-0.20400001108646393,0.9690000414848328,9.777000427246094,0.0005499999970197678,0.00013749999925494194,-0.0002749999985098839
-0.15405000746250153,0.934950053691864,9.787050247192383,0.0005499999970197678,0.00013749999925494194,0.0009624999947845936
-0.1099500060081482,0.934950053691864,9.796050071716309,-0.0006874999962747097,-0.0010999999940395355,-0.0002749999985098839
-0.13395000994205475,0.9379500150680542,9.777000427246094,0.0005499999970197678,0.00013749999925494194,-0.0002749999985098839
-0.13395000994205475,0.934950053691864,9.789000511169434,-0.0006874999962747097,0.00013749999925494194,-0.0002749999985098839
-0.14400000870227814,0.934950053691864,9.784050941467285,0.0005499999970197678,0.00013749999925494194,-0.0002749999985098839
-0.11805000901222229,0.9379500150680542,9.801000595092773,-0.0006874999962747097,0.00013749999925494194,-0.0002749999985098839
-0.12000000476837158,0.934950053691864,9.781949996948242,-0.0006874999962747097,0.00013749999925494194,-0.0002749999985098839
-0.11295000463724136,0.9310500621795654,9.792000770568848,-0.0006874999962747097,0.00013749999925494194,-0.0002749999985098839
-0.11505000293254852,0.9430500268936157,9.769950866699219,0.0005499999970197678,-0.0010999999940395355,-0.0002749999985098839
-0.12495000660419464,0.9310500621795654,9.799050331115723,-0.0006874999962747097,-0.0010999999940395355,-0.0002749999985098839
-0.12000000476837158,0.9400500655174255,9.775050163269043,-0.0006874999962747097,0.00013749999925494194,-0.0002749999985098839
-0.13199999928474426,0.9400500655174255,9.792000770568848,-0.0006874999962747097,0.00013749999925494194,-0.0002749999985098839
-0.12195000797510147,0.9469500184059143,9.829950332641602,-0.0006874999962747097,0.00013749999925494194,-0.0002749999985098839
-0.1099500060081482,0.9450000524520874,9.808050155639648,0.0005499999970197678,0.00013749999925494194,-0.0002749999985098839
-0.13905000686645508,0.9280500411987305,9.817950248718262,0.0005499999970197678,0.00013749999925494194,-0.0002749999985098839
-0.13395000994205475,0.934950053691864,9.768000602722168,0.0005499999970197678,-0.0010999999940395355,-0.0002749999985098839
-0.1270500123500824,0.9430500268936157,9.799050331115723,-0.0006874999962747097,0.00013749999925494194,0.0009624999947845936
-0.12495000660419464,0.9379500150680542,9.753000259399414,0.0005499999970197678,0.00013749999925494194,-0.0002749999985098839
-0.034050002694129944,0.921000063419342,9.732000350952148,0.0005499999970197678,0.00013749999925494194,0.0009624999947845936
-0.12495000660419464,0.9619500637054443,9.775050163269043,-0.0006874999962747097,0.00013749999925494194,-0.0002749999985098839
-0.11805000901222229,0.934950053691864,9.769950866699219,-0.0006874999962747097,0.0013749999925494194,0.0009624999947845936
-0.14205001294612885,0.9430500268936157,9.784050941467285,0.0005499999970197678,0.00013749999925494194,-0.0002749999985098839
-0.13005000352859497,0.9450000524520874,9.769950866699219,0.0005499999970197678,0.00013749999925494194,-0.0002749999985098839
-0.13695000112056732,0.9379500150680542,9.792000770568848,-0.0006874999962747097,-0.0010999999940395355,-0.0002749999985098839
-0.13005000352859497,0.9450000524520874,9.768000602722168,0.0005499999970197678,0.00013749999925494194,0.0009624999947845936
-0.12000000476837158,0.9330000281333923,9.793950080871582,0.0005499999970197678,0.0013749999925494194,0.0009624999947845936
-0.11505000293254852,0.9330000281333923,9.765000343322754,0.0005499999970197678,0.00013749999925494194,-0.0002749999985098839
-0.13005000352859497,0.934950053691864,9.796050071716309,0.0005499999970197678,0.00013749999925494194,-0.0002749999985098839
-0.13005000352859497,0.9450000524520874,9.789000511169434,0.0005499999970197678,0.00013749999925494194,-0.0002749999985098839
-0.13199999928474426,0.922950029373169,9.792000770568848,0.0005499999970197678,0.00013749999925494194,-0.0002749999985098839
-0.12195000797510147,0.9379500150680542,9.781949996948242,0.0005499999970197678,0.00013749999925494194,-0.0002749999985098839
-0.12000000476837158,0.922950029373169,9.796050071716309,-0.0006874999962747097,0.00013749999925494194,-0.0002749999985098839
-0.13005000352859497,0.934950053691864,9.781949996948242,-0.0006874999962747097,0.00013749999925494194,0.0009624999947845936
-0.11805000901222229,0.934950053691864,9.801000595092773,0.0005499999970197678,0.00013749999925494194,-0.0002749999985098839
-0.12195000797510147,0.9379500150680542,9.787050247192383,0.0005499999970197678,0.00013749999925494194,-0.0002749999985098839
-0.13005000352859497,0.9310500621795654,9.793950080871582,0.0005499999970197678,0.00013749999925494194,-0.0002749999985098839
-0.13395000994205475,0.9139500260353088,9.799050331115723,-0.0006874999962747097,0.00013749999925494194,-0.0002749999985098839
-0.13905000686645508,0.9430500268936157,9.765000343322754,0.0005499999970197678,0.00013749999925494194,-0.0002749999985098839
-0.1270500123500824,0.9400500655174255,9.792000770568848,-0.0006874999962747097,0.00013749999925494194,-0.0002749999985098839
-0.12495000660419464,0.9430500268936157,9.780000686645508,-0.0006874999962747097,0.00013749999925494194,-0.0002749999985098839
-0.13395000994205475,0.9450000524520874,9.772050857543945,0.0005499999970197678,0.0013749999925494194,-0.0002749999985098839
-0.22305001318454742,0.9469500184059143,9.780000686645508,0.0005499999970197678,0.00013749999925494194,-0.0002749999985098839
-0.13695000112056732,0.922950029373169,9.799050331115723,0.0005499999970197678,0.0013749999925494194,-0.0002749999985098839
-0.13395000994205475,0.934950053691864,9.769950866699219,0.0005499999970197678,0.00013749999925494194,-0.0002749999985098839
-0.1099500060081482,0.9379500150680542,9.801000595092773,0.0005499999970197678,0.00013749999925494194,-0.0002749999985098839
-0.14205001294612885,0.9400500655174255,9.775050163269043,0.0005499999970197678,0.00013749999925494194,-0.0002749999985098839
-0.12495000660419464,0.9499500393867493,9.796050071716309,-0.0006874999962747097,0.00013749999925494194,-0.0002749999985098839
-0.12195000797510147,0.921000063419342,9.787050247192383,0.0005499999970197678,0.00013749999925494194,-0.0002749999985098839
-0.11505000293254852,0.9450000524520874,9.780000686645508,-0.0006874999962747097,0.0013749999925494194,0.0009624999947845936
-0.12195000797510147,0.934950053691864,9.784050941467285,-0.0006874999962747097,0.0013749999925494194,-0.0002749999985098839
-0.1099500060081482,0.9430500268936157,9.811050415039062,-0.0006874999962747097,-0.002337499987334013,-0.0002749999985098839
-0.13005000352859497,0.934950053691864,9.804000854492188,0.0005499999970197678,0.00013749999925494194,-0.0002749999985098839
-0.13199999928474426,0.9520500302314758,9.796050071716309,0.0005499999970197678,0.0013749999925494194,-0.0002749999985098839
-0.1270500123500824,0.9469500184059143,9.792000770568848,0.0005499999970197678,0.00013749999925494194,-0.0002749999985098839
-0.11505000293254852,0.9430500268936157,9.768000602722168,0.0005499999970197678,0.00013749999925494194,0.0009624999947845936
-0.12000000476837158,0.9379500150680542,9.799050331115723,-0.0006874999962747097,0.00013749999925494194,-0.0002749999985098839
-0.14205001294612885,0.9070500135421753,9.787050247192383,0.0005499999970197678,0.0013749999925494194,-0.0002749999985098839
-0.10605000704526901,0.9330000281333923,9.808050155639648,0.0005499999970197678,0.0013749999925494194,-0.0002749999985098839
-0.14595000445842743,0.9330000281333923,9.789000511169434,-0.0006874999962747097,0.00013749999925494194,-0.0002749999985098839
-0.11805000901222229,0.9469500184059143,9.781949996948242,-0.0006874999962747097,0.0013749999925494194,-0.0002749999985098839
-0.11805000901222229,0.9330000281333923,9.808050155639648,0.0005499999970197678,0.00013749999925494194,-0.0002749999985098839
-0.13695000112056732,0.9280500411987305,9.768000602722168,0.0005499999970197678,0.00013749999925494194,0.0009624999947845936
-0.12000000476837158,0.9330000281333923,9.789000511169434,0.0005499999970197678,0.00013749999925494194,-0.0002749999985098839
-0.12195000797510147,0.9450000524520874,9.780000686645508,-0.0006874999962747097,0.00013749999925494194,-0.0002749999985098839
-0.13199999928474426,0.934950053691864,9.780000686645508,0.0005499999970197678,0.00013749999925494194,-0.0002749999985098839
-0.11805000901222229,0.9379500150680542,9.796050071716309,-0.0006874999962747097,0.00013749999925494194,-0.0002749999985098839
-0.11505000293254852,0.9330000281333923,9.765000343322754,0.0005499999970197678,0.00013749999925494194,0.0009624999947845936
-0.13695000112056732,0.9310500621795654,9.808050155639648,-0.0019249999895691872,0.00013749999925494194,0.0009624999947845936
-0.13005000352859497,0.9499500393867493,9.777000427246094,0.0005499999970197678,0.00013749999925494194,-0.0002749999985098839
-0.14400000870227814,0.9379500150680542,9.826950073242188,-0.0006874999962747097,0.00013749999925494194,-0.0002749999985098839
-0.13395000994205475,0.9450000524520874,9.768000602722168,-0.0006874999962747097,0.00013749999925494194,-0.0002749999985098839
-0.11805000901222229,0.934950053691864,9.772050857543945,-0.0006874999962747097,0.00013749999925494194,-0.0002749999985098839
-0.11805000901222229,0.9330000281333923,9.787050247192383,0.0005499999970197678,0.00013749999925494194,-0.0002749999985098839
-0.1270500123500824,0.9450000524520874,9.781949996948242,0.0005499999970197678,-0.0010999999940395355,-0.0002749999985098839
-0.13395000994205475,0.9280500411987305,9.804000854492188,0.0005499999970197678,0.00013749999925494194,0.0009624999947845936
-0.1270500123500824,0.9400500655174255,9.789000511169434,0.0005499999970197678,-0.0010999999940395355,-0.0002749999985098839
-0.1270500123500824,0.9430500268936157,9.784050941467285,0.0005499999970197678,0.0013749999925494194,-0.0002749999985098839
-0.12495000660419464,0.9400500655174255,9.777000427246094,0.0005499999970197678,0.00013749999925494194,-0.0002749999985098839
-0.13199999928474426,0.922950029373169,9.792000770568848,0.0005499999970197678,0.00013749999925494194,0.0009624999947845936
-0.13005000352859497,0.934950053691864,9.780000686645508,0.0005499999970197678,0.00013749999925494194,-0.0002749999985098839
-0.14205001294612885,0.9400500655174255,9.787050247192383,0.0005499999970197678,0.00013749999925494194,0.0009624999947845936
-0.13395000994205475,0.9450000524520874,9.753000259399414,-0.0019249999895691872,-0.0010999999940395355,-0.0002749999985098839
-0.13199999928474426,0.9430500268936157,9.751049995422363,0.0005499999970197678,0.00013749999925494194,0.0009624999947845936
-0.13905000686645508,0.9469500184059143,9.72705078125,0.0005499999970197678,0.0013749999925494194,-0.0002749999985098839
-0.13395000994205475,0.9540000557899475,9.756000518798828,0.0005499999970197678,0.00013749999925494194,-0.0002749999985098839
-0.13395000994205475,0.9430500268936157,9.760050773620605,0.0005499999970197678,-0.0010999999940395355,-0.0002749999985098839
-0.2160000056028366,0.9660000205039978,9.787050247192383,0.0005499999970197678,0.00013749999925494194,-0.0002749999985098839
-0.16095000505447388,0.9450000524520874,9.784050941467285,-0.0006874999962747097,-0.0010999999940395355,-0.0002749999985098839
-0.11505000293254852,0.921000063419342,9.799050331115723,-0.0006874999962747097,-0.0010999999940395355,0.0009624999947845936
-0.12000000476837158,0.934950053691864,9.789000511169434,0.0005499999970197678,0.00013749999925494194,0.0009624999947845936
-0.13005000352859497,0.9280500411987305,9.789000511169434,0.0005499999970197678,0.00013749999925494194,-0.0002749999985098839
-0.12495000660419464,0.9469500184059143,9.784050941467285,-0.0006874999962747097,0.00013749999925494194,-0.0002749999985098839
-0.11805000901222229,0.9400500655174255,9.796050071716309,0.0005499999970197678,0.00013749999925494194,-0.0002749999985098839
-0.12495000660419464,0.9430500268936157,9.760050773620605,0.0005499999970197678,0.00013749999925494194,0.0009624999947845936
-0.12000000476837158,0.9400500655174255,9.799050331115723,-0.0006874999962747097,0.00013749999925494194,-0.0002749999985098839
-0.13005000352859497,0.9430500268936157,9.781949996948242,0.0005499999970197678,0.00013749999925494194,-0.0002749999985098839
-0.13695000112056732,0.9330000281333923,9.792000770568848,0.0005499999970197678,0.00013749999925494194,-0.0002749999985098839
-0.13905000686645508,0.9330000281333923,9.772050857543945,0.0005499999970197678,0.00013749999925494194,-0.0002749999985098839
-0.13395000994205475,0.9310500621795654,9.801000595092773,0.0005499999970197678,0.00013749999925494194,-0.0002749999985098839
-0.13005000352859497,0.9589500427246094,9.757950782775879,0.0005499999970197678,0.00013749999925494194,-0.0002749999985098839
-0.14400000870227814,0.9660000205039978,9.44895076751709,-0.0006874999962747097,0.00013749999925494194,-0.0002749999985098839
-0.12495000660419464,0.9810000658035278,9.327000617980957,0.009074999950826168,0.00013749999925494194,0.0009624999947845936
-0.13005000352859497,0.9330000281333923,9.643050193786621,0.006737499963492155,0.0013749999925494194,-0.0002749999985098839
-0.12495000660419464,0.9259500503540039,9.708000183105469,0.0030249999836087227,0.00013749999925494194,-0.0002749999985098839
