accX,accY,accZ,gyroX,gyroY,gyroZ
-1.3902841806411743,7.853057861328125,5.754520893096924,-0.007295476272702217,-0.3920358419418335,-0.18388788402080536
-1.3025989532470703,7.394376754760742,4.89486837387085,-0.23123867809772491,-0.3465525805950165,-0.2349911332130432
-0.42930907011032104,8.297823905944824,3.890481948852539,-0.5674763321876526,-0.15851080417633057,-0.3070208728313446
-0.11576443910598755,8.834335327148438,2.539548873901367,-0.8463799357414246,-0.22385592758655548,-0.46931904554367065
0.18395130336284637,8.342164993286133,2.2399959564208984,-1.5833452939987183,-0.5110847353935242,-1.031489610671997
-1.0292960405349731,6.670580863952637,3.911761522293091,-2.0827536582946777,-0.7024251818656921,-1.3740278482437134
-1.9526629447937012,5.422943115234375,5.989880561828613,-2.160874605178833,-0.8602553606033325,-1.3560161590576172
-1.4819246530532837,5.011044979095459,7.321545124053955,-2.0290675163269043,-0.6812543869018555,-1.3336758613586426
-1.8451441526412964,5.942418098449707,7.103758811950684,-1.4392683506011963,-0.48834311962127686,-1.3746387958526611
-0.7510418891906738,6.730454921722412,6.378832817077637,-1.7615957260131836,-0.6519502997398376,-0.614704966545105
-0.3598484992980957,4.77982234954834,8.113232612609863,-2.270970106124878,-0.5268450975418091,-0.7536855340003967
-1.4971134662628174,3.124136209487915,10.92225170135498,-2.406529664993286,-1.2982631921768188,-0.6641501188278198
-3.1962974071502686,3.2916440963745117,12.690321922302246,-2.0108113288879395,-1.2085881233215332,-0.22212804853916168
-3.6221587657928467,4.433640003204346,12.834291458129883,-1.0977247953414917,-0.49309042096138,0.20404644310474396
-2.805171012878418,4.967680931091309,12.266788482666016,0.10187486559152603,-0.44116687774658203,0.425144761800766
-1.1400039196014404,2.7385165691375732,14.221405029296875,1.1114954948425293,0.2566506564617157,0.518502414226532
0.7990121245384216,1.170592188835144,14.475027084350586,1.7814226150512695,1.5800988674163818,0.4806462228298187
0.27313050627708435,2.478726387023926,12.20114803314209,2.201785087585449,2.344500780105591,0.2071182280778885
-1.2888658046722412,3.7475287914276123,9.499693870544434,2.113314390182495,2.031301498413086,0.09386380761861801
-3.2821438312530518,6.185390949249268,6.756216526031494,1.4503337144851685,1.0647904872894287,0.08480554819107056
-3.3713231086730957,6.598419666290283,5.072068214416504,0.7868991494178772,1.1028386354446411,0.22884756326675415
-2.5441648960113525,6.375394821166992,5.296874046325684,0.1581268310546875,0.47916269302368164,0.27722808718681335
-2.210700511932373,6.130755424499512,7.545498847961426,-0.05120795965194702,0.14997614920139313,0.1768716722726822
-2.2060461044311523,5.7058515548706055,8.567765235900879,0.07857472449541092,0.2944021224975586,0.18483036756515503
-2.4559240341186523,5.609692096710205,8.583106994628906,0.27263787388801575,0.48059386014938354,0.3439171314239502
-2.086374282836914,5.660505294799805,8.600078582763672,0.46387359499931335,0.6937683820724487,0.4599291682243347
-2.622684955596924,6.250638008117676,6.757365703582764,0.5690820813179016,0.2917492389678955,0.34663984179496765
-2.573833703994751,6.175938606262207,6.940953254699707,0.588193416595459,0.1785820871591568,0.3323805034160614
-2.6786422729492188,6.185477256774902,6.797550201416016,0.6084043383598328,0.15018558502197266,0.3470587134361267
-2.1379263401031494,6.87705659866333,6.157944202423096,0.615769624710083,0.08217009902000427,0.29309314489364624
-2.2024643421173096,6.984269142150879,5.926769256591797,0.6125756502151489,-0.13877113163471222,0.20963150262832642
-2.0211563110351562,7.101038932800293,5.832773208618164,0.5420469045639038,-0.240768164396286,0.12147491425275803
-1.6980444192886353,7.387290000915527,5.948776721954346,0.37568211555480957,-0.18423695862293243,-0.009180432185530663
-1.7512723207473755,7.25309944152832,6.026349067687988,0.18537141382694244,-0.026511551812291145,-0.16425293684005737
-2.229231595993042,6.7158122062683105,6.448810577392578,0.08075638115406036,0.09882054477930069,-0.19113101065158844
-2.8364105224609375,6.4610114097595215,6.651561260223389,0.07801621407270432,0.27724555134773254,-0.057194437831640244
-2.7116918563842773,6.549089431762695,6.693861961364746,0.11217231303453445,0.4268726408481598,0.09868091344833374
-2.5411288738250732,6.826730728149414,6.223870754241943,0.13377948105335236,0.487261027097702,0.18477800488471985
-2.5293591022491455,6.9630279541015625,5.819413661956787,0.12002629041671753,0.35698965191841125,0.17992599308490753
-2.5340421199798584,7.14064884185791,6.048002243041992,0.08269369602203369,0.24448572099208832,0.14154620468616486
-2.5149171352386475,7.0415191650390625,6.362418174743652,0.013875367119908333,0.2940007150173187,0.10217157751321793
-2.7599399089813232,6.886691093444824,6.840118885040283,-0.012828170321881771,0.3971671164035797,0.1094321459531784
-3.0521953105926514,6.899064064025879,7.207715034484863,0.14334389567375183,0.599782407283783,0.24668483436107635
-2.4683260917663574,7.218623161315918,6.228371620178223,0.23406609892845154,0.6520724892616272,0.29305824637413025
-2.2344603538513184,7.722487926483154,5.248089790344238,0.19392353296279907,0.4689350724220276,0.1889493465423584
-2.517119884490967,7.8974080085754395,3.9807050228118896,0.01012290921062231,-0.10602875053882599,0.02157226949930191
-2.427605390548706,7.631298542022705,6.308874607086182,-0.0941779688000679,-0.3422067165374756,-0.11969467997550964
-2.5434560775756836,7.404863357543945,6.766502380371094,-0.0676838681101799,-0.23485150933265686,-0.16180947422981262
-3.346701145172119,6.695470809936523,6.2756524085998535,-0.012880530208349228,-0.21905627846717834,-0.14641566574573517
-3.665043830871582,6.519621849060059,6.1359171867370605,0.0015707963611930609,-0.37348300218582153,0.035150930285453796
-2.8968210220336914,6.974270820617676,6.662574768066406,-0.01595230959355831,-0.37545523047447205,0.17188002169132233
-2.8160791397094727,6.901879787445068,6.309879779815674,0.023771384730935097,0.036163222044706345,-0.05513495206832886
-2.8312008380889893,6.866024494171143,6.146212577819824,0.0030717793852090836,0.06318091601133347,0.029269171878695488
-2.41072154045105,7.236886024475098,6.00732946395874,-0.04979424178600311,0.1016828790307045,0.06497860699892044
-2.3417208194732666,7.299355506896973,6.11515474319458,-0.1045452207326889,0.11547098308801651,-0.005532693583518267
-2.585507869720459,7.215156555175781,6.584437370300293,-0.10505136847496033,0.16912239789962769,-0.020472712814807892
-3.363269090652466,7.205435752868652,5.2734503746032715,-0.03879866749048233,-0.32218778133392334,0.03565707802772522
-2.5659806728363037,7.599569320678711,7.066984176635742,0.08475318551063538,-0.7047814130783081,0.019547687843441963
-2.1038999557495117,7.286675930023193,6.866694927215576,0.17608626186847687,-0.5452234148979187,-0.11545352637767792
-2.607764482498169,7.259793758392334,5.854531764984131,0.15273375809192657,-0.5662022829055786,-0.15416492521762848
-3.0883285999298096,7.249441146850586,4.766443729400635,0.014817845076322556,-0.9550790786743164,-0.14535102248191833
-3.102483034133911,7.615170001983643,4.924221515655518,-0.07796385884284973,-1.2685401439666748,-0.14926055073738098
-2.0765676498413086,8.125929832458496,6.223583221435547,-0.20959658920764923,-1.5049973726272583,-0.32154199481010437
-1.4819246530532837,7.3634352684021,6.906764030456543,-0.39940115809440613,-1.2308236360549927,-0.5566378831863403
-1.1185805797576904,6.685338497161865,6.792522430419922,-0.7123561501502991,-0.8155574202537537,-0.6213197708129883
-1.8865159749984741,6.656272888183594,6.419371604919434,-1.1089123487472534,-0.6993359923362732,-0.5576152205467224
-2.1016013622283936,6.316257953643799,7.543698310852051,-1.0266724824905396,-0.8017693758010864,-0.28208011388778687
-1.925321102142334,6.232260227203369,8.223306655883789,-0.5998522043228149,-1.0440385341644287,-0.27728044986724854
-1.8091353178024292,5.8425703048706055,8.915575981140137,-0.0849626287817955,-1.1464195251464844,-0.31819096207618713
-1.7611267566680908,5.402075290679932,9.300544738769531,0.38231438398361206,-0.7889062762260437,-0.23050563037395477
-1.774496078491211,5.284759521484375,8.656963348388672,0.6520200967788696,-0.3753505051136017,-0.02750638872385025
-1.5810924768447876,5.648189544677734,7.879347324371338,0.636521577835083,0.018081611022353172,0.10985102504491806
-1.3900256156921387,6.174751281738281,6.887696743011475,0.38060393929481506,0.3396236300468445,0.17781414091587067
-1.3500615358352661,6.485978126525879,6.167367458343506,0.04445353522896767,0.29942867159843445,0.13727015256881714
-1.664085030555725,6.550487518310547,6.333515644073486,-0.21608921885490417,-0.04878195375204086,0.040334559977054596
-1.8018665313720703,6.465206146240234,7.247707843780518,-0.35215508937835693,-0.2589719593524933,0.0017976891249418259
-1.8445311784744263,6.13653039932251,8.065021514892578,-0.3537607789039612,-0.12086404860019684,0.06574655324220657
-1.5115073919296265,6.12095832824707,8.324706077575684,-0.24040165543556213,0.16461946070194244,0.1397136002779007
-1.4197232723236084,6.251011371612549,8.064687728881836,-0.07613126188516617,0.27953192591667175,0.15515977144241333
-1.3632009029388428,6.412342071533203,7.964780807495117,0.051975905895233154,0.35234707593917847,0.11006046086549759
-1.548933506011963,6.192774772644043,7.875314235687256,0.10620328783988953,0.4602084159851074,0.09831439703702927
-1.7479970455169678,6.146451950073242,7.451684474945068,0.08801695704460144,0.5486267805099487,0.15111060440540314
-1.6670347452163696,6.269015789031982,7.090054512023926,0.03977605327963829,0.5153084397315979,0.17385224997997284
-1.578018307685852,6.399221897125244,6.506692886352539,0.03447025269269943,0.3680375814437866,0.14868459105491638
-1.8872150182724,6.563253402709961,6.890560150146484,0.22776547074317932,-0.13358749449253082,0.01014036312699318
-1.9590985774993896,6.400246620178223,7.887965202331543,0.3675488829612732,-0.463733971118927,0.028728120028972626
-1.6772148609161377,6.4300689697265625,7.973419189453125,0.3387334942817688,-0.2608918249607086,0.13400638103485107
-1.3848923444747925,6.276322841644287,7.556196212768555,0.26223573088645935,-0.009197885170578957,0.09025097638368607
-1.6661919355392456,6.334281921386719,7.053749084472656,0.24575981497764587,0.16318827867507935,0.1160992980003357
-1.8386510610580444,6.473633766174316,7.060222625732422,0.2646617293357849,0.003717551240697503,0.1717054843902588
-1.8351746797561646,6.774460315704346,7.488430500030518,0.32595768570899963,-0.16259486973285675,0.2174331247806549
-1.5174928903579712,6.8879170417785645,7.581613063812256,0.3776892423629761,-0.11236429959535599,0.16517795622348785
-1.4467297792434692,6.706350326538086,7.215577602386475,0.38643336296081543,-0.005358160939067602,0.08775515109300613
-1.4647629261016846,6.807203769683838,6.748287200927734,0.34206709265708923,0.06286676228046417,0.06925466656684875
-1.4388768672943115,6.961983680725098,6.41720724105835,0.20369738340377808,0.09438740462064743,0.031084313988685608
-1.4975444078445435,6.977862358093262,6.364697456359863,0.11222466826438904,0.06857398897409439,0.014189526438713074
-1.6358909606933594,6.941614151000977,6.40017032623291,0.027035150676965714,0.025761060416698456,0.011414453387260437
-1.7992712259292603,6.822287082672119,6.646064281463623,-0.09400343149900436,-0.0313984714448452,0.04452335089445114
-1.750985026359558,6.7170090675354,6.925783634185791,-0.12681561708450317,-0.020350538194179535,0.09133307635784149
-1.4069477319717407,6.941834449768066,6.9843268394470215,0.029618237167596817,0.06944665312767029,0.0912981703877449
-1.3614579439163208,7.023543834686279,6.9399189949035645,0.0708429142832756,0.04797910153865814,0.07494443655014038
-1.4254884719848633,7.080343723297119,6.924308776855469,0.1068665087223053,0.01377064734697342,0.03637266159057617
-1.6003130674362183,7.008632659912109,6.887581825256348,0.08878489583730698,0.02188642881810665,0.009791296906769276
-1.5834100246429443,6.923255443572998,6.753688335418701,-0.005916666239500046,0.08834856748580933,0.03401646763086319
-1.575116515159607,7.013047218322754,6.81709623336792,-0.03750712424516678,0.08306021988391876,0.026232298463582993
-1.8178789615631104,6.806887626647949,7.137881278991699,-0.011135200969874859,0.0501258559525013,0.006003932561725378
-1.914786696434021,6.7308669090271,7.093368053436279,0.009721484035253525,0.08573057502508163,0.04410447180271149
-1.8458144664764404,6.786201477050781,7.052676200866699,0.030141836032271385,0.10295697301626205,0.08922123163938522
-1.683027982711792,6.924365997314453,7.014158248901367,0.04731587693095207,0.09934414178133011,0.10855948179960251
-1.5990393161773682,6.940139293670654,7.000425338745117,0.05117305368185043,0.10299187898635864,0.0809309184551239
-1.8246114253997803,6.867345809936523,7.002206325531006,0.049357909709215164,0.12089895457029343,0.08183848857879639
-1.829936146736145,6.810813903808594,7.021877288818359,0.044226642698049545,0.16941910982131958,0.12740904092788696
-1.8287487030029297,6.7844109535217285,7.024712085723877,0.047019168734550476,0.24260076880455017,0.17004743218421936
-1.8403748273849487,6.746888637542725,6.875869274139404,0.05850343778729439,0.3066892623901367,0.21957987546920776
-1.7449898719787598,6.73105001449585,6.865200519561768,0.08103563636541367,0.34700635075569153,0.2745228409767151
-1.5269163846969604,6.731690406799316,6.943577289581299,0.20142844319343567,0.6880785822868347,0.32040753960609436
-1.5336393117904663,6.792302131652832,6.646035671234131,0.1307600736618042,1.0508801937103271,0.2636319696903229
-1.6713346242904663,7.220290660858154,6.013659954071045,-0.021903881803154945,1.2762545347213745,0.21064378321170807
-1.3778630495071411,7.269466400146484,5.533210754394531,-0.17842501401901245,1.422199010848999,0.11758282780647278
-1.4597830772399902,7.292891502380371,4.4898176193237305,-0.43387138843536377,1.1771721839904785,-0.08691739290952682
-2.106705904006958,7.226993083953857,5.217530250549316,-0.5937086343765259,0.806045413017273,-0.19374899566173553
-2.4451980590820312,6.978570938110352,5.66617488861084,-0.6491402983665466,0.7363718748092651,-0.21900391578674316
-2.9620583057403564,5.890770435333252,6.856389999389648,-0.7215889096260071,0.8305847644805908,-0.10670942813158035
-3.7904043197631836,5.308682441711426,7.6930389404296875,-0.6821095943450928,1.1186861991882324,0.26741933822631836
-3.8000001907348633,5.870677947998047,8.573989868164062,-0.4643273949623108,1.3647427558898926,0.6412339806556702
-2.7616827487945557,6.4789299964904785,8.82418441772461,-0.1341983675956726,1.6728283166885376,0.6761056184768677
-2.571295976638794,7.747014045715332,6.318796157836914,0.36107370257377625,1.5286815166473389,0.869907021522522
-1.9108219146728516,8.564327239990234,5.2411370277404785,0.21937043964862823,1.3823530673980713,0.44287729263305664
-4.19921875,6.864789009094238,6.521786212921143,-0.08723155409097672,1.5256097316741943,0.06379178166389465
-4.146881580352783,7.195677280426025,5.9110541343688965,0.03933972120285034,1.5771318674087524,0.08817403018474579
-4.682321071624756,7.599761009216309,1.098794937133789,0.08391542732715607,0.5205270051956177,0.10958922654390335
-5.153806209564209,6.557143688201904,5.0839433670043945,0.012601276859641075,-0.46907469630241394,0.16950637102127075
-4.807968616485596,7.3634352684021,6.9427056312561035,-0.07119198143482208,0.22691024839878082,0.33690088987350464
-3.785395622253418,7.419927597045898,5.12291145324707,-0.11847294867038727,0.5028468370437622,0.018727382645010948
-3.656960964202881,7.544962406158447,4.021712779998779,-0.1880941390991211,0.3481408357620239,-0.10899581015110016
-4.22544002532959,7.552968502044678,2.3136701583862305,-0.35360369086265564,-0.5746496319770813,-0.29246482253074646
-4.374781131744385,7.326505661010742,2.3147332668304443,-0.37205183506011963,-1.3383184671401978,-0.33026865124702454
-4.397497177124023,7.105607509613037,3.926710844039917,-0.2932851314544678,-2.8412911891937256,-0.2652202248573303
-3.7035233974456787,6.824883460998535,7.209285736083984,-0.07304202765226364,-3.339478015899658,-0.08337438106536865
-2.9639737606048584,6.914454460144043,5.941316604614258,-0.192422553896904,-0.23687608540058136,-0.2914350628852844
-3.502659559249878,6.648104190826416,6.131301403045654,-0.19577358663082123,-0.42935100197792053,-0.1820203810930252
-3.3299801349639893,6.5835466384887695,6.752127170562744,-0.04473278671503067,-0.7077659368515015,-0.05927138030529022
-2.9599130153656006,6.44803524017334,7.43430233001709,0.13355259597301483,-0.6594377756118774,0.05930628627538681
-2.428563117980957,6.547547817230225,7.295975208282471,0.17647023499011993,-0.24005258083343506,0.15341444313526154
-2.264388084411621,6.773732662200928,6.862988471984863,0.14676474034786224,-0.06628760695457458,0.1756673902273178
-2.274482011795044,7.05733060836792,6.247688293457031,0.0541575662791729,0.05527457594871521,0.13171999156475067
-2.5837647914886475,7.084586143493652,5.999045372009277,-0.01441641990095377,0.02019345946609974,0.07178539037704468
-2.6919922828674316,6.958057403564453,6.400495529174805,-0.05656611919403076,-0.04625122621655464,0.0918915867805481
-2.369455099105835,6.984508514404297,6.8272576332092285,-0.03522074595093727,-0.05405284836888313,0.09094911068677902
-2.2904369831085205,6.911341667175293,7.067654609680176,0.02687807008624077,0.05745624005794525,0.06733480095863342
-2.46130633354187,6.937543869018555,6.847876071929932,0.0639488622546196,0.18428932130336761,0.07267551124095917
-2.5802884101867676,6.9485955238342285,6.685041904449463,0.0740194097161293,0.23064525425434113,0.10046114772558212
-2.4651083946228027,7.05037784576416,6.408368110656738,0.06819001585245132,0.2557954490184784,0.13158036768436432
-2.3292324542999268,7.256576061248779,6.439281940460205,0.04708898440003395,0.2981894910335541,0.10700613260269165
-2.2134296894073486,7.199440956115723,6.452899932861328,0.015742870047688484,0.35412731766700745,0.016441000625491142
-2.2756597995758057,6.659491062164307,6.062425136566162,0.027087509632110596,0.34264305233955383,0.01993165910243988
-2.4721567630767822,6.739543437957764,5.847167015075684,0.03487167879939079,0.27284732460975647,0.052639130502939224
-2.747288942337036,7.207954406738281,5.953785419464111,0.020228365436196327,0.059149209409952164,0.09779080003499985
-2.6651389598846436,7.227031707763672,6.233236789703369,0.03391174599528313,-0.010192723013460636,0.09766862541437149
-2.4778549671173096,7.273413181304932,6.674947738647461,0.08222246170043945,0.01886700838804245,0.04490732029080391
-2.5204813480377197,7.235105037689209,6.628787517547607,0.0959232971072197,0.12377875298261642,0.005218534264713526
-2.4206910133361816,7.230756759643555,6.666520118713379,0.09281660616397858,0.23019146919250488,-0.016057029366493225
-2.5222530364990234,7.206738471984863,6.655909061431885,0.08876744657754898,0.3353300988674164,-0.06743951886892319
-2.7384111881256104,7.157695293426514,6.297823905944824,0.1120501384139061,0.3240203857421875,-0.08407250791788101
-2.843066453933716,7.396531581878662,5.943605422973633,0.12541936337947845,0.21675243973731995,-0.0867079570889473
-3.052415609359741,7.503208637237549,4.902214050292969,0.11107275635004044,-0.09063494950532913,-0.09670869261026382
-3.2849786281585693,7.249048709869385,6.134614944458008,0.1422617882490158,-0.5149070620536804,-0.06904522329568863
-3.0734364986419678,7.107043743133545,6.714136123657227,0.21361084282398224,-0.5378057360649109,-0.03853686898946762
-2.8027002811431885,7.172242641448975,6.495267868041992,0.32681289315223694,-0.38582247495651245,-0.03460988029837608
-2.8215856552124023,7.200839042663574,5.562199592590332,0.2546609938144684,-0.3736575245857239,-0.06930702179670334
-2.862593650817871,7.1902756690979,5.359525680541992,0.09414306282997131,-0.4236786663532257,-0.058311451226472855
-2.8434112071990967,7.250006198883057,5.665341854095459,-0.0032114058267325163,-0.5096535682678223,-0.04284783452749252
-2.656290054321289,7.252554893493652,6.232844352722168,-0.013386675156652927,-0.5388529300689697,-0.058398716151714325
-2.5600719451904297,7.194930076599121,6.470320224761963,0.021240657195448875,-0.4470660984516144,-0.0881391242146492
-2.57177472114563,7.172195911407471,6.28196382522583,0.03118903376162052,-0.3216641843318939,-0.09545205533504486
-2.598723888397217,7.165749549865723,6.190284729003906,0.0270700566470623,-0.28214994072914124,-0.09454448521137238
-2.6458799839019775,7.147496223449707,6.075018405914307,0.02361430414021015,-0.26834437251091003,-0.08313003182411194
-2.577923059463501,7.1931586265563965,6.301662921905518,-0.0034208453726023436,-0.262131005525589,-0.14037683606147766
-2.551558017730713,7.243772029876709,6.40712308883667,-0.02396337129175663,-0.21212731301784515,-0.11552334576845169
-2.449392795562744,7.230201721191406,6.379378795623779,-0.014503685757517815,-0.15100587904453278,-0.10965903848409653
-2.476217269897461,7.2196478843688965,6.122979164123535,-0.012391837313771248,-0.1869422197341919,-0.12433725595474243
-2.647871971130371,7.180172443389893,6.079672813415527,-0.031695179641246796,-0.240768164396286,-0.11767009645700455
-2.3913094997406006,7.249067783355713,6.284855842590332,-0.04286528751254082,-0.1961575597524643,-0.08066911995410919
-2.456575393676758,7.200771808624268,6.177997589111328,-0.06485643237829208,-0.1828930526971817,-0.0959058403968811
-2.259685754776001,7.0403032302856445,6.851400375366211,-0.007260569836944342,-0.2491806596517563,-0.22605504095554352
-2.2323343753814697,7.170988082885742,6.572677135467529,0.005515240598469973,-0.1996133029460907,-0.21535617113113403
-2.3889055252075195,7.31903600692749,6.180161952972412,-0.02200860157608986,-0.22547908127307892,-0.2456900030374527
-2.380152463912964,7.403110980987549,5.9273247718811035,-0.0959058403968811,-0.33506831526756287,-0.2998475730419159
-2.3818953037261963,7.420942783355713,6.005568504333496,-0.20395918190479279,-0.3539353311061859,-0.38840556144714355
-2.5183265209198,7.49742317199707,6.098050594329834,-0.4052305519580841,-0.2082526832818985,-0.5127253532409668
-2.348156213760376,7.069770812988281,6.1315226554870605,-0.6120520830154419,-0.015411256812512875,-0.5627639889717102
-2.243185043334961,6.505869388580322,6.3204145431518555,-0.7457093596458435,0.06492624431848526,-0.600986659526825
-1.7633295059204102,6.308434009552002,6.157541751861572,-0.952094554901123,0.2387959510087967,-0.6129246950149536
-2.9920241832733154,5.034479141235352,9.134281158447266,-0.4513595998287201,-0.9833185076713562,-0.06351253390312195
-2.810352087020874,4.957596778869629,9.90921688079834,-0.09339256584644318,-0.5477367043495178,-0.02330014482140541
-2.6149661540985107,4.99525260925293,9.518589973449707,0.275988906621933,-0.09185668081045151,0.02076941728591919
-2.6130030155181885,5.116696357727051,8.711149215698242,0.5733057260513306,0.15308283269405365,0.03556980937719345
-2.517253875732422,5.274215221405029,8.311902046203613,0.6754773259162903,0.1872389167547226,0.028797931969165802
-2.4973151683807373,5.620283126831055,7.546753406524658,0.7639480829238892,0.17926277220249176,-0.006824237294495106
-2.610646963119507,5.7464094161987305,6.86332368850708,0.7175746560096741,0.05740387737751007,-0.023055799305438995
-2.450331211090088,5.949160099029541,6.420492172241211,0.5738642811775208,-0.11388273537158966,-0.01940806210041046
-2.541109800338745,6.075372695922852,6.317867279052734,0.339920312166214,-0.17144368588924408,-0.05614724010229111
-2.6089231967926025,6.024807453155518,6.360973358154297,0.10854202508926392,-0.20818287134170532,-0.05372123420238495
-2.618940591812134,6.02532434463501,6.761954307556152,-0.07337363809347153,-0.20490165054798126,-0.041119955480098724
-2.527721405029297,6.060863971710205,7.34138822555542,-0.1754404902458191,-0.21814870834350586,-0.020629791542887688
-2.471304416656494,5.9802656173706055,7.798739433288574,-0.196419358253479,-0.19477874040603638,0.019547687843441963
-2.4324417114257812,5.87996768951416,7.9764838218688965,-0.14482742547988892,-0.11988666653633118,0.044889867305755615
-2.3487980365753174,5.974797248840332,8.135660171508789,-0.11287043988704681,-0.05316272750496864,0.032882001250982285
-2.459113121032715,6.007511615753174,8.29007625579834,-0.05363396927714348,0.016999507322907448,0.013299409300088882
-2.358978033065796,5.739648342132568,7.765200138092041,0.036023594439029694,0.06126105785369873,0.05372123420238495
-2.578516721725464,6.085409164428711,7.158069133758545,0.12227776646614075,0.11360348016023636,0.051138147711753845
-2.1997158527374268,6.06077766418457,8.45312213897705,0.3168645203113556,-0.341665655374527,-0.011501720175147057
-2.231137275695801,6.3011555671691895,8.212993621826172,0.176836758852005,0.2787639796733856,0.023684117943048477
-2.514859676361084,5.846630573272705,6.774450778961182,0.019722219556570053,0.38268089294433594,0.05276130139827728
-2.7125537395477295,5.97288179397583,6.542682647705078,-0.05785766616463661,0.00989601667970419,0.12547172605991364
-2.5822997093200684,6.434330463409424,7.326266288757324,-0.08168140798807144,-0.26103144884109497,0.14615386724472046
-2.41581654548645,6.313097953796387,8.020029067993164,-0.03759439289569855,-0.27920031547546387,0.11908381432294846
-2.219980239868164,6.137325286865234,7.696706771850586,0.17910568416118622,0.14706143736839294,0.13072516024112701
-2.252847909927368,6.028877258300781,7.40565824508667,0.17987363040447235,0.142314150929451,0.15098842978477478
-2.3610944747924805,6.067653656005859,7.552443027496338,0.14844025671482086,0.1733984649181366,0.171059712767601
-2.3629238605499268,6.086089134216309,7.60960578918457,0.10618583112955093,0.24621360003948212,0.18418459594249725
-2.384596109390259,6.01981782913208,7.550564765930176,0.08571311831474304,0.2738945186138153,0.2039242684841156
-2.247762680053711,6.042323112487793,7.525511741638184,0.06016149744391441,0.3298148810863495,0.25331708788871765
-2.112001895904541,6.1118316650390625,7.385719299316406,0.047996554523706436,0.38901644945144653,0.2950130105018616
-2.2156708240509033,6.28152322769165,7.326362133026123,0.06867870688438416,0.321367472410202,0.30599111318588257
-2.1414601802825928,6.490527153015137,6.930227279663086,0.33115875720977783,-0.10651744157075882,0.23773129284381866
-1.785873293876648,6.447977542877197,7.467093467712402,0.45694464445114136,-0.18709929287433624,0.08515461534261703
-1.934696912765503,6.384607791900635,7.48030948638916,0.43818235397338867,0.07932521402835846,0.03794345632195473
-2.0263564586639404,6.267301559448242,7.111114025115967,0.37747982144355774,0.1912182718515396,0.034522611647844315
-2.3032889366149902,6.29085111618042,6.443294525146484,0.20902062952518463,0.22718951106071472,0.06421066075563431
-2.383437156677246,6.692425727844238,6.377655029296875,0.025324726477265358,0.11716394871473312,0.11191051453351974
-2.3077900409698486,6.828262805938721,6.609940528869629,-0.13329079747200012,-0.03162536770105362,0.09142034500837326
-2.175783395767212,6.386111259460449,7.287317752838135,-0.2307499796152115,-0.06960373371839523,0.0449247732758522
-2.157836437225342,6.3757781982421875,7.4770917892456055,-0.18591247498989105,0.015620696358382702,0.049811698496341705
-2.1890664100646973,6.432932376861572,7.549722194671631,-0.11178833991289139,0.07244861871004105,0.044575709849596024
-2.165689468383789,6.3876051902771,7.5810956954956055,-0.026651177555322647,0.07955210655927658,0.05749114602804184
-2.1160144805908203,6.349164009094238,7.460907936096191,0.0351334773004055,0.08269369602203369,0.08649851381778717
-1.9920045137405396,6.48275089263916,7.269859313964844,0.057648226618766785,0.07504915446043015,0.08974482864141464
-1.9745267629623413,6.545210838317871,7.113900661468506,0.0377340167760849,0.06218608096241951,0.06735225766897202
-2.0048470497131348,6.5081963539123535,7.08883810043335,-0.0003490658418741077,0.04574507847428322,0.06023131310939789
-2.0369293689727783,6.495162487030029,7.212551593780518,-0.02436479553580284,0.027384215965867043,0.06354743987321854
-1.9288262128829956,6.564335823059082,7.284875392913818,-0.030665434896945953,0.04548327997326851,0.07080800831317902
-2.0555083751678467,6.507363319396973,7.201202869415283,-0.00013962633966002613,0.033405601978302,0.028763025999069214
-2.106121778488159,6.552585124969482,7.241090297698975,0.028274333104491234,0.00678933085873723,0.023858651518821716
-2.0967938899993896,6.554653644561768,7.222607135772705,0.03192207217216492,0.0030717793852090836,0.02413790300488472
-2.063246250152588,6.602652549743652,7.167262554168701,0.03710569813847542,-0.02537708729505539,0.008970992639660835
-2.014730215072632,6.615849494934082,7.179444313049316,0.007504915818572044,-0.016004668548703194,-0.02790781483054161
-2.1717803478240967,6.536428928375244,7.067080020904541,-0.04080579802393913,0.003926991019397974,-0.04911356419324875
-2.3340976238250732,6.395630836486816,6.984766960144043,-0.07716100662946701,-0.060842178761959076,-0.03392919898033142
-2.4045252799987793,6.414209842681885,7.13511323928833,-0.10461503267288208,-0.09000662714242935,0.0037350046914070845
-2.395685911178589,6.435671329498291,7.272866249084473,-0.10883872956037521,-0.06445500999689102,0.030595621094107628
-2.310730218887329,6.4280195236206055,7.389933109283447,-0.09126326441764832,-0.04386012256145477,0.036128316074609756
-2.4111621379852295,6.314448356628418,7.345372200012207,-0.05927138030529022,-0.00188495556358248,0.06068509817123413
-2.2990081310272217,6.333314418792725,7.212015151977539,-0.01797689124941826,-0.014957471750676632,0.10215412080287933
-2.0825531482696533,6.544732093811035,7.208720684051514,0.01621410809457302,-0.036075957119464874,0.09489355236291885
-2.005622625350952,6.596724510192871,7.270510196685791,0.04476769641041756,-0.03853686898946762,0.05209807679057121
-2.009328842163086,6.586103916168213,7.287633419036865,0.05440191179513931,-0.025010569021105766,0.030543262138962746
-2.1163880825042725,6.437165260314941,7.148176193237305,0.06300638616085052,0.004363323096185923,0.013369222171604633
-2.2463932037353516,6.4906134605407715,7.012338638305664,0.08276351541280746,-0.01696459949016571,0.03003711625933647
-2.0943708419799805,6.65097713470459,7.0386271476745605,0.06892304867506027,-0.04366813600063324,0.0224623866379261
-2.358623743057251,6.558513164520264,6.8189544677734375,-0.17044885456562042,-0.23780110478401184,-0.005393067374825478
-2.330946683883667,6.652461528778076,7.197103977203369,-0.19545942544937134,-0.23748694360256195,-0.05134758725762367
-2.2609498500823975,6.707547187805176,7.546149730682373,-0.2174331247806549,-0.22940607368946075,-0.11957250535488129
-2.000642776489258,6.760144233703613,7.799006462097168,-0.25471335649490356,-0.04007275775074959,-0.20493656396865845
-2.1102397441864014,6.316066741943359,7.5794677734375,-0.29333749413490295,0.09430013597011566,-0.2347642332315445
-2.2310128211975098,5.8563032150268555,7.383076190948486,-0.2742610275745392,0.011658798903226852,-0.1719847470521927
-2.4021408557891846,5.850787162780762,7.746555328369141,-0.01904154196381569,-0.15376350283622742,0.10463248938322067
-2.203613519668579,5.983770370483398,7.672659397125244,0.11667525768280029,-0.06677629798650742,0.20200440287590027
-1.9577865600585938,6.22706937789917,7.482492923736572,0.2030341476202011,-0.004852015525102615,0.21753783524036407
-1.792021632194519,6.411777019500732,7.218356132507324,0.19638444483280182,0.04017747938632965,0.1629962921142578
-1.6770232915878296,6.481784820556641,7.132240295410156,0.12740904092788696,0.04743804782629013,0.08939576148986816
-1.7142292261123657,6.526392459869385,7.104850769042969,0.020629791542887688,0.1282118856906891,0.02940879762172699
-1.8263927698135376,6.464152812957764,7.022404193878174,-0.024591689929366112,0.12974777817726135,0.017819812521338463
-1.9111379384994507,6.390162467956543,6.902684211730957,-0.08923868089914322,0.07470009475946426,0.026947883889079094
-1.9445610046386719,6.450189590454102,7.16660213470459,-0.10639527440071106,0.03804817795753479,0.028134707361459732
-1.851120114326477,6.554797172546387,7.513847351074219,-0.10815805196762085,0.14446090161800385,-0.010646508075296879
-2.003688097000122,6.3975653648376465,7.384052753448486,-0.09855873882770538,0.23038345575332642,-0.013543754816055298
-1.9247944355010986,6.270375728607178,7.086865425109863,-0.08304276317358017,0.20326104760169983,0.012217304669320583
-1.8606010675430298,6.498581409454346,7.115030765533447,-0.06347762793302536,0.13927727937698364,0.010471975430846214
-1.9132351875305176,6.429858207702637,7.137957572937012,-0.08873254060745239,0.16451473534107208,-0.030368728563189507
-2.276655912399292,6.123256683349609,7.037075519561768,-0.10747737437486649,0.19245745241641998,-0.03122393973171711
-2.5694475173950195,6.240955829620361,7.261737823486328,-0.09866346418857574,0.06850416958332062,0.021188296377658844
-2.294708251953125,6.150416374206543,7.378843307495117,-0.1460316926240921,-0.05331980809569359,0.06525786221027374
-2.2529244422912598,6.103250980377197,7.440059185028076,-0.18385298550128937,-0.001972222002223134,0.05145230516791344
-2.3158345222473145,6.065690517425537,7.487128257751465,-0.12751375138759613,-0.03726277872920036,0.09295623749494553
-1.9318525791168213,6.163996696472168,8.076312065124512,0.11590731889009476,-0.06640977412462234,0.15261158347129822
-1.8449238538742065,6.160223484039307,7.939785480499268,0.18715165555477142,0.11805406957864761,0.164148211479187
-1.8115487098693848,6.25135612487793,7.712135314941406,0.2413964867591858,0.2633178234100342,0.16112878918647766
-1.6841484308242798,6.2821455001831055,7.517946243286133,0.254102498292923,0.4532968997955322,0.14104005694389343
-1.4780555963516235,6.162100315093994,7.427905082702637,0.18880972266197205,0.7897440195083618,0.1495223492383957
-1.544671893119812,6.0671844482421875,7.476689338684082,0.14072589576244354,0.9489529728889465,0.1976061761379242
-1.832521915435791,6.073131561279297,7.246520519256592,0.023945916444063187,1.2006468772888184,0.3609515428543091
-2.739799737930298,6.537980556488037,6.795251846313477,-0.0737576112151146,1.0584200620651245,0.5026373863220215
-2.8910558223724365,6.638307094573975,6.7300238609313965,-0.06906268000602722,0.8967850804328918,0.5270196199417114
-2.731966018676758,6.914454460144043,6.781384468078613,0.07728318125009537,0.4826882481575012,0.43849653005599976
-2.395551919937134,7.017893314361572,6.697979927062988,0.21930061280727386,0.0953473374247551,0.2171887755393982
-2.315901517868042,6.811188697814941,6.745298862457275,0.1929985135793686,-0.09065239876508713,0.03431317210197449
-2.7057254314422607,6.427473545074463,6.954676628112793,0.06494370102882385,-0.06405358016490936,-0.008709193207323551
-3.0606706142425537,6.413539409637451,7.14495849609375,0.00043633230961859226,0.04850269854068756,0.06705555319786072
-2.785691976547241,6.64759635925293,6.6914963722229,0.008936085738241673,0.0041015236638486385,0.09499827027320862
-2.491980791091919,6.757730007171631,6.789879322052002,-0.032794736325740814,-0.08566076308488846,0.04366813600063324
-2.552917957305908,6.647711277008057,7.293858528137207,-0.06820746511220932,-0.06440264731645584,-0.008011061698198318
-2.6544129848480225,6.543965816497803,6.7156877517700195,0.0033335788175463676,-0.19401079416275024,0.00930260494351387
-2.358595132827759,6.65440559387207,6.93630838394165,0.02272418700158596,-0.3234793245792389,-0.0038746309000998735
-2.232267379760742,6.543027400970459,7.116669654846191,0.03768165782094002,-0.357652872800827,-0.053040556609630585
-2.3836097717285156,6.3804707527160645,7.106842517852783,0.040020398795604706,-0.3206344246864319,-0.0406138114631176
-2.09177565574646,6.569919109344482,7.230029106140137,-0.012583823874592781,-0.09768607467412949,-0.039357174187898636
-2.185283660888672,6.467226982116699,7.122912406921387,0.01869247667491436,-0.07538077235221863,-0.054681167006492615
-2.411803722381592,6.382347583770752,6.931175231933594,0.020612338557839394,-0.10011208802461624,-0.039130281656980515
-2.382000684738159,6.4256062507629395,7.00968599319458,0.013648474588990211,-0.109467051923275,-0.013805554248392582
-2.3275375366210938,6.500774383544922,7.020229816436768,0.001658062799833715,-0.08396779000759125,-0.0006981316837482154
-2.2824020385742188,6.475501537322998,6.924442768096924,-0.025569073855876923,-0.0826587900519371,0.012444197200238705
-2.2186012268066406,6.520837783813477,6.929739952087402,-0.042324233800172806,-0.08936085551977158,0.021711895242333412
-2.0612640380859375,6.696888446807861,7.155511856079102,-0.0748920813202858,-0.11199777573347092,0.0009948377264663577
-1.9879056215286255,6.719317436218262,7.389636039733887,-0.07812093943357468,-0.08890707045793533,-0.04831071197986603
-2.20998215675354,6.606042861938477,7.4815449714660645,-0.04864232614636421,-0.09456194192171097,-0.06880088150501251
-2.319282293319702,6.465723514556885,7.391082286834717,0.0026179938577115536,-0.146328404545784,-0.048171088099479675
-2.266676902770996,6.471153259277344,7.412419319152832,0.056409042328596115,-0.22404791414737701,-0.025900686159729958
-1.9634943008422852,6.614968299865723,7.550555229187012,0.08155923336744308,-0.20579177141189575,-0.06028367206454277
-1.9843813180923462,6.648985385894775,7.431917667388916,0.051940999925136566,-0.11913617700338364,-0.12742649018764496
-2.2030868530273438,6.478412628173828,7.216430187225342,0.003228859044611454,-0.05469861999154091,-0.12770573794841766
-2.333963394165039,6.243081569671631,7.010193347930908,-0.023352505639195442,-0.07873180508613586,-0.042062435299158096
-2.302637815475464,6.266391754150391,7.067338466644287,-0.026965336874127388,-0.15241959691047668,0.05084143951535225
-2.1388742923736572,6.367273807525635,7.256882667541504,0.00472984230145812,-0.22621212899684906,0.09663888067007065
-1.9651702642440796,6.488267421722412,7.423557281494141,0.043703045696020126,-0.24783675372600555,0.09423032402992249
-1.921844720840454,6.5299072265625,7.425989627838135,0.06435029208660126,-0.23553217947483063,0.06429792940616608
-1.854491114616394,6.483718395233154,7.299116134643555,0.07606144994497299,-0.2177298218011856,0.04757767543196678
-1.804490566253662,6.525961399078369,7.277052402496338,0.06836454570293427,-0.19261454045772552,0.042097341269254684
-1.8139811754226685,6.569507122039795,7.382635593414307,0.04996877536177635,-0.13857914507389069,0.027000242844223976
-1.7852412462234497,6.5735297203063965,7.125613212585449,0.011344640515744686,-0.035325463861227036,0.004660028964281082
-1.9012641906738281,6.614767074584961,7.024089336395264,-0.046652652323246,-0.042062435299158096,0.003281218931078911
-1.738448977470398,6.654635429382324,7.2396345138549805,-0.07042403519153595,-0.06934192776679993,-0.007260569836944342
-1.7981890439987183,6.643085956573486,7.368797302246094,-0.05408775433897972,-0.07930775731801987,-0.051888637244701385
-1.8567129373550415,6.521786212921143,7.328833103179932,-0.01603957638144493,-0.09990264475345612,-0.08201301842927933
-2.009817361831665,6.531458377838135,7.091912269592285,-0.003263765713199973,-0.11079350113868713,-0.08215264976024628
-1.7568459510803223,6.450774192810059,7.171313762664795,-0.028448866680264473,-0.20643754303455353,-0.029304077848792076
-1.5157307386398315,6.425960540771484,7.412228107452393,-0.06845181435346603,-0.25499260425567627,0.0316777266561985
-1.4388481378555298,6.380692005157471,7.277472496032715,0.08361872285604477,-0.21216222643852234,0.15399040281772614
-1.1950130462646484,6.583862781524658,7.3073811531066895,0.11468558758497238,-0.14851006865501404,0.08056439459323883
-1.2175281047821045,6.60853385925293,7.236560344696045,0.11171852797269821,-0.11828096210956573,0.03907792270183563
-1.4174152612686157,6.546685695648193,7.104295253753662,0.08977973461151123,-0.10423105955123901,-0.02905973233282566
-1.6683180332183838,6.41556978225708,7.058498859405518,0.05318018049001694,-0.0956440418958664,-0.040631264448165894
-1.3008942604064941,6.543515682220459,7.44657039642334,0.01563815027475357,0.020891591906547546,0.12110839784145355
-1.2441803216934204,6.631938457489014,7.337021350860596,0.03529055789113045,0.023841196671128273,0.100234255194664
-1.240215539932251,6.65149450302124,7.3471150398254395,0.05695009231567383,0.003577925032004714,0.0705636590719223
-1.2337416410446167,6.65582275390625,7.383564472198486,0.06665412336587906,0.040421824902296066,0.05927138030529022
-1.2500126361846924,6.650057792663574,7.2183837890625,0.07272786647081375,0.056583575904369354,0.04881685972213745
-1.2120693922042847,6.738547325134277,7.198875904083252,0.06930702179670334,0.0771959125995636,0.019460421055555344
-1.3330053091049194,6.6739420890808105,7.170681476593018,0.06569419056177139,0.07789404690265656,-0.00970403105020523
-1.4197520017623901,6.626058101654053,7.074587821960449,0.06248278543353081,0.07408922910690308,-0.008866272866725922
-1.4036916494369507,6.567246913909912,6.900050640106201,0.05850343778729439,0.05365142226219177,-0.02108357660472393
-1.4516810178756714,6.558830261230469,6.976741790771484,0.04372049868106842,0.05176646634936333,-0.02378883771598339
-1.658243179321289,6.628366470336914,7.434541702270508,-0.022567106410861015,0.07674212753772736,-0.033405601978302
-1.6772913932800293,6.534417629241943,7.349250793457031,0.01958259381353855,0.08478809148073196,0.04893903061747551
-1.4387140274047852,6.6100077629089355,6.83036994934082,0.08136724680662155,0.1529432088136673,0.10911798477172852
-1.517406702041626,6.750058650970459,7.381869316101074,0.13946926593780518,0.07077310234308243,-0.05873033031821251
-1.4913673400878906,6.550353527069092,6.767948150634766,0.003752457909286022,0.2185850292444229,0.018709929659962654
-1.6888411045074463,6.4649858474731445,6.490115642547607,-0.07262314856052399,0.08634144067764282,0.05440191179513931
-1.656078815460205,6.702471733093262,6.9786763191223145,-0.09251990169286728,-0.057421330362558365,0.10779153555631638
-1.3197988271713257,6.860824108123779,7.5938615798950195,-0.06002187356352806,-0.015306537039577961,0.08852309733629227
-1.3464127779006958,6.805154323577881,7.688470840454102,-0.005829399451613426,0.018622662872076035,0.08361872285604477
-1.2588520050048828,6.726327419281006,7.7296223640441895,0.23867377638816833,0.20097465813159943,0.11592476814985275
-1.6710282564163208,6.915862083435059,5.870955944061279,-0.07337363809347153,0.25534167885780334,-0.17016960680484772
-1.675692081451416,6.901142597198486,6.453350067138672,-0.2313084900379181,0.2799857258796692,-0.17558012902736664
-1.8559085130691528,6.527781009674072,7.110453128814697,-0.30539771914482117,0.44231879711151123,-0.1932777613401413
-1.9527299404144287,6.244701385498047,7.625982284545898,-0.2450791299343109,0.5920680165290833,-0.11091567575931549
-2.222508668899536,6.375864028930664,7.947303295135498,-0.15833626687526703,0.8378278613090515,-0.019285887479782104
-2.6366384029388428,6.650689601898193,7.874691963195801,-0.08599237352609634,0.9915040731430054,0.023509584367275238
-2.838507890701294,6.766032695770264,7.4712018966674805,-0.025237461552023888,1.0072643756866455,0.04230678081512451
-2.98199725151062,6.789409637451172,7.144939422607422,0.034400440752506256,0.8638856410980225,0.04703662171959877
-3.1471493244171143,6.85413932800293,6.996546745300293,0.09840166568756104,0.6734352707862854,0.04487241432070732
-3.1998026371002197,6.747089862823486,6.742924213409424,0.1846383810043335,0.48111745715141296,0.058974675834178925
-3.269761085510254,7.039239883422852,5.413040637969971,0.2097187638282776,0.16022121906280518,0.0757647454738617
-3.2840592861175537,6.894256591796875,5.571699619293213,0.14447835087776184,-0.34353315830230713,0.04387757554650307
-2.9165396690368652,6.49498987197876,6.540221214294434,0.10478956997394562,-0.4033281207084656,0.06714281439781189
-2.572014093399048,6.6878862380981445,6.888577461242676,0.027122415602207184,-0.15634658932685852,0.07300712168216705
-2.6590960025787354,6.8606719970703125,6.421154022216797,-0.13316862285137177,-0.0052534411661326885,-0.053040556609630585
-2.9165589809417725,6.730072021484375,6.379953384399414,-0.12571606040000916,-0.3058165907859802,-0.039304815232753754
-2.857527494430542,6.784247875213623,6.8196916580200195,-0.07773696631193161,-0.5144357681274414,-0.005969026125967503
-2.4826242923736572,6.842024803161621,7.2350006103515625,-0.0228987205773592,-0.5426926612854004,-0.003717551240697503
-2.271580219268799,6.857979774475098,7.297133922576904,-0.0046774824149906635,-0.4885351061820984,-0.01572541706264019
-2.1255338191986084,6.82936429977417,7.057244300842285,0.032794736325740814,-0.3039141893386841,-0.04928809776902199
-2.2750566005706787,6.917595386505127,6.894898414611816,0.0263544712215662,-0.24848252534866333,-0.07330382615327835
-2.2639858722686768,6.903757095336914,6.8499064445495605,-0.021938787773251534,-0.3621383607387543,-0.08358381688594818
-2.1212050914764404,6.685846328735352,7.195178985595703,-0.053668875247240067,-0.24497441947460175,-0.013299409300088882
-1.9527586698532104,6.7484307289123535,7.239310264587402,-0.06440264731645584,-0.1419999897480011,-0.050597093999385834
-2.0876097679138184,6.582598686218262,6.928215980529785,-0.05571090802550316,-0.3389778435230255,-0.025970499962568283
-1.9109655618667603,6.593908786773682,7.173890113830566,-0.05612978711724281,-0.3001791834831238,-0.02241002768278122
-2.060239315032959,6.509115695953369,7.162646770477295,-0.04450589418411255,-0.21280799806118011,-0.017592918127775192
-1.7444344758987427,6.806705474853516,7.005270957946777,0.04195771366357803,0.02710496261715889,-0.027139870449900627
-1.9619237184524536,6.716281414031982,6.942514419555664,0.02981022372841835,-0.0337023064494133,-0.03317870944738388
-1.9115593433380127,6.7564849853515625,7.125383377075195,-0.00027925267932005227,-0.0074525559321045876,-0.03202679008245468
-1.8907967805862427,6.72927713394165,7.179875373840332,-0.012566370889544487,0.020629791542887688,-0.02661627158522606
-1.8451441526412964,6.595613479614258,7.147237777709961,-0.029618237167596817,0.04518657550215721,-0.0076445420272648335
-1.7778288125991821,6.64407205581665,7.201423168182373,-0.03450515866279602,0.050562188029289246,0.010629055090248585
-1.8801378011703491,6.609260559082031,7.011697292327881,-0.049235738813877106,0.16165240108966827,-0.006370451766997576
-2.050978422164917,6.455150604248047,6.684658527374268,-0.040334559977054596,0.15769049525260925,-0.006352998316287994
-2.216264486312866,6.524965286254883,6.7052202224731445,-0.009197885170578957,0.09662142395973206,-0.008045967668294907
-1.9576716423034668,6.689935684204102,7.26321268081665,-0.020542524755001068,0.13173745572566986,-0.027785642072558403
-1.578564167022705,6.678539276123047,7.378756999969482,-0.13320352137088776,0.4225965738296509,-0.024260075762867928
-1.630623698234558,6.256479740142822,6.712967872619629,-0.2376265823841095,0.5622578263282776,-0.07164576649665833
-2.7178211212158203,6.4662885665893555,6.6149492263793945,-0.22026054561138153,0.2554463744163513,-0.05262167751789093
-2.381598472595215,6.835713863372803,7.496484756469727,-0.032271139323711395,-0.257470965385437,0.029024824500083923
-2.279193639755249,6.640691757202148,8.016256332397461,0.08789478242397308,-0.18362608551979065,-0.004502949304878712
-2.0804941654205322,6.420444011688232,7.412313938140869,0.28989920020103455,0.10620328783988953,0.11194542050361633
-2.0639166831970215,6.552096366882324,7.090188503265381,0.2564237713813782,0.21759019792079926,0.14212216436862946
-1.945011019706726,6.617381572723389,6.777994155883789,0.13732250034809113,0.33890804648399353,0.1385442316532135
-2.204782009124756,6.837993144989014,6.749637603759766,-0.08594001084566116,0.40626028180122375,0.056758105754852295
-2.357656478881836,6.599329471588135,6.959340572357178,-0.07609635591506958,0.3213849365711212,0.07771950960159302
-2.413527488708496,6.566653251647949,7.233361721038818,-0.03050835430622101,0.32246702909469604,0.1339540183544159
-2.257904529571533,6.634677410125732,7.359804630279541,0.0012740903766825795,0.44048619270324707,0.15200072526931763
-2.24680495262146,6.579984188079834,7.108221530914307,-0.03248057886958122,0.6397329568862915,0.1529606580734253
-2.4674832820892334,6.753899097442627,7.128284931182861,-0.009093165397644043,0.7041879892349243,0.09779080003499985
-2.728987693786621,6.73961067199707,6.695145130157471,0.13142329454421997,0.5790827870368958,0.07506661117076874
-2.1374378204345703,7.041969299316406,7.762020587921143,0.024120450019836426,0.019111355766654015,-0.022828906774520874
-2.6281821727752686,6.8135528564453125,6.573002815246582,-0.03445279970765114,0.22795745730400085,-0.15861551463603973
-3.0179293155670166,6.480864524841309,6.041882514953613,-0.06812020391225815,0.12093386054039001,-0.135402649641037
-3.3406870365142822,6.409832954406738,6.020679473876953,-0.06583382189273834,-0.3421892523765564,0.009634217247366905
-3.082371711730957,6.876281261444092,7.1275954246521,-0.0044156829826533794,-0.5793620347976685,0.05890486389398575
-2.5499396324157715,6.587865829467773,7.7163405418396,0.07578219473361969,-0.4662472605705261,0.06955137103796005
-2.4208922386169434,6.51279354095459,7.674555778503418,0.11566296964883804,-0.358368456363678,0.07279768586158752
-2.3849217891693115,6.711042881011963,7.668656349182129,0.15604989230632782,-0.15404276549816132,0.12192869931459427
-2.08249568939209,6.903402805328369,7.717095851898193,0.15456636250019073,-0.021205751225352287,0.14556045830249786
-1.9400886297225952,6.858678817749023,7.224054336547852,0.172857403755188,0.2364746630191803,0.11499974131584167
-2.557811737060547,6.86934757232666,6.803238868713379,0.24560272693634033,0.1540776640176773,0.04071853309869766
-2.7184243202209473,6.619756698608398,6.648065567016602,0.2523047924041748,0.11328931897878647,0.11447614431381226
-2.5569403171539307,6.5522308349609375,6.746458053588867,0.20413370430469513,0.2301565706729889,0.21034708619117737
-2.5211613178253174,6.641046047210693,7.336657524108887,0.24499186873435974,0.27235862612724304,0.2591639459133148
-2.9943320751190186,7.710047245025635,3.4474875926971436,-0.09641198813915253,0.10466739535331726,0.19680333137512207
