accX,accY,accZ,gyroX,gyroY,gyroZ
-0.767916202545166,4.619870662689209,8.47667121887207,-0.004660028964281082,0.05080653354525566,0.013404129073023796
-2.4308712482452393,5.577608585357666,6.607287883758545,-0.830672025680542,-0.40914008021354675,0.0812101662158966
-2.449277877807617,5.39803409576416,7.207754611968994,-1.0654362440109253,-0.39046505093574524,0.04581489413976669
-2.5142948627471924,5.344470977783203,7.956200122833252,-1.1625288724899292,-0.410675972700119,0.023317597806453705
-2.3632302284240723,5.177958965301514,8.386140823364258,-1.1712031364440918,-0.5444205403327942,0.02497566118836403
-2.0644912719726562,4.834218502044678,8.456587791442871,-1.1489851474761963,-0.5695009231567383,0.009634217247366905
-1.8963321447372437,4.562649250030518,8.67275619506836,-1.0867642164230347,-0.4703487753868103,-0.01877974346280098
-1.7661163806915283,4.323247909545898,8.884232521057129,-0.9250070452690125,-0.25076889991760254,-0.05902703478932381
-1.942185878753662,4.32942533493042,9.123746871948242,-0.653329074382782,-0.10300933569669724,-0.03925245627760887
-2.031700372695923,4.419878005981445,9.378355979919434,-0.40399137139320374,-0.22053980827331543,-0.02258456125855446
-2.0371687412261963,4.284299373626709,9.429792404174805,-0.31501448154449463,-0.29831168055534363,-0.002478367416188121
-1.6452282667160034,3.9703140258789062,9.138896942138672,-0.2476971298456192,-0.3159744143486023,-0.019687313586473465
-1.5494890213012695,4.0579705238342285,8.752310752868652,-0.27696630358695984,-0.2316051870584488,-0.08283332735300064
-1.6515394449234009,4.203758239746094,8.685972213745117,-0.2992192506790161,-0.24096015095710754,-0.09971065819263458
-1.7476810216903687,4.262052536010742,8.869272232055664,-0.28700193762779236,-0.31126201152801514,-0.11625637859106064
-1.6388118267059326,3.9911341667175293,9.181150436401367,-0.18168877065181732,-0.32857567071914673,-0.14467033743858337
-1.394995927810669,3.6495869159698486,9.099613189697266,-0.06693337857723236,-0.24001768231391907,-0.17301449179649353
-1.5952852964401245,3.7937753200531006,8.945972442626953,-0.012758356519043446,-0.2312735766172409,-0.18444639444351196
-1.7267652750015259,3.934295654296875,8.672123908996582,0.006510077975690365,-0.349694162607193,-0.14933037757873535
-1.3304100036621094,4.0517072677612305,8.630284309387207,0.003804817795753479,-0.3818780481815338,-0.20985838770866394
-1.2117820978164673,4.009214878082275,8.752779960632324,0.01851794309914112,-0.3635346293449402,-0.33622023463249207
-1.2305622100830078,4.013103485107422,8.775947570800781,0.0391826406121254,-0.4227536618709564,-0.38205257058143616
-1.3407337665557861,3.852318286895752,8.365761756896973,0.06094689667224884,-0.5083795189857483,-0.3966435194015503
-1.3787344694137573,4.101468563079834,8.30528450012207,0.15887732803821564,-0.5736373662948608,-0.37461745738983154
-1.6837557554244995,3.9232823848724365,8.771483421325684,0.12629202008247375,-0.239651158452034,-0.35587263107299805
-1.5487515926361084,3.794407367706299,8.737446784973145,-0.03361504152417183,-0.35384804010391235,-0.2853962481021881
-1.4579347372055054,3.8476734161376953,8.842926979064941,-0.11594222486019135,-0.36733943223953247,-0.25909411907196045
-1.3841837644577026,3.8355588912963867,8.974273681640625,-0.22614231705665588,-0.19477874040603638,-0.21734584867954254
-1.2845370769500732,3.7889389991760254,9.040907859802246,-0.24377013742923737,-0.1356993466615677,-0.1869422197341919
-1.1935094594955444,3.9726412296295166,9.172971725463867,-0.1610066294670105,-0.11499974131584167,-0.16639968752861023
-1.221243977546692,3.9253222942352295,9.48031997680664,0.04698426276445389,0.013508847914636135,-0.15111060440540314
-1.412214994430542,3.8913819789886475,9.432887077331543,0.16292648017406464,0.07415904104709625,-0.10381218045949936
-1.1536508798599243,4.072872161865234,8.680571556091309,0.3101450204849243,0.06379178166389465,-0.055292028933763504
-1.1018307209014893,4.1480021476745605,7.924520015716553,0.27773424983024597,0.04269075393676758,-0.1264840066432953
-1.397706151008606,4.05980920791626,8.218873023986816,0.14423400163650513,0.05256931856274605,-0.1068490594625473
-1.4496315717697144,3.9449164867401123,8.50610065460205,0.03237585723400116,0.020664697512984276,0.03424336016178131
-1.3116872310638428,3.8902997970581055,8.468942642211914,-0.0040317103266716,0.1454208344221115,0.08257152885198593
-1.333493709564209,4.075400352478027,8.555420875549316,-0.0038746309000998735,0.08140215277671814,0.07592181861400604
-1.4089876413345337,4.17972993850708,8.533845901489258,0.08012806624174118,0.21818360686302185,0.06448991596698761
-1.4169076681137085,4.2515082359313965,9.220004081726074,0.15329226851463318,0.16081464290618896,0.09487609565258026
-1.384040117263794,3.9685518741607666,9.54218578338623,0.1869073063135147,0.08244935423135757,0.16224581003189087
-1.0950216054916382,3.834524631500244,9.312765121459961,0.1987057328224182,0.08019787818193436,0.08318239450454712
-1.3440665006637573,3.9880502223968506,8.934279441833496,0.1872389167547226,0.018587756901979446,-0.019285887479782104
-1.639166235923767,4.400733947753906,8.530109405517578,0.18699458241462708,0.01120501384139061,-0.06147049739956856
-1.605628252029419,4.454603672027588,8.473155975341797,0.1653350442647934,-0.03214896470308304,-0.039968039840459824
-1.4895285367965698,4.32225227355957,8.591228485107422,0.0953473374247551,-0.09386380761861801,0.023352505639195442
-1.2659101486206055,4.057989597320557,8.894621849060059,0.16540485620498657,0.03324852138757706,0.05359905958175659
-1.192369818687439,4.164052963256836,8.95327091217041,0.33421310782432556,0.2105565220117569,0.0700051560997963
-1.445446491241455,4.373124122619629,8.629372596740723,0.4299618601799011,0.21523399651050568,0.08595746755599976
-1.4141782522201538,4.2979655265808105,8.442960739135742,0.34435346722602844,0.03303908184170723,0.0006457717972807586
-1.592642068862915,4.421228408813477,8.407343864440918,0.28099802136421204,0.00029670598451048136,0.007016223389655352
-1.6808156967163086,4.582569122314453,8.260570526123047,0.20380209386348724,0.06080726906657219,0.04509930685162544
-1.376273274421692,4.518365859985352,8.420004844665527,0.1941678822040558,0.05784020945429802,-0.02024581842124462
-1.5713528394699097,4.559498310089111,8.677955627441406,-0.02042035199701786,-0.0792030394077301,-0.004345869645476341
-1.5569971799850464,4.566249847412109,8.816628456115723,0.07799876481294632,-0.11131709814071655,-0.04323180392384529
-1.3844231367111206,4.386512756347656,8.77388858795166,0.27665212750434875,-0.15097098052501678,-0.14931291341781616
-1.3493337631225586,4.650209903717041,8.437272071838379,0.2592337429523468,-0.2517811954021454,-0.2053554356098175
-1.4763509035110474,4.713263511657715,8.2887544631958,0.20645499229431152,-0.20315632224082947,-0.17643533647060394
-1.2744909524917603,4.840347766876221,8.262102127075195,0.12571606040000916,-0.16266468167304993,-0.12142255902290344
-1.4443930387496948,4.527626991271973,8.91073989868164,0.2134712189435959,-0.2711019814014435,-0.17296212911605835
-1.0975019931793213,4.745480060577393,7.873111724853516,0.17966419458389282,-0.18683749437332153,-0.1624552458524704
-1.4436652660369873,4.829995155334473,7.864292621612549,0.021554816514253616,-0.26858872175216675,-0.19001398980617523
-1.3450815677642822,4.918734073638916,8.0188627243042,-0.1051211804151535,-0.18500490486621857,-0.13343042135238647
-1.188031554222107,5.087343215942383,7.703717231750488,-0.13576915860176086,-0.02972295694053173,-0.013613567687571049
-1.2490932941436768,4.483975887298584,6.998662948608398,-0.09203121066093445,0.6927211880683899,-0.012287117540836334
-1.7397035360336304,5.151469707489014,8.910913467407227,-0.07646287232637405,-0.027698375284671783,-0.008621926419436932
-1.4312728643417358,4.5423078536987305,8.915155410766602,-0.22614231705665588,-0.4905422329902649,0.048258353024721146
-1.0607845783233643,4.51432466506958,8.616378784179688,-0.232757106423378,-0.08365362882614136,-0.06544984877109528
-1.5862159729003906,4.9253129959106445,8.984280586242676,-0.17701129615306854,-0.1529432088136673,-0.09642943739891052
-1.3251140117645264,4.7092604637146,8.767030715942383,-0.19940386712551117,-0.08742354065179825,0.014154620468616486
-1.1767213344573975,4.513079643249512,8.553304672241211,0.14446090161800385,0.330041766166687,0.02958333119750023
-1.3399580717086792,4.5389180183410645,8.295544624328613,0.09358455240726471,-0.20895081758499146,0.09899507462978363
-1.4036246538162231,4.812939167022705,8.659502029418945,-0.04593706503510475,-0.010576695203781128,0.005270894151180983
-1.3873344659805298,4.665695667266846,8.970414161682129,-0.07291985303163528,0.02923426404595375,0.07855726778507233
-1.312386393547058,4.701857566833496,8.792141914367676,-0.04021238535642624,0.08573057502508163,0.1077391728758812
-1.4443165063858032,4.719086170196533,8.507240295410156,0.16641713678836823,0.2016553431749344,0.2280796319246292
-1.186058759689331,4.559977054595947,8.508475303649902,0.16142550110816956,0.16086699068546295,0.19970057904720306
-1.0147775411605835,4.40865421295166,8.344864845275879,0.08695230633020401,0.12952087819576263,0.07412413507699966
-1.3775182962417603,4.703897476196289,8.295458793640137,0.013526301831007004,0.04052654653787613,-0.004956734832376242
-1.6272335052490234,4.816568374633789,8.401301383972168,0.0009075712296180427,0.058573249727487564,0.020926497876644135
-1.4886187314987183,4.646886825561523,8.58498477935791,0.03420845419168472,0.041608650237321854,0.058660514652729034
-1.1753997802734375,4.475213050842285,8.441591262817383,0.08148942142724991,0.060475658625364304,0.05234242230653763
-1.246057391166687,4.584273338317871,8.303666114807129,0.07094763219356537,0.07405432313680649,0.03007202222943306
-1.3210341930389404,4.609365940093994,8.156633377075195,0.017470745369791985,0.07281513512134552,0.03274237737059593
-1.4067275524139404,4.69464635848999,8.123295783996582,-0.02422516979277134,0.07377506792545319,0.04764748737215996
-1.548397183418274,5.0300164222717285,8.37120246887207,-0.03850196301937103,0.059061940759420395,0.0861145481467247
-1.392055869102478,4.913811683654785,8.323049545288086,-0.04199262335896492,0.07386233657598495,0.11744320392608643
-1.3533176183700562,4.714766979217529,8.473626136779785,-0.028780478984117508,0.08457865566015244,0.12924163043498993
-1.2781589031219482,4.657095432281494,8.612546920776367,0.013683381490409374,0.16004669666290283,0.11227703094482422
-1.5373551845550537,4.720877170562744,8.794438362121582,0.055693455040454865,0.1944296807050705,0.1411098688840866
-1.4904862642288208,4.76878023147583,8.765325546264648,0.0852593332529068,0.18271851539611816,0.16261231899261475
-1.4406102895736694,4.744301795959473,8.719836235046387,0.11285299062728882,0.17182765901088715,0.17964674532413483
-1.4612003564834595,4.762229919433594,8.635933876037598,0.17442820966243744,0.17936748266220093,0.2154608964920044
-1.377317190170288,4.8536787033081055,8.346818923950195,0.20846211910247803,0.22390829026699066,0.23338542878627777
-1.4153850078582764,4.866339206695557,8.152084350585938,0.192440003156662,0.21823596954345703,0.23151792585849762
-1.553032398223877,4.86458683013916,7.859349727630615,0.1322261393070221,0.2347642332315445,0.20369738340377808
-1.3860799074172974,4.754032135009766,8.233965873718262,0.03174753859639168,0.04281292483210564,0.08798204362392426
-1.4329583644866943,4.566709518432617,8.271746635437012,-0.08061675727367401,-0.10878637433052063,0.07061602175235748
-1.4604438543319702,4.774047374725342,8.341360092163086,-0.18046703934669495,-0.03269001841545105,0.00010471975838299841
-1.6565481424331665,4.812077045440674,8.713830947875977,-0.16631242632865906,-0.06806784123182297,-0.019477874040603638
-1.4051090478897095,4.805087089538574,8.814531326293945,-0.08655087649822235,-0.09876818209886551,-0.03202679008245468
-1.4031457901000977,4.781479358673096,8.89090633392334,0.11295770853757858,0.0027052604127675295,0.009285151958465576
-1.3974571228027344,4.711482524871826,8.446236610412598,0.2998126447200775,0.006195918656885624,0.05855579674243927
-1.2423895597457886,4.703811168670654,7.641257286071777,0.28581511974334717,-0.031468287110328674,0.02237512171268463
-1.3606247901916504,5.062079429626465,7.18971061706543,0.0789412409067154,-0.13379694521427155,-0.037716563791036606
-1.4108455181121826,5.184001922607422,7.730024814605713,-0.07150614261627197,-0.3056246042251587,-0.05279621109366417
-1.487555742263794,5.087764739990234,8.693700790405273,-0.10910052806138992,-0.029600784182548523,-0.029112091287970543
-1.3962409496307373,4.917126178741455,8.861169815063477,-0.10538297891616821,-0.0019373154500499368,0.02782054804265499
-1.212710976600647,5.016484260559082,8.556838989257812,-0.07932521402835846,-0.0184306763112545,-0.02090904489159584
-1.3167343139648438,5.1998610496521,8.328902244567871,-0.043737951666116714,-0.004764748737215996,-0.047019168734550476
-1.2715508937835693,4.7967448234558105,8.384140014648438,-0.10314895957708359,-0.04482005536556244,-0.13941690325737
-1.454630732536316,5.116992950439453,7.293781757354736,0.2018822282552719,-0.03171263262629509,-0.029426250606775284
-1.4504743814468384,4.915688514709473,6.947321891784668,0.07223917543888092,-0.08428195118904114,-0.034749504178762436
-1.2439696788787842,5.074090003967285,7.657336711883545,0.03752457723021507,0.02808234840631485,-0.009948376566171646
-1.5615174770355225,4.800106048583984,8.287471771240234,-0.19474384188652039,0.012531463988125324,0.05441936478018761
-1.7261810302734375,5.230602741241455,8.85757827758789,-0.2122669368982315,-0.025132741779088974,0.07675957679748535
-1.6146304607391357,5.273248195648193,9.255054473876953,-0.010471975430846214,-0.03645992651581764,0.0944921225309372
-1.1139070987701416,5.245389461517334,9.11510944366455,0.2280796319246292,0.011065387167036533,-0.019425515085458755
-1.2349961996078491,5.132660865783691,8.483796119689941,0.285797655582428,0.1869247555732727,-0.022026054561138153
-1.3967293500900269,5.209208011627197,7.4117584228515625,0.19634954631328583,0.11901400238275528,-0.029042279347777367
-1.544145107269287,5.156976222991943,6.97714376449585,0.005393067374825478,-0.026145031675696373,-0.0285186804831028
-1.3041408061981201,5.385047912597656,7.228726863861084,-0.003001966280862689,-0.15072663128376007,-0.012636183761060238
-1.5434843301773071,4.611462116241455,8.528194427490234,0.0033859387040138245,0.1264316439628601,0.03317870944738388
-1.3779970407485962,4.805851936340332,8.988330841064453,0.03174753859639168,0.07457792013883591,0.07126179337501526
-1.572109341621399,5.450591564178467,8.47661304473877,0.1270599663257599,-0.05740387737751007,0.033196162432432175
-1.0899938344955444,5.313623905181885,8.137431144714355,0.01727875880897045,0.14090043306350708,-0.015306537039577961
-1.4376031160354614,5.313077926635742,7.791325569152832,-0.012531463988125324,0.15025539696216583,-0.020891591906547546
-1.5322794914245605,5.063066005706787,8.373069763183594,-0.05408775433897972,-0.045326199382543564,-0.010646508075296879
-1.507667064666748,5.162396430969238,8.4601411819458,0.1342332661151886,-0.03316125646233559,0.008098327554762363
-1.6284880638122559,5.652451515197754,8.06593132019043,0.5580166578292847,0.2894977629184723,0.15128514170646667
-1.4915876388549805,5.4945969581604,7.816503047943115,0.5549972653388977,0.21039943397045135,0.11154399067163467
-1.5401707887649536,5.6565022468566895,7.458876609802246,0.49319514632225037,0.24029693007469177,0.10608111321926117
-1.5035873651504517,5.775369644165039,7.266401767730713,-0.02754129469394684,-0.0481012724339962,0.030455995351076126
-1.9557753801345825,5.982583045959473,6.759415149688721,-0.20615829527378082,-0.25045475363731384,0.010227628983557224
-1.5323272943496704,5.8144049644470215,7.0233235359191895,-0.4441688358783722,-0.1344776153564453,0.0339815616607666
-1.2966996431350708,5.588794231414795,7.810393333435059,-0.47394415736198425,-0.03052580915391445,-0.004886921960860491
-1.5820884704589844,5.653523921966553,8.313433647155762,-0.3277902901172638,-0.028710665181279182,-0.012531463988125324
-1.5387533903121948,5.248367786407471,7.6157732009887695,-0.6026796698570251,-0.2226865589618683,-0.08112290501594543
-1.3484622240066528,5.141241550445557,8.19375228881836,-0.6233966946601868,-0.23310618102550507,-0.11082840710878372
-1.2843742370605469,5.087879657745361,8.321181297302246,-0.5715080499649048,-0.20081758499145508,-0.1469043642282486
-1.551720380783081,5.088454246520996,8.308061599731445,-0.512812614440918,-0.23451988399028778,-0.1598197966814041
-1.532882809638977,5.081319332122803,8.304306983947754,-0.4795990288257599,-0.2713288962841034,-0.15203562378883362
-1.3137271404266357,4.7997517585754395,8.342528343200684,-0.5418898463249207,-0.1967335194349289,-0.19908970594406128
-1.247560977935791,4.816175937652588,8.82374382019043,-0.488430380821228,-0.44313910603523254,-0.29742154479026794
-1.157941222190857,4.564842224121094,8.326056480407715,-0.5528330206871033,-0.410710871219635,-0.3237411081790924
-1.0742207765579224,4.391042232513428,8.230586051940918,-0.6173753142356873,-0.41460296511650085,-0.3297450542449951
-1.0158214569091797,4.382853984832764,8.181639671325684,-0.6345667839050293,-0.4210955798625946,-0.342765212059021
-1.2514492273330688,3.8443217277526855,8.749140739440918,-0.8539721369743347,-0.392838716506958,-0.26885050535202026
-0.9047113060951233,3.7410261631011963,9.38817310333252,-0.7215365767478943,-0.4288274049758911,-0.27237609028816223
-0.9916878938674927,3.7474617958068848,9.524296760559082,-0.5677905082702637,-0.37255796790122986,-0.2944544851779938
-1.301239013671875,3.7985827922821045,9.57622241973877,-0.4219857156276703,-0.25104814767837524,-0.24230405688285828
-1.1540913581848145,3.7352705001831055,9.551600456237793,-0.3347017765045166,-0.25644123554229736,-0.1820727437734604
-0.9714903831481934,3.5702333450317383,9.47492790222168,-0.3230953514575958,-0.21094049513339996,-0.15835371613502502
-0.9949727058410645,3.54166579246521,9.522783279418945,-0.28297021985054016,-0.16406095027923584,-0.13716542720794678
-1.0486507415771484,3.518585681915283,9.241033554077148,-0.2157052457332611,-0.07588691264390945,-0.08250171691179276
-0.901369035243988,3.3555309772491455,8.93526554107666,-0.16582372784614563,-0.04283038154244423,-0.03401646763086319
-0.8371565341949463,3.326838970184326,8.703008651733398,-0.14791665971279144,-0.04541346803307533,-0.020402899011969566
-0.9381247758865356,3.310328483581543,8.658601760864258,-0.17072810232639313,-0.06918485462665558,0.018675023689866066
-0.8991759419441223,3.4756720066070557,8.766361236572266,-0.18139207363128662,-0.048659779131412506,0.06318091601133347
-0.9234818816184998,3.34308123588562,9.211958885192871,-0.15519466996192932,0.025150194764137268,0.09026842564344406
-0.9001623392105103,3.173600435256958,9.559175491333008,-0.09939649701118469,0.03251548483967781,0.13894565403461456
-0.9071055054664612,3.168428897857666,9.412297248840332,-0.08597491681575775,0.08244935423135757,0.17852972447872162
-1.0551725625991821,3.4007909297943115,9.150897026062012,-0.06948155909776688,0.15910421311855316,0.25356143712997437
-1.045049786567688,3.2662465572357178,9.12317180633545,0.07785914093255997,0.6070953011512756,0.27930504083633423
-0.7845607399940491,3.151190757751465,9.65231990814209,0.11794935166835785,0.18687240779399872,0.310494065284729
-0.2503185570240021,2.785174608230591,9.294502258300781,-0.011397000402212143,-0.01342158205807209,0.2157401442527771
-0.9037249088287354,3.0990257263183594,9.188237190246582,-0.17175784707069397,-0.09833184629678726,0.19711747765541077
-0.9253684878349304,2.889073610305786,9.155810356140137,-0.21128955483436584,0.012095131911337376,0.22917918860912323
-1.3573590517044067,3.497986078262329,9.17529010772705,-0.13533282279968262,0.34088024497032166,0.42504003643989563
-1.3272112607955933,3.352006673812866,8.731443405151367,-0.10904817283153534,0.5146801471710205,0.688410222530365
-0.8359307050704956,3.1713690757751465,8.842370986938477,-0.1584235429763794,0.5266705751419067,0.7212921977043152
-0.716392993927002,3.0400710105895996,9.226554870605469,-0.14161601662635803,0.05564109608530998,0.0714363232254982
-0.9973573684692383,3.369685411453247,9.31822395324707,-0.11850785464048386,0.012967796064913273,-0.04885176569223404
-1.0875804424285889,3.3888392448425293,10.148360252380371,0.2059663087129593,-0.30319860577583313,-0.044052109122276306
-1.3164182901382446,2.9130730628967285,9.665956497192383,0.5043478012084961,-0.04677482321858406,-0.026598818600177765
-1.2707464694976807,2.8163375854492188,8.53413200378418,0.28440138697624207,0.15339699387550354,0.003228859044611454
-1.188644528388977,3.3450539112091064,7.7091569900512695,-0.19626227021217346,0.08548622578382492,-0.04237659275531769
-1.5326625108718872,3.1824588775634766,8.370502471923828,-0.5356066226959229,0.03171263262629509,0.023998277261853218
-1.1557577848434448,3.3141591548919678,10.249146461486816,-0.42261403799057007,0.12866567075252533,0.05647885426878929
-1.2125673294067383,2.839848756790161,11.126411437988281,-0.005881759338080883,0.19245745241641998,0.03783873841166496
-1.2687065601348877,2.9938342571258545,10.135843276977539,0.3542320132255554,0.14707890152931213,0.07794640213251114
-1.2146742343902588,3.1580092906951904,8.96672534942627,0.42031019926071167,0.10527826100587845,0.09588839113712311
-1.048181414604187,3.468125581741333,8.206002235412598,0.23837706446647644,0.14163346588611603,0.0483805276453495
-1.3204787969589233,3.3481950759887695,8.491667747497559,0.044313911348581314,0.11295770853757858,0.05976007506251335
-1.4571398496627808,2.957423210144043,9.365082740783691,0.025394540280103683,0.15313519537448883,0.14734070003032684
-0.9726874828338623,3.0575199127197266,9.779088020324707,0.11082840710878372,0.05965535342693329,0.09054768085479736
-0.6308625340461731,2.8231754302978516,9.574995994567871,0.13809044659137726,-0.04871213808655739,-0.08663814514875412
-1.1970720291137695,3.366065502166748,9.74699592590332,0.282917857170105,-0.050597093999385834,-0.15508995950222015
-1.2010847330093384,3.532031536102295,9.262179374694824,0.3836757242679596,-0.132522851228714,-0.1328020989894867
-1.4449868202209473,3.4913206100463867,8.641152381896973,0.28677505254745483,-0.07072073966264725,-0.02068215236067772
-1.2689268589019775,3.481389284133911,8.706533432006836,0.1264491081237793,0.037803832441568375,0.040997784584760666
-1.1567153930664062,3.271571159362793,8.995810508728027,0.07771950960159302,0.06988298147916794,0.03494149073958397
-1.2631137371063232,3.618586778640747,9.575055122375488,0.1978330761194229,0.005829399451613426,-0.00094247778179124
-1.0567526817321777,3.390716075897217,9.050494194030762,0.08609709143638611,-0.10088002681732178,-0.020490165799856186
-1.1925326585769653,3.7001523971557617,9.073688507080078,0.01448623277246952,-0.08243189752101898,-0.1082802265882492
-1.4107593297958374,3.5802507400512695,9.280461311340332,0.1276010274887085,-0.06031857803463936,-0.14528121054172516
-1.342591643333435,3.6437737941741943,8.866724967956543,0.1621410846710205,-0.09861110150814056,-0.10060077905654907
-1.4471416473388672,3.6453921794891357,8.54227352142334,0.11726867407560349,-0.06845181435346603,-0.03804817795753479
-1.0484591722488403,3.7978742122650146,8.163566589355469,0.009040805511176586,0.04384266957640648,0.04946263134479523
-1.0584286451339722,3.6849348545074463,8.479744911193848,-0.046652652323246,0.09737192094326019,0.09775589406490326
-1.0793061256408691,3.3122055530548096,8.874404907226562,0.13119639456272125,0.29281389713287354,0.08134979754686356
-1.2152010202407837,3.8018198013305664,9.122340202331543,0.09939649701118469,-0.13601350784301758,0.026598818600177765
-1.1561312675476074,3.7052950859069824,8.448363304138184,-0.18338175117969513,-0.08693484961986542,-0.01682497374713421
-1.4605587720870972,3.8810582160949707,8.710210800170898,-0.2255139946937561,0.055431656539440155,-0.014870204962790012
-1.0873314142227173,3.5590476989746094,10.178239822387695,-0.14393730461597443,-0.23525293171405792,-0.08969247341156006
-1.465347170829773,3.3995747566223145,9.35920238494873,-0.0985063835978508,0.016720253974199295,-0.12395328283309937
-1.1643098592758179,3.6340246200561523,9.216622352600098,0.04124213010072708,-0.0037000980228185654,-0.07944738864898682
-1.345225214958191,3.536273956298828,9.14421272277832,0.12229522317647934,0.032044246792793274,-0.04082325100898743
-1.0998291969299316,3.53493332862854,9.051614761352539,0.2894628643989563,0.03586651757359505,0.013299409300088882
-1.0998961925506592,3.5665366649627686,8.083025932312012,-0.1578301191329956,-0.03145083412528038,0.07780677825212479
-1.1488337516784668,3.8424158096313477,8.95610523223877,-0.242530956864357,0.04115486517548561,-0.007609635591506958
-1.6439162492752075,4.134364604949951,9.309948921203613,-0.2111324816942215,0.048747044056653976,0.02427753061056137
-1.2943916320800781,3.7426064014434814,9.40804386138916,-0.14638076722621918,-0.0010995573829859495,0.09061749279499054
-1.3695120811462402,3.6735193729400635,8.923046112060547,0.22129029035568237,0.26541221141815186,0.20582668483257294
-1.498262643814087,3.8649308681488037,8.400574684143066,0.18655824661254883,0.36473891139030457,0.3184702396392822
-1.1868152618408203,3.7442057132720947,8.474343299865723,0.08724901080131531,0.34953707456588745,0.337005615234375
-1.0150361061096191,3.6519522666931152,8.660365104675293,0.048834312707185745,0.40105921030044556,0.28763025999069214
-1.4304492473602295,3.607764959335327,9.197076797485352,0.15819664299488068,0.4400498569011688,0.2935120165348053
-1.257492184638977,3.66792631149292,9.188620567321777,0.3081378638744354,0.4044800400733948,0.26808255910873413
-1.4543050527572632,3.383533477783203,9.239999771118164,0.23027874529361725,0.14191271364688873,0.28469809889793396
-1.1100763082504272,3.6345512866973877,9.079444885253906,0.004310963209718466,0.06288421154022217,0.20573940873146057
-1.5307471752166748,4.390256881713867,8.839449882507324,-0.14032447338104248,0.11330677568912506,0.0886976346373558
-1.446931004524231,3.802720069885254,8.802215576171875,-0.12081169337034225,-0.014276793226599693,-0.061505403369665146
-1.2670880556106567,3.735711097717285,8.501810073852539,-0.16004669666290283,-0.2280796319246292,-0.19257962703704834
-1.333378791809082,3.986144542694092,8.281947135925293,-0.23460716009140015,-0.585767388343811,-0.21359339356422424
-1.171913743019104,3.847271203994751,9.413925170898438,0.010349802672863007,-0.351474404335022,-0.24033184349536896
-1.623632550239563,3.0399177074432373,9.421988487243652,0.06438519805669785,-0.06921976059675217,-0.13456489145755768
-1.4258044958114624,3.7911224365234375,9.158089637756348,-0.2831796705722809,-0.052900929003953934,-0.10581931471824646
-1.1586307287216187,3.603053092956543,9.77187728881836,-0.07185520231723785,0.0018325956771150231,-0.03522074595093727
-1.4191774129867554,4.27431058883667,9.721866607666016,0.33948400616645813,0.07642796635627747,-0.02254965342581272
-1.202071189880371,3.589071035385132,8.709129333496094,0.2634749114513397,0.0015533430268988013,-0.027174776419997215
-1.3933486938476562,4.098576068878174,8.396742820739746,0.08815658092498779,-0.015201817266643047,-0.08826129883527756
-1.5495368242263794,3.7460923194885254,8.611034393310547,-0.02799508161842823,0.03118903376162052,-0.06803293526172638
-1.6399227380752563,3.8781373500823975,8.960041046142578,-0.06455972790718079,0.0616450272500515,0.018727382645010948
-1.5424691438674927,3.8510923385620117,9.129090309143066,0.05942846089601517,0.18388788402080536,0.16612043976783752
-1.3998035192489624,3.938126564025879,9.190420150756836,0.24013985693454742,0.2636145353317261,0.2113768309354782
-1.5278645753860474,3.761913299560547,8.8662748336792,0.2551322281360626,0.39674824476242065,0.28354617953300476
-1.2576358318328857,3.7688181400299072,9.094940185546875,0.3291690945625305,0.34266048669815063,0.28007298707962036
-1.2043312788009644,3.70210599899292,9.005511283874512,0.3857003152370453,0.36772340536117554,0.25328218936920166
-1.189841628074646,3.947674512863159,8.937458992004395,0.6595250368118286,0.22270400822162628,0.16339772939682007
-1.400406837463379,3.7301948070526123,7.859302043914795,-0.09651670604944229,0.05408775433897972,0.00839503388851881
-1.5797325372695923,4.215298175811768,9.068384170532227,-0.17009979486465454,0.10566223412752151,-0.13864895701408386
-1.8088384866714478,4.176263332366943,9.796239852905273,-0.01727875880897045,0.007260569836944342,-0.12993976473808289
-1.6843591928482056,4.098451614379883,9.395258903503418,0.19922932982444763,-0.10323622822761536,-0.04640830308198929
-1.5654630661010742,3.9397833347320557,8.714424133300781,0.209142804145813,-0.05628686770796776,0.043336525559425354
-1.1838464736938477,4.127938747406006,8.856371879577637,0.3399028778076172,0.020874137058854103,0.06754424422979355
-1.1620880365371704,4.124462604522705,9.002638816833496,0.45900413393974304,0.09688322991132736,0.05112069472670555
-1.4803061485290527,4.196470260620117,9.134415626525879,0.7347835898399353,0.23027874529361725,0.0982271283864975
-1.1046271324157715,4.635059356689453,8.206192970275879,0.8861734867095947,0.22909191250801086,0.08475318551063538
-1.3999375104904175,4.6490702629089355,7.648784637451172,0.6844308376312256,0.19697785377502441,-0.01647590845823288
-1.5640935897827148,4.768205642700195,7.636363506317139,0.4277103841304779,0.15674802660942078,-0.06607816368341446
-1.7979974746704102,4.84022331237793,8.21764850616455,0.1581093817949295,0.14711380004882812,0.04934045672416687
-1.8692680597305298,4.953957557678223,8.277262687683105,0.15212289988994598,0.1414240300655365,0.10018189996480942
-1.6446154117584229,4.94790506362915,8.409289360046387,0.18390534818172455,0.16828463971614838,0.10784389078617096
-1.4957727193832397,5.254343509674072,7.89235258102417,0.2814866900444031,0.25068163871765137,0.041661009192466736
-1.7771201133728027,5.026741027832031,7.620715141296387,0.2128428965806961,0.06503096967935562,-0.009651671163737774
-2.023052453994751,4.993116855621338,8.21922779083252,-0.06990043818950653,-0.1178097277879715,0.023719023913145065
-2.0463433265686035,5.540651798248291,8.12989616394043,-0.07337363809347153,-0.015289084054529667,-0.02197369560599327
