accX,accY,accZ,gyroX,gyroY,gyroZ
0.01460999995470047,0.10011407732963562,10.034062385559082,0.003808620385825634,-0.002157328650355339,-0.0010387133806943893
0.02179523929953575,0.10969439893960953,10.00771713256836,0.003808620385825634,-0.0037553496658802032,-0.0010387133806943893
0.012214921414852142,0.10969439893960953,10.00292682647705,0.003808620385825634,-0.0037553496658802032,-0.0010387133806943893
0.01460999995470047,0.1072993203997612,10.041248321533203,0.002743271179497242,-0.0026900041848421097,-0.0005060397088527679
0.012214921414852142,0.09771899878978729,10.026878356933594,0.0032759467139840126,-0.0016246549785137177,-0.0005060397088527679
0.0050296783447265625,0.10490424185991287,10.00292682647705,0.003808620385825634,-0.004288027063012123,-0.0010387133806943893
0.02898048236966133,0.1072993203997612,10.000531196594238,0.004341292195022106,-0.0037553496658802032,-0.0015713870525360107
0.026585400104522705,0.10250915586948395,9.99334716796875,0.004341292195022106,-0.0026900041848421097,-0.0010387133806943893
0.024190321564674377,0.10969439893960953,10.000531196594238,0.0032759467139840126,-0.0037553496658802032,-0.0010387133806943893
0.02898048236966133,0.08813867717981339,9.990951538085938,0.003808620385825634,-0.003222677856683731,-0.0010387133806943893
0.019400160759687424,0.09771899878978729,10.022087097167969,0.0032759467139840126,-0.0026900041848421097,-0.0015713870525360107
0.019400160759687424,0.09292884171009064,9.998136520385742,0.004341292195022106,-0.004288027063012123,-0.0015713870525360107
0.026585400104522705,0.10969439893960953,9.986161231994629,0.003808620385825634,-0.003222677856683731,-0.0005060397088527679
0.03137555718421936,0.1072993203997612,9.990951538085938,0.004873969592154026,-0.0026900041848421097,-0.0010387133806943893
0.043350961059331894,0.11927472054958344,9.990951538085938,0.004873969592154026,-0.002157328650355339,-0.0005060397088527679
0.024190321564674377,0.11687964200973511,9.967000007629395,0.004341292195022106,-0.0026900041848421097,-0.0010387133806943893
0.012214921414852142,0.1072993203997612,10.072383880615234,0.0016779238358139992,-0.003222677856683731,-0.0005060397088527679
0.009819842875003815,0.10969439893960953,10.005322456359863,0.004873969592154026,-0.0010919813066720963,-0.0010387133806943893
0.024190321564674377,0.11687964200973511,9.97179126739502,0.003808620385825634,-0.003222677856683731,-0.0010387133806943893
0.002634607255458832,0.10969439893960953,9.983766555786133,0.004873969592154026,-0.0016246549785137177,-0.0010387133806943893
0.02898048236966133,0.11208947747945786,9.976581573486328,0.004873969592154026,-0.0037553496658802032,-0.0015713870525360107
0.026585400104522705,0.1072993203997612,9.983766555786133,0.00647199060767889,-0.003222677856683731,-0.0005060397088527679
0.019400160759687424,0.09771899878978729,9.672405242919922,0.005939316935837269,-0.008549418300390244,-0.0010387133806943893
0.00023952871561050415,0.09532392024993896,10.261594772338867,-0.005246836692094803,-0.006418721750378609,-0.0005060397088527679
0.02179523929953575,0.11687964200973511,9.976581573486328,0.005406643263995647,0.00157138891518116,-0.0010387133806943893
0.012214921414852142,0.10250915586948395,9.947839736938477,0.005939316935837269,0.0026367362588644028,-0.0010387133806943893
0.026585400104522705,0.1072993203997612,9.974185943603516,0.005939316935837269,0.00157138891518116,-0.0015713870525360107
0.03856080397963524,0.11448456346988678,9.935864448547363,0.007004664279520512,0.0010387152433395386,-0.0021040616557002068
0.01460999995470047,0.10250915586948395,10.010111808776855,0.004873969592154026,0.0010387152433395386,-0.0010387133806943893
0.019400160759687424,0.10490424185991287,9.90233325958252,0.005406643263995647,-0.0010919813066720963,-0.0010387133806943893
0.002634607255458832,0.11448456346988678,9.988555908203125,0.004341292195022106,-0.0037553496658802032,-0.0010387133806943893
0.026585400104522705,0.10490424185991287,9.99574089050293,0.004341292195022106,-0.0010919813066720963,-0.0015713870525360107
-0.004550635814666748,0.10490424185991287,9.957420349121094,0.003808620385825634,-0.0010919813066720963,-0.0010387133806943893
0.009819842875003815,0.10011407732963562,9.983766555786133,0.0032759467139840126,-0.0010919813066720963,-0.0005060397088527679
0.01460999995470047,0.11927472054958344,9.967000007629395,0.003808620385825634,-0.0016246549785137177,-0.0005060397088527679
0.002634607255458832,0.11448456346988678,9.701146125793457,0.004341292195022106,-0.002157328650355339,-0.0005060397088527679
0.11759844422340393,0.06897804141044617,10.637621879577637,-0.03933797776699066,-0.08259110897779465,-0.0005060397088527679
0.04574603959918022,0.07376819849014282,10.20650863647461,-0.004714164882898331,-0.016539528965950012,-0.0010387133806943893
0.03856080397963524,0.08574359863996506,10.127470970153809,0.01286407932639122,0.017018932849168777,-0.0005060397088527679
-0.0021555647253990173,0.11448456346988678,9.801740646362305,0.029909648001194,0.04045659303665161,-0.0010387133806943893
0.00742475688457489,0.12885503470897675,9.801740646362305,0.01659279689192772,0.01062684878706932,-0.0015713870525360107
0.019400160759687424,0.11687964200973511,9.969395637512207,0.005939316935837269,0.0021040625870227814,-0.0015713870525360107
0.00023952871561050415,0.12406487762928009,9.957420349121094,0.004873969592154026,-0.002157328650355339,-0.0010387133806943893
0.017005078494548798,0.10011407732963562,9.978975296020508,0.004341292195022106,-0.004288027063012123,-0.0010387133806943893
0.019400160759687424,0.10490424185991287,9.95981502532959,0.004341292195022106,-0.004288027063012123,-0.0015713870525360107
0.02179523929953575,0.09771899878978729,9.940655708312988,0.003808620385825634,-0.0037553496658802032,-0.0010387133806943893
0.00742475688457489,0.1072993203997612,9.952630043029785,0.0022105975076556206,-0.006418721750378609,2.663489431142807e-05
0.024190321564674377,0.10969439893960953,9.943049430847168,0.0022105975076556206,-0.005353374406695366,-0.0010387133806943893
0.017005078494548798,0.11448456346988678,9.967000007629395,0.002743271179497242,-0.003222677856683731,2.663489431142807e-05
0.02179523929953575,0.11208947747945786,9.957420349121094,0.0032759467139840126,-0.002157328650355339,-0.0010387133806943893
0.012214921414852142,0.10969439893960953,9.955025672912598,0.004341292195022106,-0.002157328650355339,-0.0015713870525360107
0.01460999995470047,0.1072993203997612,9.943049430847168,0.004873969592154026,-0.0010919813066720963,-0.0005060397088527679
0.02179523929953575,0.11448456346988678,9.931074142456055,0.004873969592154026,-0.0005593076348304749,-0.0015713870525360107
0.036165717989206314,0.09771899878978729,9.943049430847168,0.005406643263995647,-0.0010919813066720963,-0.0010387133806943893
0.00742475688457489,0.1072993203997612,9.964605331420898,0.003808620385825634,0.0005060397088527679,-0.0015713870525360107
0.026585400104522705,0.10011407732963562,9.947839736938477,0.004341292195022106,0.0005060397088527679,-0.0010387133806943893
0.0050296783447265625,0.10011407732963562,9.943049430847168,0.004341292195022106,0.00157138891518116,-0.0010387133806943893
0.00742475688457489,0.11208947747945786,9.943049430847168,0.0032759467139840126,0.0010387152433395386,2.663489431142807e-05
0.017005078494548798,0.09532392024993896,9.938260078430176,0.002743271179497242,0.0010387152433395386,-0.0010387133806943893
0.00742475688457489,0.10011407732963562,9.952630043029785,0.003808620385825634,-0.0005593076348304749,-0.0005060397088527679
-0.004550635814666748,0.11927472054958344,9.952630043029785,0.003808620385825634,-0.0005593076348304749,-0.0005060397088527679
0.00023952871561050415,0.10490424185991287,9.940655708312988,0.0032759467139840126,-0.0037553496658802032,-0.0015713870525360107
-0.014130957424640656,0.11687964200973511,9.935864448547363,0.004341292195022106,-0.0037553496658802032,-0.0010387133806943893
0.009819842875003815,0.09532392024993896,9.945444107055664,0.003808620385825634,-0.0026900041848421097,-0.0015713870525360107
0.0050296783447265625,0.10250915586948395,9.928679466247559,0.003808620385825634,-0.002157328650355339,-0.0010387133806943893
0.019400160759687424,0.10490424185991287,9.935864448547363,0.004341292195022106,-0.003222677856683731,-0.0015713870525360107
0.009819842875003815,0.10490424185991287,9.950235366821289,0.004341292195022106,-0.003222677856683731,-0.0015713870525360107
0.017005078494548798,0.09771899878978729,9.921494483947754,0.004341292195022106,-0.0026900041848421097,-0.0015713870525360107
0.01460999995470047,0.11208947747945786,9.943049430847168,0.0032759467139840126,-0.0026900041848421097,-0.0005060397088527679
0.0792771577835083,0.11687964200973511,10.024482727050781,0.0032759467139840126,0.029803110286593437,-0.0015713870525360107
0.02898048236966133,0.11687964200973511,9.935864448547363,0.0011452501639723778,-0.0005593076348304749,-0.0005060397088527679
0.0050296783447265625,0.1072993203997612,9.919099807739258,0.004873969592154026,0.0026367362588644028,-0.0015713870525360107
-0.004550635814666748,0.10490424185991287,9.943049430847168,0.0032759467139840126,-0.0005593076348304749,-0.0010387133806943893
0.026585400104522705,0.1072993203997612,9.931074142456055,0.003808620385825634,-0.003222677856683731,-0.0005060397088527679
0.00742475688457489,0.10250915586948395,9.935864448547363,0.0032759467139840126,-0.0010919813066720963,-0.0005060397088527679
0.002634607255458832,0.1072993203997612,9.943049430847168,0.003808620385825634,-0.0010919813066720963,-0.0010387133806943893
0.02179523929953575,0.10490424185991287,9.955025672912598,0.0032759467139840126,-2.6633962988853455e-05,-0.0010387133806943893
0.009819842875003815,0.11687964200973511,9.761024475097656,0.016060123220086098,-0.0005593076348304749,-0.0005060397088527679
0.036165717989206314,0.08574359863996506,9.97179126739502,0.004341292195022106,0.012224867939949036,-0.0010387133806943893
0.002634607255458832,0.10969439893960953,9.909518241882324,0.003808620385825634,0.02713974379003048,-0.0005060397088527679
0.024190321564674377,0.09532392024993896,9.95981502532959,0.0022105975076556206,-0.0016246549785137177,-0.0005060397088527679
0.019400160759687424,0.10969439893960953,9.914308547973633,0.0032759467139840126,-0.0026900041848421097,-0.0010387133806943893
0.00742475688457489,0.10969439893960953,9.916704177856445,0.003808620385825634,-0.002157328650355339,-0.0010387133806943893
0.00742475688457489,0.09771899878978729,9.92388916015625,0.0032759467139840126,-0.002157328650355339,-0.0005060397088527679
0.02898048236966133,0.10011407732963562,9.92388916015625,0.0032759467139840126,-0.0026900041848421097,-0.0010387133806943893
-0.1961570382118225,0.08813867717981339,10.036458015441895,0.004873969592154026,-0.005886048078536987,-0.0010387133806943893
0.06490667909383774,0.07376819849014282,10.568164825439453,-0.02548845112323761,-0.04104253649711609,-0.0010387133806943893
0.11999352276325226,0.10490424185991287,10.01729679107666,-0.0036488138139247894,-0.03624846786260605,-0.0010387133806943893
0.03856080397963524,0.09053375571966171,10.029272079467773,0.005939316935837269,0.07880911976099014,2.663489431142807e-05
0.024190321564674377,0.12166979908943176,9.967000007629395,0.0016779238358139992,0.08733190596103668,-0.0005060397088527679
0.02179523929953575,0.11448456346988678,9.878382682800293,0.0011452501639723778,0.007430804893374443,2.663489431142807e-05
0.024190321564674377,0.09532392024993896,9.98137092590332,-0.00045277178287506104,0.0031694117933511734,-0.0005060397088527679
0.019400160759687424,0.09771899878978729,9.938260078430176,0.0032759467139840126,-0.0010919813066720963,-0.0010387133806943893
0.02179523929953575,0.10011407732963562,9.940655708312988,0.003808620385825634,-0.0016246549785137177,-0.0015713870525360107
0.02179523929953575,0.11687964200973511,9.914308547973633,0.004341292195022106,0.00157138891518116,-0.0005060397088527679
0.009819842875003815,0.10011407732963562,9.890358924865723,0.0032759467139840126,-0.0005593076348304749,-0.0005060397088527679
0.017005078494548798,0.09532392024993896,9.928679466247559,0.002743271179497242,-0.0037553496658802032,-0.0005060397088527679
0.012214921414852142,0.11927472054958344,9.933469772338867,0.0016779238358139992,-0.0048207007348537445,-0.0015713870525360107
0.024190321564674377,0.11208947747945786,9.92388916015625,0.0032759467139840126,-0.0026900041848421097,-0.0010387133806943893
0.024190321564674377,0.11687964200973511,9.928679466247559,0.003808620385825634,-0.002157328650355339,2.663489431142807e-05
0.01460999995470047,0.10969439893960953,9.935864448547363,0.002743271179497242,-0.002157328650355339,-0.0015713870525360107
0.01460999995470047,0.10490424185991287,9.914308547973633,0.0032759467139840126,-0.002157328650355339,-0.0015713870525360107
0.017005078494548798,0.1072993203997612,9.945444107055664,0.003808620385825634,-0.0026900041848421097,-0.0015713870525360107
0.026585400104522705,0.1072993203997612,9.943049430847168,0.003808620385825634,-0.0026900041848421097,-0.0010387133806943893
0.009819842875003815,0.11687964200973511,9.926283836364746,0.0022105975076556206,-0.002157328650355339,-0.0010387133806943893
0.02898048236966133,0.10250915586948395,9.931074142456055,0.004341292195022106,-0.0026900041848421097,-0.0010387133806943893
-0.04766207933425903,0.12885503470897675,9.998136520385742,0.015527449548244476,0.03939124941825867,-0.0015713870525360107
-0.016526035964488983,0.12166979908943176,9.983766555786133,0.014462101273238659,0.02341102436184883,-0.0015713870525360107
0.00742475688457489,0.10490424185991287,9.935864448547363,0.0022105975076556206,-0.02026824653148651,-0.0005060397088527679
-0.014130957424640656,0.09292884171009064,9.921494483947754,-0.005246836692094803,-0.04370590299367905,-0.0015713870525360107
0.033770639449357986,0.11927472054958344,9.90233325958252,-0.006844863295555115,-0.047434620559215546,-0.0021040616557002068
0.00023952871561050415,0.10250915586948395,9.950235366821289,-0.00045277178287506104,-0.0037553496658802032,-0.0015713870525360107
0.012214921414852142,0.11208947747945786,9.92388916015625,0.0011452501639723778,-0.008016744628548622,-0.0015713870525360107
-0.006945721805095673,0.09292884171009064,9.928679466247559,0.0032759467139840126,-0.0037553496658802032,-0.0010387133806943893
0.017005078494548798,0.11448456346988678,9.933469772338867,0.0032759467139840126,-0.0037553496658802032,-0.0005060397088527679
0.00742475688457489,0.10011407732963562,9.931074142456055,0.002743271179497242,-0.0037553496658802032,-0.0010387133806943893
0.024190321564674377,0.08813867717981339,9.926283836364746,0.0022105975076556206,-0.0037553496658802032,-0.0010387133806943893
0.00742475688457489,0.12166979908943176,9.938260078430176,0.002743271179497242,-0.0037553496658802032,-0.0010387133806943893
0.02898048236966133,0.11208947747945786,9.926283836364746,0.003808620385825634,-0.0026900041848421097,-0.0010387133806943893
0.0050296783447265625,0.10490424185991287,9.957420349121094,0.002743271179497242,-0.0016246549785137177,-0.0021040616557002068
0.01460999995470047,0.11687964200973511,9.940655708312988,0.0022105975076556206,-0.00695139542222023,-0.0026367362588644028
0.019400160759687424,0.10011407732963562,9.938260078430176,0.0016779238358139992,-0.005353374406695366,-0.0021040616557002068
0.009819842875003815,0.1072993203997612,9.935864448547363,0.002743271179497242,-0.005353374406695366,-0.0021040616557002068
0.02179523929953575,0.09532392024993896,9.933469772338867,0.0032759467139840126,-0.0048207007348537445,-0.0015713870525360107
0.002634607255458832,0.11208947747945786,9.940655708312988,0.002743271179497242,-0.003222677856683731,-0.0015713870525360107
0.012214921414852142,0.11448456346988678,9.926283836364746,0.003808620385825634,-0.0016246549785137177,-0.0015713870525360107
0.009819842875003815,0.09771899878978729,9.935864448547363,0.0032759467139840126,-0.004288027063012123,-0.0010387133806943893
0.02179523929953575,0.10490424185991287,9.92388916015625,0.003808620385825634,-0.0048207007348537445,-0.0015713870525360107
0.00742475688457489,0.11208947747945786,9.926283836364746,0.0032759467139840126,-0.0037553496658802032,-0.0010387133806943893
-0.1506505161523819,0.11927472054958344,9.643665313720703,0.01499477494508028,-0.10070203244686127,-0.0015713870525360107
-0.009340792894363403,0.11448456346988678,9.969395637512207,0.009135360829532146,-0.043173231184482574,-0.0005060397088527679
0.10322795808315277,0.09292884171009064,9.967000007629395,0.0016779238358139992,-0.0426405593752861,-0.0005060397088527679
0.08167224377393723,0.09771899878978729,9.964605331420898,0.0022105975076556206,0.07241703569889069,-0.0010387133806943893
-0.011735886335372925,0.10250915586948395,9.955025672912598,0.0032759467139840126,0.12728247046470642,-0.0010387133806943893
0.04574603959918022,0.10250915586948395,9.911913871765137,0.0016779238358139992,0.0005060397088527679,-0.0010387133806943893
0.043350961059331894,0.1072993203997612,9.911913871765137,0.004341292195022106,0.0031694117933511734,-0.0015713870525360107
0.024190321564674377,0.1072993203997612,9.914308547973633,0.003808620385825634,0.0010387152433395386,-0.0010387133806943893
0.04095587879419327,0.09771899878978729,9.935864448547363,0.0032759467139840126,-0.0005593076348304749,-0.0021040616557002068
-0.06682272255420685,0.09053375571966171,9.986161231994629,0.004873969592154026,-0.004288027063012123,-0.0005060397088527679
0.15352463722229004,0.0809534341096878,10.328657150268555,-0.022292405366897583,-0.18220114707946777,-0.0015713870525360107
0.03856080397963524,0.11687964200973511,9.871197700500488,0.01765814609825611,-0.03251975029706955,-0.0015713870525360107
0.09843780100345612,0.09532392024993896,10.00292682647705,0.007004664279520512,0.045783333480358124,-0.0005060397088527679
0.05532635748386383,0.1072993203997612,9.952630043029785,0.004873969592154026,0.1054428294301033,-0.0005060397088527679
0.026585400104522705,0.09532392024993896,9.940655708312988,0.004873969592154026,0.1240864247083664,-0.0005060397088527679
0.009819842875003815,0.10250915586948395,9.828085899353027,0.004341292195022106,0.03086846135556698,-0.0005060397088527679
0.00742475688457489,0.09292884171009064,9.976581573486328,0.0016779238358139992,0.011692196130752563,-0.0010387133806943893
0.036165717989206314,0.09532392024993896,9.947839736938477,0.0032759467139840126,0.00157138891518116,-0.0010387133806943893
0.02898048236966133,0.11927472054958344,9.907124519348145,0.0032759467139840126,0.0005060397088527679,-0.0010387133806943893
0.026585400104522705,0.11448456346988678,9.926283836364746,0.002743271179497242,0.00157138891518116,-0.0005060397088527679
0.017005078494548798,0.09771899878978729,9.945444107055664,0.002743271179497242,0.0005060397088527679,2.663489431142807e-05
0.017005078494548798,0.11448456346988678,9.919099807739258,0.002743271179497242,-0.0010919813066720963,-0.0010387133806943893
0.033770639449357986,0.10011407732963562,9.938260078430176,0.0032759467139840126,-0.002157328650355339,-0.0005060397088527679
0.026585400104522705,0.10250915586948395,9.931074142456055,0.004341292195022106,-0.003222677856683731,-0.0010387133806943893
0.012214921414852142,0.10969439893960953,9.928679466247559,0.0032759467139840126,-0.002157328650355339,2.663489431142807e-05
0.02179523929953575,0.10011407732963562,9.950235366821289,0.0032759467139840126,-0.002157328650355339,-0.0015713870525360107
0.017005078494548798,0.08813867717981339,9.911913871765137,0.004341292195022106,-2.6633962988853455e-05,-0.0010387133806943893
0.017005078494548798,0.09292884171009064,9.928679466247559,0.003808620385825634,0.0005060397088527679,-0.0005060397088527679
0.009819842875003815,0.09771899878978729,9.926283836364746,0.003808620385825634,0.0010387152433395386,-0.0005060397088527679
0.019400160759687424,0.09292884171009064,9.935864448547363,0.003808620385825634,-0.0016246549785137177,-0.0010387133806943893
0.017005078494548798,0.10490424185991287,9.938260078430176,0.003808620385825634,-0.0005593076348304749,-0.0005060397088527679
0.026585400104522705,0.11208947747945786,9.926283836364746,0.003808620385825634,-0.0010919813066720963,-0.0010387133806943893
0.017005078494548798,0.1072993203997612,9.931074142456055,0.003808620385825634,-0.002157328650355339,-0.0010387133806943893
0.03137555718421936,0.08813867717981339,9.931074142456055,0.003808620385825634,-0.0016246549785137177,-0.0010387133806943893
0.009819842875003815,0.11687964200973511,9.938260078430176,0.0032759467139840126,-0.0026900041848421097,-0.0010387133806943893
0.01460999995470047,0.11208947747945786,9.928679466247559,0.004341292195022106,-0.002157328650355339,-0.0021040616557002068
0.024190321564674377,0.11687964200973511,9.931074142456055,0.003808620385825634,-0.0026900041848421097,-0.0015713870525360107
0.019400160759687424,0.09292884171009064,9.928679466247559,0.003808620385825634,-0.0010919813066720963,-0.0010387133806943893
0.024190321564674377,0.09771899878978729,9.928679466247559,0.0032759467139840126,-0.002157328650355339,-0.0010387133806943893
0.026585400104522705,0.09532392024993896,9.928679466247559,0.003808620385825634,-0.0010919813066720963,-0.0010387133806943893
0.026585400104522705,0.1072993203997612,9.935864448547363,0.0032759467139840126,-0.0026900041848421097,-0.0015713870525360107
0.009819842875003815,0.1072993203997612,9.928679466247559,0.003808620385825634,-0.0026900041848421097,-0.0015713870525360107
0.017005078494548798,0.10011407732963562,9.921494483947754,0.0032759467139840126,-0.0026900041848421097,-0.0010387133806943893
0.03137555718421936,0.10250915586948395,9.945444107055664,0.0032759467139840126,-0.002157328650355339,-0.0015713870525360107
0.02179523929953575,0.12406487762928009,9.945444107055664,0.0032759467139840126,-0.0026900041848421097,-0.0010387133806943893
0.00742475688457489,0.11208947747945786,9.935864448547363,0.004341292195022106,-0.003222677856683731,-0.0005060397088527679
0.04814112186431885,0.09053375571966171,9.914308547973633,0.003808620385825634,-0.0026900041848421097,-0.0010387133806943893
-0.054847314953804016,0.11448456346988678,10.06519889831543,0.02191953733563423,0.13047851622104645,0.0005593085661530495
-0.018921121954917908,0.10969439893960953,9.933469772338867,0.0032759467139840126,-0.021866269409656525,-0.0015713870525360107
0.017005078494548798,0.11448456346988678,9.909518241882324,-0.005246836692094803,-0.05862078070640564,-0.0010387133806943893
0.01460999995470047,0.1072993203997612,9.931074142456055,-0.0036488138139247894,-0.04210788011550903,-0.0005060397088527679
0.019400160759687424,0.11448456346988678,9.940655708312988,-0.00045277178287506104,-0.014408832415938377,-0.0015713870525360107
0.0050296783447265625,0.11448456346988678,9.945444107055664,0.0022105975076556206,-0.005353374406695366,-0.0015713870525360107
0.009819842875003815,0.09771899878978729,9.92388916015625,0.0032759467139840126,-0.0037553496658802032,-0.0010387133806943893
0.01460999995470047,0.11927472054958344,9.933469772338867,0.002743271179497242,-0.004288027063012123,-0.0005060397088527679
0.009819842875003815,0.10250915586948395,9.933469772338867,0.0032759467139840126,-0.003222677856683731,-0.0010387133806943893
0.019400160759687424,0.11448456346988678,9.950235366821289,0.0032759467139840126,-0.0037553496658802032,-0.0010387133806943893
0.019400160759687424,0.1072993203997612,9.926283836364746,0.002743271179497242,-0.003222677856683731,-0.0010387133806943893
0.026585400104522705,0.09532392024993896,9.931074142456055,0.0032759467139840126,-0.0037553496658802032,-0.0005060397088527679
0.00742475688457489,0.09292884171009064,9.947839736938477,0.0032759467139840126,-0.003222677856683731,-0.0015713870525360107
0.02179523929953575,0.09292884171009064,9.916704177856445,0.004341292195022106,-0.003222677856683731,-0.0010387133806943893
-0.10753907263278961,0.1072993203997612,10.182558059692383,0.02564825676381588,0.15444883704185486,-0.0005060397088527679
-0.05005715787410736,0.10969439893960953,10.029272079467773,0.004873969592154026,0.0026367362588644028,-0.0010387133806943893
0.00023952871561050415,0.1072993203997612,9.933469772338867,-0.011106252670288086,-0.08205843716859818,-0.0015713870525360107
0.04095587879419327,0.1072993203997612,9.919099807739258,-0.005246836692094803,-0.039444513618946075,-0.0010387133806943893
0.00742475688457489,0.10490424185991287,9.926283836364746,0.0016779238358139992,-0.009614766575396061,-0.0010387133806943893
0.009819842875003815,0.11927472054958344,9.935864448547363,0.0022105975076556206,-0.005886048078536987,-0.0015713870525360107
0.009819842875003815,0.11208947747945786,9.911913871765137,0.0032759467139840126,-0.004288027063012123,-0.0015713870525360107
0.012214921414852142,0.10490424185991287,9.933469772338867,0.002743271179497242,-0.0037553496658802032,-0.0005060397088527679
0.017005078494548798,0.10969439893960953,9.950235366821289,0.003808620385825634,-0.003222677856683731,-0.0010387133806943893
0.0050296783447265625,0.10011407732963562,9.933469772338867,0.003808620385825634,-0.0026900041848421097,-0.0010387133806943893
0.017005078494548798,0.11448456346988678,9.938260078430176,0.004341292195022106,-0.0016246549785137177,-0.0010387133806943893
0.017005078494548798,0.11927472054958344,9.938260078430176,0.0032759467139840126,-0.0026900041848421097,-0.0010387133806943893
0.009819842875003815,0.11927472054958344,9.935864448547363,0.003808620385825634,-0.0026900041848421097,-0.0005060397088527679
0.02179523929953575,0.09771899878978729,9.950235366821289,0.0032759467139840126,-0.003222677856683731,-0.0015713870525360107
0.01460999995470047,0.1072993203997612,9.938260078430176,0.003808620385825634,-0.003222677856683731,-0.0010387133806943893
0.002634607255458832,0.09532392024993896,9.931074142456055,0.003808620385825634,-0.003222677856683731,-0.0015713870525360107
0.01460999995470047,0.11687964200973511,9.926283836364746,0.002743271179497242,-0.0026900041848421097,-0.0010387133806943893
0.00742475688457489,0.1072993203997612,9.938260078430176,0.003808620385825634,-0.003222677856683731,-0.0010387133806943893
0.009819842875003815,0.11208947747945786,9.947839736938477,0.0032759467139840126,-0.003222677856683731,-0.0010387133806943893
0.02179523929953575,0.11687964200973511,9.943049430847168,0.003808620385825634,-0.003222677856683731,-0.0005060397088527679
0.012214921414852142,0.10011407732963562,9.938260078430176,0.003808620385825634,-0.002157328650355339,-0.0015713870525360107
0.0050296783447265625,0.11687964200973511,9.940655708312988,0.003808620385825634,-0.003222677856683731,-0.0005060397088527679
0.009819842875003815,0.10011407732963562,9.926283836364746,0.0032759467139840126,-0.0026900041848421097,-0.0015713870525360107
-0.04287191480398178,0.1072993203997612,9.775394439697266,0.011798731051385403,-0.03411777317523956,-0.0010387133806943893
0.04574603959918022,0.1072993203997612,10.03885269165039,0.004341292195022106,-0.06767623871564865,-0.0010387133806943893
0.0529312789440155,0.10490424185991287,9.935864448547363,0.009668034501373768,-0.030921729281544685,-0.0015713870525360107
0.033770639449357986,0.12166979908943176,9.952630043029785,0.004341292195022106,0.037260547280311584,-0.0005060397088527679
0.002634607255458832,0.11927472054958344,9.911913871765137,0.0022105975076556206,0.051642753183841705,-0.0010387133806943893
0.01460999995470047,0.10490424185991287,9.864011764526367,-0.00045277178287506104,0.021813001483678818,-0.0010387133806943893
0.017005078494548798,0.11448456346988678,9.969395637512207,0.0011452501639723778,0.0026367362588644028,-0.0010387133806943893
0.026585400104522705,0.11208947747945786,9.907124519348145,0.002743271179497242,-0.0010919813066720963,-0.0015713870525360107
0.017005078494548798,0.09292884171009064,9.945444107055664,0.002743271179497242,-0.004288027063012123,-0.0010387133806943893
0.017005078494548798,0.11208947747945786,9.938260078430176,0.002743271179497242,-0.003222677856683731,-0.0010387133806943893
0.02179523929953575,0.10011407732963562,9.92388916015625,0.0032759467139840126,-0.004288027063012123,-0.0010387133806943893
0.02179523929953575,0.11687964200973511,9.92388916015625,0.002743271179497242,-0.003222677856683731,-0.0005060397088527679
0.00742475688457489,0.11208947747945786,9.943049430847168,0.0032759467139840126,-0.003222677856683731,-0.0005060397088527679
0.00023952871561050415,0.11208947747945786,9.926283836364746,0.0032759467139840126,-0.0026900041848421097,-0.0015713870525360107
0.026585400104522705,0.10250915586948395,9.943049430847168,0.0032759467139840126,-0.002157328650355339,-0.0010387133806943893
0.024190321564674377,0.09771899878978729,9.931074142456055,0.0032759467139840126,-0.0016246549785137177,-0.0010387133806943893
0.024190321564674377,0.10250915586948395,9.938260078430176,0.0032759467139840126,-0.0026900041848421097,-0.0005060397088527679
0.024190321564674377,0.09771899878978729,9.928679466247559,0.0032759467139840126,-0.0016246549785137177,-0.0010387133806943893
0.009819842875003815,0.11448456346988678,9.933469772338867,0.002743271179497242,-0.002157328650355339,-0.0010387133806943893
0.017005078494548798,0.10250915586948395,9.931074142456055,0.0032759467139840126,-0.002157328650355339,-0.0010387133806943893
0.03137555718421936,0.10490424185991287,9.92388916015625,0.003808620385825634,-0.0016246549785137177,-0.0005060397088527679
0.01460999995470047,0.1072993203997612,9.935864448547363,0.004341292195022106,-0.002157328650355339,-0.0005060397088527679
0.017005078494548798,0.10250915586948395,9.938260078430176,0.004341292195022106,-0.002157328650355339,-0.0005060397088527679
0.002634607255458832,0.11687964200973511,9.634084701538086,0.024582907557487488,0.01488824188709259,-0.0005060397088527679
0.04574603959918022,0.11448456346988678,9.859221458435059,0.012331404723227024,-0.010680114850401878,-0.0010387133806943893
0.017005078494548798,0.10969439893960953,9.974185943603516,-0.0015181191265583038,-0.0037553496658802032,-0.0015713870525360107
0.02179523929953575,0.08813867717981339,9.890358924865723,-0.0036488138139247894,-0.012278136797249317,-0.0005060397088527679
0.00742475688457489,0.10490424185991287,9.940655708312988,0.0006125755608081818,-0.0026900041848421097,-0.0010387133806943893
0.009819842875003815,0.10969439893960953,9.926283836364746,0.0016779238358139992,-0.0048207007348537445,-0.0010387133806943893
0.0050296783447265625,0.11208947747945786,9.926283836364746,0.002743271179497242,-0.005353374406695366,-0.0010387133806943893
0.017005078494548798,0.09771899878978729,9.943049430847168,0.003808620385825634,-0.0016246549785137177,-0.0010387133806943893
0.024190321564674377,0.10490424185991287,9.931074142456055,0.004341292195022106,-0.002157328650355339,-0.0005060397088527679
0.02179523929953575,0.11687964200973511,9.950235366821289,0.0032759467139840126,-0.002157328650355339,-0.0005060397088527679
0.012214921414852142,0.10011407732963562,9.931074142456055,0.002743271179497242,-0.0016246549785137177,-0.0010387133806943893
0.019400160759687424,0.11208947747945786,9.933469772338867,0.0032759467139840126,-0.0016246549785137177,-0.0015713870525360107
0.009819842875003815,0.09771899878978729,9.940655708312988,0.003808620385825634,-0.002157328650355339,-0.0010387133806943893
0.026585400104522705,0.10969439893960953,9.938260078430176,0.0032759467139840126,-0.0016246549785137177,-0.0010387133806943893
0.00742475688457489,0.08813867717981339,9.919099807739258,0.003808620385825634,-0.002157328650355339,-0.0010387133806943893
0.03137555718421936,0.11208947747945786,9.928679466247559,0.0032759467139840126,-0.003222677856683731,-0.0010387133806943893
0.03137555718421936,0.12406487762928009,9.931074142456055,0.003808620385825634,-0.002157328650355339,-0.0005060397088527679
0.0050296783447265625,0.09532392024993896,9.938260078430176,0.003808620385825634,-0.003222677856683731,2.663489431142807e-05
0.019400160759687424,0.12166979908943176,9.914308547973633,0.003808620385825634,-0.0026900041848421097,-0.0015713870525360107
0.0050296783447265625,0.12645995616912842,9.871197700500488,-0.007377535104751587,-0.08738517761230469,-0.0010387133806943893
0.01460999995470047,0.09771899878978729,9.940655708312988,-0.0036488138139247894,-0.02452963963150978,-0.0015713870525360107
0.0050296783447265625,0.11208947747945786,9.943049430847168,0.0032759467139840126,-0.0048207007348537445,-0.0010387133806943893
0.012214921414852142,0.10490424185991287,9.935864448547363,0.0032759467139840126,-0.004288027063012123,-0.0010387133806943893
-0.0021555647253990173,0.11208947747945786,9.945444107055664,0.002743271179497242,-0.0026900041848421097,-0.0005060397088527679
-0.006945721805095673,0.10011407732963562,9.914308547973633,0.0022105975076556206,-0.004288027063012123,-0.0010387133806943893
0.024190321564674377,0.10969439893960953,9.931074142456055,0.0032759467139840126,-0.003222677856683731,-0.0005060397088527679
0.024190321564674377,0.1072993203997612,9.926283836364746,0.003808620385825634,-0.003222677856683731,-0.0015713870525360107
0.01460999995470047,0.08813867717981339,9.926283836364746,0.0032759467139840126,-0.0026900041848421097,-0.0021040616557002068
0.019400160759687424,0.1072993203997612,9.952630043029785,0.0032759467139840126,-0.0026900041848421097,-0.0005060397088527679
0.0050296783447265625,0.09771899878978729,9.931074142456055,0.0032759467139840126,-0.003222677856683731,-0.0010387133806943893
0.012214921414852142,0.10969439893960953,9.933469772338867,0.0032759467139840126,-0.003222677856683731,-0.0010387133806943893
0.019400160759687424,0.12166979908943176,9.938260078430176,0.0032759467139840126,-0.003222677856683731,-0.0015713870525360107
0.019400160759687424,0.10969439893960953,9.935864448547363,0.0032759467139840126,-0.003222677856683731,-0.0010387133806943893
0.009819842875003815,0.09532392024993896,9.935864448547363,0.0032759467139840126,-0.0026900041848421097,-0.0005060397088527679
0.019400160759687424,0.10011407732963562,9.928679466247559,0.0032759467139840126,-0.0026900041848421097,-0.0015713870525360107
0.07688207924365997,0.13843536376953125,8.973042488098145,0.005406643263995647,0.02234567701816559,-0.0010387133806943893
0.06490667909383774,0.11208947747945786,9.602948188781738,0.004341292195022106,-0.03678113967180252,-0.0005060397088527679
-0.0021555647253990173,0.10490424185991287,9.990951538085938,0.008602687157690525,-0.009614766575396061,-0.0005060397088527679
0.012214921414852142,0.11208947747945786,9.921494483947754,0.003808620385825634,-0.0048207007348537445,-0.0010387133806943893
0.01460999995470047,0.10011407732963562,9.938260078430176,0.004341292195022106,-0.0037553496658802032,-0.0010387133806943893
0.02898048236966133,0.11208947747945786,9.921494483947754,0.0032759467139840126,-0.003222677856683731,2.663489431142807e-05
0.009819842875003815,0.11208947747945786,9.933469772338867,0.0032759467139840126,-0.0026900041848421097,-0.0010387133806943893
0.019400160759687424,0.10250915586948395,9.945444107055664,0.0032759467139840126,-0.0026900041848421097,-0.0010387133806943893
0.019400160759687424,0.09771899878978729,9.928679466247559,0.003808620385825634,-0.002157328650355339,-0.0005060397088527679
0.012214921414852142,0.09771899878978729,9.914308547973633,0.004341292195022106,-0.003222677856683731,-0.0010387133806943893
0.012214921414852142,0.08574359863996506,9.935864448547363,0.002743271179497242,-0.003222677856683731,-0.0015713870525360107
0.02179523929953575,0.10490424185991287,9.931074142456055,0.0032759467139840126,-0.003222677856683731,-0.0015713870525360107
0.009819842875003815,0.10011407732963562,9.935864448547363,0.003808620385825634,-0.003222677856683731,-0.0021040616557002068
0.01460999995470047,0.09292884171009064,9.933469772338867,0.0032759467139840126,-0.0026900041848421097,-0.0010387133806943893
0.0050296783447265625,0.09771899878978729,9.933469772338867,0.0032759467139840126,-0.0026900041848421097,-0.0010387133806943893
0.02898048236966133,0.09292884171009064,9.92388916015625,0.0032759467139840126,-0.002157328650355339,-0.0015713870525360107
0.01460999995470047,0.10490424185991287,9.933469772338867,0.003808620385825634,-0.002157328650355339,-0.0010387133806943893
0.009819842875003815,0.11208947747945786,9.943049430847168,0.003808620385825634,-0.0026900041848421097,-0.0010387133806943893
0.019400160759687424,0.09292884171009064,9.92388916015625,0.003808620385825634,-0.003222677856683731,-0.0015713870525360107
0.012214921414852142,0.10250915586948395,9.928679466247559,0.003808620385825634,-0.003222677856683731,-0.0015713870525360107
0.017005078494548798,0.11208947747945786,9.933469772338867,0.0032759467139840126,-0.002157328650355339,-0.0005060397088527679
0.0050296783447265625,0.10969439893960953,9.940655708312988,0.004341292195022106,-0.0026900041848421097,-0.0010387133806943893
0.017005078494548798,0.10011407732963562,9.938260078430176,0.003808620385825634,-0.0026900041848421097,-0.0015713870525360107
0.026585400104522705,0.09292884171009064,9.931074142456055,0.0032759467139840126,-0.002157328650355339,-0.0010387133806943893
0.012214921414852142,0.10011407732963562,9.945444107055664,0.0032759467139840126,-0.0026900041848421097,-0.0010387133806943893
0.00742475688457489,0.11448456346988678,9.940655708312988,0.004341292195022106,-0.0026900041848421097,-0.0010387133806943893
0.026585400104522705,0.09292884171009064,9.935864448547363,0.0032759467139840126,-0.003222677856683731,-0.0010387133806943893
-0.009340792894363403,0.09292884171009064,9.935864448547363,0.002743271179497242,-0.0026900041848421097,-0.0010387133806943893
0.02179523929953575,0.09532392024993896,9.928679466247559,0.004341292195022106,-0.002157328650355339,-0.0005060397088527679
0.012214921414852142,0.12166979908943176,9.92388916015625,0.0032759467139840126,-0.0026900041848421097,-0.0005060397088527679
0.012214921414852142,0.10011407732963562,9.935864448547363,0.002743271179497242,-0.002157328650355339,-0.0010387133806943893
0.017005078494548798,0.09532392024993896,9.935864448547363,0.0032759467139840126,-0.0026900041848421097,-0.0010387133806943893
0.019400160759687424,0.11208947747945786,9.935864448547363,0.003808620385825634,-0.0026900041848421097,-0.0005060397088527679
0.02179523929953575,0.10250915586948395,9.933469772338867,0.004341292195022106,-0.0026900041848421097,2.663489431142807e-05
0.017005078494548798,0.09292884171009064,9.928679466247559,0.003808620385825634,-0.0026900041848421097,-0.0010387133806943893
0.009819842875003815,0.10011407732963562,9.933469772338867,0.003808620385825634,-0.002157328650355339,-0.0005060397088527679
0.02179523929953575,0.09053375571966171,9.92388916015625,0.0032759467139840126,-0.0026900041848421097,-0.0010387133806943893
0.009819842875003815,0.10969439893960953,9.931074142456055,0.0032759467139840126,-0.0026900041848421097,-0.0005060397088527679
0.04095587879419327,0.09771899878978729,9.928679466247559,0.0032759467139840126,-0.003222677856683731,-0.0010387133806943893
0.0050296783447265625,0.11208947747945786,9.921494483947754,0.002743271179497242,-0.0026900041848421097,-0.0010387133806943893
0.026585400104522705,0.08574359863996506,9.952630043029785,0.003808620385825634,-0.002157328650355339,-0.0015713870525360107
0.012214921414852142,0.11448456346988678,10.058013916015625,0.019788842648267746,0.005300108343362808,-0.0010387133806943893
0.024190321564674377,0.11448456346988678,9.899938583374023,0.018723493441939354,-0.0037553496658802032,-0.0005060397088527679
0.012214921414852142,0.1072993203997612,9.943049430847168,0.005406643263995647,-0.0016246549785137177,-0.0015713870525360107
0.009819842875003815,0.12166979908943176,9.92388916015625,-0.0020507946610450745,-0.004288027063012123,-0.0005060397088527679
0.00742475688457489,0.10011407732963562,9.95981502532959,-0.00045277178287506104,-0.0037553496658802032,-0.0010387133806943893
0.017005078494548798,0.09532392024993896,9.931074142456055,0.0022105975076556206,-0.006418721750378609,-0.0005060397088527679
0.0050296783447265625,0.10490424185991287,9.935864448547363,0.0022105975076556206,-0.0048207007348537445,-0.0005060397088527679
-0.004550635814666748,0.10011407732963562,9.92388916015625,0.0016779238358139992,-0.0048207007348537445,-0.0010387133806943893
0.02898048236966133,0.10969439893960953,9.928679466247559,0.0032759467139840126,-0.002157328650355339,-0.0010387133806943893
0.02179523929953575,0.09292884171009064,9.935864448547363,0.002743271179497242,-0.002157328650355339,-0.0015713870525360107
0.019400160759687424,0.1072993203997612,9.919099807739258,0.0022105975076556206,-0.0026900041848421097,-0.0010387133806943893
0.009819842875003815,0.10011407732963562,9.935864448547363,0.0022105975076556206,-0.003222677856683731,-0.0010387133806943893
0.024190321564674377,0.10490424185991287,9.916704177856445,0.0032759467139840126,-0.0037553496658802032,-0.0010387133806943893
0.012214921414852142,0.11927472054958344,9.935864448547363,0.002743271179497242,-0.003222677856683731,-0.0010387133806943893
0.024190321564674377,0.10490424185991287,9.921494483947754,0.0032759467139840126,-0.0037553496658802032,-0.0010387133806943893
0.024190321564674377,0.10490424185991287,9.95981502532959,0.0032759467139840126,-0.004288027063012123,-0.0021040616557002068
0.012214921414852142,0.09532392024993896,9.885567665100098,0.003808620385825634,-0.0026900041848421097,-0.0010387133806943893
0.036165717989206314,0.12166979908943176,9.928679466247559,0.0032759467139840126,-0.004288027063012123,-0.0010387133806943893
0.0050296783447265625,0.10969439893960953,9.909518241882324,0.004341292195022106,-0.004288027063012123,-0.0005060397088527679
0.01460999995470047,0.1072993203997612,9.940655708312988,0.0032759467139840126,-0.004288027063012123,-0.0015713870525360107
0.019400160759687424,0.10490424185991287,9.962210655212402,0.0032759467139840126,-0.0037553496658802032,-0.0015713870525360107
0.009819842875003815,0.09771899878978729,9.878382682800293,0.003808620385825634,-0.0016246549785137177,-0.0015713870525360107
0.019400160759687424,0.11687964200973511,9.928679466247559,0.0032759467139840126,-0.0016246549785137177,-0.0015713870525360107
0.026585400104522705,0.11208947747945786,9.926283836364746,0.0032759467139840126,-0.0026900041848421097,-0.0010387133806943893
0.017005078494548798,0.10011407732963562,9.911913871765137,0.003808620385825634,-0.003222677856683731,-0.0005060397088527679
0.024190321564674377,0.08574359863996506,9.943049430847168,0.002743271179497242,-0.003222677856683731,-0.0010387133806943893
0.02179523929953575,0.10969439893960953,9.967000007629395,0.002743271179497242,-0.0010919813066720963,-0.0010387133806943893
0.009819842875003815,0.10250915586948395,9.911913871765137,0.004341292195022106,-0.0026900041848421097,-0.0010387133806943893
0.017005078494548798,0.11448456346988678,9.945444107055664,0.0032759467139840126,-0.003222677856683731,-0.0010387133806943893
0.02179523929953575,0.10969439893960953,9.933469772338867,0.004341292195022106,-0.0016246549785137177,-0.0021040616557002068
0.026585400104522705,0.10490424185991287,9.935864448547363,0.003808620385825634,-0.0026900041848421097,-0.0005060397088527679
0.017005078494548798,0.1072993203997612,9.921494483947754,0.003808620385825634,-0.0037553496658802032,-0.0005060397088527679
0.024190321564674377,0.10250915586948395,9.931074142456055,0.004341292195022106,-0.0026900041848421097,-0.0015713870525360107
0.012214921414852142,0.10011407732963562,9.940655708312988,0.0032759467139840126,-0.002157328650355339,2.663489431142807e-05
0.01460999995470047,0.10969439893960953,9.938260078430176,0.003808620385825634,-0.0016246549785137177,-0.0010387133806943893
0.019400160759687424,0.08574359863996506,9.938260078430176,0.003808620385825634,-0.0037553496658802032,-0.0015713870525360107
0.02179523929953575,0.09771899878978729,9.92388916015625,0.003808620385825634,-0.002157328650355339,-0.0005060397088527679
0.026585400104522705,0.11448456346988678,9.943049430847168,0.004341292195022106,-0.003222677856683731,-0.0005060397088527679
0.017005078494548798,0.10250915586948395,9.92388916015625,0.0032759467139840126,-0.0037553496658802032,-0.0015713870525360107
0.01460999995470047,0.1072993203997612,9.931074142456055,0.003808620385825634,-0.0026900041848421097,-0.0010387133806943893
0.012214921414852142,0.10490424185991287,9.919099807739258,0.0032759467139840126,-0.002157328650355339,-0.0010387133806943893
0.024190321564674377,0.09532392024993896,9.940655708312988,0.003808620385825634,-0.0026900041848421097,-0.0010387133806943893
0.019400160759687424,0.12645995616912842,9.940655708312988,0.0032759467139840126,-0.002157328650355339,-0.0010387133806943893
0.02179523929953575,0.10011407732963562,9.935864448547363,0.0032759467139840126,-0.0026900041848421097,-0.0015713870525360107
0.017005078494548798,0.10011407732963562,9.931074142456055,0.004341292195022106,-0.003222677856683731,-0.0015713870525360107
0.019400160759687424,0.10250915586948395,9.911913871765137,0.004341292195022106,-0.004288027063012123,-0.0010387133806943893
0.017005078494548798,0.10969439893960953,9.931074142456055,0.003808620385825634,-0.0026900041848421097,-0.0021040616557002068
0.01460999995470047,0.10250915586948395,9.92388916015625,0.003808620385825634,-0.0026900041848421097,-0.0010387133806943893
0.02898048236966133,0.10250915586948395,9.926283836364746,0.0032759467139840126,-0.0026900041848421097,-0.0010387133806943893
0.009819842875003815,0.10969439893960953,9.928679466247559,0.0032759467139840126,-0.002157328650355339,-0.0015713870525360107
0.02898048236966133,0.09053375571966171,9.952630043029785,0.003808620385825634,-0.003222677856683731,-0.0015713870525360107
0.0050296783447265625,0.1072993203997612,9.92388916015625,0.0032759467139840126,-0.002157328650355339,-0.0015713870525360107
0.002634607255458832,0.11927472054958344,9.931074142456055,0.0032759467139840126,-0.0037553496658802032,-0.0010387133806943893
0.00742475688457489,0.1072993203997612,9.926283836364746,0.004341292195022106,-0.002157328650355339,-0.0015713870525360107
0.02898048236966133,0.09292884171009064,9.928679466247559,0.004341292195022106,-0.002157328650355339,-0.0010387133806943893
0.026585400104522705,0.10011407732963562,9.919099807739258,0.004341292195022106,-0.003222677856683731,-0.0015713870525360107
0.02179523929953575,0.09053375571966171,9.938260078430176,0.0032759467139840126,-0.003222677856683731,-0.0010387133806943893
0.009819842875003815,0.11687964200973511,9.92388916015625,0.003808620385825634,-0.002157328650355339,0.0005593085661530495
0.017005078494548798,0.10490424185991287,9.921494483947754,0.003808620385825634,-0.0026900041848421097,-0.0005060397088527679
0.00742475688457489,0.09771899878978729,9.92388916015625,0.002743271179497242,-0.0037553496658802032,-0.0015713870525360107
0.024190321564674377,0.10250915586948395,9.935864448547363,0.003808620385825634,-0.0026900041848421097,-0.0010387133806943893
0.019400160759687424,0.09532392024993896,9.926283836364746,0.0032759467139840126,-0.002157328650355339,-0.0010387133806943893
0.024190321564674377,0.10969439893960953,9.933469772338867,0.0032759467139840126,-0.0026900041848421097,-0.0010387133806943893
0.017005078494548798,0.10490424185991287,9.943049430847168,0.003808620385825634,-0.003222677856683731,-0.0005060397088527679
0.019400160759687424,0.09771899878978729,9.931074142456055,0.0032759467139840126,-0.0026900041848421097,-0.0015713870525360107
0.019400160759687424,0.09771899878978729,9.943049430847168,0.0032759467139840126,-0.0026900041848421097,-0.0015713870525360107
0.017005078494548798,0.10250915586948395,9.92388916015625,0.0032759467139840126,-0.003222677856683731,-0.0015713870525360107
0.012214921414852142,0.10250915586948395,9.940655708312988,0.003808620385825634,-0.003222677856683731,-0.0015713870525360107
0.002634607255458832,0.09292884171009064,9.938260078430176,0.0032759467139840126,-0.003222677856683731,-0.0010387133806943893
0.017005078494548798,0.11927472054958344,9.919099807739258,0.003808620385825634,-0.0026900041848421097,-0.0015713870525360107
0.017005078494548798,0.12166979908943176,9.935864448547363,0.0032759467139840126,-0.0026900041848421097,-0.0021040616557002068
0.012214921414852142,0.09053375571966171,9.928679466247559,0.004341292195022106,-0.003222677856683731,-0.0010387133806943893
0.00742475688457489,0.11208947747945786,9.938260078430176,0.003808620385825634,-0.0037553496658802032,-0.0010387133806943893
0.0050296783447265625,0.10250915586948395,9.921494483947754,0.004341292195022106,-0.002157328650355339,-0.0010387133806943893
0.00023952871561050415,0.1072993203997612,9.921494483947754,0.003808620385825634,-0.003222677856683731,-0.0015713870525360107
0.017005078494548798,0.10011407732963562,9.926283836364746,0.003808620385825634,-0.003222677856683731,-0.0010387133806943893
0.026585400104522705,0.10490424185991287,9.935864448547363,0.003808620385825634,-0.0026900041848421097,-0.0015713870525360107
0.026585400104522705,0.10250915586948395,9.919099807739258,0.003808620385825634,-0.0037553496658802032,-0.0015713870525360107
0.017005078494548798,0.10969439893960953,9.921494483947754,0.004341292195022106,-0.0016246549785137177,-0.0010387133806943893
0.017005078494548798,0.10490424185991287,9.933469772338867,0.004341292195022106,-0.003222677856683731,-0.0010387133806943893
0.019400160759687424,0.10969439893960953,9.919099807739258,0.003808620385825634,-0.0026900041848421097,-0.0015713870525360107
0.026585400104522705,0.11448456346988678,9.916704177856445,0.003808620385825634,-0.004288027063012123,-0.0005060397088527679
0.019400160759687424,0.10969439893960953,9.921494483947754,0.003808620385825634,-0.002157328650355339,-0.0005060397088527679
0.026585400104522705,0.10490424185991287,9.945444107055664,0.0032759467139840126,-0.0016246549785137177,-0.0010387133806943893
0.00023952871561050415,0.11448456346988678,9.926283836364746,0.003808620385825634,-0.0026900041848421097,-0.0005060397088527679
0.00742475688457489,0.11927472054958344,9.907124519348145,0.004873969592154026,-0.0037553496658802032,-0.0010387133806943893
0.03137555718421936,0.09771899878978729,9.871197700500488,0.003808620385825634,-0.0037553496658802032,-0.0010387133806943893
0.01460999995470047,0.11208947747945786,9.950235366821289,0.0032759467139840126,-0.0016246549785137177,-0.0015713870525360107
0.00742475688457489,0.09771899878978729,9.897543907165527,0.003808620385825634,-0.003222677856683731,-0.0005060397088527679
0.017005078494548798,0.11687964200973511,9.940655708312988,0.003808620385825634,-0.0026900041848421097,2.663489431142807e-05
-0.004550635814666748,0.11208947747945786,9.914308547973633,0.0032759467139840126,-0.002157328650355339,-0.0005060397088527679
0.024190321564674377,0.1072993203997612,9.895148277282715,0.0032759467139840126,-0.003222677856683731,-0.0005060397088527679
0.01460999995470047,0.12885503470897675,9.940655708312988,0.0032759467139840126,-0.003222677856683731,-0.0015713870525360107
0.012214921414852142,0.10969439893960953,9.907124519348145,0.004341292195022106,-0.0026900041848421097,-0.0010387133806943893
0.009819842875003815,0.10011407732963562,9.928679466247559,0.003808620385825634,-0.0026900041848421097,-0.0015713870525360107
0.0050296783447265625,0.10969439893960953,9.928679466247559,0.004341292195022106,-0.0026900041848421097,-0.0010387133806943893
0.01460999995470047,0.10011407732963562,9.933469772338867,0.003808620385825634,-0.0026900041848421097,-0.0015713870525360107
0.01460999995470047,0.10969439893960953,9.916704177856445,0.003808620385825634,-0.0026900041848421097,-0.0010387133806943893
0.012214921414852142,0.09292884171009064,9.916704177856445,0.002743271179497242,-0.003222677856683731,-0.0010387133806943893
0.026585400104522705,0.08813867717981339,9.935864448547363,0.003808620385825634,-0.002157328650355339,-0.0010387133806943893
0.01460999995470047,0.09771899878978729,9.933469772338867,0.002743271179497242,-0.0026900041848421097,-0.0010387133806943893
0.019400160759687424,0.10011407732963562,9.919099807739258,0.0032759467139840126,-0.0037553496658802032,-0.0010387133806943893
0.024190321564674377,0.11687964200973511,9.92388916015625,0.0032759467139840126,-0.003222677856683731,-0.0005060397088527679
0.026585400104522705,0.11448456346988678,9.911913871765137,0.0032759467139840126,-0.003222677856683731,-0.0010387133806943893
-0.21052753925323486,0.04263215884566307,10.218483924865723,0.018190819770097733,-0.04423857480287552,-0.0021040616557002068
-0.009340792894363403,0.09053375571966171,10.180163383483887,0.008602687157690525,-0.0026900041848421097,-0.0010387133806943893
0.04095587879419327,0.10250915586948395,9.895148277282715,-0.0031161420047283173,0.06868831813335419,2.663489431142807e-05
0.01460999995470047,0.10490424185991287,9.892752647399902,-0.005246836692094803,0.04365263879299164,2.663489431142807e-05
0.002634607255458832,0.10969439893960953,9.969395637512207,-0.007377535104751587,0.023943699896335602,2.663489431142807e-05
0.024190321564674377,0.10250915586948395,9.931074142456055,0.0006125755608081818,0.0026367362588644028,-0.0005060397088527679
0.026585400104522705,0.1072993203997612,9.921494483947754,0.0032759467139840126,0.0005060397088527679,-0.0015713870525360107
0.01460999995470047,0.10969439893960953,9.911913871765137,0.002743271179497242,-0.0016246549785137177,-0.0010387133806943893
0.00742475688457489,0.11448456346988678,9.952630043029785,0.0032759467139840126,-0.0016246549785137177,-0.0005060397088527679
0.026585400104522705,0.09771899878978729,9.931074142456055,0.002743271179497242,-0.0026900041848421097,-0.0010387133806943893
0.02898048236966133,0.11687964200973511,9.904728889465332,0.003808620385825634,-0.002157328650355339,-0.0010387133806943893
0.009819842875003815,0.11448456346988678,9.938260078430176,0.003808620385825634,-0.002157328650355339,-0.0015713870525360107
0.03137555718421936,0.09053375571966171,9.952630043029785,0.002743271179497242,-0.002157328650355339,-0.0015713870525360107
0.02179523929953575,0.11208947747945786,9.916704177856445,0.003808620385825634,-0.002157328650355339,-0.0015713870525360107
0.019400160759687424,0.10250915586948395,9.928679466247559,0.002743271179497242,-0.003222677856683731,-0.0010387133806943893
0.009819842875003815,0.10250915586948395,9.919099807739258,0.0032759467139840126,-0.003222677856683731,-0.0010387133806943893
0.019400160759687424,0.10490424185991287,9.938260078430176,0.0032759467139840126,-0.0026900041848421097,-0.0005060397088527679
0.024190321564674377,0.12885503470897675,9.837666511535645,0.05068393796682358,0.05217542499303818,-0.0010387133806943893
0.024190321564674377,0.1336451917886734,9.88796329498291,0.02085418999195099,-0.007484070025384426,-0.0010387133806943893
0.019400160759687424,0.10250915586948395,9.88796329498291,-0.012704271823167801,-0.02399696595966816,-0.0010387133806943893
0.019400160759687424,0.1072993203997612,9.926283836364746,-0.010573577135801315,-0.022398943081498146,-0.0015713870525360107
0.026585400104522705,0.09292884171009064,9.969395637512207,-0.004714164882898331,-0.0112127885222435,-0.0010387133806943893
0.017005078494548798,0.10969439893960953,9.931074142456055,7.99037516117096e-05,-0.005353374406695366,-0.0015713870525360107
0.0050296783447265625,0.10011407732963562,9.921494483947754,0.0016779238358139992,-0.0037553496658802032,-0.0010387133806943893
0.009819842875003815,0.11208947747945786,9.933469772338867,0.0022105975076556206,-0.0037553496658802032,-0.0015713870525360107
0.019400160759687424,0.10969439893960953,9.914308547973633,0.002743271179497242,-0.002157328650355339,-0.0010387133806943893
0.01460999995470047,0.10490424185991287,9.921494483947754,0.002743271179497242,-0.004288027063012123,-0.0010387133806943893
0.02898048236966133,0.12406487762928009,9.92388916015625,0.0032759467139840126,-0.0037553496658802032,-0.0015713870525360107
0.002634607255458832,0.10490424185991287,9.933469772338867,0.002743271179497242,-0.0026900041848421097,-0.0005060397088527679
0.02179523929953575,0.11208947747945786,9.919099807739258,0.0032759467139840126,-0.003222677856683731,-0.0005060397088527679
0.012214921414852142,0.19352219998836517,9.521515846252441,0.07891567051410675,-0.0005593076348304749,-0.0010387133806943893
0.00023952871561050415,0.11448456346988678,9.830480575561523,0.01499477494508028,0.01062684878706932,-0.0005060397088527679
0.017005078494548798,0.11687964200973511,9.885567665100098,-0.010573577135801315,-2.6633962988853455e-05,-0.0010387133806943893
0.00023952871561050415,0.11208947747945786,9.933469772338867,-0.010040905326604843,-0.012278136797249317,-0.0010387133806943893
0.017005078494548798,0.10490424185991287,9.928679466247559,0.0006125755608081818,-0.0048207007348537445,-0.0015713870525360107
0.00742475688457489,0.1072993203997612,9.919099807739258,0.0016779238358139992,-0.003222677856683731,-0.0010387133806943893
0.0050296783447265625,0.10969439893960953,9.916704177856445,0.002743271179497242,-0.003222677856683731,-0.0010387133806943893
0.024190321564674377,0.10011407732963562,9.914308547973633,0.0022105975076556206,-0.0037553496658802032,-0.0005060397088527679
0.009819842875003815,0.11208947747945786,9.928679466247559,0.0022105975076556206,-0.003222677856683731,-0.0010387133806943893
0.017005078494548798,0.11927472054958344,9.914308547973633,0.0032759467139840126,-0.0026900041848421097,-0.0005060397088527679
0.026585400104522705,0.10490424185991287,9.947839736938477,0.002743271179497242,-0.004288027063012123,-0.0010387133806943893
0.02179523929953575,0.10011407732963562,9.926283836364746,0.003808620385825634,-0.0026900041848421097,-0.0010387133806943893
0.017005078494548798,0.10490424185991287,9.926283836364746,0.0032759467139840126,-0.0037553496658802032,-0.0005060397088527679
0.009819842875003815,0.10250915586948395,9.92388916015625,0.0032759467139840126,-0.0037553496658802032,-0.0010387133806943893
0.01460999995470047,0.09771899878978729,9.92388916015625,0.0032759467139840126,-0.003222677856683731,-0.0005060397088527679
0.017005078494548798,0.11208947747945786,9.919099807739258,0.0032759467139840126,-0.004288027063012123,-0.0015713870525360107
0.012214921414852142,0.10969439893960953,9.928679466247559,0.0032759467139840126,-0.0048207007348537445,-0.0015713870525360107
0.01460999995470047,0.1072993203997612,9.933469772338867,0.002743271179497242,-0.0016246549785137177,-0.0010387133806943893
0.02179523929953575,0.10490424185991287,9.919099807739258,0.003808620385825634,-0.0026900041848421097,-0.0015713870525360107
0.002634607255458832,0.1072993203997612,9.945444107055664,0.0032759467139840126,-0.003222677856683731,-0.0015713870525360107
0.11759844422340393,0.1504107564687729,9.60534381866455,0.04162847623229027,-0.19019125401973724,-0.003169409930706024
0.043350961059331894,0.12645995616912842,9.897543907165527,0.01659279689192772,0.013290215283632278,-0.0010387133806943893
0.019400160759687424,0.11687964200973511,9.983766555786133,-0.002583470195531845,0.06602495163679123,-0.0005060397088527679
-0.009340792894363403,0.11208947747945786,9.914308547973633,-0.006312187761068344,0.051642753183841705,-0.0005060397088527679
0.019400160759687424,0.12406487762928009,9.919099807739258,-0.006844863295555115,0.017551612108945847,-0.0010387133806943893
0.01460999995470047,0.11208947747945786,9.983766555786133,-0.005246836692094803,0.008496150374412537,-0.0010387133806943893
0.024190321564674377,0.11208947747945786,9.940655708312988,0.0016779238358139992,-2.6633962988853455e-05,-0.0005060397088527679
0.02179523929953575,0.11208947747945786,9.926283836364746,0.0032759467139840126,-0.0010919813066720963,-0.0005060397088527679
0.01460999995470047,0.1072993203997612,9.907124519348145,0.002743271179497242,-0.0016246549785137177,-0.0005060397088527679
0.024190321564674377,0.11687964200973511,9.92388916015625,0.0032759467139840126,-0.0005593076348304749,-0.0005060397088527679
0.036165717989206314,0.09053375571966171,9.92388916015625,0.0032759467139840126,0.0005060397088527679,-0.0005060397088527679
0.00742475688457489,0.11208947747945786,9.933469772338867,0.002743271179497242,-0.002157328650355339,-0.0010387133806943893
0.01460999995470047,0.12166979908943176,9.943049430847168,0.002743271179497242,-0.002157328650355339,-0.0005060397088527679
0.0050296783447265625,0.09292884171009064,9.940655708312988,0.003808620385825634,-0.0016246549785137177,-0.0010387133806943893
0.024190321564674377,0.10969439893960953,9.926283836364746,0.003808620385825634,-0.0005593076348304749,-0.0010387133806943893
0.02179523929953575,0.10490424185991287,9.899938583374023,0.0032759467139840126,-0.003222677856683731,-0.0021040616557002068
0.02179523929953575,0.10969439893960953,9.952630043029785,0.002743271179497242,-0.0037553496658802032,-0.0010387133806943893
0.02179523929953575,0.1072993203997612,9.935864448547363,0.0032759467139840126,-0.002157328650355339,-0.0010387133806943893
0.02179523929953575,0.08813867717981339,9.938260078430176,0.0032759467139840126,-0.002157328650355339,-0.0010387133806943893
0.017005078494548798,0.12885503470897675,9.933469772338867,0.0032759467139840126,-0.0010919813066720963,-0.0015713870525360107
-0.030896522104740143,0.11208947747945786,10.019692420959473,0.040030453354120255,0.03619520366191864,-0.0005060397088527679
0.043350961059331894,0.12406487762928009,9.938260078430176,0.01765814609825611,-0.012810809537768364,-0.0010387133806943893
0.024190321564674377,0.12406487762928009,9.885567665100098,-0.010040905326604843,-0.017072202637791634,-0.0015713870525360107
0.017005078494548798,0.10490424185991287,9.957420349121094,-0.013236947357654572,-0.020800922065973282,-0.0010387133806943893
0.012214921414852142,0.1072993203997612,9.947839736938477,-0.0015181191265583038,-0.004288027063012123,-0.0021040616557002068
0.012214921414852142,0.11208947747945786,9.950235366821289,0.0011452501639723778,-0.005886048078536987,-0.0005060397088527679
0.00023952871561050415,0.11927472054958344,9.955025672912598,0.0022105975076556206,-0.003222677856683731,-0.0010387133806943893
0.019400160759687424,0.11208947747945786,9.919099807739258,0.0032759467139840126,-0.0026900041848421097,-0.0005060397088527679
0.002634607255458832,0.09292884171009064,9.916704177856445,0.002743271179497242,-0.0026900041848421097,-0.0005060397088527679
0.026585400104522705,0.10490424185991287,9.945444107055664,0.002743271179497242,-0.0026900041848421097,-0.0010387133806943893
0.0050296783447265625,0.1072993203997612,9.92388916015625,0.002743271179497242,-0.002157328650355339,2.663489431142807e-05
0.02179523929953575,0.12406487762928009,9.935864448547363,0.004341292195022106,-0.002157328650355339,-0.0010387133806943893
-0.14825543761253357,0.10490424185991287,10.20650863647461,0.02085418999195099,0.03939124941825867,-0.0010387133806943893
0.033770639449357986,0.13604028522968292,9.880777359008789,0.019788842648267746,0.004767432808876038,-0.0005060397088527679
-0.009340792894363403,0.12645995616912842,9.86640739440918,-0.002583470195531845,-0.034650444984436035,-0.0015713870525360107
0.0050296783447265625,0.11208947747945786,9.907124519348145,-0.011106252670288086,-0.043173231184482574,-0.0010387133806943893
0.012214921414852142,0.11687964200973511,9.916704177856445,-0.005246836692094803,-0.026660336181521416,-0.0010387133806943893
0.019400160759687424,0.11208947747945786,9.947839736938477,-0.0036488138139247894,-0.018137551844120026,-0.0010387133806943893
0.026585400104522705,0.10250915586948395,9.940655708312988,0.0011452501639723778,-0.00695139542222023,-0.0005060397088527679
0.0050296783447265625,0.10011407732963562,9.935864448547363,0.0011452501639723778,-0.004288027063012123,-0.0010387133806943893
0.012214921414852142,0.10250915586948395,9.928679466247559,0.0011452501639723778,-0.0048207007348537445,-0.0005060397088527679
0.03137555718421936,0.10490424185991287,9.926283836364746,0.0022105975076556206,-0.0037553496658802032,-0.0015713870525360107
0.012214921414852142,0.10250915586948395,9.935864448547363,0.0032759467139840126,-0.003222677856683731,-0.0010387133806943893
0.017005078494548798,0.1072993203997612,9.933469772338867,0.0032759467139840126,-0.0037553496658802032,-0.0010387133806943893
0.017005078494548798,0.10250915586948395,9.919099807739258,0.0032759467139840126,-0.003222677856683731,-0.0015713870525360107
0.02179523929953575,0.11448456346988678,9.914308547973633,0.0032759467139840126,-0.0026900041848421097,-0.0010387133806943893
0.02179523929953575,0.1072993203997612,9.931074142456055,0.0032759467139840126,-0.0037553496658802032,-0.0015713870525360107
0.09604272246360779,0.09532392024993896,9.983766555786133,0.049085915088653564,0.08040715008974075,-0.0010387133806943893
0.00742475688457489,0.15280583500862122,9.722702026367188,0.024582907557487488,-0.008549418300390244,-0.0015713870525360107
0.033770639449357986,0.11208947747945786,9.88796329498291,-0.03454390913248062,-0.08685250580310822,-0.0010387133806943893
0.03137555718421936,0.11927472054958344,9.988555908203125,-0.023357756435871124,-0.0500979945063591,-0.0010387133806943893
0.026585400104522705,0.12885503470897675,9.919099807739258,-0.00418148934841156,-0.011745462194085121,-0.0010387133806943893
0.009819842875003815,0.10969439893960953,9.964605331420898,7.99037516117096e-05,-0.00695139542222023,-0.0010387133806943893
0.0050296783447265625,0.1072993203997612,9.919099807739258,0.0016779238358139992,-0.0048207007348537445,-0.0015713870525360107
0.01460999995470047,0.12166979908943176,9.921494483947754,0.002743271179497242,-0.0037553496658802032,-0.0010387133806943893
0.00023952871561050415,0.11687964200973511,9.921494483947754,0.0032759467139840126,-0.0037553496658802032,-0.0005060397088527679
0.02898048236966133,0.10969439893960953,9.933469772338867,0.002743271179497242,-0.0026900041848421097,-0.0010387133806943893
0.017005078494548798,0.10969439893960953,9.935864448547363,0.0022105975076556206,-0.0037553496658802032,-0.0005060397088527679
0.017005078494548798,0.11448456346988678,9.940655708312988,0.0032759467139840126,-0.004288027063012123,-0.0015713870525360107
0.02179523929953575,0.12645995616912842,9.928679466247559,0.002743271179497242,-0.0026900041848421097,-0.0010387133806943893
0.01460999995470047,0.10490424185991287,9.938260078430176,0.0032759467139840126,-0.0037553496658802032,-0.0005060397088527679
0.012214921414852142,0.09532392024993896,9.938260078430176,0.002743271179497242,-0.004288027063012123,-0.0015713870525360107
0.002634607255458832,0.10490424185991287,9.928679466247559,0.003808620385825634,-0.003222677856683731,-0.0010387133806943893
0.017005078494548798,0.10250915586948395,9.947839736938477,0.0032759467139840126,-0.003222677856683731,-0.0005060397088527679
0.02179523929953575,0.10490424185991287,9.911913871765137,0.004341292195022106,-0.003222677856683731,-0.0010387133806943893
0.01460999995470047,0.11687964200973511,9.935864448547363,0.0032759467139840126,-0.003222677856683731,-0.0010387133806943893
0.024190321564674377,0.1072993203997612,9.92388916015625,0.002743271179497242,-0.0037553496658802032,-0.0005060397088527679
0.012214921414852142,0.10250915586948395,9.931074142456055,0.002743271179497242,-0.003222677856683731,-0.0005060397088527679
0.01460999995470047,0.09292884171009064,9.926283836364746,0.003808620385825634,-0.004288027063012123,-0.0015713870525360107
0.024190321564674377,0.11448456346988678,9.940655708312988,0.002743271179497242,-0.0037553496658802032,-0.0010387133806943893
0.024190321564674377,0.10969439893960953,9.931074142456055,0.003808620385825634,-0.003222677856683731,-0.0015713870525360107
-0.057242393493652344,0.08334852010011673,10.043643951416016,0.004873969592154026,-0.005886048078536987,-0.0010387133806943893
0.14633938670158386,0.09053375571966171,10.266386032104492,-0.005779515951871872,-0.11987829208374023,-0.0021040616557002068
0.03137555718421936,0.12166979908943176,9.935864448547363,0.013396752066910267,0.03193381428718567,-0.0005060397088527679
0.024190321564674377,0.12645995616912842,9.99334716796875,-0.0015181191265583038,0.07508040219545364,-0.0005060397088527679
0.009819842875003815,0.10250915586948395,9.955025672912598,-0.007910206913948059,0.017551612108945847,2.663489431142807e-05
0.024190321564674377,0.09532392024993896,9.928679466247559,-0.0020507946610450745,0.007430804893374443,-0.0005060397088527679
0.024190321564674377,0.11927472054958344,9.943049430847168,0.0016779238358139992,-0.002157328650355339,-0.0015713870525360107
0.01460999995470047,0.08813867717981339,9.943049430847168,0.0032759467139840126,-0.0026900041848421097,-0.0021040616557002068
0.024190321564674377,0.10969439893960953,9.914308547973633,0.003808620385825634,-0.0016246549785137177,-0.0015713870525360107
0.017005078494548798,0.10011407732963562,9.931074142456055,0.003808620385825634,-0.0016246549785137177,-0.0005060397088527679
0.00742475688457489,0.11448456346988678,9.952630043029785,0.0032759467139840126,-0.002157328650355339,-0.0005060397088527679
0.012214921414852142,0.12166979908943176,9.919099807739258,0.003808620385825634,-0.002157328650355339,-0.0010387133806943893
0.012214921414852142,0.10250915586948395,9.950235366821289,0.0032759467139840126,-0.0016246549785137177,-0.0005060397088527679
0.012214921414852142,0.09053375571966171,9.933469772338867,0.003808620385825634,-0.002157328650355339,-0.0021040616557002068
0.017005078494548798,0.10490424185991287,9.938260078430176,0.0032759467139840126,-0.0026900041848421097,-0.0015713870525360107
0.00023952871561050415,0.09771899878978729,9.919099807739258,0.003808620385825634,-0.002157328650355339,-0.0015713870525360107
0.02898048236966133,0.10490424185991287,9.940655708312988,0.0032759467139840126,-0.002157328650355339,-0.0010387133806943893
0.002634607255458832,0.10011407732963562,9.931074142456055,0.0032759467139840126,-0.0026900041848421097,-0.0010387133806943893
0.026585400104522705,0.10490424185991287,9.928679466247559,0.002743271179497242,-0.0026900041848421097,-0.0005060397088527679
0.009819842875003815,0.11927472054958344,9.962210655212402,0.002743271179497242,-0.0026900041848421097,-0.0010387133806943893
0.00742475688457489,0.10490424185991287,9.928679466247559,0.003808620385825634,-0.0026900041848421097,-0.0005060397088527679
0.01460999995470047,0.10011407732963562,9.943049430847168,0.002743271179497242,-0.003222677856683731,-0.0005060397088527679
0.017005078494548798,0.09053375571966171,9.935864448547363,0.0022105975076556206,-0.0026900041848421097,-0.0010387133806943893
0.06251160055398941,0.06897804141044617,10.105915069580078,0.004341292195022106,-0.0010919813066720963,-0.0005060397088527679
-0.028501436114311218,0.10490424185991287,9.890358924865723,0.03896510601043701,0.045783333480358124,-0.0005060397088527679
0.00742475688457489,0.11927472054958344,9.904728889465332,0.0032759467139840126,-2.6633962988853455e-05,-0.0010387133806943893
0.012214921414852142,0.12166979908943176,9.921494483947754,-0.004714164882898331,-0.01600685529410839,-0.0005060397088527679
0.01460999995470047,0.11448456346988678,9.914308547973633,-0.0020507946610450745,-0.010680114850401878,-0.0010387133806943893
0.012214921414852142,0.11208947747945786,9.916704177856445,-0.007910206913948059,-0.025062313303351402,-0.0015713870525360107
0.01460999995470047,0.12406487762928009,9.938260078430176,-0.00045277178287506104,-0.0026900041848421097,-0.0010387133806943893
0.017005078494548798,0.11448456346988678,9.935864448547363,0.0011452501639723778,-0.003222677856683731,-0.0015713870525360107
0.02179523929953575,0.1072993203997612,9.950235366821289,0.0032759467139840126,-0.003222677856683731,-0.0005060397088527679
-0.0021555647253990173,0.10969439893960953,9.919099807739258,0.0032759467139840126,-0.0037553496658802032,-0.0010387133806943893
0.019400160759687424,0.1072993203997612,9.92388916015625,0.0032759467139840126,-0.0037553496658802032,-0.0005060397088527679
-0.011735886335372925,0.02826167643070221,10.184952735900879,0.01499477494508028,-0.002157328650355339,-0.0005060397088527679
0.03856080397963524,0.12166979908943176,10.120285987854004,0.0032759467139840126,-0.0112127885222435,-0.0005060397088527679
0.012214921414852142,0.11927472054958344,9.967000007629395,-0.0036488138139247894,0.012757543474435806,-0.0010387133806943893
0.00742475688457489,0.10490424185991287,9.86640739440918,-0.006312187761068344,0.0031694117933511734,-0.0010387133806943893
0.033770639449357986,0.10250915586948395,9.957420349121094,-0.007377535104751587,-0.012278136797249317,-0.0005060397088527679
0.024190321564674377,0.09771899878978729,9.943049430847168,-0.0020507946610450745,-0.009082091972231865,-0.0015713870525360107
0.009819842875003815,0.11927472054958344,9.926283836364746,0.0011452501639723778,-0.005353374406695366,-0.0015713870525360107
0.026585400104522705,0.11208947747945786,9.907124519348145,0.002743271179497242,-0.0037553496658802032,-0.0010387133806943893
0.00742475688457489,0.10490424185991287,9.926283836364746,0.0022105975076556206,-0.0037553496658802032,-0.0015713870525360107
0.0050296783447265625,0.09771899878978729,9.92388916015625,0.003808620385825634,-0.0026900041848421097,-0.0010387133806943893
0.019400160759687424,0.10250915586948395,9.928679466247559,0.002743271179497242,-0.0026900041848421097,-0.0010387133806943893
0.012214921414852142,0.13125011324882507,9.933469772338867,0.002743271179497242,-0.003222677856683731,-0.0010387133806943893
0.03137555718421936,0.10250915586948395,9.940655708312988,0.002743271179497242,-0.0026900041848421097,-0.0010387133806943893
0.00742475688457489,0.10490424185991287,9.926283836364746,0.002743271179497242,-0.002157328650355339,-0.0010387133806943893
0.017005078494548798,0.10250915586948395,9.947839736938477,0.0032759467139840126,-0.0026900041848421097,-0.0010387133806943893
0.019400160759687424,0.10250915586948395,9.928679466247559,0.0032759467139840126,-0.003222677856683731,-0.0005060397088527679
0.07448700070381165,0.10250915586948395,9.241291046142578,0.00647199060767889,0.0031694117933511734,-0.0010387133806943893
0.05532635748386383,0.11927472054958344,9.878382682800293,-0.002583470195531845,-0.02825835905969143,-0.0015713870525360107
0.0050296783447265625,0.11208947747945786,10.07717514038086,0.002743271179497242,0.0005060397088527679,-0.0005060397088527679
0.012214921414852142,0.11927472054958344,9.940655708312988,0.008070012554526329,-0.005353374406695366,-0.0010387133806943893
0.002634607255458832,0.10490424185991287,9.899938583374023,0.00647199060767889,-0.012810809537768364,-0.0010387133806943893
0.019400160759687424,0.11448456346988678,9.904728889465332,-0.00045277178287506104,-0.017072202637791634,-0.0010387133806943893
