accX,accY,accZ,gyroX,gyroY,gyroZ
-1.290522575378418,4.395610809326172,8.46328353881836,-0.09204866737127304,-0.5524490475654602,-0.26398104429244995
-1.3201532363891602,4.316056251525879,8.619796752929688,-0.13929472863674164,-0.05811946466565132,0.010279988870024681
-1.4617847204208374,4.425825595855713,8.731902122497559,-0.0924500897526741,-0.026162484660744667,0.051801372319459915
-1.3439898490905762,4.392096042633057,8.693211555480957,-0.05199335888028145,-0.0431968979537487,0.1039692610502243
-1.1466022729873657,4.339911937713623,8.501762390136719,-0.07328637689352036,-0.10430087894201279,0.11276572197675705
-0.9571922421455383,4.37684965133667,8.296416282653809,-0.12796753644943237,-0.14985397458076477,0.09457939118146896
-0.993354320526123,4.428200721740723,8.295381546020508,-0.2030516117811203,-0.167045459151268,0.08300785720348358
-0.9880391955375671,4.357696056365967,8.227788925170898,-0.27550020813941956,-0.22134265303611755,0.09347983449697495
-0.939130425453186,4.285592079162598,8.120931625366211,-0.3795567452907562,-0.23717279732227325,0.0861145481467247
-0.9987364411354065,4.210864067077637,8.360217094421387,-0.44340088963508606,-0.23080234229564667,0.09133307635784149
-0.9518197178840637,4.121273517608643,8.664280891418457,-0.42120030522346497,-0.2151467353105545,0.12255702167749405
-0.9205897450447083,3.952951431274414,8.68489933013916,-0.3485422432422638,-0.16460199654102325,0.14220942556858063
-0.7404116988182068,3.585326671600342,8.898614883422852,-0.2096838504076004,-0.00799360778182745,0.11915362626314163
-0.7131273150444031,3.6154935359954834,8.947668075561523,-0.1679006665945053,0.010943214409053326,0.1272868663072586
-0.6016054153442383,3.518317699432373,9.039566993713379,-0.12798500061035156,0.017086774110794067,0.129608154296875
-0.531694769859314,3.4514715671539307,9.172301292419434,-0.06557202339172363,0.02373647689819336,0.10740756243467331
-0.47355395555496216,3.486790657043457,9.082797050476074,-0.03192207217216492,0.013788101263344288,0.08232717961072922
-0.49403873085975647,3.5326828956604004,8.98007583618164,-0.033719759434461594,-0.009337511844933033,0.05651376023888588
-0.5833712220191956,3.588467836380005,8.976341247558594,-0.05276130139827728,-0.034086279571056366,0.041835542768239975
-0.5906112790107727,3.5766117572784424,8.997476577758789,-0.05708971992135048,-0.06745697557926178,0.03577924892306328
-0.5462418794631958,3.5872514247894287,9.00539779663086,-0.05408775433897972,-0.0803724154829979,0.025621432811021805
-0.6148692965507507,3.578996419906616,9.000494003295898,-0.03609341010451317,-0.08599237352609634,-0.0005410520825535059
-0.708817720413208,3.7155232429504395,8.940208435058594,-0.008761553093791008,-0.10353293269872665,-0.011431906372308731
-0.7642579078674316,3.8402419090270996,9.319210052490234,0.039653878659009933,-0.289811909198761,-0.010594148188829422
-0.5479848384857178,3.9910385608673096,8.169543266296387,-0.15704472362995148,-0.18704693019390106,0.009337511844933033
-0.37242284417152405,3.5318305492401123,8.171822547912598,-0.14378021657466888,-0.05752605199813843,0.017732545733451843
-0.7440029978752136,3.7304537296295166,9.11967658996582,-0.09723228961229324,0.0071907564997673035,-0.024347342550754547
-0.8142583966255188,3.6601312160491943,9.300668716430664,-0.08653342723846436,-0.04614650458097458,0.020350538194179535
-0.7991558313369751,3.5785558223724365,9.262581825256348,-0.03963642567396164,-0.10637781769037247,0.0285186804831028
-0.7075918912887573,3.6619985103607178,9.046826362609863,-0.023928463459014893,-0.15502014756202698,0.03467969223856926
-0.6539905667304993,3.6855382919311523,8.906947135925293,-0.07408922910690308,-0.21209241449832916,0.04527384042739868
-0.5145809650421143,3.6046335697174072,8.946940422058105,-0.11529645323753357,-0.23314107954502106,0.05489060655236244
-0.3849110007286072,3.5314857959747314,9.152650833129883,-0.07665485888719559,-0.20975366234779358,0.06174974888563156
0.08356721699237823,3.4025628566741943,8.969215393066406,0.07901105284690857,-0.11498229205608368,0.06433283537626266
0.07931511849164963,3.4488954544067383,8.926915168762207,0.10880382359027863,-0.09786061197519302,0.04197516664862633
0.08204450458288193,3.49652099609375,8.817854881286621,0.10524335503578186,-0.10117673873901367,0.02808234840631485
0.08014829456806183,3.537806510925293,8.782228469848633,0.080058254301548,-0.11562806367874146,0.012060225009918213
0.03402639552950859,3.539108991622925,8.74885368347168,0.04288274049758911,-0.13231341540813446,-0.003281218931078911
-0.003907337319105864,3.5582528114318848,8.79769515991211,0.0,-0.1534842550754547,-0.026371924206614494
-0.3484042286872864,4.084651947021484,8.16460132598877,0.031171580776572227,0.06407103687524796,-0.01616174913942814
-0.36233848333358765,3.899867296218872,8.527897834777832,0.08607963472604752,0.26506316661834717,0.06600835174322128
-0.05276820436120033,3.57562518119812,9.1919527053833,-0.006126105785369873,0.08936085551977158,0.06536258012056351
-0.19030073285102844,3.5048623085021973,9.298715591430664,-0.15193091332912445,-0.21277308464050293,0.006579891312867403
-0.023807941004633904,3.454392671585083,9.277905464172363,-0.15648621320724487,-0.29396581649780273,-0.028152160346508026
0.051149725914001465,3.4120917320251465,9.208023071289062,-0.05440191179513931,-0.2272767722606659,-0.04080579802393913
0.1269214153289795,3.6514830589294434,8.893741607666016,0.05956808850169182,-0.04483750835061073,0.03862413763999939
0.3394690752029419,3.5731067657470703,8.950139045715332,0.0013962633674964309,-0.11705923080444336,0.031695179641246796
0.3603943884372711,3.870839834213257,7.740501880645752,0.056670840829610825,0.13182471692562103,0.0028797932900488377
0.19726306200027466,3.382642984390259,9.19528579711914,-0.12262683361768723,-0.2958333194255829,-0.01432915311306715
-0.03452438861131668,3.587538719177246,8.987133979797363,-0.09166469424962997,-0.13978341221809387,-0.10779153555631638
-0.11348515748977661,3.6764883995056152,8.938368797302246,0.010733774863183498,0.010192723013460636,-0.03733259439468384
-0.03953305631875992,3.646876811981201,8.967137336730957,0.07241371273994446,0.12185888737440109,0.01754055917263031
0.12924857437610626,3.539137601852417,8.986406326293945,-0.047019168734550476,-0.10843730717897415,0.021799162030220032
0.1331942230463028,3.508578062057495,8.941204071044922,-0.0013613568153232336,-0.07588691264390945,0.006021386012434959
0.061837442219257355,3.5773587226867676,8.814579010009766,0.04914847016334534,-0.0067544239573180676,0.006213372107595205
0.029803022742271423,3.62251353263855,8.810576438903809,0.06531021744012833,0.0091455252841115,0.011397000402212143
-0.013953407295048237,3.668644666671753,8.63965892791748,0.05850343778729439,0.005881759338080883,0.029024824500083923
0.03973417356610298,3.713531255722046,8.525742530822754,0.0005410520825535059,-0.024207716807723045,0.046705011278390884
0.10455000400543213,3.7110700607299805,8.53510856628418,-0.0342782661318779,-0.03757693991065025,0.04982915148139
0.1248815581202507,3.715571403503418,8.639227867126465,-0.06316346675157547,-0.03783873841166496,0.051487211138010025
0.12337800115346909,3.7439281940460205,8.660411834716797,-0.06635741889476776,-0.008272860199213028,0.06583382189273834
0.1319875419139862,3.7792088985443115,8.625073432922363,-0.07817329466342926,0.03717551380395889,0.09035569429397583
0.15125608444213867,3.691150426864624,8.813161849975586,-0.10478956997394562,0.05881759524345398,0.10854202508926392
0.24144087731838226,3.464859962463379,9.20657730102539,-0.025499260053038597,0.03635520860552788,0.10649999231100082
0.32099542021751404,3.388801097869873,9.168508529663086,0.027715828269720078,0.08548622578382492,0.10473720729351044
0.27344655990600586,3.3617944717407227,9.108319282531738,0.05860815569758415,0.10088002681732178,0.09313076734542847
0.19319291412830353,3.418307065963745,9.082711219787598,0.029618237167596817,0.0630587488412857,0.10190977156162262
0.25827690958976746,3.346433162689209,9.002657890319824,0.004171337001025677,0.016283921897411346,0.10590657591819763
0.36412933468818665,3.260615587234497,8.969551086425781,0.002809980185702443,0.019373154267668724,0.09154251962900162
0.3878606855869293,3.23195219039917,8.953988075256348,0.025150194764137268,0.05377359315752983,0.06352998316287994
0.31199321150779724,3.265078067779541,8.939661979675293,0.027523841708898544,0.06846926361322403,0.05714207887649536
0.22908678650856018,3.323554277420044,8.962732315063477,0.010489428415894508,0.02940879762172699,0.056234508752822876
0.32262346148490906,3.3232860565185547,8.878073692321777,-0.010821041651070118,-0.003281218931078911,0.05066690966486931
0.07694964855909348,3.421754837036133,8.988512992858887,-0.004939281847327948,0.09489355236291885,-0.001483529806137085
0.0838928297162056,3.437163829803467,8.977710723876953,0.016720253974199295,0.12428489327430725,-0.0005934119690209627
0.07238151133060455,3.4535019397735596,9.000062942504883,0.033196162432432175,0.14561282098293304,0.005654866807162762
0.019776105880737305,3.480297803878784,9.011373519897461,0.028047440573573112,0.13924236595630646,0.007958701811730862
0.01909615285694599,3.508817672729492,9.006776809692383,0.022654373198747635,0.12831661105155945,0.009581857360899448
0.015121777541935444,3.510234832763672,9.020461082458496,0.02183406800031662,0.1267632693052292,0.010314895771443844
0.005525817163288593,3.474858045578003,9.060789108276367,0.02909463830292225,0.11945033073425293,0.011693705804646015
-0.04137180745601654,3.4628872871398926,9.052122116088867,0.0328296422958374,0.09930923581123352,0.00815068744122982
-0.12234370410442352,3.49133038520813,9.123373985290527,0.0653974860906601,0.08573057502508163,-0.013857914134860039
-0.18638381361961365,3.543102502822876,9.01949405670166,0.07539822161197662,0.06051056459546089,-0.0076445420272648335
-0.16129258275032043,3.5113649368286133,8.907588958740234,0.04913101717829704,0.0309621412307024,-0.005777040030807257
-0.15221376717090607,3.491244077682495,8.916208267211914,0.012793263420462608,0.008970992639660835,-0.01111774705350399
-0.1499057561159134,3.5098423957824707,8.97011661529541,0.0036128314677625895,-0.01186823844909668,-0.018901916220784187
-0.1670386642217636,3.517972946166992,8.983466148376465,0.012828170321881771,-0.02869321219623089,-0.02223549410700798
-0.12481452524662018,3.4936861991882324,8.835437774658203,0.026110125705599785,0.026965336874127388,-0.011484266258776188
-0.12170206755399704,3.5219855308532715,8.917530059814453,0.015550883486866951,0.016144296154379845,-0.024120450019836426
-0.17457561194896698,3.583919048309326,8.86637020111084,-0.004520402755588293,-0.028728120028972626,-0.03087487444281578
-0.1847078651189804,3.6108200550079346,8.786251068115234,-0.039531707763671875,-0.04490732029080391,-0.02520255371928215
-0.1823136806488037,3.6027467250823975,8.864187240600586,-0.04482005536556244,-0.02617993950843811,-0.019425515085458755
-0.26329514384269714,3.676334857940674,8.778877258300781,-0.008482299745082855,-0.08759807795286179,-0.008325220085680485
-0.028280310332775116,3.463059663772583,8.960223197937012,-0.07857472449541092,0.04361577704548836,-0.0003316125657875091
-0.2959137558937073,3.5282487869262695,9.184493064880371,-0.06876597553491592,0.002949606394395232,0.012915436178445816
-0.14571112394332886,3.4830942153930664,9.181140899658203,-0.030316369608044624,-0.010384708642959595,0.005899212788790464
-0.05356308072805405,3.4860246181488037,9.02517318725586,-0.004049163777381182,-0.00945968460291624,0.009669124148786068
-0.06186617165803909,3.4880549907684326,8.99410629272461,-0.022532200440764427,-0.004485496319830418,0.006195918656885624
-0.049847278743982315,3.486790657043457,9.035774230957031,-0.04389503225684166,-0.008883725851774216,0.0024085543118417263
-0.10497137904167175,3.4575719833374023,9.168059349060059,-0.03481931984424591,-0.013508847914636135,0.0051312679424881935
-0.07633672654628754,3.445754051208496,9.118959426879883,-0.005078908056020737,-0.016598081216216087,0.013299409300088882
-0.02431551180779934,3.435526132583618,9.084816932678223,0.009564404375851154,-0.012775810435414314,0.01970476657152176
0.06025726720690727,3.3835625648498535,9.04423999786377,0.018483037129044533,-0.01572541706264019,0.018343409523367882
0.10858183354139328,3.3811490535736084,9.00429630279541,0.01104793418198824,-0.024748768657445908,-0.0003665191470645368
0.03177584335207939,3.431015729904175,8.976618766784668,-0.015515976585447788,-0.06778858602046967,-0.026145031675696373
0.0030741551890969276,3.4778363704681396,8.930008888244629,-0.022654373198747635,-0.0613483227789402,-0.02759365551173687
-0.020053833723068237,3.46802020072937,9.032873153686523,0.004747295752167702,-0.024294983595609665,-0.02249729447066784
-0.050747498869895935,3.4454381465911865,9.004305839538574,0.02972295694053173,-0.01005309633910656,-0.02249729447066784
-0.11332235485315323,3.452247381210327,8.903921127319336,0.028989918529987335,-0.012758356519043446,-0.021589722484350204
-0.1094820573925972,3.471372365951538,8.855960845947266,-0.0077841682359576225,-0.014713125303387642,-0.016999507322907448
-0.1174212247133255,3.4402859210968018,8.999324798583984,-0.026808258146047592,-0.022078415378928185,-0.012915436178445816
-0.06264188885688782,3.4059243202209473,9.062331199645996,-0.01970476657152176,-0.047368235886096954,-0.014468779787421227
-0.04453215003013611,3.414208173751831,8.951393127441406,-0.00029670598451048136,-0.04375540465116501,-0.02330014482140541
-0.07059064507484436,3.4875762462615967,8.879232406616211,0.0042236968874931335,-0.025813419371843338,-0.0213104709982872
-0.14464809000492096,3.546846866607666,8.883157730102539,0.014032446779310703,0.0010646508308127522,-0.00548033369705081
-0.11106222867965698,3.5741026401519775,8.851210594177246,0.0018675023457035422,0.008709193207323551,0.015271631069481373
-0.031143775209784508,3.5079843997955322,8.84032154083252,-0.018570303916931152,0.006213372107595205,0.026302112266421318
0.019565416499972343,3.488715887069702,8.913651466369629,-0.03160791099071503,0.005532693583518267,0.014433872886002064
0.031957805156707764,3.4587595462799072,9.045553207397461,-0.015690509229898453,0.006387905217707157,0.0025307273026555777
-0.017094600945711136,3.4414446353912354,9.028793334960938,-0.0009250245057046413,0.009686577133834362,0.0005585053586401045
-0.003878606716170907,3.4558098316192627,8.992717742919922,0.0061610122211277485,0.013473941944539547,0.011414453387260437
0.009030928835272789,3.4251928329467773,9.005176544189453,-0.005305801052600145,0.007871435023844242,0.016057029366493225
0.08138370513916016,3.3510396480560303,9.10437297821045,-0.011187560856342316,-0.012479104101657867,0.0017976891249418259
0.07684429734945297,3.335706949234009,9.103778839111328,-0.006894050631672144,-0.0337023064494133,-0.024294983595609665
0.051389146596193314,3.3925936222076416,9.050858497619629,-0.008168140426278114,-0.04534365236759186,-0.03150319308042526
-0.002212242456153035,3.4646012783050537,8.9866361618042,-0.02782054804265499,-0.06089453771710396,-0.03413863852620125
0.03847961127758026,3.344278335571289,9.065319061279297,-0.032096605747938156,-0.051574479788541794,-0.024818582460284233
0.03537672385573387,3.395562171936035,8.986233711242676,-0.028780478984117508,-0.03495894372463226,-0.04323180392384529
-0.10373596847057343,3.4166886806488037,8.982345581054688,0.012304571457207203,0.019338248297572136,-0.028187068179249763
-0.07647079974412918,3.474743127822876,8.979473114013672,0.01080358773469925,0.03188716620206833,-0.00010471975838299841
0.05161898955702782,3.4148881435394287,8.971668243408203,0.0027576202992349863,0.02471386268734932,0.0070685832761228085
-0.07361691445112228,3.4030895233154297,8.95434284210205,0.022828906774520874,-0.006562437862157822,-0.03637266159057617
-0.1061684787273407,3.46802020072937,8.97184944152832,0.003490658476948738,-0.016912240535020828,-0.03277728334069252
-0.11254663020372391,3.4774725437164307,8.850836753845215,0.00062831852119416,-0.04419173672795296,-0.025097833946347237
-0.09617987275123596,3.547086477279663,8.664146423339844,-0.0018325956771150231,0.03817034885287285,-0.003508111694827676
-0.04050031676888466,3.3819820880889893,8.899975776672363,-0.017261305823922157,0.056740652769804,0.00012217304902151227
-0.08227434754371643,3.423574447631836,9.073564529418945,-0.03792600333690643,-0.0008552113431505859,-0.007295476272702217
-0.03971501812338829,3.395064115524292,8.996663093566895,-0.03387684002518654,-0.002251474652439356,-0.005951572675257921
-0.016529567539691925,3.397602081298828,9.064849853515625,-0.010524335317313671,0.026773350313305855,-0.0047996556386351585
-0.036956898868083954,3.455819606781006,9.058720588684082,0.0012391837080940604,0.02604031190276146,-0.0006632251315750182
0.0020398597698658705,3.460789680480957,8.99518871307373,-0.00251327408477664,0.011257373727858067,0.002722713630646467
0.050105854868888855,3.4419808387756348,8.991817474365234,-0.010245082899928093,0.012531463988125324,0.004607669077813625
0.08169016242027283,3.358940362930298,9.026005744934082,-0.0027052604127675295,0.02347467839717865,-0.0022689281031489372
-0.0008619126165285707,3.357389211654663,9.110023498535156,0.0077667152509093285,0.007941247895359993,-0.01710422709584236
-0.015294160693883896,3.3940107822418213,9.044096946716309,0.002914699725806713,-0.0014660765882581472,-0.026162484660744667
-0.00694318488240242,3.397927761077881,9.051652908325195,0.0015707963611930609,-0.0006457717972807586,-0.028204521164298058
-0.03535757213830948,3.3607027530670166,9.083773612976074,0.02254965342581272,0.007522369269281626,-0.03494149073958397
-0.06173209846019745,3.3947672843933105,9.06528091430664,0.05071926862001419,0.028466319665312767,-0.03892084211111069
-0.11774684488773346,3.415280818939209,8.935735702514648,0.06466444581747055,0.04297000542283058,-0.030770154669880867
-0.1762898564338684,3.424330711364746,8.905051231384277,0.04195771366357803,0.044139377772808075,-0.025272367522120476
-0.14866076409816742,3.459439516067505,8.982345581054688,0.024748768657445908,0.02338741160929203,-0.018814649432897568
-0.12666285037994385,3.386512279510498,8.921963691711426,0.0024958208668977022,-0.004363323096185923,-0.02617993950843811
-0.23674824833869934,3.4437527656555176,8.989049911499023,0.003857177682220936,0.0030194194987416267,-0.02537708729505539
-0.19007088243961334,3.528900146484375,8.98429012298584,0.026965336874127388,0.008796459063887596,-0.013281955383718014
-0.3108344078063965,3.4804606437683105,9.17123794555664,0.0590444877743721,-0.1235518604516983,-0.00954695139080286
-0.13836570084095,3.7591168880462646,8.530301094055176,-0.08915141969919205,-0.027000242844223976,0.009285151958465576
0.009825803339481354,3.3947863578796387,8.911372184753418,-0.08836601674556732,0.06174974888563156,0.023579398170113564
-0.314732164144516,3.4391846656799316,9.373672485351562,-0.025359634310007095,0.041835542768239975,0.020612338557839394
-0.12589670717716217,3.4126951694488525,9.240861892700195,0.02626720443367958,0.01211258489638567,0.02200860157608986
-0.14752113819122314,3.4247043132781982,9.07896614074707,0.04277801886200905,-6.981316983001307e-05,0.031293753534555435
-0.02872084453701973,3.4472768306732178,8.942678451538086,0.014660765416920185,-0.00043633230961859226,0.03574434295296669
0.06175125017762184,3.418795347213745,8.937707901000977,-0.005672320257872343,-0.010506882332265377,0.028379052877426147
0.11101434379816055,3.439241886138916,9.044853210449219,-0.002478367416188121,-0.002478367416188121,0.015498523600399494
0.07382760941982269,3.415022134780884,9.092133522033691,0.010245082899928093,0.00029670598451048136,0.012042772024869919
0.05406107380986214,3.358490467071533,9.021879196166992,0.008429939858615398,-0.01218239776790142,0.0114493602886796
0.11228806525468826,3.315883159637451,9.05483341217041,-0.0036651913542300463,-0.02007128670811653,-0.004834562074393034
-0.1091277152299881,3.3501393795013428,8.93970012664795,0.06850416958332062,-0.13465215265750885,-0.05969025939702988
-0.23749524354934692,3.6141624450683594,8.573501586914062,-0.013823007233440876,-0.028099801391363144,-0.04417428374290466
-0.04132392257452011,3.4917707443237305,8.942190170288086,-0.04920083284378052,0.036477379500865936,-0.014433872886002064
-0.18592412769794464,3.3510396480560303,9.38902473449707,0.002949606394395232,0.02206096239387989,-0.02263692021369934
-0.1279653012752533,3.4442508220672607,9.230452537536621,0.030927233397960663,-0.01785471849143505,-0.012147491797804832
-0.11484506726264954,3.4094483852386475,9.035295486450195,0.027611108496785164,-0.04372049868106842,-0.014957471750676632
-0.09864111244678497,3.6921846866607666,8.621788024902344,-0.016999507322907448,-0.008936085738241673,0.02312561310827732
-0.01769793964922428,3.445830821990967,9.008222579956055,-0.023719023913145065,0.024085544049739838,0.0322536826133728
-0.11315954476594925,3.485564947128296,8.980640411376953,-0.0004886921960860491,-0.0270700566470623,0.010070549324154854
-0.04697423428297043,3.5165460109710693,8.940706253051758,0.007801621686667204,-0.014782939106225967,0.021380282938480377
-0.0406343899667263,3.4577348232269287,8.866907119750977,0.014748032204806805,0.017680184915661812,0.0313984714448452
0.10392750799655914,3.3977456092834473,9.051068305969238,0.006771877408027649,-0.007347836159169674,0.033737216144800186
0.2010650634765625,3.3736886978149414,8.944067001342773,-0.005777040030807257,-0.03850196301937103,0.015865042805671692
0.19412186741828918,3.40154767036438,8.888961791992188,-0.019739674404263496,-0.040735986083745956,0.007365289609879255
0.17279432713985443,3.404660224914551,9.006114959716797,-0.040997784584760666,-0.03277728334069252,-0.0033684854861348867
0.17040011286735535,3.363020181655884,9.15637493133545,-0.011397000402212143,-0.02546435408294201,-0.007435102481395006
0.20422540605068207,3.3491146564483643,9.081982612609863,0.026197392493486404,-0.011431906372308731,-0.020141098648309708
0.15833334624767303,3.3435983657836914,8.992448806762695,0.03033382259309292,-0.013439035043120384,-0.0397411473095417
0.0681389793753624,3.4179909229278564,8.996251106262207,-0.003263765713199973,-0.04623377323150635,-0.05461135134100914
-0.009375694207847118,3.460761070251465,9.047889709472656,-0.02719222940504551,-0.08253662288188934,-0.047856926918029785
0.071806900203228,3.3324990272521973,9.057408332824707,-0.04145156964659691,-0.10665707290172577,-0.017749998718500137
0.06387729942798615,3.355483055114746,8.829289436340332,-0.025987952947616577,-0.040055304765701294,-0.04871213808655739
-0.06661626696586609,3.499662160873413,8.951661109924316,0.0038222710136324167,0.025621432811021805,-0.014049900695681572
0.05462610721588135,3.4613356590270996,8.925325393676758,0.019949113950133324,0.03923500329256058,0.014433872886002064
0.17040011286735535,3.32082462310791,8.899975776672363,0.014852751977741718,0.06270968168973923,-0.0016406094655394554
0.06288131326436996,3.3834474086761475,9.074417114257812,0.011676252819597721,0.04571017250418663,-0.029705503955483437
-0.052614975720644,3.4628777503967285,9.077415466308594,0.005113814491778612,-0.013543754816055298,-0.02897246554493904
-0.026202142238616943,3.463643789291382,8.990677833557129,-0.011187560856342316,-0.0342782661318779,-0.02640683203935623
-0.008504204452037811,3.467867136001587,8.99539852142334,-0.008203047327697277,-0.02661627158522606,-0.027139870449900627
-0.024602817371487617,3.4771087169647217,9.00859546661377,0.0074525559321045876,-0.011693705804646015,-0.023596851155161858
-0.06230670586228371,3.5352590084075928,8.952150344848633,0.015184364281594753,-0.00898844562470913,-0.013857914134860039
-0.22953690588474274,3.7539455890655518,8.26806926727295,0.04831071197986603,-0.0049916417337954044,-0.014835298992693424
-0.2886066734790802,3.667706251144409,8.806735038757324,-0.026319565251469612,0.06059783324599266,0.03591887652873993
0.021796811372041702,3.374732732772827,9.282492637634277,-0.06356488913297653,-0.008447393774986267,0.02528982050716877
0.02104024589061737,3.3761212825775146,9.113673210144043,-0.03654719516634941,-0.036739181727170944,0.003752457909286022
0.03359543904662132,3.365835666656494,9.058002471923828,-0.015463616698980331,-0.00783652812242508,-0.005619960371404886
-0.04867890849709511,3.3929381370544434,9.078238487243652,0.025656340643763542,0.051801372319459915,0.005567600484937429
0.012038045562803745,3.4227700233459473,9.064542770385742,0.055257122963666916,0.06965608894824982,0.01912880875170231
0.08774270862340927,3.383380651473999,8.93587875366211,0.03640756756067276,0.05187118425965309,0.005567600484937429
0.027590779587626457,3.4583191871643066,8.962023735046387,-0.010541788302361965,0.0063355453312397,-0.003455751808360219
0.04157291725277901,3.4596500396728516,9.101471900939941,-0.02754129469394684,-0.027646014466881752,-0.006370451766997576
0.07631757110357285,3.427788019180298,9.044049263000488,-0.006981316953897476,-0.02900737151503563,-0.006684611085802317
0.07531201094388962,3.3885042667388916,9.027519226074219,0.018273597583174706,0.0,-0.01226966455578804
0.08342356234788895,3.391309976577759,9.0039701461792,0.03375466912984848,0.011065387167036533,-0.01984439417719841
0.02580949477851391,3.4338598251342773,8.887650489807129,0.008587019518017769,-0.014748032204806805,-0.04113740846514702
-0.020599711686372757,3.4259207248687744,8.908575057983398,0.040631264448165894,0.01940806210041046,-0.03684389963746071
0.00407014274969697,3.446836471557617,8.819424629211426,0.04279547184705734,0.04478514939546585,-0.043301619589328766
-0.006253655068576336,3.4109809398651123,8.783895492553711,0.018535396084189415,0.06270968168973923,-0.061941735446453094
-0.14456190168857574,3.5078024864196777,8.952005386352539,0.0017976891249418259,0.02816961333155632,-0.05482079088687897
-0.054616525769233704,3.4375851154327393,8.958030700683594,-0.0015882495790719986,-0.014678219333291054,-0.047054074704647064
-0.11465353518724442,3.5057530403137207,8.769462585449219,0.0018500490114092827,0.00020943951676599681,-0.05267403647303581
-0.19578823447227478,3.601961374282837,8.802626609802246,-0.010035643354058266,0.0,-0.031956978142261505
-0.04712746664881706,3.584522247314453,8.728636741638184,-0.026738444343209267,-0.004258603323251009,-0.016493361443281174
0.02282153069972992,3.549241304397583,8.689190864562988,-0.06352998316287994,0.02122320421040058,-0.025987952947616577
-0.06689399480819702,3.5436484813690186,9.01436996459961,-0.08983209729194641,0.027349309995770454,-0.039618972688913345
-0.15645629167556763,3.5244946479797363,9.198427200317383,-0.0797789990901947,0.010716321878135204,-0.028134707361459732
-0.17609833180904388,3.4946436882019043,9.223738670349121,-0.0665144994854927,0.006213372107595205,-0.02134537696838379
-0.12124237418174744,3.438131093978882,9.157073974609375,-0.04813618212938309,0.008028514683246613,-0.014381512999534607
-0.015954960137605667,3.426255941390991,8.88113784790039,0.0031241392716765404,-0.018360864371061325,-0.005777040030807257
0.05455906689167023,3.3565750122070312,8.922510147094727,-0.002321287989616394,-0.0006981316837482154,-0.012444197200238705
0.031555578112602234,3.3181145191192627,8.998185157775879,-0.011030481196939945,-0.0012740903766825795,-0.03358013555407524
-0.07594407349824905,3.3696091175079346,9.055953025817871,-0.01603957638144493,-0.019896753132343292,-0.04415683075785637
-0.13549266755580902,3.409161329269409,8.998761177062988,-0.009756390936672688,-0.019512781873345375,-0.04138175770640373
-0.1483447402715683,3.4443273544311523,9.031570434570312,0.0067369709722697735,0.00027925267932005227,-0.03623303398489952
-0.1803312748670578,3.442354440689087,9.02904224395752,0.0228987205773592,0.01785471849143505,-0.028099801391363144
-0.1251497119665146,3.4695143699645996,9.042458534240723,-0.0024260077625513077,-0.019984019920229912,-0.014678219333291054
-0.3252379596233368,3.7244296073913574,8.196127891540527,-0.022427480667829514,-0.0131772356107831,-0.004747295752167702
-0.3563050925731659,3.669142723083496,8.384149551391602,-0.05049237608909607,0.109467051923275,0.05049237608909607
0.009279925376176834,3.3748667240142822,9.383556365966797,-0.03885103017091751,0.05309291556477547,0.047996554523706436
-0.05607220530509949,3.280257225036621,9.39786434173584,-0.01825614459812641,-0.0717330351471901,-0.013404129073023796
0.035673607140779495,3.380507469177246,8.951451301574707,0.0012915435945615172,0.00205948855727911,0.027262043207883835
0.03026270866394043,3.340801954269409,8.971016883850098,-0.0002617993741296232,-0.0040317103266716,0.01342158205807209
0.027619510889053345,3.3349602222442627,9.059869766235352,-0.0017278759041801095,-0.010088003240525723,0.0
-0.003303998149931431,3.3650410175323486,9.005013465881348,0.017331119626760483,-0.012601276859641075,-0.004520402755588293
-0.061530981212854385,3.424771547317505,8.888971328735352,0.007120943162590265,-0.009581857360899448,-0.003979350905865431
-0.0798514187335968,3.39327335357666,9.006325721740723,-0.005497787147760391,0.0014137167017906904,-0.00874409917742014
-0.15716497600078583,3.3975636959075928,9.08931827545166,-0.00921533815562725,-0.003752457909286022,-0.00518362782895565
-0.12720872461795807,3.4030990600585938,9.063729286193848,-0.0060388389974832535,-0.009494591504335403,0.0008377580670639873
-0.1407599002122879,3.440707206726074,9.09188461303711,-0.0021293016616255045,-0.012234757654368877,0.004939281847327948
-0.14858415722846985,3.4451797008514404,9.078679084777832,0.0011519172694534063,-0.01673770695924759,0.011850785464048386
-0.1480095535516739,3.406364679336548,9.062456130981445,0.01417207345366478,-0.012339477427303791,0.016179202124476433
-0.09162130951881409,3.4156925678253174,9.008671760559082,0.025220006704330444,-0.00411897711455822,0.013753194361925125
-0.06026684492826462,3.4796080589294434,8.915116310119629,0.03113667294383049,-0.0031590459402650595,0.008953538723289967
-0.11638693511486053,3.4619388580322266,8.837764739990234,0.010751227848231792,0.008098327554762363,0.015132004395127296
-0.11875240504741669,3.4646875858306885,8.99290943145752,0.015271631069481373,0.021066123619675636,0.027785642072558403
-0.10850521922111511,3.4368958473205566,9.02363109588623,0.0385892279446125,0.03125884756445885,0.03825761750340462
-0.05877286195755005,3.400475025177002,8.912569046020508,0.042062435299158096,0.03741985931992531,0.04392993822693825
0.034371159970760345,3.445591449737549,8.880888938903809,0.02200860157608986,0.034173548221588135,0.04070107638835907
0.0825808048248291,3.398310899734497,8.91788387298584,0.003508111694827676,0.026720991358160973,0.02640683203935623
0.08066544681787491,3.4055986404418945,9.023238182067871,-0.002827433403581381,0.020263273268938065,0.015062191523611546
0.056081779301166534,3.3839454650878906,9.078831672668457,0.023352505639195442,0.027803095057606697,0.0042236968874931335
-0.009653421118855476,3.439730405807495,9.033868789672852,0.056740652769804,0.04715879634022713,-0.0018151424592360854
-0.02462197095155716,3.461958169937134,8.975258827209473,0.052202798426151276,0.046652652323246,-0.00024434609804302454
-0.00803494080901146,3.4640555381774902,9.059027671813965,0.03246312215924263,0.02773328125476837,-0.00457276264205575
-0.009643844328820705,3.4076099395751953,9.098905563354492,0.0406138114631176,0.00799360778182745,-0.012409291230142117
-0.014039598405361176,3.418383836746216,9.028956413269043,0.04818854108452797,-0.0026354470755904913,-0.023631757125258446
-0.017975665628910065,3.483295440673828,9.003989219665527,0.05633922666311264,-0.009494591504335403,-0.031381018459796906
-0.10646536201238632,3.4999396800994873,8.88774585723877,0.06351253390312195,-0.006300638429820538,-0.034173548221588135
-0.1332995742559433,3.592796564102173,8.812337875366211,0.030264008790254593,-0.016912240535020828,-0.020367993041872978
-0.06678865104913712,3.580653190612793,8.843903541564941,0.0007504915702156723,-0.02834414690732956,-0.015934856608510017
-0.02672886848449707,3.537816047668457,8.882765769958496,0.0036826448049396276,-0.007714355364441872,-0.027122415602207184
-0.09756850451231003,3.565473794937134,8.893875122070312,0.022881265729665756,0.018587756901979446,-0.026686083525419235
-0.16877207159996033,3.593323230743408,8.798931121826172,0.006352998316287994,0.017435839399695396,-0.012234757654368877
-0.17613662779331207,3.5854990482330322,8.756458282470703,-0.01797689124941826,0.010681414976716042,-0.006056292448192835
-0.17257405817508698,3.571622371673584,8.953001976013184,-0.054506633430719376,-0.0036477381363511086,-0.002286381321027875
-0.1900421530008316,3.584761381149292,9.008777618408203,-0.04372049868106842,-0.02439970336854458,0.0022165682166814804
-0.2194238007068634,3.5653204917907715,8.907732009887695,-0.05365142226219177,-0.03539527580142021,0.012723450548946857
-0.18265843391418457,3.546339273452759,8.915672302246094,-0.07855726778507233,-0.04508185386657715,0.0184306763112545
-0.15258726477622986,3.4463672637939453,9.187117576599121,-0.045204028487205505,-0.015376350842416286,0.025237461552023888
-0.0883939266204834,3.4836785793304443,8.82054615020752,0.01589994877576828,-0.05974261835217476,0.011309733614325523
-0.150949627161026,3.587385654449463,8.753852844238281,-0.01171115878969431,-0.050248030573129654,0.01595230959355831
-0.20288465917110443,3.6752336025238037,8.783904075622559,-0.02741912193596363,-0.013072515837848186,0.03848451003432274
-0.1837693452835083,3.607860803604126,8.876387596130371,-0.039671335369348526,0.0015707963611930609,0.06342526525259018
-0.11962389200925827,3.511566162109375,8.966065406799316,-0.03375466912984848,0.0036826448049396276,0.07307693362236023
-0.050699613988399506,3.4944427013397217,8.997974395751953,-0.020891591906547546,0.0038222710136324167,0.07414158433675766
-0.00959596037864685,3.4788804054260254,8.983207702636719,-0.004049163777381182,-0.00020943951676599681,0.08096582442522049
0.005698200315237045,3.427816867828369,8.890121459960938,0.004764748737215996,0.010070549324154854,0.08607963472604752
0.14912045001983643,3.3861193656921387,8.901144027709961,-0.0026354470755904913,0.008534659631550312,0.08304276317358017
0.22428882122039795,3.331617832183838,8.992036819458008,-0.010821041651070118,-0.01045452244579792,0.056670840829610825
0.093728207051754,3.3152225017547607,8.999297142028809,-0.004345869645476341,-0.009128072299063206,0.003857177682220936
0.03326982632279396,3.3257088661193848,9.029913902282715,-0.011850785464048386,-0.00617846567183733,-0.003298672381788492
-0.003840299556031823,3.3196659088134766,9.056680679321289,-0.016947146505117416,-0.021764256060123444,-0.012688543647527695
0.010160991922020912,3.40783953666687,8.958183288574219,-0.006806783843785524,-0.031066861003637314,-0.028379052877426147
-0.028730420395731926,3.4997482299804688,8.922298431396484,-0.01567305624485016,-0.010838494636118412,-0.027314402163028717
-0.05941450968384743,3.499681234359741,8.983447074890137,-0.013631021603941917,-0.00808087456971407,-0.013648474588990211
-0.0829543024301529,3.521181106567383,8.961506843566895,-0.011833332479000092,-0.012042772024869919,-0.002478367416188121
-0.06190447881817818,3.527233600616455,8.924491882324219,-0.017558012157678604,-0.019303342327475548,0.0034732052590698004
-0.01469082199037075,3.4886584281921387,9.122243881225586,-0.0041015236638486385,-0.03988077491521835,0.006230825558304787
-0.04665820300579071,3.708733320236206,8.661091804504395,0.016353735700249672,0.03991568088531494,0.024347342550754547
-0.015284583903849125,3.359074354171753,8.86833381652832,0.018727382645010948,0.04461061581969261,0.05337216705083847
0.023779211565852165,3.5166802406311035,9.013402938842773,0.03021164983510971,0.034697145223617554,0.04872959107160568
0.039724595844745636,3.3656060695648193,9.101673126220703,0.04686209186911583,0.04274311289191246,0.04714134335517883
0.04706043004989624,3.3919994831085205,9.024359703063965,0.05169665068387985,0.021275563165545464,0.041661009192466736
0.08028237521648407,3.3769736289978027,8.987153053283691,0.017418386414647102,-0.010070549324154854,0.025167647749185562
0.09002198278903961,3.3894715309143066,8.919981002807617,-0.004852015525102615,-0.03555235639214516,0.01377064734697342
0.05419514700770378,3.370490312576294,8.847465515136719,-0.018168877810239792,-0.02151990868151188,0.010978121310472488
0.12224794179201126,3.4065468311309814,8.857205390930176,-0.034522611647844315,-0.004886921960860491,0.014625859446823597
0.15400461852550507,3.387938976287842,8.966008186340332,-0.05045747011899948,-0.005794493015855551,0.0007504915702156723
0.1671440154314041,3.4012985229492188,9.093494415283203,-0.05049237608909607,-0.025813419371843338,-0.02090904489159584
0.14762647449970245,3.44113826751709,9.123766899108887,-0.03623303398489952,-0.04372049868106842,-0.031171580776572227
0.14935988187789917,3.4755859375,9.03557300567627,-0.019303342327475548,-0.03890338912606239,-0.03988077491521835
0.10596737265586853,3.495065212249756,9.02363109588623,-0.009320057928562164,-0.01647590845823288,-0.04260348528623581
0.03918829187750816,3.5169482231140137,9.102621078491211,-0.0005410520825535059,-0.006387905217707157,-0.031066861003637314
0.03263775631785393,3.4803647994995117,9.11918830871582,0.013491394929587841,-0.01621410809457302,-0.015358896926045418
0.07934384047985077,3.422501802444458,9.015433311462402,0.01722639985382557,-0.03159045800566673,-0.015463616698980331
0.03948517516255379,3.4621784687042236,8.945818901062012,-0.005113814491778612,-0.04310963302850723,-0.022078415378928185
0.022946029901504517,3.4683077335357666,8.98221206665039,-0.021711895242333412,-0.04482005536556244,-0.00989601667970419
0.06779421120882034,3.392909526824951,9.029004096984863,-0.01802925020456314,-0.03314380347728729,-0.006422811653465033
0.0783095508813858,3.2550323009490967,8.86380386352539,0.020001472905278206,0.0005410520825535059,-0.01993165910243988
-0.020609289407730103,3.5248968601226807,9.042909622192383,-0.03556980937719345,-0.05120795965194702,0.041521381586790085
0.22485385835170746,3.2404849529266357,8.798327445983887,-0.04567526653409004,-0.052726395428180695,-0.0024958208668977022
0.12147221714258194,3.4060966968536377,8.901000022888184,0.013962633907794952,0.07103490084409714,-0.004834562074393034
0.05656062066555023,3.426591157913208,8.983954429626465,0.06426302343606949,0.11644836515188217,0.029600784182548523
0.2238195538520813,3.373535633087158,8.891586303710938,0.06719517707824707,0.11381292343139648,0.030979594215750694
0.25390028953552246,3.402438163757324,8.890235900878906,0.04354596510529518,0.09848892688751221,0.007958701811730862
0.13585658371448517,3.4891276359558105,8.764693260192871,0.039968039840459824,0.14561282098293304,0.010855947621166706
-0.10625466704368591,3.462714910507202,9.083898544311523,0.027663469314575195,0.04543092101812363,-0.01713913306593895
-0.1609286665916443,3.4927475452423096,9.110952377319336,-0.06429792940616608,-0.0993615910410881,-0.07204718887805939
-0.29496562480926514,3.565387725830078,9.141205787658691,-0.07447320222854614,-0.15311773121356964,-0.08522442728281021
-0.32849404215812683,3.572445869445801,8.981311798095703,-0.009372417815029621,-0.09227555990219116,-0.05482079088687897
-0.32343751192092896,3.603666305541992,8.838866233825684,0.051574479788541794,0.024382250383496284,-0.01794198527932167
-0.070389524102211,3.486321449279785,8.971427917480469,-0.093305304646492,-0.005951572675257921,-0.002478367416188121
-0.2532682418823242,3.553196430206299,9.209928512573242,-0.0449247732758522,0.0190066359937191,0.026057764887809753
-0.2978578507900238,3.51733136177063,9.063538551330566,-0.00890117883682251,-0.0002617993741296232,0.03050835430622101
-0.2053363174200058,3.5793888568878174,8.879587173461914,-0.016109388321638107,-0.027523841708898544,0.0512777715921402
-0.04708915948867798,3.5125620365142822,8.846748352050781,-0.03747221827507019,-0.03502875939011574,0.05607742816209793
0.04697423428297043,3.474149465560913,8.89107894897461,-0.03717551380395889,-0.013281955383718014,0.04070107638835907
0.02722686156630516,3.481858968734741,8.90072250366211,-0.041032690554857254,0.0008726646192371845,0.03623303398489952
0.011540052480995655,3.4848945140838623,9.038351058959961,-0.056583575904369354,-0.02045525796711445,0.038693949580192566
0.10043197870254517,3.392765760421753,9.171028137207031,-0.063372902572155,-0.05469861999154091,0.033370696008205414
0.14208151400089264,3.3585574626922607,9.173795700073242,-0.049357909709215164,-0.07323401421308517,0.01492256484925747
0.1672685146331787,3.360980272293091,9.151673316955566,-0.04286528751254082,-0.09122835844755173,-0.004694935865700245
0.14183250069618225,3.366161346435547,9.102984428405762,-0.0420449823141098,-0.10903071612119675,-0.01492256484925747
0.1753896325826645,3.339461088180542,9.026025772094727,-0.04934045672416687,-0.11842058598995209,-0.027611108496785164
0.1619725376367569,3.334155797958374,9.062234878540039,-0.04864232614636421,-0.10747737437486649,-0.03090978041291237
0.15134228765964508,3.3124356269836426,9.104583740234375,-0.03782128542661667,-0.09035569429397583,-0.039793506264686584
0.11987289786338806,3.3029448986053467,9.066286087036133,-0.0003316125657875091,-0.07358308136463165,-0.051626838743686676
0.050441041588783264,3.3550426959991455,8.939422607421875,0.0006981316837482154,-0.06108652427792549,-0.05222025141119957
0.047711651772260666,3.366678476333618,8.930727005004883,-0.01532399095594883,-0.052953287959098816,-0.04773475602269173
0.018023550510406494,3.35882568359375,9.007235527038574,-0.0040317103266716,-0.03626793995499611,-0.038432151079177856
0.036296095699071884,3.370365619659424,8.848346710205078,0.09002408385276794,0.024923302233219147,-0.040421824902296066
-0.15019305050373077,3.728710651397705,8.449874877929688,0.13042844831943512,0.14304718375205994,-0.016929693520069122
-0.3047914505004883,3.708848476409912,8.54476261138916,0.1106189712882042,0.1725257933139801,0.0478045679628849
-0.1508251279592514,3.627713680267334,8.699782371520996,0.01633628085255623,0.08435176312923431,0.05705481395125389
0.19202455878257751,3.2941055297851562,8.913459777832031,-0.13123130798339844,-0.08939576148986816,0.03520328924059868
0.10590033233165741,3.3626656532287598,9.200592041015625,-0.004852015525102615,0.02679080329835415,-0.00921533815562725
0.12336842715740204,3.3809385299682617,9.06350040435791,0.046966809779405594,0.07674212753772736,0.016318827867507935
0.21215499937534332,3.3341078758239746,9.002044677734375,0.01979203335940838,0.08070402592420578,0.006579891312867403
0.12947842478752136,3.3589117527008057,9.222475051879883,-0.04040437191724777,0.0021642083302140236,-0.020402899011969566
0.1045212671160698,3.326666831970215,9.382502555847168,-0.046129051595926285,-0.08080874383449554,-0.04138175770640373
0.09784623980522156,3.365213394165039,9.217494010925293,0.008342674002051353,-0.06986553221940994,-0.05372123420238495
-0.46800896525382996,3.7502009868621826,8.457842826843262,0.06930702179670334,0.18669787049293518,0.0780685767531395
0.08537723869085312,3.3285725116729736,9.197776794433594,-0.11974704265594482,-0.0875806212425232,0.033510319888591766
0.14602714776992798,3.323439121246338,9.14087963104248,-0.08337438106536865,-0.1443038284778595,-0.06483898311853409
-0.1541195511817932,3.521334409713745,8.956086158752441,0.04246386140584946,0.018186330795288086,-0.011658798903226852
-0.061032988131046295,3.524197816848755,8.75027084350586,0.09758135676383972,0.15029029548168182,0.05829399824142456
0.12319604307413101,3.4414830207824707,8.782439231872559,0.06742206960916519,0.1681973785161972,0.06445500999689102
0.17326359450817108,3.461009979248047,8.94482421875,0.0036477381363511086,0.1005135104060173,0.03982841223478317
0.1891898214817047,3.355483055114746,9.05900764465332,-0.01926843449473381,0.03764675185084343,0.014451325871050358
0.18186356127262115,3.325019598007202,9.01126766204834,-0.00823795422911644,0.03202679008245468,-0.015114551410079002
0.06684611737728119,3.353060245513916,8.996260643005371,0.0028448866214603186,0.06148795038461685,-0.02830924093723297
-0.03592260181903839,3.3622541427612305,9.088102340698242,-0.0009075712296180427,0.05913175642490387,-0.0285186804831028
-0.08304049074649811,3.330794095993042,9.248312950134277,0.0033684854861348867,0.024417156353592873,-0.04394739121198654
-0.10412862151861191,3.35037899017334,9.260666847229004,0.012740903533995152,-0.00012217304902151227,-0.05208062380552292
-0.14141112565994263,3.4450840950012207,9.142441749572754,0.029740409925580025,-0.03654719516634941,-0.0700051560997963
-0.22499749064445496,3.4850478172302246,8.91254997253418,0.033684853464365005,-0.0247662216424942,-0.06276203691959381
-0.27667394280433655,3.5695438385009766,8.946250915527344,0.026459190994501114,0.00427605677396059,-0.03879866749048233
-0.23724623024463654,3.5388312339782715,8.987000465393066,0.02918190509080887,-0.003490658476948738,-0.01326450239866972
-0.19593188166618347,3.5424609184265137,8.902169227600098,0.017174039036035538,-0.024207716807723045,-0.0025830871891230345
-0.2871701419353485,3.4651567935943604,9.119638442993164,0.049270644783973694,-0.07784168422222137,0.008115780539810658
-0.17729543149471283,3.6479780673980713,8.723657608032227,0.029653143137693405,0.02494075521826744,0.036582101136446
-0.09238746017217636,3.3684885501861572,8.827546119689941,-0.00031415926059708,0.057421330362558365,0.03958406671881676
-0.17685489356517792,3.4958791732788086,8.943894386291504,-0.03029891662299633,0.00013962633966002613,0.029880037531256676
-0.024104822427034378,3.4099276065826416,9.055005073547363,-0.04691445082426071,-0.07243116199970245,0.024469515308737755
-0.09084559231996536,3.4059817790985107,8.96303939819336,-0.018046705052256584,-0.06485643237829208,0.017174039036035538
-0.09851660579442978,3.471611499786377,8.7964506149292,0.002949606394395232,-0.015097098425030708,0.02768092229962349
-0.03402639552950859,3.4815714359283447,8.760690689086914,-0.016371188685297966,0.010943214409053326,0.042935099452733994
0.003830722765997052,3.4520654678344727,8.962310791015625,-0.04394739121198654,0.017994344234466553,0.04178318381309509
0.05251920595765114,3.3712849617004395,9.072348594665527,-0.04675737023353577,-0.0009250245057046413,0.0293738916516304
0.1749107986688614,3.3922677040100098,9.218088150024414,-0.014608405530452728,-0.06260495632886887,-0.009738937020301819
0.1633899062871933,3.3720128536224365,9.197037696838379,3.490658491500653e-05,-0.0751887857913971,-0.015585790388286114
0.2157367318868637,3.2380714416503906,8.98149299621582,0.04714134335517883,-0.06726498901844025,-0.03487167879939079
0.12439314275979996,3.6871566772460938,8.358053207397461,0.1339540183544159,0.060039326548576355,-0.04530874639749527
-0.28717970848083496,3.7646427154541016,8.557250022888184,0.11590731889009476,0.17620843648910522,0.02197369560599327
0.01023760624229908,3.4941554069519043,9.138466835021973,-0.06188937649130821,-0.02387610450387001,0.03553490340709686
0.2878979742527008,3.0174219608306885,9.218663215637207,-0.12452924251556396,-0.19018852710723877,-0.048834312707185745
0.0720367431640625,3.242687702178955,9.200773239135742,-0.09300859272480011,-0.15015067160129547,-0.07958701252937317
-0.0283186174929142,3.377854824066162,8.866533279418945,0.056234508752822876,0.030054569244384766,-0.0011344640515744686
0.07967903465032578,3.3803255558013916,8.912923812866211,0.0501258559525013,0.046355944126844406,0.00188495556358248
0.11080365628004074,3.396989345550537,9.03083324432373,0.025481807067990303,0.009634217247366905,-0.013142329640686512
0.11098561435937881,3.415175437927246,8.996308326721191,-0.0184306763112545,-0.08105309307575226,-0.030944688245654106
0.15528792142868042,3.4227700233459473,8.914637565612793,-0.031031953170895576,-0.10334094613790512,-0.0460941456258297
0.13279201090335846,3.4833717346191406,8.873428344726562,-0.009162978269159794,-0.0541575662791729,-0.0495324432849884
0.013302184641361237,3.6085023880004883,8.341407775878906,0.07953465729951859,0.07644542306661606,-0.05267403647303581
-0.3487585783004761,3.733039379119873,8.662595748901367,0.10002481937408447,0.22429226338863373,0.02799508161842823
-0.020389020442962646,3.4890031814575195,9.195352554321289,-0.053389620035886765,-0.05365142226219177,0.034121185541152954
0.19890069961547852,3.234959125518799,8.938541412353516,-0.1587202399969101,-0.22397810220718384,-0.035988688468933105
0.04440765455365181,3.3984830379486084,9.000321388244629,-0.08491026610136032,-0.07784168422222137,-0.05119050666689873
-0.13404656946659088,3.457524061203003,9.12808609008789,0.03251548483967781,0.06131341680884361,0.01581268385052681
0.07620265334844589,3.3716297149658203,9.016583442687988,0.06599090248346329,0.10848966240882874,0.05061454698443413
0.18679562211036682,3.327988386154175,9.02708911895752,0.013142329640686512,0.06152285635471344,0.017156586050987244
-0.012114659883081913,3.4539711475372314,9.06446647644043,0.03968878835439682,-0.016912240535020828,-0.0247662216424942
-0.05016331374645233,3.5037035942077637,8.973947525024414,0.0679805725812912,0.02981022372841835,-0.0034208453726023436
-0.22152112424373627,3.6083779335021973,8.452049255371094,0.1313360184431076,0.025883233174681664,-0.022305307909846306
-0.5211219191551208,3.9132845401763916,8.508341789245605,0.05235987901687622,0.1472185254096985,0.0789063349366188
0.14137281477451324,3.4804317951202393,9.018976211547852,-0.07072073966264725,0.01754055917263031,0.10871656239032745
0.3797299861907959,2.9173922538757324,9.37932300567627,-0.13472196459770203,-0.15365879237651825,-0.012583823874592781
0.27181851863861084,3.248931646347046,9.249260902404785,-0.0832347497344017,-0.12226031720638275,-0.05054473504424095
-0.05551674962043762,3.3649067878723145,9.191167831420898,0.017837265506386757,0.00013962633966002613,-0.017837265506386757
0.04895663633942604,3.3839168548583984,9.077424049377441,0.0806342139840126,0.08346164226531982,0.04410447180271149
0.29180529713630676,3.326590061187744,9.054142951965332,0.06627015024423599,0.06572909653186798,0.031084313988685608
0.31262528896331787,3.353271007537842,9.089098930358887,0.007976154796779156,-0.02542944625020027,-0.017208946868777275
-0.07020757347345352,3.7838826179504395,8.447136878967285,0.016091935336589813,0.050911255180835724,-0.0285186804831028
-0.0057460842654109,3.5185282230377197,9.099355697631836,-0.03391174599528313,-0.047769661992788315,0.01211258489638567
0.23322397470474243,3.245570421218872,8.968382835388184,-0.05838126316666603,-0.09953612834215164,-0.015114551410079002
0.1714344173669815,3.3206140995025635,9.03580379486084,-0.03520328924059868,-0.04787437990307808,-0.031241392716765404
-0.04002147540450096,3.436474323272705,9.068278312683105,0.03537782281637192,0.010506882332265377,-0.08021533489227295
-0.10294109582901001,3.4653196334838867,9.074914932250977,0.029164452105760574,-0.009756390936672688,-0.06899286806583405
-0.053256623446941376,3.4674553871154785,9.03536319732666,0.0452214814722538,-0.009669124148786068,-0.06475171446800232
-0.05844724923372269,3.5326061248779297,8.97365951538086,0.0561646968126297,0.003543018363416195,-0.0648215264081955
-0.16520948708057404,3.532989263534546,8.764463424682617,0.058887407183647156,-0.0014486232539638877,-0.06112143024802208
-0.7071801424026489,4.589033126831055,7.252353191375732,0.06368706375360489,0.07904595881700516,-0.03583160787820816
-0.6565762758255005,3.9827449321746826,8.375070571899414,-0.07464773207902908,0.14964452385902405,0.08834856748580933
0.14460979402065277,3.2793381214141846,9.443497657775879,-0.13952161371707916,0.0616450272500515,0.061278510838747025
-0.06873274594545364,3.233666181564331,9.675007820129395,-0.13468705117702484,-0.1126086413860321,-0.03202679008245468
