accX,accY,accZ,gyroX,gyroY,gyroZ
-0.1869392693042755,0.529412031173706,9.8300142288208,0.0,0.00038177953683771193,0.0007635590736754239
-0.18933209776878357,0.5437689423561096,9.887741088867188,-0.0006108472589403391,0.00030542362947016954,0.00015271181473508477
-0.1941177397966385,0.5341976284980774,9.877870559692383,-7.635590736754239e-05,-0.00030542362947016954,0.0007635590736754239
-0.1989033818244934,0.527019202709198,9.85394287109375,-0.0007635590736754239,0.00022906772210262716,-0.0004581354442052543
-0.1941177397966385,0.5413761138916016,9.90688419342041,-0.00015271181473508477,0.00022906772210262716,-0.0004581354442052543
-0.18933209776878357,0.5461617708206177,9.84676456451416,-0.00015271181473508477,0.00022906772210262716,-0.0004581354442052543
-0.1821536272764206,0.5341976284980774,9.90688419342041,0.0005344913806766272,-0.00038177953683771193,0.00015271181473508477
-0.1941177397966385,0.5318048596382141,9.882657051086426,-0.00015271181473508477,0.00022906772210262716,0.00015271181473508477
-0.1941177397966385,0.5413761138916016,9.865906715393066,-0.00015271181473508477,0.00022906772210262716,0.00015271181473508477
-0.18454644083976746,0.5461617708206177,9.86112117767334,0.0005344913806766272,-0.00038177953683771193,0.00015271181473508477
-0.20129621028900146,0.5365904569625854,9.885348320007324,-0.00015271181473508477,-0.00038177953683771193,0.00015271181473508477
-0.18454644083976746,0.5341976284980774,9.885348320007324,-0.00015271181473508477,0.00022906772210262716,0.00015271181473508477
-0.18454644083976746,0.5413761138916016,9.877870559692383,-0.00015271181473508477,-0.0009926267666742206,0.00015271181473508477
-0.19172491133213043,0.5389832854270935,9.885348320007324,-0.00015271181473508477,0.00022906772210262716,0.00015271181473508477
-0.1941177397966385,0.5365904569625854,9.877870559692383,0.0005344913806766272,-0.00038177953683771193,0.00015271181473508477
-0.1941177397966385,0.5365904569625854,9.89013385772705,-0.00015271181473508477,-0.00038177953683771193,-0.0004581354442052543
-0.19172491133213043,0.5365904569625854,9.902098655700684,-0.00015271181473508477,-0.00038177953683771193,0.00015271181473508477
-0.19172491133213043,0.5413761138916016,9.87547779083252,0.0005344913806766272,0.00022906772210262716,-0.0004581354442052543
-0.17258232831954956,0.5126622319221497,9.971489906311035,-0.0038177953101694584,-0.0064902519807219505,0.00015271181473508477
-0.17497515678405762,0.5246263742446899,9.89013385772705,-0.00015271181473508477,0.002061609411612153,-0.0004581354442052543
-0.21565313637256622,0.5413761138916016,9.873085021972656,0.0029778804164379835,0.0038941511884331703,0.00015271181473508477
-0.18933209776878357,0.5318048596382141,9.880263328552246,-0.00015271181473508477,-0.0016034740256145597,0.00015271181473508477
-0.17736798524856567,0.5150550603866577,9.858728408813477,-0.00015271181473508477,0.00022906772210262716,-0.0004581354442052543
-0.23958136141300201,0.5700899958610535,9.983454704284668,-0.00015271181473508477,0.0008399150101467967,-0.0010689827613532543
-0.17497515678405762,0.5246263742446899,9.90688419342041,0.0005344913806766272,0.00022906772210262716,0.00015271181473508477
-0.1989033818244934,0.529412031173706,9.882657051086426,-0.00015271181473508477,-0.00038177953683771193,0.00015271181473508477
-0.17497515678405762,0.5365904569625854,9.897313117980957,0.0005344913806766272,-0.0009926267666742206,0.00015271181473508477
-0.17736798524856567,0.5365904569625854,9.89013385772705,0.0005344913806766272,-0.0009926267666742206,-0.0004581354442052543
-0.1941177397966385,0.5413761138916016,9.86112117767334,0.0005344913806766272,0.00022906772210262716,0.00015271181473508477
-0.18933209776878357,0.5341976284980774,9.89013385772705,0.0005344913806766272,0.00022906772210262716,-0.0004581354442052543
-0.1869392693042755,0.5341976284980774,9.885348320007324,0.0005344913806766272,0.00022906772210262716,0.00015271181473508477
-0.18454644083976746,0.527019202709198,9.904491424560547,-0.00015271181473508477,0.00022906772210262716,0.00015271181473508477
-0.17736798524856567,0.5485545992851257,9.85394287109375,-0.00015271181473508477,-0.00038177953683771193,-0.0004581354442052543
-0.1869392693042755,0.5389832854270935,9.870692253112793,-0.00015271181473508477,0.00022906772210262716,-0.0004581354442052543
-0.1941177397966385,0.5389832854270935,9.86112117767334,0.0005344913806766272,-0.00038177953683771193,0.00015271181473508477
-0.18933209776878357,0.5222335457801819,9.887741088867188,-0.00015271181473508477,0.00022906772210262716,0.00015271181473508477
-0.18454644083976746,0.5318048596382141,9.887741088867188,-0.00015271181473508477,-0.00038177953683771193,-0.0004581354442052543
-0.1821536272764206,0.5485545992851257,9.882657051086426,-0.00015271181473508477,-0.00038177953683771193,0.00015271181473508477
-0.18933209776878357,0.5365904569625854,9.887741088867188,0.0005344913806766272,-0.00038177953683771193,0.00015271181473508477
-0.1989033818244934,0.5389832854270935,9.87547779083252,-0.00015271181473508477,-0.00038177953683771193,0.00015271181473508477
-0.18454644083976746,0.5581258535385132,9.880263328552246,-0.00015271181473508477,-0.00038177953683771193,-0.0004581354442052543
-0.18454644083976746,0.5246263742446899,9.885348320007324,0.0005344913806766272,-0.00038177953683771193,0.00015271181473508477
-0.18933209776878357,0.5246263742446899,9.89013385772705,-0.00015271181473508477,0.00022906772210262716,0.00015271181473508477
-0.1941177397966385,0.527019202709198,9.873085021972656,-0.00015271181473508477,0.00022906772210262716,-0.0004581354442052543
-0.19651055335998535,0.5437689423561096,9.873085021972656,-0.00015271181473508477,0.00022906772210262716,-0.0004581354442052543
-0.18933209776878357,0.5365904569625854,9.894919395446777,-0.00015271181473508477,0.00022906772210262716,0.00015271181473508477
-0.20608185231685638,0.5341976284980774,9.873085021972656,-0.00015271181473508477,-0.00038177953683771193,0.0007635590736754239
-0.17258232831954956,0.5389832854270935,9.894919395446777,-0.00015271181473508477,-0.00038177953683771193,-0.0004581354442052543
-0.18933209776878357,0.5413761138916016,9.897313117980957,-0.00015271181473508477,0.00022906772210262716,-0.0004581354442052543
-0.17976079881191254,0.5437689423561096,9.89013385772705,-0.00015271181473508477,-0.00038177953683771193,-0.0004581354442052543
-0.18933209776878357,0.529412031173706,9.887741088867188,-0.00015271181473508477,-0.00038177953683771193,-0.0004581354442052543
-0.1869392693042755,0.5318048596382141,9.877870559692383,0.0005344913806766272,-0.00038177953683771193,0.00015271181473508477
-0.20129621028900146,0.5365904569625854,9.880263328552246,-0.00015271181473508477,-0.00038177953683771193,0.00015271181473508477
-0.19651055335998535,0.5365904569625854,9.885348320007324,-0.00015271181473508477,-0.0009926267666742206,-0.0004581354442052543
-0.18454644083976746,0.529412031173706,9.882657051086426,-0.00015271181473508477,0.00022906772210262716,0.00015271181473508477
-0.19172491133213043,0.5341976284980774,9.877870559692383,0.0005344913806766272,-0.00038177953683771193,0.00015271181473508477
-0.19651055335998535,0.5341976284980774,9.892526626586914,-0.00015271181473508477,-0.00038177953683771193,0.00015271181473508477
-0.1869392693042755,0.5461617708206177,9.89013385772705,-0.0007635590736754239,-0.0009926267666742206,-0.0004581354442052543
-0.19172491133213043,0.5413761138916016,9.882657051086426,-0.0007635590736754239,-0.00038177953683771193,0.00015271181473508477
-0.1821536272764206,0.527019202709198,9.885348320007324,-0.00015271181473508477,0.00022906772210262716,0.00015271181473508477
-0.1989033818244934,0.5365904569625854,9.892526626586914,0.0004581354442052543,0.00038177953683771193,0.00022906772210262716
-0.19651055335998535,0.5246263742446899,9.832406997680664,0.0023670331574976444,0.008933641016483307,0.00022906772210262716
-0.20368902385234833,0.5437689423561096,9.937990188598633,0.0011453386396169662,0.0009926267666742206,0.00022906772210262716
-0.18454644083976746,0.5437689423561096,9.870692253112793,-0.001985253533348441,-0.005726693198084831,-0.00038177953683771193
-0.1941177397966385,0.5461617708206177,9.822835922241211,0.0004581354442052543,-0.0008399150101467967,0.00022906772210262716
-0.14865410327911377,0.4624129831790924,9.851550102233887,-0.00015271181473508477,-0.00022906772210262716,0.0008399150101467967
-0.3233301639556885,0.6299105882644653,9.885348320007324,-0.00015271181473508477,-0.0008399150101467967,-0.0016034740256145597
-0.17258232831954956,0.5318048596382141,9.92841911315918,-0.00015271181473508477,-0.00022906772210262716,0.00022906772210262716
-0.2108674943447113,0.5413761138916016,9.887741088867188,-0.00015271181473508477,-0.00022906772210262716,-0.00038177953683771193
-0.18933209776878357,0.5389832854270935,9.851550102233887,0.0005344913806766272,-0.00022906772210262716,-0.00038177953683771193
-0.20129621028900146,0.5389832854270935,9.89970588684082,0.0005344913806766272,-0.00030542362947016954,-0.00038177953683771193
-0.1941177397966385,0.5150550603866577,9.885348320007324,-0.00015271181473508477,0.00030542362947016954,0.00022906772210262716
-0.17976079881191254,0.529412031173706,9.877870559692383,-0.00015271181473508477,-0.00030542362947016954,0.00022906772210262716
-0.18454644083976746,0.5389832854270935,9.87547779083252,-0.00015271181473508477,0.00030542362947016954,0.00015271181473508477
-0.19651055335998535,0.529412031173706,9.880263328552246,-0.00015271181473508477,0.00030542362947016954,0.00015271181473508477
-0.17736798524856567,0.527019202709198,9.880263328552246,-0.00015271181473508477,0.00030542362947016954,0.00015271181473508477
-0.1869392693042755,0.5341976284980774,9.86829948425293,-0.00015271181473508477,-0.0009162708884105086,-0.0004581354442052543
-0.18933209776878357,0.5341976284980774,9.865906715393066,0.0005344913806766272,-0.00030542362947016954,-0.0004581354442052543
-0.1821536272764206,0.5341976284980774,9.887741088867188,-0.00015271181473508477,-0.00022906772210262716,-0.0004581354442052543
-0.18454644083976746,0.5341976284980774,9.873085021972656,0.0005344913806766272,-0.00022906772210262716,0.00015271181473508477
-0.18454644083976746,0.5341976284980774,9.87547779083252,0.0005344913806766272,-0.00022906772210262716,0.00015271181473508477
-0.17976079881191254,0.5198407173156738,9.873085021972656,-0.00015271181473508477,-0.0008399150101467967,0.00015271181473508477
-0.1869392693042755,0.5318048596382141,9.87547779083252,-0.00015271181473508477,-0.00022906772210262716,0.00015271181473508477
-0.1941177397966385,0.5437689423561096,9.885348320007324,-0.0007635590736754239,0.00038177953683771193,0.00015271181473508477
-0.20608185231685638,0.5389832854270935,9.877870559692383,-0.00015271181473508477,0.0004581354442052543,0.00015271181473508477
-0.19172491133213043,0.5318048596382141,9.880263328552246,-0.00015271181473508477,0.0004581354442052543,-0.0004581354442052543
-0.19172491133213043,0.5437689423561096,9.882657051086426,-0.00015271181473508477,-0.00015271181473508477,0.00015271181473508477
-0.1989033818244934,0.5485545992851257,9.865906715393066,0.0004581354442052543,-0.00015271181473508477,0.00015271181473508477
-0.1821536272764206,0.529412031173706,9.870692253112793,-0.0007635590736754239,0.0004581354442052543,0.00015271181473508477
-0.20129621028900146,0.529412031173706,9.89013385772705,-0.00015271181473508477,-0.00015271181473508477,-0.0004581354442052543
-0.1821536272764206,0.5365904569625854,9.87547779083252,0.0004581354442052543,-0.00015271181473508477,0.00015271181473508477
-0.18933209776878357,0.5413761138916016,9.870692253112793,-0.00015271181473508477,-0.00015271181473508477,0.0007635590736754239
-0.19651055335998535,0.5365904569625854,9.877870559692383,-0.00015271181473508477,0.0004581354442052543,-0.0004581354442052543
-0.1941177397966385,0.527019202709198,9.87547779083252,0.0004581354442052543,-0.00015271181473508477,0.00015271181473508477
-0.19172491133213043,0.5318048596382141,9.882657051086426,-0.00015271181473508477,-0.00015271181473508477,-0.0004581354442052543
-0.19172491133213043,0.5413761138916016,9.880263328552246,-7.635590736754239e-05,0.0004581354442052543,0.0007635590736754239
-0.18933209776878357,0.5461617708206177,9.880263328552246,-0.000687203137204051,-0.00015271181473508477,0.00015271181473508477
-0.19651055335998535,0.5413761138916016,9.880263328552246,0.0005344913806766272,-0.00015271181473508477,0.00015271181473508477
-0.18933209776878357,0.529412031173706,9.86112117767334,-7.635590736754239e-05,0.0004581354442052543,0.0007635590736754239
-0.1989033818244934,0.5318048596382141,9.887741088867188,0.0005344913806766272,-0.00015271181473508477,0.00015271181473508477
-0.19651055335998535,0.527019202709198,9.858728408813477,-7.635590736754239e-05,0.0004581354442052543,0.00015271181473508477
-0.17976079881191254,0.5413761138916016,9.882657051086426,-7.635590736754239e-05,-0.0007635590736754239,-0.0004581354442052543
-0.19172491133213043,0.5389832854270935,9.873085021972656,0.0005344913806766272,0.0004581354442052543,0.00015271181473508477
-0.18454644083976746,0.529412031173706,9.86829948425293,-7.635590736754239e-05,-0.00015271181473508477,0.00015271181473508477
-0.1869392693042755,0.5341976284980774,9.877870559692383,-7.635590736754239e-05,-0.00022906772210262716,0.00015271181473508477
-0.18454644083976746,0.5389832854270935,9.885348320007324,-7.635590736754239e-05,0.00038177953683771193,0.00015271181473508477
-0.1821536272764206,0.5389832854270935,9.870692253112793,-7.635590736754239e-05,-0.0008399150101467967,0.00015271181473508477
-0.1869392693042755,0.5437689423561096,9.880263328552246,0.0005344913806766272,-0.00022906772210262716,-0.0010689827613532543
-0.19172491133213043,0.5318048596382141,9.880263328552246,-7.635590736754239e-05,0.00038177953683771193,0.00015271181473508477
-0.19651055335998535,0.5341976284980774,9.877870559692383,0.0005344913806766272,0.00038177953683771193,0.00015271181473508477
-0.1821536272764206,0.5413761138916016,9.87547779083252,0.0005344913806766272,-0.00022906772210262716,-0.0004581354442052543
-0.1941177397966385,0.5246263742446899,9.89013385772705,-7.635590736754239e-05,-0.00022906772210262716,0.00015271181473508477
-0.19651055335998535,0.5485545992851257,9.87547779083252,-7.635590736754239e-05,0.00038177953683771193,0.00015271181473508477
-0.19172491133213043,0.5461617708206177,9.86829948425293,-7.635590736754239e-05,0.00038177953683771193,-0.0004581354442052543
-0.19172491133213043,0.5413761138916016,9.858728408813477,0.0005344913806766272,-0.00022906772210262716,0.00015271181473508477
-0.22043879330158234,0.5389832854270935,9.803693771362305,0.0004581354442052543,-0.0038941511884331703,0.00015271181473508477
-0.1701895147562027,0.5533402562141418,9.937990188598633,0.0004581354442052543,-0.00022906772210262716,0.00015271181473508477
-0.20368902385234833,0.5389832854270935,9.801301002502441,0.0023670331574976444,0.007711946498602629,0.0007635590736754239
-0.18454644083976746,0.5246263742446899,9.86112117767334,0.0010689827613532543,0.00038177953683771193,0.00015271181473508477
-0.15583257377147675,0.5581258535385132,9.976275444030762,0.0004581354442052543,0.00038177953683771193,-0.0010689827613532543
-0.2108674943447113,0.5461617708206177,9.844371795654297,0.0004581354442052543,0.0004581354442052543,-0.0004581354442052543
-0.1869392693042755,0.5461617708206177,9.902098655700684,0.0004581354442052543,0.0004581354442052543,0.00015271181473508477
-0.21565313637256622,0.5365904569625854,9.89013385772705,-0.00015271181473508477,-0.0007635590736754239,0.00015271181473508477
-0.18454644083976746,0.5341976284980774,9.856335639953613,-0.00015271181473508477,-0.0007635590736754239,0.0007635590736754239
-0.1941177397966385,0.5318048596382141,9.87547779083252,-0.00015271181473508477,-0.00015271181473508477,-0.0004581354442052543
-0.20129621028900146,0.5341976284980774,9.885348320007324,-0.00015271181473508477,-0.00015271181473508477,-0.0004581354442052543
-0.18933209776878357,0.529412031173706,9.87547779083252,0.0004581354442052543,-0.0007635590736754239,0.00015271181473508477
-0.1821536272764206,0.5389832854270935,9.882657051086426,0.0010689827613532543,-0.00015271181473508477,0.0007635590736754239
-0.1941177397966385,0.5365904569625854,9.863513946533203,-0.00015271181473508477,0.0004581354442052543,0.0007635590736754239
-0.19172491133213043,0.5222335457801819,9.863513946533203,-0.00015271181473508477,0.0004581354442052543,0.00015271181473508477
-0.19651055335998535,0.5318048596382141,9.880263328552246,-0.00015271181473508477,-0.00015271181473508477,-0.0004581354442052543
-0.19651055335998535,0.5222335457801819,9.851550102233887,-0.00015271181473508477,-0.00015271181473508477,-0.0004581354442052543
-0.18454644083976746,0.5341976284980774,9.858728408813477,-0.00015271181473508477,-0.00015271181473508477,-0.0004581354442052543
-0.19172491133213043,0.527019202709198,9.863513946533203,-0.0008399150101467967,0.0004581354442052543,0.00015271181473508477
-0.1869392693042755,0.5365904569625854,9.858728408813477,0.0004581354442052543,-0.00015271181473508477,-0.0004581354442052543
-0.18454644083976746,0.5389832854270935,9.86112117767334,-0.00022906772210262716,0.0004581354442052543,0.00015271181473508477
-0.18933209776878357,0.5222335457801819,9.86829948425293,-0.00022906772210262716,-0.00015271181473508477,0.00015271181473508477
-0.1821536272764206,0.5341976284980774,9.858728408813477,0.0004581354442052543,-0.00015271181473508477,0.00015271181473508477
-0.18933209776878357,0.5341976284980774,9.858728408813477,-0.00022906772210262716,-0.00015271181473508477,-0.0004581354442052543
-0.18933209776878357,0.5389832854270935,9.856335639953613,-0.0008399150101467967,-0.00015271181473508477,-0.0004581354442052543
-0.19172491133213043,0.5389832854270935,9.86829948425293,-0.00022906772210262716,-0.00015271181473508477,-0.0010689827613532543
-0.16540385782718658,0.5365904569625854,10.03848934173584,-0.0014507622690871358,-0.0007635590736754239,0.00015271181473508477
-0.17976079881191254,0.5222335457801819,9.865906715393066,-0.0008399150101467967,0.0004581354442052543,0.00015271181473508477
-0.1821536272764206,0.527019202709198,9.892526626586914,-0.002061609411612153,-0.001985253533348441,0.00015271181473508477
-0.17976079881191254,0.5461617708206177,9.86112117767334,-0.00015271181473508477,-0.00015271181473508477,0.0007635590736754239
-0.031405795365571976,0.46480581164360046,9.825228691101074,-0.00015271181473508477,-0.00015271181473508477,0.0007635590736754239
-0.19172491133213043,0.5437689423561096,9.897313117980957,0.0004581354442052543,-0.00022906772210262716,0.00015271181473508477
-0.1869392693042755,0.5341976284980774,9.882657051086426,-0.00015271181473508477,0.00038177953683771193,-0.0004581354442052543
-0.20608185231685638,0.529412031173706,9.870692253112793,-0.00015271181473508477,0.00038177953683771193,0.00022906772210262716
-0.20608185231685638,0.5318048596382141,9.86829948425293,-0.00015271181473508477,0.00038177953683771193,-0.00038177953683771193
-0.1869392693042755,0.5246263742446899,9.85394287109375,0.0004581354442052543,-0.00015271181473508477,0.00022906772210262716
-0.1989033818244934,0.5389832854270935,9.882657051086426,-0.00015271181473508477,0.0004581354442052543,0.00022906772210262716
-0.1821536272764206,0.5246263742446899,9.863513946533203,0.0004581354442052543,0.0004581354442052543,-0.00038177953683771193
-0.18933209776878357,0.5365904569625854,9.858728408813477,-0.00015271181473508477,-0.0007635590736754239,-0.0009926267666742206
-0.1821536272764206,0.5365904569625854,9.858728408813477,-0.00015271181473508477,-0.00015271181473508477,-0.00038177953683771193
-0.1869392693042755,0.5389832854270935,9.865906715393066,-0.00015271181473508477,-0.00015271181473508477,0.00022906772210262716
-0.1821536272764206,0.5365904569625854,9.877870559692383,-7.635590736754239e-05,-0.00015271181473508477,-0.00038177953683771193
-0.1869392693042755,0.5413761138916016,9.86112117767334,-7.635590736754239e-05,-0.00015271181473508477,0.00022906772210262716
-0.1941177397966385,0.5246263742446899,9.863513946533203,-7.635590736754239e-05,-0.00015271181473508477,-0.00038177953683771193
-0.19651055335998535,0.5365904569625854,9.880263328552246,-7.635590736754239e-05,0.0004581354442052543,0.00022906772210262716
-0.1869392693042755,0.5246263742446899,9.877870559692383,0.0005344913806766272,0.0004581354442052543,0.0008399150101467967
-0.20608185231685638,0.5222335457801819,9.85394287109375,-7.635590736754239e-05,-0.00015271181473508477,-0.00038177953683771193
-0.1989033818244934,0.5246263742446899,9.86112117767334,-7.635590736754239e-05,0.0004581354442052543,0.00022906772210262716
-0.1941177397966385,0.5222335457801819,9.858728408813477,-7.635590736754239e-05,-0.0008399150101467967,0.00022906772210262716
-0.19172491133213043,0.5389832854270935,9.877870559692383,0.0006108472589403391,-0.00022906772210262716,0.00022906772210262716
-0.18454644083976746,0.5341976284980774,9.877870559692383,0.0006108472589403391,-0.00022906772210262716,0.00022906772210262716
-0.17976079881191254,0.527019202709198,9.858728408813477,-0.0,0.00038177953683771193,0.00022906772210262716
-0.19651055335998535,0.527019202709198,9.844371795654297,0.0006108472589403391,-0.00022906772210262716,-0.00038177953683771193
-0.19172491133213043,0.529412031173706,9.87547779083252,0.0006108472589403391,0.00038177953683771193,0.00022906772210262716
-0.1821536272764206,0.5341976284980774,9.873085021972656,-0.0,-0.00022906772210262716,-0.00038177953683771193
-0.18933209776878357,0.5365904569625854,9.856335639953613,-0.0,-0.00022906772210262716,0.00022906772210262716
-0.18933209776878357,0.5389832854270935,9.863513946533203,-0.0,-0.00022906772210262716,-0.00038177953683771193
-0.18454644083976746,0.5341976284980774,9.880263328552246,-0.0,-0.00022906772210262716,0.00022906772210262716
-0.19651055335998535,0.5341976284980774,9.86112117767334,-7.635590736754239e-05,-0.00022906772210262716,0.00015271181473508477
-0.19172491133213043,0.5389832854270935,9.86829948425293,-7.635590736754239e-05,0.00038177953683771193,0.00015271181473508477
-0.18933209776878357,0.5365904569625854,9.870692253112793,-0.000687203137204051,-0.00022906772210262716,-0.0004581354442052543
-0.18933209776878357,0.5150550603866577,9.870692253112793,-0.000687203137204051,0.00038177953683771193,0.0007635590736754239
-0.19172491133213043,0.5318048596382141,9.849157333374023,0.0005344913806766272,-0.00022906772210262716,0.00015271181473508477
-0.18454644083976746,0.5413761138916016,9.87547779083252,-7.635590736754239e-05,-0.00022906772210262716,-0.0004581354442052543
-0.1821536272764206,0.5437689423561096,9.87547779083252,-7.635590736754239e-05,0.00038177953683771193,0.0007635590736754239
-0.23718854784965515,0.5533402562141418,9.684052467346191,0.0006108472589403391,-0.0014507622690871358,-0.0004581354442052543
-0.16540385782718658,0.5341976284980774,9.90688419342041,-0.0050394898280501366,-0.008170082233846188,0.0007635590736754239
-0.16061821579933167,0.5078766345977783,9.985847473144531,0.0012216945178806782,0.004046862944960594,-0.0004581354442052543
-0.20847466588020325,0.529412031173706,9.865906715393066,0.004963133949786425,0.007177455350756645,0.00015271181473508477
-0.19172491133213043,0.5341976284980774,9.971489906311035,-0.0006108472589403391,0.0004581354442052543,-0.0004581354442052543
-0.19172491133213043,0.5365904569625854,9.834799766540527,0.0,-0.00015271181473508477,0.00015271181473508477
-0.20847466588020325,0.5126622319221497,9.988240242004395,-0.0006108472589403391,-7.635590736754239e-05,-0.0016798300202935934
-0.15583257377147675,0.5102694034576416,9.887741088867188,-0.0005344913806766272,-0.000687203137204051,0.00015271181473508477
-0.20368902385234833,0.5581258535385132,9.873085021972656,7.635590736754239e-05,0.0005344913806766272,-0.0004581354442052543
-0.1941177397966385,0.5437689423561096,9.887741088867188,7.635590736754239e-05,-7.635590736754239e-05,0.00015271181473508477
-0.18454644083976746,0.5341976284980774,9.849157333374023,7.635590736754239e-05,0.0006108472589403391,0.00015271181473508477
-0.19651055335998535,0.5222335457801819,9.841979026794434,7.635590736754239e-05,-0.0,0.00015271181473508477
-0.1941177397966385,0.5485545992851257,9.877870559692383,0.000687203137204051,0.0006108472589403391,-0.0004581354442052543
-0.17736798524856567,0.5341976284980774,9.880263328552246,7.635590736754239e-05,0.0006108472589403391,0.00015271181473508477
-0.18933209776878357,0.5341976284980774,9.84676456451416,7.635590736754239e-05,0.0005344913806766272,0.0007635590736754239
-0.18933209776878357,0.5318048596382141,9.880263328552246,0.0,-7.635590736754239e-05,-0.0004581354442052543
-0.18933209776878357,0.5318048596382141,9.86112117767334,0.0006108472589403391,-7.635590736754239e-05,-0.0004581354442052543
-0.18933209776878357,0.527019202709198,9.858728408813477,-0.0,-0.00015271181473508477,0.00015271181473508477
-0.18933209776878357,0.5222335457801819,9.86829948425293,-0.000687203137204051,-0.00015271181473508477,0.00015271181473508477
-0.1989033818244934,0.5365904569625854,9.858728408813477,-7.635590736754239e-05,-0.00015271181473508477,0.00015271181473508477
-0.19651055335998535,0.5461617708206177,9.86829948425293,-7.635590736754239e-05,0.0004581354442052543,0.00015271181473508477
-0.1941177397966385,0.5246263742446899,9.851550102233887,0.0011453386396169662,-0.0007635590736754239,0.00015271181473508477
-0.18454644083976746,0.5365904569625854,9.86112117767334,0.0005344913806766272,-0.00022906772210262716,0.00015271181473508477
-0.18933209776878357,0.5246263742446899,9.873085021972656,0.0005344913806766272,0.00038177953683771193,0.00015271181473508477
-0.20129621028900146,0.5341976284980774,9.844371795654297,-7.635590736754239e-05,0.00038177953683771193,0.00015271181473508477
-0.1941177397966385,0.5365904569625854,9.86112117767334,-7.635590736754239e-05,-0.00022906772210262716,0.00015271181473508477
-0.19172491133213043,0.5318048596382141,9.870692253112793,-0.0007635590736754239,0.00038177953683771193,-0.0004581354442052543
-0.19651055335998535,0.5413761138916016,9.865906715393066,-0.00015271181473508477,-0.00022906772210262716,0.00015271181473508477
-0.19651055335998535,0.5413761138916016,9.849157333374023,-0.00015271181473508477,-0.00022906772210262716,0.00015271181473508477
-0.1821536272764206,0.5365904569625854,9.858728408813477,-0.00015271181473508477,-0.00022906772210262716,0.00015271181473508477
-0.19172491133213043,0.5437689423561096,9.858728408813477,-0.00015271181473508477,-0.00022906772210262716,0.00015271181473508477
-0.18933209776878357,0.5413761138916016,9.865906715393066,-0.00015271181473508477,-0.00022906772210262716,0.0007635590736754239
-0.17976079881191254,0.5437689423561096,9.86829948425293,0.0004581354442052543,-0.00022906772210262716,0.0007635590736754239
-0.19172491133213043,0.5246263742446899,9.885348320007324,-0.00015271181473508477,-0.00022906772210262716,0.00015271181473508477
-0.17736798524856567,0.5365904569625854,9.870692253112793,-0.00015271181473508477,0.00038177953683771193,0.00015271181473508477
-0.20847466588020325,0.5318048596382141,9.858728408813477,-0.00022906772210262716,0.00038177953683771193,7.635590736754239e-05
-0.1869392693042755,0.5413761138916016,9.86112117767334,0.00038177953683771193,-0.00022906772210262716,7.635590736754239e-05
-0.18933209776878357,0.5318048596382141,9.87547779083252,0.00038177953683771193,-0.00022906772210262716,7.635590736754239e-05
-0.19172491133213043,0.5365904569625854,9.856335639953613,-0.00022906772210262716,-0.00022906772210262716,-0.0005344913806766272
-0.18454644083976746,0.5389832854270935,9.873085021972656,0.0004581354442052543,0.00038177953683771193,7.635590736754239e-05
-0.1821536272764206,0.5461617708206177,9.858728408813477,0.0004581354442052543,-0.00022906772210262716,-0.0005344913806766272
-0.18454644083976746,0.5437689423561096,9.86112117767334,-0.00022906772210262716,-0.00022906772210262716,-0.0005344913806766272
-0.19651055335998535,0.5437689423561096,9.880263328552246,-0.00022906772210262716,-0.00022906772210262716,-0.0005344913806766272
-0.18933209776878357,0.5365904569625854,9.86829948425293,0.0004581354442052543,-0.00015271181473508477,7.635590736754239e-05
-0.13668999075889587,0.4456632137298584,10.13898754119873,-0.027564482763409615,-0.031916771084070206,0.000687203137204051
-0.1295115202665329,0.4911268353462219,9.947562217712402,-0.013209572061896324,-0.009315420873463154,7.635590736754239e-05
-0.1941177397966385,0.5509474277496338,9.964311599731445,0.006032116711139679,0.017561858519911766,7.635590736754239e-05
-0.18933209776878357,0.5222335457801819,9.942776679992676,-0.0038941511884331703,0.0011453386396169662,-0.0005344913806766272
-0.18454644083976746,0.5126622319221497,9.825228691101074,-0.001374406274408102,-7.635590736754239e-05,-0.0005344913806766272
-0.11276176571846008,0.4863412082195282,9.815657615661621,-0.0007635590736754239,-7.635590736754239e-05,0.000687203137204051
-0.26590242981910706,0.6107679605484009,9.940383911132812,-0.00015271181473508477,0.0017561858985573053,-0.0005344913806766272
-0.1701895147562027,0.529412031173706,9.930811882019043,-0.0007635590736754239,0.0005344913806766272,7.635590736754239e-05
-0.21804596483707428,0.5365904569625854,9.897313117980957,-0.00015271181473508477,0.0005344913806766272,-0.0005344913806766272
-0.19651055335998535,0.5318048596382141,9.841979026794434,-0.00015271181473508477,0.0005344913806766272,-0.0005344913806766272
-0.18454644083976746,0.5365904569625854,9.844371795654297,0.0004581354442052543,-7.635590736754239e-05,7.635590736754239e-05
-0.18454644083976746,0.529412031173706,9.89970588684082,-0.00015271181473508477,0.0005344913806766272,7.635590736754239e-05
-0.1941177397966385,0.5341976284980774,9.882657051086426,-0.00015271181473508477,-7.635590736754239e-05,7.635590736754239e-05
-0.19651055335998535,0.5222335457801819,9.84676456451416,-0.00015271181473508477,0.0005344913806766272,-0.0005344913806766272
-0.17976079881191254,0.5341976284980774,9.880263328552246,-0.00015271181473508477,-0.000687203137204051,-0.0005344913806766272
-0.19172491133213043,0.5365904569625854,9.877870559692383,-0.0007635590736754239,0.0005344913806766272,7.635590736754239e-05
-0.21326032280921936,0.5246263742446899,9.87547779083252,-0.00015271181473508477,-7.635590736754239e-05,7.635590736754239e-05
-0.1821536272764206,0.5461617708206177,9.873085021972656,-0.00015271181473508477,0.0005344913806766272,-0.0005344913806766272
-0.19651055335998535,0.5437689423561096,9.856335639953613,-0.00015271181473508477,0.0005344913806766272,-0.0005344913806766272
-0.17258232831954956,0.527019202709198,9.863513946533203,-0.00015271181473508477,0.0005344913806766272,7.635590736754239e-05
-0.1821536272764206,0.5198407173156738,9.995418548583984,-0.001374406274408102,-0.00129805039614439,-0.0005344913806766272
-0.18454644083976746,0.5318048596382141,9.84676456451416,0.0004581354442052543,0.0005344913806766272,-0.0005344913806766272
-0.19172491133213043,0.5365904569625854,9.902098655700684,-0.00015271181473508477,0.0005344913806766272,-0.0005344913806766272
-0.20129621028900146,0.5413761138916016,9.786943435668945,-0.001374406274408102,-0.00129805039614439,7.635590736754239e-05
-0.20608185231685638,0.5318048596382141,9.89970588684082,-0.00015271181473508477,0.0005344913806766272,0.000687203137204051
-0.21565313637256622,0.5174478888511658,9.954740524291992,-0.00015271181473508477,-7.635590736754239e-05,-0.0011453386396169662
-0.134297177195549,0.5126622319221497,9.849157333374023,-0.00015271181473508477,-7.635590736754239e-05,0.000687203137204051
-0.19651055335998535,0.5341976284980774,9.834799766540527,-0.00015271181473508477,-0.000687203137204051,7.635590736754239e-05
-0.1869392693042755,0.5437689423561096,9.834799766540527,0.0004581354442052543,0.0005344913806766272,7.635590736754239e-05
-0.20368902385234833,0.5485545992851257,9.9140625,-0.0007635590736754239,0.0005344913806766272,7.635590736754239e-05
-0.20129621028900146,0.5461617708206177,9.882657051086426,-0.00015271181473508477,-7.635590736754239e-05,-0.0005344913806766272
-0.20608185231685638,0.5509474277496338,9.894919395446777,-0.00015271181473508477,0.0005344913806766272,-0.0005344913806766272
-0.19651055335998535,0.5150550603866577,9.882657051086426,-0.0007635590736754239,-7.635590736754239e-05,7.635590736754239e-05
-0.1941177397966385,0.529412031173706,9.784550666809082,0.008551862090826035,0.005421269219368696,-0.0005344913806766272
-0.17976079881191254,0.5485545992851257,9.926026344299316,0.0023670331574976444,0.0017561858985573053,-0.0005344913806766272
-0.19651055335998535,0.5246263742446899,9.894919395446777,-0.00015271181473508477,0.0017561858985573053,7.635590736754239e-05
-0.19651055335998535,0.5533402562141418,9.820443153381348,-0.0038941511884331703,-0.0019088976550847292,7.635590736754239e-05
-0.1869392693042755,0.5437689423561096,9.885348320007324,-0.00015271181473508477,-0.0019088976550847292,7.635590736754239e-05
-0.246759831905365,0.5988038778305054,9.916455268859863,-0.00015271181473508477,0.0005344913806766272,-0.0005344913806766272
-0.21326032280921936,0.529412031173706,9.791728973388672,0.0004581354442052543,-7.635590736754239e-05,0.000687203137204051
-0.20847466588020325,0.5509474277496338,9.865906715393066,0.0004581354442052543,0.0005344913806766272,7.635590736754239e-05
-0.17736798524856567,0.5318048596382141,9.870692253112793,-0.00015271181473508477,-0.000687203137204051,7.635590736754239e-05
-0.1941177397966385,0.5365904569625854,9.856335639953613,0.0004581354442052543,0.0005344913806766272,7.635590736754239e-05
-0.19172491133213043,0.529412031173706,9.89013385772705,-0.00015271181473508477,0.0011453386396169662,7.635590736754239e-05
-0.1941177397966385,0.5318048596382141,9.877870559692383,-0.00015271181473508477,0.0005344913806766272,7.635590736754239e-05
-0.18454644083976746,0.529412031173706,9.849157333374023,0.0004581354442052543,-7.635590736754239e-05,0.000687203137204051
-0.19172491133213043,0.5389832854270935,9.90688419342041,-0.00015271181473508477,0.0005344913806766272,7.635590736754239e-05
-0.18454644083976746,0.5413761138916016,9.885348320007324,0.0004581354442052543,-7.635590736754239e-05,7.635590736754239e-05
-0.17976079881191254,0.5389832854270935,9.86112117767334,0.0010689827613532543,0.0005344913806766272,7.635590736754239e-05
-0.1941177397966385,0.5365904569625854,9.90688419342041,-0.0007635590736754239,0.0005344913806766272,7.635590736754239e-05
-0.1941177397966385,0.5341976284980774,9.877870559692383,-0.00015271181473508477,0.0005344913806766272,7.635590736754239e-05
-0.19172491133213043,0.5389832854270935,9.873085021972656,-0.00015271181473508477,0.0005344913806766272,-0.0005344913806766272
-0.17976079881191254,0.5222335457801819,9.882657051086426,0.0004581354442052543,-7.635590736754239e-05,7.635590736754239e-05
-0.19651055335998535,0.5389832854270935,9.882657051086426,-0.00015271181473508477,-0.000687203137204051,7.635590736754239e-05
-0.1869392693042755,0.5389832854270935,9.877870559692383,0.0010689827613532543,-7.635590736754239e-05,-0.0005344913806766272
-0.1941177397966385,0.527019202709198,9.882657051086426,-0.00015271181473508477,0.0005344913806766272,7.635590736754239e-05
-0.1869392693042755,0.5318048596382141,9.887741088867188,0.0004581354442052543,0.0005344913806766272,7.635590736754239e-05
-0.20129621028900146,0.527019202709198,9.885348320007324,-0.00015271181473508477,-7.635590736754239e-05,7.635590736754239e-05
-0.1869392693042755,0.5318048596382141,9.865906715393066,-0.0007635590736754239,-7.635590736754239e-05,7.635590736754239e-05
-0.18454644083976746,0.5341976284980774,9.882657051086426,-0.00015271181473508477,0.0005344913806766272,7.635590736754239e-05
-0.19651055335998535,0.5318048596382141,9.882657051086426,0.0004581354442052543,-0.000687203137204051,7.635590736754239e-05
-0.19651055335998535,0.5389832854270935,9.877870559692383,0.0004581354442052543,-7.635590736754239e-05,-0.0005344913806766272
-0.18933209776878357,0.5413761138916016,9.87547779083252,-0.00015271181473508477,-0.000687203137204051,-0.0005344913806766272
-0.18454644083976746,0.5365904569625854,9.877870559692383,-0.00015271181473508477,0.0005344913806766272,7.635590736754239e-05
-0.1989033818244934,0.5389832854270935,9.873085021972656,-0.00015271181473508477,-7.635590736754239e-05,-0.0005344913806766272
-0.20368902385234833,0.5389832854270935,9.89013385772705,0.0004581354442052543,0.0005344913806766272,7.635590736754239e-05
-0.18454644083976746,0.5389832854270935,9.885348320007324,0.0004581354442052543,0.0005344913806766272,7.635590736754239e-05
-0.1869392693042755,0.5365904569625854,9.894919395446777,-0.00015271181473508477,-0.000687203137204051,-0.0005344913806766272
-0.1941177397966385,0.5341976284980774,9.887741088867188,0.0004581354442052543,0.0005344913806766272,7.635590736754239e-05
-0.1869392693042755,0.5246263742446899,9.86829948425293,-0.00015271181473508477,0.0004581354442052543,0.00015271181473508477
-0.18454644083976746,0.5413761138916016,9.877870559692383,0.0004581354442052543,-0.00015271181473508477,0.00015271181473508477
-0.18933209776878357,0.5318048596382141,9.880263328552246,-0.00022906772210262716,0.0004581354442052543,0.00015271181473508477
-0.1941177397966385,0.527019202709198,9.880263328552246,-0.00022906772210262716,-0.00015271181473508477,0.00015271181473508477
-0.1869392693042755,0.5389832854270935,9.882657051086426,0.00038177953683771193,0.0004581354442052543,0.00015271181473508477
-0.1869392693042755,0.5437689423561096,9.87547779083252,-0.00022906772210262716,-0.0007635590736754239,0.00015271181473508477
-0.1821536272764206,0.5437689423561096,9.892526626586914,-0.0008399150101467967,0.0004581354442052543,0.00015271181473508477
-0.1941177397966385,0.5365904569625854,9.880263328552246,-0.00022906772210262716,0.0004581354442052543,-0.0004581354442052543
-0.1869392693042755,0.529412031173706,9.877870559692383,-0.00022906772210262716,0.0004581354442052543,0.00015271181473508477
-0.18933209776878357,0.5461617708206177,9.882657051086426,-0.00022906772210262716,-0.00015271181473508477,0.00015271181473508477
-0.17976079881191254,0.5246263742446899,9.880263328552246,0.0004581354442052543,-0.00015271181473508477,0.00015271181473508477
-0.2228316068649292,0.5724828243255615,9.803693771362305,-0.009468132629990578,-0.016034740954637527,0.0007635590736754239
-0.19651055335998535,0.5772684812545776,9.870692253112793,0.004810422193259001,0.0016798300202935934,-0.0005344913806766272
-0.18454644083976746,0.527019202709198,9.90688419342041,0.013514995574951172,0.01695101149380207,-0.0005344913806766272
-0.19172491133213043,0.5389832854270935,9.798908233642578,0.004199574701488018,0.007177455350756645,7.635590736754239e-05
-0.18933209776878357,0.5365904569625854,9.865906715393066,0.0011453386396169662,-7.635590736754239e-05,-0.0005344913806766272
-0.1989033818244934,0.5246263742446899,9.885348320007324,0.0012216945178806782,0.0017561858985573053,-0.0011453386396169662
-0.20368902385234833,0.5365904569625854,9.930811882019043,0.0,0.0012216945178806782,-0.0005344913806766272
-0.20368902385234833,0.5365904569625854,9.820443153381348,0.0006108472589403391,0.0006108472589403391,7.635590736754239e-05
-0.19172491133213043,0.5485545992851257,9.9140625,-0.0006108472589403391,0.0006108472589403391,0.000687203137204051
-0.20129621028900146,0.5389832854270935,9.84676456451416,7.635590736754239e-05,-0.0,-0.0005344913806766272
-0.1821536272764206,0.5437689423561096,9.75344467163086,-0.0005344913806766272,-0.0,-0.0005344913806766272
-0.18454644083976746,0.5748756527900696,9.834799766540527,0.000687203137204051,-0.0012216945178806782,7.635590736754239e-05
-0.1869392693042755,0.5389832854270935,9.85394287109375,0.000687203137204051,-0.0006108472589403391,7.635590736754239e-05
-0.17976079881191254,0.5318048596382141,9.873085021972656,0.0007635590736754239,0.0012216945178806782,7.635590736754239e-05
-0.19651055335998535,0.5198407173156738,9.818050384521484,0.0007635590736754239,-7.635590736754239e-05,7.635590736754239e-05
-0.12472587823867798,0.527019202709198,9.882657051086426,0.00015271181473508477,0.0005344913806766272,7.635590736754239e-05
-0.1701895147562027,0.529412031173706,9.84676456451416,0.0007635590736754239,-0.00015271181473508477,7.635590736754239e-05
-0.17976079881191254,0.5222335457801819,9.865906715393066,0.00015271181473508477,-0.0007635590736754239,0.00015271181473508477
-0.1989033818244934,0.5389832854270935,9.902098655700684,7.635590736754239e-05,-0.00022906772210262716,-0.0004581354442052543
-0.17736798524856567,0.5389832854270935,9.873085021972656,7.635590736754239e-05,0.00038177953683771193,0.00015271181473508477
-0.1989033818244934,0.5389832854270935,9.885348320007324,0.00129805039614439,0.0009162708884105086,0.00015271181473508477
-0.20129621028900146,0.5389832854270935,9.892526626586914,-0.0005344913806766272,0.00030542362947016954,0.00015271181473508477
-0.17736798524856567,0.5365904569625854,9.89970588684082,7.635590736754239e-05,0.00030542362947016954,0.00015271181473508477
-0.17736798524856567,0.5461617708206177,9.856335639953613,0.0,-0.00038177953683771193,-0.0004581354442052543
-0.1821536272764206,0.527019202709198,9.877870559692383,0.0006108472589403391,0.00022906772210262716,-0.0004581354442052543
-0.18933209776878357,0.529412031173706,9.87547779083252,0.0006108472589403391,0.00022906772210262716,-0.0004581354442052543
-0.1821536272764206,0.5389832854270935,9.887741088867188,-0.000687203137204051,-0.0004581354442052543,0.00022906772210262716
-0.17497515678405762,0.5341976284980774,9.885348320007324,-0.000687203137204051,0.00015271181473508477,0.00022906772210262716
-0.1941177397966385,0.5365904569625854,9.89013385772705,-0.00015271181473508477,-0.0004581354442052543,0.00022906772210262716
-0.1869392693042755,0.5365904569625854,9.89970588684082,-0.00015271181473508477,0.00015271181473508477,-0.00038177953683771193
-0.18933209776878357,0.529412031173706,9.877870559692383,-0.00015271181473508477,-0.0005344913806766272,0.00022906772210262716
-0.1869392693042755,0.5389832854270935,9.880263328552246,-0.00015271181473508477,-0.0005344913806766272,0.00022906772210262716
-0.1941177397966385,0.527019202709198,9.877870559692383,-0.00022906772210262716,7.635590736754239e-05,0.00022906772210262716
-0.19172491133213043,0.5341976284980774,9.882657051086426,-0.00022906772210262716,-0.0005344913806766272,0.00022906772210262716
-0.1941177397966385,0.5365904569625854,9.882657051086426,-0.00022906772210262716,7.635590736754239e-05,0.00022906772210262716
-0.20368902385234833,0.5318048596382141,9.877870559692383,-0.0008399150101467967,7.635590736754239e-05,0.00022906772210262716
-0.1941177397966385,0.5413761138916016,9.887741088867188,-0.00022906772210262716,7.635590736754239e-05,0.0008399150101467967
-0.18933209776878357,0.529412031173706,9.887741088867188,0.00038177953683771193,0.00015271181473508477,0.00030542362947016954
-0.19651055335998535,0.529412031173706,9.870692253112793,0.00038177953683771193,-0.0004581354442052543,0.00022906772210262716
-0.17976079881191254,0.5365904569625854,9.86829948425293,0.00038177953683771193,0.00015271181473508477,0.00022906772210262716
-0.18454644083976746,0.5389832854270935,9.887741088867188,-0.00022906772210262716,0.00015271181473508477,0.00022906772210262716
-0.18933209776878357,0.529412031173706,9.877870559692383,-0.0008399150101467967,0.00015271181473508477,-0.00038177953683771193
-0.1941177397966385,0.5485545992851257,9.882657051086426,0.0004581354442052543,0.00015271181473508477,0.00022906772210262716
-0.1869392693042755,0.5389832854270935,9.882657051086426,-0.00015271181473508477,-0.0004581354442052543,0.00022906772210262716
-0.1869392693042755,0.5389832854270935,9.892526626586914,-0.00015271181473508477,0.00022906772210262716,0.00022906772210262716
-0.19172491133213043,0.5341976284980774,9.877870559692383,0.0004581354442052543,0.00022906772210262716,0.00015271181473508477
-0.20129621028900146,0.5341976284980774,9.880263328552246,0.0004581354442052543,-0.0009926267666742206,0.0007635590736754239
-0.19172491133213043,0.5341976284980774,9.86829948425293,-0.00015271181473508477,-0.00038177953683771193,-0.0010689827613532543
-0.17976079881191254,0.5509474277496338,9.887741088867188,-0.00015271181473508477,0.00022906772210262716,-0.0004581354442052543
-0.18933209776878357,0.5246263742446899,9.885348320007324,-0.00015271181473508477,0.00022906772210262716,0.00015271181473508477
-0.20368902385234833,0.5318048596382141,9.877870559692383,0.0004581354442052543,-0.00038177953683771193,-0.0005344913806766272
-0.19172491133213043,0.5437689423561096,9.880263328552246,0.0004581354442052543,-0.00038177953683771193,7.635590736754239e-05
-0.1821536272764206,0.529412031173706,9.887741088867188,0.0004581354442052543,-0.00038177953683771193,-0.0005344913806766272
-0.19651055335998535,0.5413761138916016,9.885348320007324,0.0004581354442052543,-0.00030542362947016954,-0.0005344913806766272
-0.1989033818244934,0.5581258535385132,9.887741088867188,0.0004581354442052543,-0.0009162708884105086,-0.0005344913806766272
-0.18933209776878357,0.5437689423561096,9.882657051086426,-0.00015271181473508477,-0.00030542362947016954,7.635590736754239e-05
-0.1869392693042755,0.5246263742446899,9.873085021972656,-0.00015271181473508477,-0.00030542362947016954,-0.0005344913806766272
-0.1989033818244934,0.5389832854270935,9.897313117980957,-0.00022906772210262716,0.00038177953683771193,7.635590736754239e-05
-0.1869392693042755,0.5413761138916016,9.894919395446777,-0.00022906772210262716,-0.00022906772210262716,7.635590736754239e-05
-0.18454644083976746,0.5437689423561096,9.86829948425293,-0.00022906772210262716,0.00038177953683771193,0.00015271181473508477
-0.19172491133213043,0.5389832854270935,9.89013385772705,0.00038177953683771193,-0.00022906772210262716,0.00015271181473508477
-0.18454644083976746,0.5341976284980774,9.880263328552246,-0.00022906772210262716,-0.00022906772210262716,-0.0004581354442052543
-0.1821536272764206,0.5318048596382141,9.882657051086426,-0.0008399150101467967,0.0004581354442052543,0.00015271181473508477
-0.1821536272764206,0.5413761138916016,9.873085021972656,0.00038177953683771193,0.0004581354442052543,0.00015271181473508477
-0.19172491133213043,0.5341976284980774,9.87547779083252,-0.00022906772210262716,0.0004581354442052543,-0.0004581354442052543
-0.19651055335998535,0.5389832854270935,9.873085021972656,-0.00022906772210262716,-0.00015271181473508477,0.00015271181473508477
-0.18933209776878357,0.529412031173706,9.894919395446777,-0.0008399150101467967,-0.001985253533348441,-0.0004581354442052543
-0.18454644083976746,0.5222335457801819,9.887741088867188,-0.0008399150101467967,-0.0007635590736754239,0.00015271181473508477
-0.17976079881191254,0.5365904569625854,9.911669731140137,0.00038177953683771193,0.0010689827613532543,0.00015271181473508477
-0.1941177397966385,0.5413761138916016,9.863513946533203,-0.0008399150101467967,0.0004581354442052543,-0.0004581354442052543
-0.18933209776878357,0.5413761138916016,9.877870559692383,0.00038177953683771193,0.0005344913806766272,0.0007635590736754239
-0.246759831905365,0.5868397355079651,9.85394287109375,-0.0008399150101467967,0.0005344913806766272,0.0007635590736754239
-0.13190434873104095,0.5030909776687622,9.86112117767334,-0.00015271181473508477,0.0005344913806766272,0.0007635590736754239
-0.20608185231685638,0.5413761138916016,9.851550102233887,-0.00015271181473508477,0.0005344913806766272,-0.0004581354442052543
-0.1821536272764206,0.5318048596382141,9.880263328552246,-0.00015271181473508477,-7.635590736754239e-05,0.00015271181473508477
-0.1989033818244934,0.5413761138916016,9.880263328552246,-0.00015271181473508477,0.0004581354442052543,-0.0004581354442052543
-0.1869392693042755,0.5437689423561096,9.877870559692383,0.0005344913806766272,-0.00015271181473508477,0.00015271181473508477
-0.19651055335998535,0.527019202709198,9.892526626586914,-7.635590736754239e-05,0.0004581354442052543,0.0007635590736754239
-0.1869392693042755,0.5437689423561096,9.873085021972656,-7.635590736754239e-05,-0.0007635590736754239,-0.0004581354442052543
-0.1869392693042755,0.5341976284980774,9.877870559692383,-0.000687203137204051,-0.00015271181473508477,-0.0004581354442052543
-0.1941177397966385,0.527019202709198,9.897313117980957,-7.635590736754239e-05,0.00038177953683771193,0.00015271181473508477
-0.18933209776878357,0.5341976284980774,9.89013385772705,0.0005344913806766272,-0.00022906772210262716,-0.0004581354442052543
-0.17976079881191254,0.5413761138916016,9.87547779083252,-7.635590736754239e-05,0.00038177953683771193,0.00015271181473508477
-0.17976079881191254,0.5461617708206177,9.882657051086426,0.0006108472589403391,-0.00022906772210262716,0.00015271181473508477
-0.19651055335998535,0.5341976284980774,9.887741088867188,-7.635590736754239e-05,-0.00022906772210262716,0.00015271181473508477
-0.18933209776878357,0.5413761138916016,9.887741088867188,-0.000687203137204051,-0.0009162708884105086,0.00015271181473508477
-0.1869392693042755,0.529412031173706,9.882657051086426,0.0006108472589403391,-0.00030542362947016954,0.00015271181473508477
-0.19651055335998535,0.5389832854270935,9.877870559692383,-7.635590736754239e-05,-0.00030542362947016954,0.00015271181473508477
-0.17976079881191254,0.529412031173706,9.87547779083252,0.0006108472589403391,0.00030542362947016954,-0.00038177953683771193
-0.20608185231685638,0.5341976284980774,9.880263328552246,-7.635590736754239e-05,0.00030542362947016954,0.00022906772210262716
-0.1869392693042755,0.5389832854270935,9.887741088867188,0.0005344913806766272,0.00030542362947016954,0.0014507622690871358
-0.1941177397966385,0.5341976284980774,9.887741088867188,-7.635590736754239e-05,0.00030542362947016954,0.00022906772210262716
-0.18454644083976746,0.529412031173706,9.877870559692383,-7.635590736754239e-05,0.00030542362947016954,0.0008399150101467967
-0.18454644083976746,0.5318048596382141,9.86829948425293,0.0005344913806766272,-0.00030542362947016954,-0.0004581354442052543
-0.1941177397966385,0.5222335457801819,9.882657051086426,-7.635590736754239e-05,0.00030542362947016954,0.00015271181473508477
-0.17736798524856567,0.5341976284980774,9.885348320007324,0.0005344913806766272,-0.00030542362947016954,-0.0004581354442052543
-0.1869392693042755,0.527019202709198,9.877870559692383,-7.635590736754239e-05,0.00030542362947016954,0.0007635590736754239
-0.1941177397966385,0.5413761138916016,9.89013385772705,-7.635590736754239e-05,-0.00030542362947016954,-0.0004581354442052543
-0.18454644083976746,0.5437689423561096,9.885348320007324,-7.635590736754239e-05,0.00030542362947016954,-0.0004581354442052543
-0.17497515678405762,0.5413761138916016,9.870692253112793,0.0005344913806766272,0.00030542362947016954,7.635590736754239e-05
-0.20129621028900146,0.5413761138916016,9.880263328552246,0.0005344913806766272,-0.00030542362947016954,0.000687203137204051
-0.1869392693042755,0.5413761138916016,9.892526626586914,-0.00015271181473508477,-0.00030542362947016954,-0.0005344913806766272
-0.18933209776878357,0.5413761138916016,9.870692253112793,0.0004581354442052543,-0.00030542362947016954,7.635590736754239e-05
-0.1821536272764206,0.5389832854270935,9.887741088867188,-0.00015271181473508477,0.00030542362947016954,7.635590736754239e-05
-0.24436701834201813,0.5222335457801819,9.755837440490723,-0.00015271181473508477,-0.003359660040587187,7.635590736754239e-05
-0.18933209776878357,0.5653043389320374,9.85394287109375,0.004199574701488018,0.00030542362947016954,-0.0005344913806766272
-0.17976079881191254,0.5653043389320374,9.856335639953613,0.004199574701488018,0.0064902519807219505,7.635590736754239e-05
-0.20608185231685638,0.5509474277496338,9.810872077941895,0.0017561858985573053,0.007101099472492933,7.635590736754239e-05
-0.19172491133213043,0.5365904569625854,9.981060981750488,-0.001374406274408102,-0.00022906772210262716,7.635590736754239e-05
-0.08883354067802429,0.4695914387702942,9.952347755432129,-0.00015271181473508477,0.00038177953683771193,-0.0005344913806766272
-0.21326032280921936,0.5461617708206177,9.844371795654297,0.0011453386396169662,0.0004581354442052543,-0.0005344913806766272
-0.1989033818244934,0.5437689423561096,9.851550102233887,-0.00015271181473508477,0.0004581354442052543,0.000687203137204051
-0.18454644083976746,0.5461617708206177,9.873085021972656,-0.00015271181473508477,-0.00015271181473508477,0.000687203137204051
-0.1869392693042755,0.5341976284980774,9.916455268859863,-0.00015271181473508477,-0.0007635590736754239,7.635590736754239e-05
-0.18454644083976746,0.5389832854270935,9.86829948425293,-0.00015271181473508477,0.0010689827613532543,7.635590736754239e-05
-0.19651055335998535,0.5389832854270935,9.892526626586914,-0.00015271181473508477,-0.00015271181473508477,-0.0005344913806766272
-0.19172491133213043,0.5485545992851257,9.882657051086426,-0.00015271181473508477,0.0005344913806766272,7.635590736754239e-05
-0.1941177397966385,0.5318048596382141,9.892526626586914,0.0004581354442052543,-7.635590736754239e-05,7.635590736754239e-05
-0.1941177397966385,0.5413761138916016,9.86829948425293,-0.0007635590736754239,-0.0007635590736754239,-0.0005344913806766272
-0.1941177397966385,0.527019202709198,9.877870559692383,-0.0007635590736754239,0.0004581354442052543,-0.0005344913806766272
-0.19651055335998535,0.527019202709198,9.882657051086426,-0.00015271181473508477,-0.00015271181473508477,7.635590736754239e-05
-0.1941177397966385,0.5341976284980774,9.887741088867188,-0.00015271181473508477,0.0004581354442052543,-0.0005344913806766272
-0.19172491133213043,0.5341976284980774,9.882657051086426,0.0004581354442052543,0.00038177953683771193,-0.0005344913806766272
-0.1941177397966385,0.5318048596382141,9.86829948425293,0.0004581354442052543,0.00038177953683771193,7.635590736754239e-05
-0.17736798524856567,0.5365904569625854,9.877870559692383,-0.00015271181473508477,-0.00022906772210262716,7.635590736754239e-05
-0.18933209776878357,0.5389832854270935,9.882657051086426,-0.0007635590736754239,0.00038177953683771193,-0.0005344913806766272
-0.18454644083976746,0.5389832854270935,9.882657051086426,0.0004581354442052543,-0.00022906772210262716,-0.0005344913806766272
-0.19651055335998535,0.527019202709198,9.887741088867188,-0.00015271181473508477,-0.00022906772210262716,-0.0005344913806766272
-0.19172491133213043,0.5413761138916016,9.885348320007324,-0.00015271181473508477,-0.00022906772210262716,7.635590736754239e-05
-0.18933209776878357,0.5341976284980774,9.877870559692383,-0.00015271181473508477,-0.00022906772210262716,7.635590736754239e-05
-0.17736798524856567,0.5318048596382141,9.863513946533203,-0.00015271181473508477,0.00038177953683771193,7.635590736754239e-05
-0.18933209776878357,0.5413761138916016,9.89013385772705,0.0005344913806766272,0.0009162708884105086,7.635590736754239e-05
-0.17976079881191254,0.529412031173706,9.877870559692383,-7.635590736754239e-05,0.00030542362947016954,-0.0005344913806766272
-0.1941177397966385,0.5365904569625854,9.865906715393066,0.0005344913806766272,0.00030542362947016954,7.635590736754239e-05
-0.19172491133213043,0.5485545992851257,9.887741088867188,-7.635590736754239e-05,0.0009162708884105086,0.00015271181473508477
-0.20608185231685638,0.5533402562141418,9.841979026794434,-0.000687203137204051,-0.0021379655227065086,-0.0004581354442052543
-0.17258232831954956,0.5222335457801819,9.89013385772705,-0.00259610079228878,-0.0021379655227065086,0.00015271181473508477
-0.18933209776878357,0.5341976284980774,9.86112117767334,-7.635590736754239e-05,-0.00030542362947016954,0.00015271181473508477
-0.14386846125125885,0.47916272282600403,9.798908233642578,-0.001374406274408102,-0.0009162708884105086,0.001374406274408102
-0.21565313637256622,0.5485545992851257,9.897313117980957,-7.635590736754239e-05,-0.0016034740256145597,-0.0004581354442052543
-0.17736798524856567,0.5222335457801819,9.849157333374023,-7.635590736754239e-05,-0.00038177953683771193,0.00015271181473508477
-0.18933209776878357,0.5413761138916016,9.87547779083252,-0.00015271181473508477,-0.00038177953683771193,0.00022906772210262716
-0.1821536272764206,0.5461617708206177,9.880263328552246,-0.0007635590736754239,-0.00038177953683771193,0.0008399150101467967
-0.17976079881191254,0.527019202709198,9.870692253112793,-0.0007635590736754239,0.00022906772210262716,0.00022906772210262716
-0.18933209776878357,0.5341976284980774,9.870692253112793,-0.00015271181473508477,0.00022906772210262716,0.0008399150101467967
-0.1869392693042755,0.5365904569625854,9.887741088867188,-0.00015271181473508477,0.0009162708884105086,0.00022906772210262716
-0.1869392693042755,0.5318048596382141,9.877870559692383,-7.635590736754239e-05,-0.00030542362947016954,-0.00038177953683771193
-0.1989033818244934,0.5485545992851257,9.882657051086426,-7.635590736754239e-05,0.00030542362947016954,0.00022906772210262716
-0.19651055335998535,0.5413761138916016,9.90688419342041,-7.635590736754239e-05,-0.00030542362947016954,0.00022906772210262716
-0.1989033818244934,0.5485545992851257,9.85394287109375,-7.635590736754239e-05,-0.0009162708884105086,0.00022906772210262716
-0.1869392693042755,0.5246263742446899,9.885348320007324,-7.635590736754239e-05,0.00030542362947016954,-0.00038177953683771193
-0.19651055335998535,0.5365904569625854,9.877870559692383,-7.635590736754239e-05,0.00030542362947016954,0.00022906772210262716
-0.20368902385234833,0.5318048596382141,9.856335639953613,0.0005344913806766272,-0.00030542362947016954,-0.0004581354442052543
-0.20368902385234833,0.5246263742446899,9.870692253112793,-7.635590736754239e-05,-0.00030542362947016954,0.00015271181473508477
-0.19172491133213043,0.529412031173706,9.89013385772705,-7.635590736754239e-05,-0.00030542362947016954,0.00015271181473508477
-0.1869392693042755,0.529412031173706,9.877870559692383,-7.635590736754239e-05,-0.00022906772210262716,0.00015271181473508477
-0.21326032280921936,0.5318048596382141,9.774979591369629,0.0005344913806766272,-0.002672456670552492,0.00015271181473508477
-0.18454644083976746,0.5437689423561096,9.904491424560547,0.0018325417768210173,0.0022143214009702206,0.00015271181473508477
-0.18933209776878357,0.5318048596382141,9.84676456451416,-7.635590736754239e-05,0.0034360159188508987,0.00015271181473508477
-0.16779668629169464,0.5413761138916016,9.86112117767334,-0.000687203137204051,0.00038177953683771193,-0.0004581354442052543
-0.1821536272764206,0.5198407173156738,9.911669731140137,0.0005344913806766272,0.00038177953683771193,0.0007635590736754239
-0.2754737138748169,0.5964110493659973,9.952347755432129,0.0005344913806766272,0.00038177953683771193,-0.0010689827613532543
-0.2108674943447113,0.5509474277496338,9.870692253112793,-7.635590736754239e-05,-0.00022906772210262716,0.0007635590736754239
-0.17736798524856567,0.5318048596382141,9.863513946533203,-7.635590736754239e-05,-0.00015271181473508477,0.00015271181473508477
-0.19651055335998535,0.529412031173706,9.86112117767334,-7.635590736754239e-05,0.0004581354442052543,0.00015271181473508477
-0.20129621028900146,0.5341976284980774,9.873085021972656,-0.00015271181473508477,-0.00015271181473508477,0.00015271181473508477
-0.17976079881191254,0.529412031173706,9.87547779083252,0.0005344913806766272,-0.00015271181473508477,0.00015271181473508477
-0.1989033818244934,0.5413761138916016,9.87547779083252,0.0004581354442052543,-0.00015271181473508477,0.00015271181473508477
-0.1869392693042755,0.529412031173706,9.877870559692383,-0.00015271181473508477,0.0004581354442052543,0.00015271181473508477
-0.17497515678405762,0.5341976284980774,9.827621459960938,0.0004581354442052543,0.00038177953683771193,0.00015271181473508477
-0.18454644083976746,0.5222335457801819,9.949954986572266,-0.001374406274408102,-0.002061609411612153,0.00015271181473508477
-0.1869392693042755,0.527019202709198,9.880263328552246,0.0004581354442052543,0.0009926267666742206,0.00015271181473508477
-0.18933209776878357,0.529412031173706,9.858728408813477,-0.00015271181473508477,-0.00030542362947016954,0.00015271181473508477
-0.1462612897157669,0.48394837975502014,9.767801284790039,-0.001374406274408102,-0.0015271181473508477,0.0007635590736754239
-0.1869392693042755,0.5341976284980774,9.894919395446777,0.0004581354442052543,-0.00030542362947016954,-0.0004581354442052543
-0.20608185231685638,0.527019202709198,9.885348320007324,-0.00015271181473508477,-0.00030542362947016954,0.0007635590736754239
-0.18933209776878357,0.5485545992851257,9.863513946533203,-0.00015271181473508477,0.00030542362947016954,0.0007635590736754239
-0.1989033818244934,0.5533402562141418,9.856335639953613,-0.00015271181473508477,-0.00030542362947016954,-0.0004581354442052543
-0.19172491133213043,0.5341976284980774,9.851550102233887,0.0004581354442052543,0.00030542362947016954,0.0007635590736754239
-0.19172491133213043,0.5389832854270935,9.877870559692383,0.0004581354442052543,0.00030542362947016954,7.635590736754239e-05
-0.18454644083976746,0.5365904569625854,9.856335639953613,0.0004581354442052543,0.00030542362947016954,-0.0005344913806766272
-0.1821536272764206,0.5365904569625854,9.863513946533203,-0.00015271181473508477,-0.00030542362947016954,-0.0005344913806766272
-0.18454644083976746,0.5318048596382141,9.892526626586914,-0.00015271181473508477,-0.0009162708884105086,-0.0005344913806766272
-0.19172491133213043,0.5509474277496338,9.863513946533203,0.0004581354442052543,0.0009162708884105086,7.635590736754239e-05
-0.18454644083976746,0.5389832854270935,9.86112117767334,-0.00015271181473508477,0.00030542362947016954,7.635590736754239e-05
-0.19172491133213043,0.529412031173706,9.863513946533203,-0.00015271181473508477,-0.00030542362947016954,7.635590736754239e-05
-0.1821536272764206,0.5509474277496338,9.858728408813477,-0.00015271181473508477,0.00038177953683771193,7.635590736754239e-05
-0.13190434873104095,0.48394837975502014,10.129416465759277,-0.021303297951817513,-0.016721943393349648,0.00129805039614439
-0.1821536272764206,0.49591249227523804,9.882657051086426,-0.00015271181473508477,-0.00022906772210262716,-0.0005344913806766272
