accX,accY,accZ,gyroX,gyroY,gyroZ
2.060392379760742,4.344862937927246,8.80107593536377,-0.4167148172855377,-0.05850343778729439,-0.10999064892530441
1.9810868501663208,4.27769136428833,8.762518882751465,-0.28295278549194336,0.8732231259346008,-0.25619688630104065
1.5490963459014893,4.145521640777588,8.982403755187988,-0.23397883772850037,0.8455421924591064,-0.408441960811615
1.3391822576522827,3.925628662109375,8.844927787780762,-0.2087937444448471,0.8164300918579102,-0.5076813697814941
1.0085526704788208,3.6877312660217285,9.025182723999023,-0.16194909811019897,0.7708595395088196,-0.5782973766326904
0.5212368369102478,3.819115400314331,9.091876029968262,-0.08564330637454987,0.7166321873664856,-0.5601110458374023
-0.031766265630722046,3.759547710418701,8.952351570129395,-0.04225442185997963,0.7733553647994995,-0.3245963454246521
-0.25287556648254395,3.851149797439575,8.983255386352539,-0.050597093999385834,0.6077236533164978,-0.3039141893386841
-0.7209611535072327,3.638899087905884,8.682543754577637,-0.06684610992670059,0.6274807453155518,-0.18193311989307404
-0.9723523259162903,3.4949023723602295,9.162120819091797,-0.06759659945964813,0.7198261618614197,0.04310963302850723
-0.8423184156417847,3.6534271240234375,9.499129295349121,0.04593706503510475,0.41252601146698,0.16057029366493225
-0.8192574977874756,3.6182610988616943,9.350554466247559,0.22767819464206696,0.04534365236759186,0.11690215021371841
-0.7124186158180237,3.644942045211792,9.347854614257812,0.41695916652679443,-0.2791130542755127,0.03003711625933647
-0.6442317962646484,3.8259150981903076,9.057379722595215,0.5512447953224182,-0.5735501050949097,-0.053564153611660004
-0.4807077944278717,3.9185898303985596,9.123488426208496,0.6590363383293152,-0.8149291276931763,-0.09183922410011292
-0.24367226660251617,3.9461421966552734,9.36652946472168,0.8413708806037903,-0.995570719242096,-0.11058405786752701
0.7294174432754517,5.189087390899658,8.090993881225586,0.46790531277656555,-0.453925222158432,-0.13377948105335236
0.9561962485313416,5.300475120544434,7.717737674713135,0.4518831968307495,-0.4052130877971649,-0.12246975302696228
1.14783775806427,5.393370151519775,7.17580509185791,0.29558897018432617,-0.12486085295677185,-0.09470156580209732
0.8666914105415344,5.540546417236328,7.7533440589904785,0.04487241432070732,0.16254250705242157,-0.02839650772511959
0.7545948624610901,5.6134161949157715,8.105924606323242,-0.12217304855585098,0.2293013632297516,0.03029891662299633
0.6722726821899414,5.543468475341797,8.153865814208984,-0.17502161860466003,0.22104595601558685,0.10292206704616547
0.7487817406654358,5.121982574462891,8.512843132019043,-0.2539977729320526,0.26284658908843994,0.12681561708450317
0.6423068046569824,5.078341007232666,8.590337753295898,-0.14037683606147766,0.22966787219047546,0.11386527866125107
0.571869432926178,5.059637546539307,8.679795265197754,-0.01970476657152176,0.1371130645275116,0.08862782269716263
0.5815802812576294,5.1300368309021,8.50489330291748,0.04916592314839363,0.08201301842927933,0.07194247096776962
0.6499778628349304,5.214475154876709,8.324064254760742,0.05935864895582199,0.1466251164674759,0.06368706375360489
0.5783050060272217,5.226034641265869,8.403993606567383,0.06674139201641083,0.21722367405891418,0.06489133834838867
0.4005882441997528,5.562458038330078,7.818897247314453,-0.1472185254096985,0.16397368907928467,0.07251843065023422
0.4340879023075104,5.459277629852295,8.202610969543457,-0.1990198940038681,0.1483180820941925,0.03693116828799248
0.48709553480148315,5.492164611816406,8.397212028503418,-0.15802210569381714,0.12775810062885284,0.019460421055555344
0.5095531344413757,5.392756938934326,8.546408653259277,-0.022619467228651047,0.07923794537782669,-0.01492256484925747
0.4217721223831177,5.375863552093506,8.372694969177246,0.0881216749548912,0.13519319891929626,-0.03232349827885628
0.36427298188209534,5.375662326812744,8.255752563476562,0.10927506536245346,0.16577136516571045,-0.029391344636678696
0.2259455919265747,5.333955764770508,7.775887966156006,0.0878598764538765,0.23485150933265686,0.004642575979232788
0.2208603024482727,5.434090614318848,8.258434295654297,-0.030351275578141212,0.07567747682332993,0.02165953628718853
0.40763676166534424,5.362341403961182,7.813362121582031,-0.18015287816524506,0.18940313160419464,0.009686577133834362
0.34442025423049927,5.310923099517822,7.962281227111816,-0.2246587872505188,0.27553513646125793,-0.007871435023844242
0.05690538510680199,5.323669910430908,8.510765075683594,-0.20992819964885712,0.2413441240787506,-0.020350538194179535
0.09096051007509232,5.319054126739502,8.571212768554688,-0.15999433398246765,0.19146262109279633,-0.010838494636118412
0.08594226092100143,5.279501914978027,8.236964225769043,-0.022933626547455788,0.21539108455181122,0.0057246801443398
-0.037196315824985504,5.3114118576049805,8.196127891540527,-0.07147122919559479,0.23780110478401184,0.009337511844933033
-0.0932493656873703,5.313068389892578,8.288238525390625,-0.09061749279499054,0.2053205370903015,0.029775317758321762
-0.10178229957818985,5.249890327453613,8.213414192199707,-0.09353219717741013,0.18270106613636017,0.035238198935985565
-0.18349161744117737,5.13857889175415,8.308626174926758,-0.10712830722332001,0.16685347259044647,-0.02802998758852482
-0.23974576592445374,5.146738529205322,8.368194580078125,-0.1088736355304718,0.1552470326423645,-0.03717551380395889
-0.3512198030948639,5.120057582855225,8.502845764160156,-0.09386380761861801,0.12079423666000366,-0.03494149073958397
-0.34508106112480164,5.088578701019287,8.473329544067383,-0.04162610322237015,0.048083819448947906,-0.02494075521826744
-0.3790978789329529,5.1200480461120605,8.6223726272583,-0.0385892279446125,-0.03529055789113045,-0.03892084211111069
-0.388827919960022,5.116255760192871,8.488297462463379,-0.02799508161842823,-0.05314527451992035,-0.012374384328722954
-0.30128633975982666,5.080601215362549,8.57658576965332,-0.026197392493486404,-0.054017938673496246,0.01532399095594883
-0.1588696390390396,5.122997760772705,8.578261375427246,-0.010751227848231792,-0.054681167006492615,0.026947883889079094
-0.12753432989120483,5.089162826538086,8.544255256652832,0.0026354470755904913,-0.023579398170113564,0.018762288615107536
-0.16290147602558136,5.066312313079834,8.555622100830078,0.015498523600399494,0.005567600484937429,0.009581857360899448
-0.19411228597164154,5.066752910614014,8.535262107849121,0.04281292483210564,0.02183406800031662,0.007103490177541971
-0.2533639967441559,5.063094615936279,8.437847137451172,0.059725165367126465,0.005951572675257921,0.00251327408477664
-0.25937822461128235,5.076751232147217,8.289559364318848,0.05668829381465912,0.0013089969288557768,-0.0077841682359576225
-0.2702670395374298,5.129979133605957,8.264419555664062,0.030665434896945953,-0.009494591504335403,-0.013962633907794952
-0.26157131791114807,5.136568069458008,8.277569770812988,-0.004660028964281082,-0.019896753132343292,-0.008255407214164734
-0.26820802688598633,5.093175411224365,8.335010528564453,-0.029042279347777367,-0.012409291230142117,-0.004886921960860491
-0.21105365455150604,5.0728535652160645,8.462995529174805,-0.02312561310827732,-0.009110618382692337,-0.007365289609879255
-0.25933992862701416,5.050577640533447,8.57990837097168,-0.01129228062927723,-0.011152653954923153,-0.012164944782853127
-0.293940931558609,5.010680675506592,9.048635482788086,-0.017348572611808777,0.0033335788175463676,0.023457225412130356
-0.16596604883670807,4.990933418273926,8.915193557739258,0.09051277488470078,0.022602014243602753,0.012479104101657867
-0.12601162493228912,5.072020530700684,8.622190475463867,0.14323917031288147,0.012723450548946857,-0.015865042805671692
-0.2334250807762146,5.150425434112549,7.989709377288818,0.04000294581055641,0.013247049413621426,-0.006475171539932489
-0.2780434191226959,5.110873222351074,8.372638702392578,-0.045553091913461685,0.015376350842416286,0.005427973810583353
-0.20826680958271027,5.114263534545898,8.562057495117188,0.014398965984582901,0.024748768657445908,-0.0005934119690209627
-0.23171083629131317,5.100195407867432,8.532685279846191,0.03991568088531494,0.03619812801480293,0.006894050631672144
-0.22374293208122253,5.116744041442871,8.397566795349121,0.04771730303764343,0.02200860157608986,0.0024260077625513077
-0.1981249749660492,5.163967132568359,8.270156860351562,0.026110125705599785,0.03591887652873993,-0.0024434609804302454
-0.20638017356395721,5.1199140548706055,8.258760452270508,-0.0036477381363511086,0.04832816496491432,-0.004380776546895504
-0.24512793123722076,5.156104564666748,8.24024772644043,-0.030613074079155922,0.07190756499767303,-0.0015533430268988013
-0.250596284866333,5.079030513763428,8.381707191467285,-0.058276545256376266,0.17905332148075104,0.00024434609804302454
-0.2256965935230255,5.121427059173584,8.37440013885498,-0.0601964071393013,0.11817624419927597,0.0016406094655394554
-0.3226138651371002,5.066571235656738,8.44336223602295,-0.06195918843150139,0.07367035001516342,-0.008133234456181526
-0.2823146879673004,5.028608798980713,8.505640983581543,-0.0576133169233799,0.05345943570137024,-0.038467057049274445
-0.31578561663627625,4.958678722381592,8.553563117980957,-0.032358404248952866,0.04323180392384529,-0.08328711241483688
-0.35365229845046997,5.013946533203125,8.69379711151123,0.008953538723289967,0.03364994749426842,-0.10964158177375793
-0.4070046842098236,5.05815315246582,8.608868598937988,0.06229080259799957,0.06428047269582748,-0.10070549696683884
-0.426388144493103,5.0928497314453125,8.551417350769043,0.10170033574104309,0.08368853479623795,-0.07764969766139984
-0.428715318441391,5.088789463043213,8.405707359313965,0.10896090418100357,0.07613126188516617,-0.08457865566015244
-0.4422569274902344,5.149266719818115,8.279208183288574,0.10077530890703201,0.08847074210643768,-0.08070402592420578
-0.4273841381072998,5.109848499298096,8.221152305603027,0.08964011073112488,0.11095058172941208,-0.07695156335830688
-0.4524083435535431,5.141777992248535,8.287069320678711,0.09587093442678452,0.12712977826595306,-0.07185520231723785
-0.5435795187950134,5.187258243560791,8.236628532409668,0.07944738864898682,0.1380031853914261,-0.06471680849790573
-0.6143425703048706,5.2733154296875,8.347700119018555,0.05630432069301605,0.15617206692695618,-0.043650683015584946
-0.5929958820343018,5.247170448303223,8.342049598693848,0.03652974218130112,0.1892460435628891,-0.02410299703478813
-0.6277021765708923,5.239786624908447,8.334397315979004,0.029705503955483437,0.22600267827510834,0.0019024088978767395
-0.6459364295005798,5.188464641571045,8.29516315460205,0.033597588539123535,0.2611885070800781,0.016057029366493225
-0.61430424451828,5.177307605743408,8.455362319946289,0.054768431931734085,0.26487118005752563,0.0019896754529327154
-0.7231829762458801,5.178409099578857,8.426996231079102,0.08032005280256271,0.23720769584178925,-0.01794198527932167
-0.839024007320404,5.259227752685547,8.53872013092041,0.13514083623886108,0.20544271171092987,0.003979350905865431
-0.7996633052825928,5.164608955383301,8.385298728942871,0.15435691177845,0.16713273525238037,-0.003176499158143997
-0.7542884349822998,5.1603569984436035,8.128439903259277,0.1485973298549652,0.12938125431537628,-0.05141739919781685
-0.8147372007369995,5.26491641998291,8.032538414001465,0.12688542902469635,0.13925981521606445,-0.08909905701875687
-0.935577392578125,5.383333683013916,8.04643440246582,0.11264354735612869,0.13487903773784637,-0.10058332234621048
-1.015380859375,5.40305233001709,7.92155122756958,0.110025554895401,0.17584192752838135,-0.07471754401922226
-0.9281744956970215,5.400667667388916,7.884757041931152,0.08311257511377335,0.2113768309354782,-0.04323180392384529
-0.9653803706169128,5.411565780639648,7.858382701873779,0.0446455217897892,0.25761058926582336,-0.015114551410079002
-1.0982681512832642,5.344087600708008,7.942093372344971,0.0161268413066864,0.2980847954750061,-0.0005759586347267032
-1.258804202079773,5.375586032867432,8.134051322937012,0.0011868239380419254,0.2751336991786957,-0.001658062799833715
-1.429194688796997,5.324110507965088,8.633213996887207,-0.3499036133289337,-0.08990190923213959,-0.08461356163024902
-1.3830344676971436,5.289040565490723,8.790436744689941,-0.24664993584156036,-0.18612191081047058,-0.016022123396396637
-1.2087174654006958,5.179203987121582,8.69035816192627,-0.16896532475948334,-0.17126916348934174,0.015097098425030708
-1.0526059865951538,4.968303680419922,8.604292869567871,-0.01572541706264019,-0.07349581271409988,0.035849060863256454
-1.0942363739013672,5.017662525177002,8.439857482910156,0.06881833076477051,-0.05084143951535225,0.03021164983510971
-1.1810213327407837,5.221169471740723,8.263031005859375,-0.039793506264686584,-0.0665319487452507,-0.004345869645476341
-1.1500595808029175,5.249085903167725,8.376842498779297,-0.052778758108615875,-0.07101744413375854,0.005044001620262861
-1.0990917682647705,5.181626796722412,8.489006042480469,-0.030613074079155922,-0.058939769864082336,0.014957471750676632
-1.064414143562317,5.135476112365723,8.495804786682129,-0.013316862285137177,-0.04686209186911583,0.0002617993741296232
-1.0781664848327637,5.1991143226623535,8.400861740112305,0.009407324716448784,-0.04164355620741844,0.011344640515744686
-1.0900033712387085,5.147092819213867,8.358205795288086,0.02869321219623089,-0.04804891347885132,0.01891936920583248
-1.054329752922058,5.177183151245117,8.274649620056152,0.031241392716765404,-0.08155923336744308,0.006998770404607058
-1.0193265676498413,5.207226753234863,8.309728622436523,-0.002460914198309183,-0.10464993864297867,0.011763518676161766
-0.954529881477356,5.192256927490234,8.327320098876953,-0.04907865822315216,-0.11740829795598984,0.00020943951676599681
-0.8991759419441223,5.162262439727783,8.329484939575195,-0.07529350370168686,-0.09941395372152328,-0.018151424825191498
-0.9635799527168274,5.1814351081848145,8.463723182678223,-0.05506513640284538,-0.07600908726453781,-0.012374384328722954
-1.0483059883117676,5.164666175842285,8.542588233947754,-0.024015730246901512,-0.09426523000001907,0.0033859387040138245
-1.0315848588943481,5.198099136352539,8.466653823852539,-0.008447393774986267,-0.13060298562049866,0.015533430501818657
-0.9724001884460449,5.17988395690918,8.444991111755371,-0.007208209950476885,-0.13353514671325684,0.008272860199213028
-0.9309709072113037,5.191127300262451,8.423921585083008,-0.006894050631672144,-0.13931217789649963,0.0046774824149906635
-0.9006028771400452,5.153260231018066,8.290670394897461,-0.013159782625734806,-0.14041173458099365,0.00125663704238832
-0.8656379580497742,5.0833306312561035,8.23344898223877,-0.007923794910311699,-0.1229759007692337,0.00027925267932005227
-0.8154076337814331,5.0539870262146,8.142948150634766,0.007225662935525179,-0.10913543403148651,0.0019198621157556772
-0.7959092259407043,5.0983567237854,8.088676452636719,-0.013229595497250557,-0.11384782940149307,0.0018151424592360854
-0.7969052195549011,5.115039348602295,8.149967193603516,-0.06695082783699036,-0.09660397469997406,0.0
-0.75674968957901,5.0786285400390625,8.268346786499023,-0.09306095540523529,-0.08459610491991043,-0.0011344640515744686
-0.8086367845535278,5.127019882202148,8.273077011108398,-0.09581857919692993,-0.07710864394903183,0.0047996556386351585
-0.7735282182693481,5.1372480392456055,8.390096664428711,-0.10681415349245071,-0.08206538110971451,0.022933626547455788
-0.6982641220092773,5.149228572845459,8.557451248168945,-0.12348204106092453,-0.12248720973730087,0.025830872356891632
-0.6788327693939209,5.050137519836426,8.66707706451416,-0.0936020091176033,-0.0751887857913971,0.019565140828490257
-0.6377578377723694,4.961063385009766,8.773218154907227,-0.0293738916516304,-0.034348078072071075,0.023143066093325615
-0.6885819435119629,5.021014213562012,8.688126564025879,0.035325463861227036,-0.060301125049591064,0.01673770695924759
-0.48704764246940613,5.1497650146484375,7.996786594390869,0.03375466912984848,-0.063372902572155,-0.0012391837080940604
-0.6927670240402222,5.159590721130371,8.37541675567627,-0.03164282068610191,0.08370599150657654,0.010733774863183498
-0.7289194464683533,5.070660591125488,8.839948654174805,-0.029478611424565315,0.031084313988685608,0.07134906202554703
-0.4742051362991333,4.864912509918213,8.756610870361328,0.10260790586471558,0.16228070855140686,0.07939502596855164
-0.5288216471672058,5.03621244430542,8.635387420654297,0.2479938268661499,0.3084869384765625,0.08253662288188934
-0.8144211769104004,5.1809468269348145,8.409490585327148,0.2801951467990875,0.2653598487377167,0.11487757414579391
-0.8581967949867249,5.267856597900391,8.001919746398926,0.21158626675605774,0.21619392931461334,0.13154546916484833
-0.7821090221405029,5.3005805015563965,7.884057998657227,0.1155058890581131,0.2684839963912964,0.14391985535621643
-0.8053327798843384,5.317684650421143,8.082423210144043,0.03159045800566673,0.27211427688598633,0.14761994779109955
-0.8068076372146606,5.298205375671387,8.100848197937012,-0.02254965342581272,0.26745426654815674,0.1506044566631317
-0.8078610897064209,5.24104118347168,8.287117004394531,-0.03193952515721321,0.25186845660209656,0.14294245839118958
-0.8408914804458618,5.150722503662109,8.22048282623291,-0.02445206232368946,0.2548529803752899,0.11726867407560349
-0.8860557079315186,5.228342533111572,8.199250221252441,-0.029251718893647194,0.28955012559890747,0.10091494023799896
-0.9375597834587097,5.20500373840332,8.22416877746582,-0.005899212788790464,0.32567843794822693,0.11908381432294846
-0.919775664806366,5.213508129119873,8.168164253234863,0.05976007506251335,0.4187743067741394,0.14903366565704346
-1.165277123451233,5.260884761810303,8.083542823791504,0.10618583112955093,0.4611334502696991,0.19277161359786987
-1.4918078184127808,5.209150791168213,8.963613510131836,-0.335871160030365,-0.1633453667163849,-0.06916739791631699
-1.2109967470169067,5.116916179656982,9.098053932189941,-0.19908970594406128,-0.23884831368923187,-0.03104940801858902
-0.9762213230133057,4.970879554748535,8.494847297668457,0.08691739290952682,-0.0967959612607956,0.0013264502631500363
-1.0345728397369385,5.064263343811035,8.03233528137207,0.05314527451992035,-0.054768431931734085,0.0015533430268988013
-1.062374234199524,5.1231889724731445,7.959427356719971,-0.0021118484437465668,-0.03728023171424866,-0.012723450548946857
-1.0987087488174438,5.108402729034424,8.172426223754883,-0.07794640213251114,-0.06229080259799957,-0.029269171878695488
-1.1469470262527466,5.082870960235596,8.411606788635254,-0.11897909641265869,-0.10161306709051132,-0.03614576905965805
-1.0960845947265625,5.074893474578857,8.553888320922852,-0.0936194583773613,-0.10171778500080109,-0.03316125646233559
-1.022419810295105,5.055902481079102,8.632830619812012,-0.05939355492591858,-0.14351841807365417,-0.01970476657152176
-0.9973765015602112,5.062223434448242,8.555489540100098,-0.018587756901979446,-0.11136946082115173,-0.009128072299063206
-0.9927317500114441,5.052186965942383,8.514422416687012,0.020298179239034653,-0.0898495465517044,-0.0019373154500499368
-1.0037068128585815,5.027823448181152,8.486842155456543,0.014276793226599693,-0.10993828624486923,-0.011344640515744686
-0.9842754602432251,5.032487392425537,8.325395584106445,0.006300638429820538,-0.08044222742319107,-0.017749998718500137
-0.9203311204910278,4.985407829284668,8.455487251281738,0.0022689281031489372,-0.10660471022129059,-0.02068215236067772
-0.9097008109092712,4.9950995445251465,8.409594535827637,0.0008901178953237832,-0.1457698941230774,-0.037053339183330536
-0.9139529466629028,5.065938949584961,8.394157409667969,0.00020943951676599681,-0.13587388396263123,-0.04703662171959877
-0.933106541633606,5.086366176605225,8.374629974365234,0.00040142572834156454,-0.1382649838924408,-0.04096287861466408
-0.9124589562416077,5.080907821655273,8.36941146850586,-0.012897983193397522,-0.12344713509082794,-0.020001472905278206
-0.8271391987800598,4.9983744621276855,8.549800872802734,-0.02117084339261055,-0.11917108297348022,-0.032131511718034744
-0.8044517636299133,4.994361877441406,8.562527656555176,-0.00125663704238832,-0.1509535312652588,-0.04508185386657715
-0.8189893364906311,4.989238262176514,8.665132522583008,0.030316369608044624,-0.19303341209888458,-0.06262241303920746
-0.8551992177963257,5.007511138916016,8.559837341308594,0.0648215264081955,-0.24642303586006165,-0.08134979754686356
-0.8180124759674072,5.028790473937988,8.5116548538208,0.09595820307731628,-0.4118976891040802,-0.16519542038440704
-0.7037994861602783,4.974853992462158,8.379956245422363,0.10667452216148376,-0.4740488827228546,-0.2333330661058426
-0.5242248177528381,4.941076755523682,8.379236221313477,0.12253956496715546,-0.44601887464523315,-0.2824989855289459
-0.4982333481311798,4.897004127502441,8.545997619628906,0.1575508713722229,-0.44142866134643555,-0.3107907772064209
-0.5966446399688721,5.090829372406006,8.475482940673828,0.2195100635290146,-0.49923399090766907,-0.335836261510849
-0.6505333185195923,5.194258689880371,8.38847827911377,0.24073326587677002,-0.5073671936988831,-0.3312460482120514
-0.4639579653739929,5.187191009521484,8.294404983520508,0.24244368076324463,-0.49923399090766907,-0.2980847954750061
-0.19555838406085968,5.35158634185791,8.490288734436035,0.274138867855072,-0.2949431836605072,-0.17517869174480438
-0.20728039741516113,5.371190071105957,8.405957221984863,0.27256807684898376,-0.2892534136772156,-0.18111281096935272
-0.22835895419120789,5.3958024978637695,8.363195419311523,0.2906845808029175,-0.2762507200241089,-0.2018996924161911
-0.18740852177143097,5.736985683441162,8.088245391845703,0.2989574372768402,-0.19886282086372375,-0.11084586381912231
-0.13022541999816895,5.522561073303223,8.06691837310791,0.28591984510421753,-0.19921188056468964,-0.06126105785369873
-0.07970775663852692,5.544894218444824,8.135774612426758,0.2819055914878845,-0.1820378452539444,-0.06927211582660675
-0.10682927817106247,5.667860507965088,8.131972312927246,0.2940007150173187,-0.21848031878471375,-0.08421213924884796
-0.1206294521689415,5.71746826171875,8.175403594970703,0.31958723068237305,-0.25672048330307007,-0.09768607467412949
-0.11174217611551285,5.6770734786987305,8.194605827331543,0.4067838788032532,-0.33691835403442383,-0.1276359260082245
0.015705961734056473,5.716788291931152,8.124244689941406,0.5275432467460632,-0.3787364363670349,-0.18294541537761688
0.13226526975631714,5.8772382736206055,7.727936744689941,0.5920506119728088,-0.41661009192466736,-0.21132446825504303
0.1810399442911148,6.168181419372559,7.319983959197998,0.4928809702396393,-0.36482617259025574,-0.1704837679862976
0.26171496510505676,6.318403244018555,6.847952842712402,0.1431344449520111,-0.14367550611495972,-0.06494370102882385
0.16816872358322144,6.392671585083008,7.042390823364258,-0.13587388396263123,-0.004398229531943798,0.010088003240525723
0.09876560419797897,6.304354190826416,7.113766670227051,-0.4011639356613159,-0.013526301831007004,0.08808676898479462
0.131738543510437,6.136463165283203,7.477053165435791,-0.5920506119728088,-0.0023387412074953318,0.14446090161800385
0.1660139411687851,5.819538116455078,8.155790328979492,-0.5893453359603882,0.09307841211557388,0.12997466325759888
0.265641450881958,5.548111915588379,8.564452171325684,-0.39156460762023926,0.11646582186222076,0.059952057898044586
0.22322578728199005,5.614211082458496,8.66491413116455,-0.13934709131717682,0.046931903809309006,-0.009354964829981327
0.12897084653377533,5.804071426391602,7.977077484130859,-0.03661700710654259,0.07468263804912567,0.018727382645010948
0.13561715185642242,5.7896294593811035,7.848154544830322,-0.0414690226316452,0.07211700081825256,0.016406094655394554
0.07192181795835495,5.793546676635742,7.8604044914245605,-0.044802602380514145,0.06778858602046967,0.03160791099071503
0.08575072139501572,5.724737167358398,7.865106582641602,-0.04173082113265991,0.0786445364356041,0.03836233541369438
0.08501330763101578,5.727045059204102,7.899371147155762,-0.05953317880630493,0.11372565478086472,0.04366813600063324
0.08373001962900162,5.775781631469727,7.852636337280273,-0.14304718375205994,0.16638223826885223,0.04284783452749252
0.07901822775602341,5.75023078918457,7.977595806121826,-0.17214182019233704,0.1929810494184494,0.042725659906864166
0.09034758806228638,5.736037731170654,8.056316375732422,-0.15257668495178223,0.23108159005641937,0.05129522830247879
0.05064215138554573,5.70013427734375,8.18105411529541,-0.11388273537158966,0.24448572099208832,0.04948008432984352
0.003926490433514118,5.687483310699463,8.130680084228516,-0.08679522573947906,0.2538232207298279,0.05349434167146683
-0.05027823522686958,5.677762985229492,8.048625946044922,-0.08587019890546799,0.29714229702949524,0.07539822161197662
-0.33395281434059143,5.575080394744873,8.185938835144043,-0.04476769641041756,0.2790432274341583,0.09948376566171646
-0.34218886494636536,5.557650566101074,8.189146041870117,-0.03331833705306053,0.24263566732406616,0.08770279586315155
-0.3006925582885742,5.551301002502441,8.162599563598633,-0.03248057886958122,0.22598522901535034,0.07414158433675766
-0.3407619297504425,5.568319320678711,8.14594554901123,-0.020036378875374794,0.25473079085350037,0.06627015024423599
-0.49284160137176514,5.618635654449463,8.148578643798828,0.12322024255990982,0.31435126066207886,0.061243604868650436
-0.6013947129249573,5.683443069458008,8.018028259277344,0.12377875298261642,0.33396875858306885,0.06401867419481277
-0.6973064541816711,5.692780494689941,7.926426887512207,0.1097288504242897,0.2969503104686737,0.07969173043966293
-0.6175316572189331,5.69406270980835,7.7829270362854,0.10957176983356476,0.28703683614730835,0.10307914763689041
-0.5839457511901855,5.720992565155029,7.7740397453308105,0.10182251036167145,0.30379199981689453,0.11447614431381226
-0.6822229623794556,5.674900531768799,7.884718894958496,0.04995132237672806,0.30056315660476685,0.09318313002586365
-0.7972978353500366,5.678529262542725,7.8919878005981445,-0.010506882332265377,0.3174055814743042,0.05953317880630493
-0.8115098476409912,5.712316036224365,7.973583221435547,-0.023893557488918304,0.36643186211586,0.057875119149684906
-0.8127452731132507,5.73357629776001,8.01634407043457,0.01111774705350399,0.404916375875473,0.07347836345434189
-0.8039058446884155,5.688316345214844,8.221957206726074,0.10285225510597229,0.42352160811424255,0.06836454570293427
-1.0064553022384644,5.600430011749268,7.984987735748291,0.23902283608913422,0.47111672163009644,0.0653974860906601
-1.2572431564331055,5.824029445648193,8.011487007141113,0.3372499644756317,0.5349957942962646,0.1189441904425621
-1.4714858531951904,6.006965637207031,7.883607864379883,0.3629586696624756,0.5431638956069946,0.14704398810863495
-1.4432246685028076,5.872325420379639,7.540614604949951,0.33197906613349915,0.4464552104473114,0.19490091502666473
-1.446940541267395,6.042667865753174,8.055051803588867,0.19736182689666748,0.11911872029304504,0.15444418787956238
-1.3898532390594482,6.114139556884766,7.684898853302002,0.0012042771559208632,0.046617742627859116,0.07440338283777237
-0.7309210300445557,5.870170593261719,8.005598068237305,-0.30832985043525696,-0.26516786217689514,0.08862782269716263
-0.7447116374969482,5.491762161254883,8.383316040039062,-0.1342332661151886,-0.1414589285850525,0.06551966071128845
-0.8842935562133789,5.559115886688232,8.08362865447998,-0.002460914198309183,-0.09520771354436874,0.04178318381309509
-0.977581262588501,5.863907337188721,7.677467346191406,-0.11768755316734314,-0.1174955666065216,-0.03605850040912628
-0.7176571488380432,5.499816417694092,8.387587547302246,-0.10681415349245071,-0.18531906604766846,-0.030421089380979538
-0.7511184811592102,5.509469509124756,8.2355375289917,-0.026022858917713165,-0.16268214583396912,-0.019984019920229912
-0.7482454776763916,5.549701690673828,8.143102645874023,-0.006579891312867403,-0.1705186665058136,-0.009581857360899448
-0.7505630254745483,5.572264671325684,8.088484764099121,-0.02839650772511959,-0.18757052719593048,-0.01111774705350399
-0.6916465163230896,5.590843677520752,8.0845308303833,-0.06927211582660675,-0.2146056890487671,-0.0035604715812951326
-0.5950835943222046,5.610064506530762,8.037986755371094,-0.09653416275978088,-0.18912388384342194,-0.0033859387040138245
-0.5385229587554932,5.525146961212158,8.123899459838867,-0.09484118968248367,-0.19196876883506775,-0.01417207345366478
-0.5291855931282043,5.543888568878174,8.240765571594238,-0.053930673748254776,-0.14393730461597443,-0.020437804982066154
-0.4417876601219177,5.485222339630127,8.309728622436523,-0.027262043207883835,-0.14245377480983734,-0.002775073517113924
-0.42191576957702637,5.4938788414001465,8.136674880981445,0.018884463235735893,-0.11871729791164398,-0.023317597806453705
-0.4368651807308197,5.521641731262207,8.107686996459961,0.005986479111015797,-0.13152800500392914,-0.018325956538319588
-0.4081922173500061,5.529715061187744,8.014313697814941,-0.029949849471449852,-0.14880676567554474,-0.00022689280740451068
-0.3707660734653473,5.480700969696045,7.955414772033691,-0.07382743060588837,-0.15416492521762848,0.0006632251315750182
-0.2208986133337021,5.390583038330078,8.22118091583252,-0.09421287477016449,-0.13575170934200287,-0.013386675156652927
-0.1692221760749817,5.429168224334717,8.198676109313965,-0.07103490084409714,-0.13215632736682892,-0.023509584367275238
-0.21381178498268127,5.459421157836914,8.276985168457031,-0.052324969321489334,-0.07396705448627472,-0.02387610450387001
-0.1811452955007553,5.428382873535156,8.365830421447754,-0.025970499962568283,-0.03661700710654259,-0.020664697512984276
-0.24461078643798828,5.434444904327393,8.296052932739258,0.046966809779405594,-0.028623400256037712,-0.0012391837080940604
-0.22861751914024353,5.423107147216797,8.18346881866455,0.05700245499610901,0.0008028514566831291,-0.004485496319830418
-0.23100215196609497,5.4489922523498535,8.138053894042969,0.04087560996413231,0.018622662872076035,-0.007504915818572044
-0.24806801974773407,5.447229862213135,8.133878707885742,0.01788962446153164,0.008168140426278114,-0.003944444004446268
-0.2682271897792816,5.4845123291015625,8.165549278259277,0.005445427261292934,0.0028623400721699,-0.007138396613299847
-0.24385422468185425,5.465674877166748,8.174379348754883,-1.7453292457503267e-05,0.004607669077813625,-0.006928957067430019
-0.22114761173725128,5.441349983215332,8.230883598327637,0.004747295752167702,0.035639625042676926,-0.0010995573829859495
-0.24252304434776306,5.423211574554443,8.26624870300293,0.012758356519043446,0.04625122621655464,-0.00022689280740451068
-0.3014778792858124,5.387566566467285,8.320741653442383,0.011187560856342316,0.035674531012773514,-0.009354964829981327
-0.2893919348716736,5.426955699920654,8.242977142333984,0.021450096741318703,0.036826446652412415,-0.010088003240525723
-0.2595793306827545,5.509153842926025,8.280050277709961,0.03947934880852699,0.04433136433362961,0.006056292448192835
-0.23787829279899597,5.430394172668457,8.301980018615723,0.06103416532278061,0.060213860124349594,0.022183135151863098
-0.30593109130859375,5.3849616050720215,8.288381576538086,0.08970992267131805,0.05400048568844795,0.01762782596051693
-0.24783816933631897,5.449949741363525,7.764702320098877,0.10969394445419312,0.10932742059230804,0.011658798903226852
-0.31697314977645874,5.494788646697998,7.535433292388916,0.08342673629522324,0.2436828762292862,0.0005235987482592463
-0.45881521701812744,5.651120185852051,8.30251693725586,-0.053005650639534,-0.17027431726455688,-0.010908307507634163
-0.4224903881549835,5.657076835632324,7.92855167388916,-0.11594222486019135,-0.11473794281482697,-0.0027925267349928617
-0.24891076982021332,5.516135215759277,8.32185173034668,-0.16194909811019897,-0.05907939374446869,-0.014905111864209175
-0.2550303637981415,5.386790752410889,8.369046211242676,-0.139434352517128,-0.07024950534105301,-0.05311036854982376
-0.4455704987049103,5.5246968269348145,8.314813613891602,-0.13240067660808563,-0.12805481255054474,-0.061802107840776443
-0.126404270529747,5.303204536437988,8.070432662963867,-0.3018023371696472,-0.15362387895584106,0.007661995477974415
-0.12921027839183807,5.113986968994141,8.396513938903809,-0.2685014605522156,-0.0757472887635231,-0.012967796064913273
-0.15579548478126526,5.06748104095459,8.578941345214844,-0.22933626174926758,-0.08484045416116714,-0.03192207217216492
-0.2117336094379425,5.071024417877197,8.527676582336426,-0.13644984364509583,-0.12075933068990707,-0.04885176569223404
-0.16540102660655975,5.16739559173584,8.357086181640625,-0.0342782661318779,-0.05354670062661171,-0.027523841708898544
-0.20386147499084473,5.220001220703125,8.361854553222656,0.019565140828490257,-0.02237512171268463,0.011885692365467548
-0.14893849194049835,5.169693946838379,8.361194610595703,0.027436574921011925,-0.03192207217216492,0.03721041977405548
-0.011750741861760616,5.136366844177246,8.219198226928711,-0.0015009831404313445,0.006265731994062662,0.010506882332265377
-0.03412216156721115,5.215959548950195,8.275165557861328,-0.005986479111015797,0.0524122379720211,-0.0021816615480929613
-0.1906263381242752,5.2630391120910645,8.880640029907227,0.02506292797625065,-0.007470009382814169,-0.037367500364780426
-0.13651737570762634,5.433276653289795,8.244951248168945,-0.04438372328877449,-0.05555383116006851,-0.005410520825535059
-0.021250933408737183,5.15485954284668,8.458416938781738,-0.077178455889225,0.03159045800566673,0.023457225412130356
-0.12625104188919067,5.102838516235352,8.677689552307129,-0.020699605345726013,0.05578072369098663,-0.003490658476948738
-0.2580183148384094,5.234912395477295,8.609088897705078,0.0184306763112545,0.023841196671128273,-0.0038397242315113544
-0.12487197667360306,5.252638816833496,8.26221752166748,0.04101523756980896,-0.019285887479782104,0.0008901178953237832
-0.12338757514953613,5.19290828704834,8.29345703125,-0.010594148188829422,0.014468779787421227,0.004345869645476341
-0.13500423729419708,5.19942045211792,8.416950225830078,-0.017243852838873863,0.02373647689819336,-0.00019198621157556772
-0.17475757002830505,5.207752227783203,8.494195938110352,0.0008552113431505859,0.02007128670811653,0.003752457909286022
-0.18085798621177673,5.236387252807617,8.490528106689453,0.011536626145243645,0.015620696358382702,0.005515240598469973
-0.1759929656982422,5.2016425132751465,8.488316535949707,0.015830136835575104,0.024818582460284233,0.010681414976716042
-0.09177453815937042,5.213603973388672,8.547443389892578,0.0253421813249588,0.06757915019989014,0.02338741160929203
-0.26431986689567566,5.222251892089844,8.232778549194336,-0.02967059798538685,0.020141098648309708,-0.01333431527018547
-0.235924631357193,5.202963829040527,8.33528995513916,-0.032271139323711395,-0.012444197200238705,-0.005881759338080883
-0.2378016859292984,5.200723171234131,8.45567798614502,-0.004712388850748539,-0.019861847162246704,-0.009616764262318611
-0.224212184548378,5.236339092254639,8.524153709411621,0.023404864594340324,-0.06401867419481277,-0.022270401939749718
-0.01914403587579727,5.3578782081604,8.25662612915039,0.06628760695457458,-0.010838494636118412,-0.013823007233440876
-0.041486725211143494,5.35827112197876,8.191540718078613,0.04398229718208313,-0.0003490658418741077,-0.018727382645010948
-0.06494032591581345,5.3588361740112305,8.24586009979248,0.037978366017341614,0.021694442257285118,-0.01202531810849905
-0.05657019466161728,5.352352619171143,8.319487571716309,0.06255260109901428,0.03375466912984848,-0.010000736452639103
-0.12634681165218353,5.4066243171691895,8.25621223449707,0.07052875310182571,-0.009773843921720982,-0.008970992639660835
-0.046696506440639496,5.375480651855469,8.175336837768555,0.05886995419859886,-0.03241076320409775,-0.025499260053038597
-0.07079175114631653,5.395821571350098,8.195687294006348,0.08389797806739807,-0.047630034387111664,-0.04557054489850998
-0.08459193259477615,5.425864219665527,8.27835464477539,0.09234537184238434,-0.061941735446453094,-0.0555887371301651
-0.06382941454648972,5.446894645690918,8.251167297363281,0.11121238023042679,-0.10911798477172852,-0.0737576112151146
-0.03757938742637634,5.482252597808838,8.272311210632324,0.11887437850236893,-0.1318945288658142,-0.08194320648908615
-0.014058751985430717,5.5042405128479,8.302441596984863,0.12894491851329803,-0.13503612577915192,-0.08578293025493622
-0.044800300151109695,5.5290350914001465,8.324140548706055,0.15114551782608032,-0.15144221484661102,-0.09747663885354996
-0.04329674318432808,5.470712184906006,8.267131805419922,0.21680480241775513,-0.22129029035568237,-0.13754940032958984
-0.035252224653959274,5.505859375,8.18470287322998,0.2669655680656433,-0.2663721442222595,-0.1693318486213684
-0.005861005745828152,5.59661865234375,8.133955955505371,0.27804839611053467,-0.32304298877716064,-0.18687240779399872
0.11626242846250534,5.573883056640625,8.158031463623047,0.2958682179450989,-0.3715457022190094,-0.2232101559638977
0.0991678312420845,5.635012149810791,8.271238327026367,0.3318045437335968,-0.4029965102672577,-0.24747022986412048
0.05658935010433197,5.738748073577881,8.240401268005371,0.42524945735931396,-0.4790056049823761,-0.2638065218925476
0.1361726075410843,5.697893142700195,8.240957260131836,0.5134932994842529,-0.5060058832168579,-0.2413790374994278
0.0679091364145279,5.765400409698486,8.268586158752441,0.6128374338150024,-0.6171658635139465,-0.2315877377986908
0.11669338494539261,5.8750739097595215,8.037373542785645,0.7091971039772034,-0.7059333324432373,-0.25853562355041504
0.8409585356712341,6.746218681335449,6.077872276306152,0.39330995082855225,-0.5682094097137451,-0.2013411819934845
0.8447030782699585,6.757595539093018,6.313729763031006,0.0009773843921720982,-0.0009075712296180427,-0.10187486559152603
0.5371343493461609,6.663158893585205,7.100464344024658,-0.34896111488342285,0.288677453994751,0.08166395872831345
0.6550822854042053,6.596887111663818,7.374964714050293,-0.5203873515129089,0.48689448833465576,0.1725607067346573
0.47571828961372375,6.3014044761657715,7.6326093673706055,-0.5711764693260193,0.5249950289726257,0.20467476546764374
0.46702253818511963,6.255062580108643,7.682255744934082,-0.6478487849235535,0.5020962953567505,0.24837779998779297
0.3784753978252411,6.016685962677002,8.167454719543457,-0.6283359527587891,0.564631462097168,0.24474751949310303
0.29155629873275757,5.699339389801025,8.510602951049805,-0.44488441944122314,0.48806387186050415,0.19322539865970612
0.18539740145206451,5.644397258758545,8.35140609741211,-0.2382199913263321,0.3268478214740753,0.13603095710277557
0.14931198954582214,5.73602819442749,8.005741119384766,-0.13030628859996796,0.20640262961387634,0.11482521146535873
0.1678048074245453,5.800652503967285,7.844860076904297,-0.1221206858754158,0.13037610054016113,0.08688248693943024
0.19551050662994385,5.7186079025268555,7.747377872467041,-0.12880529463291168,0.049357909709215164,0.043912485241889954
0.23836670815944672,5.763370037078857,7.820631980895996,-0.1541125774383545,0.034173548221588135,0.02773328125476837
0.2840576469898224,5.810037612915039,8.093388557434082,-0.1731192022562027,0.09145525097846985,0.05424483120441437
0.25181254744529724,5.788758277893066,8.133744239807129,-0.14655528962612152,0.1008276715874672,0.050474923104047775
0.19536684453487396,5.765811920166016,8.282855033874512,-0.0858527421951294,0.09470156580209732,0.02373647689819336
0.13149912655353546,5.730167388916016,8.288256645202637,-0.021764256060123444,0.07215191423892975,0.02998475730419159
0.1472817063331604,5.659451961517334,8.063910484313965,0.01532399095594883,0.03548254445195198,0.029338983818888664
0.06057330220937729,5.674276828765869,8.290708541870117,-0.11950269341468811,0.0743161216378212,0.10056587308645248
0.10428184270858765,5.591427803039551,8.087613105773926,-0.11561060696840286,0.04029965400695801,0.10520844906568527
0.20653340220451355,5.603628635406494,7.903720378875732,-0.13072516024112701,0.04220206290483475,0.10063568502664566
0.2990645170211792,5.7010345458984375,7.86132287979126,-0.2209586799144745,0.13442525267601013,0.09457939118146896
0.17720922827720642,5.642951011657715,8.257246971130371,-0.27522096037864685,0.2488839477300644,0.11559315770864487
0.10253886878490448,5.447996139526367,8.349950790405273,-0.15041247010231018,0.17112953960895538,0.11430161446332932
0.102605901658535,5.404412269592285,8.252861022949219,-0.07456046342849731,0.1817411333322525,0.08965755999088287
0.08812577277421951,5.4645256996154785,8.15620231628418,-0.08248426020145416,0.15510740876197815,0.07368779927492142
0.05007712170481682,5.4995574951171875,8.05677604675293,-0.1374272257089615,0.14360569417476654,0.05850343778729439
-0.04033751040697098,5.5029191970825195,8.070202827453613,-0.2059663087129593,0.11955505609512329,0.0743161216378212
-0.0341317392885685,5.459507465362549,8.111353874206543,-0.26513296365737915,0.12552407383918762,0.09646435081958771
-0.0025378537829965353,5.357820987701416,8.277118682861328,-0.26115360856056213,0.13590878248214722,0.08752825856208801
-0.08429504930973053,5.273545265197754,8.348542213439941,-0.21898646652698517,0.11794935166835785,0.05867796763777733
-0.08929414302110672,5.246078968048096,8.491860389709473,-0.17531831562519073,0.08473573625087738,0.04726351425051689
-0.14206235110759735,5.150818347930908,8.489187240600586,-0.12316788733005524,0.027227135375142097,0.046617742627859116
-0.013034033589065075,5.227672100067139,8.38524055480957,-0.03174753859639168,-0.0015358896926045418,0.022794000804424286
0.04106534644961357,5.213623046875,8.44684886932373,-0.004188789986073971,-0.021031217649579048,0.018221236765384674
0.05571785941720009,5.238685607910156,8.399415016174316,0.0286583062261343,-0.04675737023353577,0.0007330382941290736
0.08011956512928009,5.260673999786377,8.346761703491211,0.039758600294589996,-0.07194247096776962,-0.023020893335342407
0.024401701986789703,5.257206916809082,8.25393295288086,0.02750638872385025,-0.09316567331552505,-0.03593632951378822
-0.0037924153730273247,5.232929706573486,8.253703117370605,0.020053833723068237,-0.14013248682022095,-0.05318018049001694
-0.04381388798356056,5.212655544281006,8.304777145385742,0.03251548483967781,-0.23808036744594574,-0.06627015024423599
0.09412085264921188,5.235381603240967,8.267264366149902,0.03241076320409775,-0.25556856393814087,-0.08616690337657928
0.17890432476997375,5.269043922424316,8.289310455322266,0.015533430501818657,-0.19104373455047607,-0.10107201337814331
0.1477605402469635,5.281033992767334,8.63813591003418,0.10643018037080765,-0.12803734838962555,-0.046041786670684814
0.19163189828395844,5.328152179718018,8.485836029052734,0.14480996131896973,-0.1440245658159256,-0.05078908056020737
0.28019821643829346,5.281991958618164,8.398343086242676,0.16975072026252747,-0.1538158655166626,-0.08108799904584885
0.2099619060754776,5.35805082321167,8.058221817016602,0.239668607711792,-0.2656390964984894,-0.11445869505405426
0.3618500530719757,5.479101657867432,7.683701515197754,0.16805775463581085,-0.29799750447273254,-0.12323769927024841
0.2642240822315216,5.62482213973999,7.804704666137695,0.012932890094816685,-0.11761774122714996,-0.08012806624174118
0.5075994729995728,5.354814052581787,8.484992980957031,-0.06698573380708694,0.04225442185997963,0.08744099736213684
0.43430817127227783,5.452487468719482,8.223250389099121,0.004345869645476341,0.08164650201797485,0.01895427517592907
0.4295676648616791,5.353262424468994,8.093120574951172,0.03298672288656235,0.09709266573190689,0.0005759586347267032
0.33804211020469666,5.448723793029785,8.014304161071777,0.0469493567943573,0.17088519036769867,0.012130037881433964
0.2624906897544861,5.4538092613220215,8.110856056213379,0.06606071442365646,0.22430971264839172,0.0469493567943573
0.2124806046485901,5.344710350036621,7.845990180969238,0.15016812086105347,0.27146852016448975,0.06513568758964539
0.3381187319755554,5.508387565612793,7.72538948059082,0.36800268292427063,0.4656713008880615,0.12000884115695953
0.34989818930625916,5.489482879638672,7.337931156158447,0.4291240870952606,0.7198086977005005,0.17065829038619995
0.0945422351360321,5.433764934539795,7.189250946044922,0.35266122221946716,0.9078679084777832,0.20877628028392792
0.29784825444221497,5.267617225646973,7.343276023864746,0.4449891448020935,0.9507681131362915,0.1915673315525055
0.1286739706993103,5.548437595367432,6.857069969177246,0.6021735072135925,1.0640748739242554,0.17648769915103912
0.19669802486896515,5.255138397216797,6.8548383712768555,0.5294456481933594,1.2471424341201782,0.10028661787509918
-0.7075248956680298,5.950837135314941,6.789017200469971,0.34836772084236145,1.4156365394592285,-0.011588986031711102
-0.9949631690979004,6.2739667892456055,7.382836818695068,0.10342821478843689,1.4515902996063232,-0.016894787549972534
-1.0864025354385376,5.967116355895996,7.87052583694458,-0.22024309635162354,1.2649098634719849,-0.02413790300488472
-1.2644736766815186,5.931022644042969,8.216469764709473,-0.481082558631897,1.0157467126846313,-0.0587652362883091
-1.6976038217544556,5.9800262451171875,8.180335998535156,-0.6482152938842773,0.875579297542572,-0.08861036598682404
-2.2275173664093018,5.95472526550293,8.57337760925293,-0.7048686742782593,0.7303155660629272,-0.08850564807653427
-2.363584518432617,5.856523513793945,9.10402774810791,-0.6399598717689514,0.5883156061172485,-0.06276203691959381
-2.2964606285095215,5.753294944763184,9.21606731414795,-0.4386361539363861,0.5154306292533875,0.031171580776572227
-2.2126541137695312,5.681200981140137,9.259134292602539,-0.2968979477882385,0.5199685096740723,0.0685390830039978
-2.065640449523926,5.455513954162598,8.91756820678711,-0.024294983595609665,0.5315923690795898,0.13271483778953552
-2.0564563274383545,5.31256103515625,8.586918830871582,0.1834864616394043,0.5206665992736816,0.14193017780780792
-2.0864126682281494,5.242334365844727,8.484064102172852,0.2594606578350067,0.5133885741233826,0.13871876895427704
-2.230064630508423,5.514181613922119,8.040955543518066,0.3300243020057678,0.5044699907302856,0.1247037723660469
-2.2455408573150635,5.609403610229492,7.675053596496582,0.27237609028816223,0.3856304883956909,0.09744173288345337
-2.530843496322632,5.735616207122803,7.877881050109863,-0.04375540465116501,0.20202186703681946,0.06888814270496368
-2.350579261779785,5.820629596710205,7.823733806610107,-0.32016319036483765,-0.13779374957084656,-0.0570199079811573
-2.656740188598633,5.77909517288208,8.034701347351074,-0.4639957845211029,-0.16521286964416504,-0.15140731632709503
