accX,accY,accZ,gyroX,gyroY,gyroZ
-0.012000000104308128,0.24795001745224,9.86400032043457,-0.0006874999962747097,-0.00013749999925494194,-0.0009624999947845936
-0.04005000367760658,0.2550000250339508,9.86400032043457,0.0005499999970197678,0.0035749999806284904,0.0002749999985098839
-0.05205000191926956,0.24795001745224,9.850050926208496,0.0005499999970197678,-0.00013749999925494194,0.0002749999985098839
-0.036000002175569534,0.2530499994754791,9.85200023651123,-0.0006874999962747097,-0.0013749999925494194,0.0002749999985098839
-0.031050002202391624,0.24795001745224,9.855000495910645,0.0005499999970197678,-0.0013749999925494194,0.0002749999985098839
-0.028950002044439316,0.2569500207901001,9.85200023651123,0.0005499999970197678,-0.00013749999925494194,0.0002749999985098839
-0.04500000178813934,0.2550000250339508,9.855000495910645,-0.0006874999962747097,-0.00013749999925494194,0.0015124999918043613
-0.04305000230669975,0.26205000281333923,9.84000015258789,0.0005499999970197678,-0.0013749999925494194,0.003987499978393316
-0.05205000191926956,0.25005000829696655,9.85200023651123,0.0005499999970197678,-0.00013749999925494194,0.007562499959021807
-0.04305000230669975,0.24105000495910645,9.850050926208496,-0.0006874999962747097,-0.0013749999925494194,0.01251249946653843
-0.032999999821186066,0.26205000281333923,9.859050750732422,-0.0006874999962747097,-0.0013749999925494194,0.014987500384449959
-0.028950002044439316,0.24105000495910645,9.855000495910645,0.0005499999970197678,0.0010999999940395355,0.01251249946653843
-0.025950001552700996,0.24495001137256622,9.85200023651123,0.0005499999970197678,0.0010999999940395355,0.008799999952316284
-0.019050000235438347,0.24495001137256622,9.856950759887695,0.0005499999970197678,0.0010999999940395355,0.006324999965727329
-0.031050002202391624,0.24795001745224,9.85200023651123,-0.0006874999962747097,-0.00013749999925494194,0.0015124999918043613
-0.036000002175569534,0.24495001137256622,9.856950759887695,0.0005499999970197678,0.0010999999940395355,0.0015124999918043613
-0.037950001657009125,0.24795001745224,9.856950759887695,0.0005499999970197678,0.0010999999940395355,0.0002749999985098839
-0.028950002044439316,0.24105000495910645,9.855000495910645,0.0005499999970197678,-0.00013749999925494194,0.0002749999985098839
-0.036000002175569534,0.2550000250339508,9.855000495910645,0.0005499999970197678,0.0010999999940395355,0.0002749999985098839
-0.031050002202391624,0.2670000195503235,9.86205005645752,-0.0006874999962747097,-0.00013749999925494194,0.0002749999985098839
-0.025950001552700996,0.2530499994754791,9.844950675964355,-0.0006874999962747097,-0.00013749999925494194,0.0002749999985098839
-0.036000002175569534,0.25005000829696655,9.867000579833984,-0.0006874999962747097,-0.00013749999925494194,0.0002749999985098839
-0.032999999821186066,0.26205000281333923,9.85200023651123,0.0005499999970197678,-0.00013749999925494194,0.0002749999985098839
-0.025950001552700996,0.24300001561641693,9.867000579833984,0.0005499999970197678,-0.00013749999925494194,0.0002749999985098839
-0.028950002044439316,0.2569500207901001,9.844950675964355,-0.0006874999962747097,-0.00013749999925494194,0.0002749999985098839
-0.032999999821186066,0.24795001745224,9.86400032043457,0.0005499999970197678,0.0010999999940395355,-0.0009624999947845936
-0.031050002202391624,0.2550000250339508,9.850050926208496,0.0005499999970197678,-0.00013749999925494194,0.0002749999985098839
-0.031050002202391624,0.2550000250339508,9.855000495910645,-0.0006874999962747097,-0.00013749999925494194,0.0002749999985098839
-0.032999999821186066,0.24795001745224,9.847050666809082,0.0005499999970197678,0.0010999999940395355,0.0002749999985098839
-0.04005000367760658,0.26205000281333923,9.855000495910645,0.0005499999970197678,-0.00013749999925494194,-0.0009624999947845936
-0.04500000178813934,0.2530499994754791,9.850050926208496,0.0005499999970197678,-0.00013749999925494194,0.0002749999985098839
-0.036000002175569534,0.25995001196861267,9.867000579833984,0.0005499999970197678,0.0010999999940395355,0.0002749999985098839
-0.04005000367760658,0.2530499994754791,9.85200023651123,0.0005499999970197678,-0.00013749999925494194,0.0002749999985098839
-0.028950002044439316,0.2530499994754791,9.85200023651123,-0.0006874999962747097,-0.00013749999925494194,0.0002749999985098839
-0.0499500036239624,0.25005000829696655,9.859050750732422,0.0005499999970197678,-0.00013749999925494194,0.0002749999985098839
-0.032999999821186066,0.24495001137256622,9.855000495910645,0.0005499999970197678,-0.00013749999925494194,0.0002749999985098839
-0.025950001552700996,0.2550000250339508,9.867000579833984,-0.0006874999962747097,-0.0013749999925494194,0.0002749999985098839
-0.04800000041723251,0.2530499994754791,9.856950759887695,-0.0006874999962747097,-0.0013749999925494194,-0.0009624999947845936
-0.04800000041723251,0.25005000829696655,9.859050750732422,0.0005499999970197678,-0.00013749999925494194,0.0002749999985098839
-0.04005000367760658,0.2569500207901001,9.868950843811035,-0.0006874999962747097,0.0010999999940395355,0.0002749999985098839
-0.031050002202391624,0.24495001137256622,9.867000579833984,0.0005499999970197678,0.0010999999940395355,-0.0009624999947845936
-0.037950001657009125,0.25995001196861267,9.867000579833984,0.0005499999970197678,0.0010999999940395355,-0.0009624999947845936
-0.032999999821186066,0.2530499994754791,9.86400032043457,-0.0006874999962747097,-0.00013749999925494194,0.0002749999985098839
-0.037950001657009125,0.24300001561641693,9.87600040435791,-0.0006874999962747097,-0.002612499985843897,0.0002749999985098839
-0.037950001657009125,0.24795001745224,9.859050750732422,-0.005499999970197678,-0.01718750037252903,0.0015124999918043613
-0.016950000077486038,0.24495001137256622,9.856950759887695,-0.0019249999895691872,-0.007424999959766865,0.0002749999985098839
-0.04500000178813934,0.2550000250339508,9.859050750732422,-0.0019249999895691872,-0.006187499966472387,-0.0009624999947845936
-0.025950001552700996,0.24105000495910645,9.84000015258789,-0.0019249999895691872,-0.007424999959766865,0.0002749999985098839
-0.024000000208616257,0.23595000803470612,9.850050926208496,0.0005499999970197678,0.0035749999806284904,0.0002749999985098839
-0.021000001579523087,0.2550000250339508,9.835050582885742,0.0030249999836087227,0.010862499475479126,-0.0009624999947845936
-0.06405000388622284,0.24795001745224,9.90000057220459,0.014024999924004078,0.047575000673532486,-0.002199999988079071
-0.021000001579523087,0.24495001137256622,9.835050582885742,-0.009212499484419823,-0.03189999982714653,0.0015124999918043613
-0.037950001657009125,0.24105000495910645,9.868950843811035,0.006737499963492155,0.02186249941587448,-0.0009624999947845936
-0.021000001579523087,0.25005000829696655,9.855000495910645,-0.0030249999836087227,-0.011137500405311584,0.0002749999985098839
-0.0499500036239624,0.2550000250339508,9.87600040435791,0.0030249999836087227,0.010862499475479126,-0.0009624999947845936
-0.036000002175569534,0.25995001196861267,9.855000495910645,-0.0006874999962747097,-0.0013749999925494194,0.0002749999985098839
-0.04500000178813934,0.25005000829696655,9.850050926208496,-0.0006874999962747097,-0.00013749999925494194,0.0002749999985098839
-0.032999999821186066,0.24495001137256622,9.855000495910645,-0.0006874999962747097,-0.00013749999925494194,0.0002749999985098839
-0.032999999821186066,0.2550000250339508,9.867000579833984,-0.0006874999962747097,-0.0013749999925494194,0.002749999985098839
-0.032999999821186066,0.25005000829696655,9.859050750732422,0.0005499999970197678,0.0010999999940395355,0.003987499978393316
-0.031050002202391624,0.25005000829696655,9.868950843811035,0.0005499999970197678,-0.00013749999925494194,0.005224999971687794
-0.032999999821186066,0.2530499994754791,9.86205005645752,0.0005499999970197678,-0.00013749999925494194,0.006462499964982271
-0.04500000178813934,0.24300001561641693,9.868950843811035,-0.0006874999962747097,-0.00013749999925494194,0.008799999952316284
-0.07605000585317612,0.2689500153064728,9.898050308227539,0.005499999970197678,0.01691249944269657,0.006462499964982271
-0.04005000367760658,0.25995001196861267,9.877950668334961,0.0005499999970197678,-0.00013749999925494194,0.002749999985098839
-0.04305000230669975,0.2569500207901001,9.859050750732422,-0.0006874999962747097,-0.002612499985843897,0.003987499978393316
-0.024000000208616257,0.23805001378059387,9.85200023651123,-0.0019249999895691872,-0.006187499966472387,0.0015124999918043613
-0.031050002202391624,0.2530499994754791,9.859050750732422,0.0005499999970197678,0.0010999999940395355,0.0002749999985098839
-0.04005000367760658,0.2530499994754791,9.86400032043457,-0.0006874999962747097,0.0010999999940395355,0.0002749999985098839
-0.04305000230669975,0.2689500153064728,9.85200023651123,-0.0006874999962747097,-0.00013749999925494194,0.0002749999985098839
-0.04305000230669975,0.2650500237941742,9.856950759887695,-0.0006874999962747097,-0.00013749999925494194,0.002749999985098839
-0.031050002202391624,0.2530499994754791,9.871050834655762,0.0005499999970197678,-0.00013749999925494194,0.003987499978393316
-0.037950001657009125,0.2569500207901001,9.868950843811035,-0.0006874999962747097,0.0010999999940395355,0.005224999971687794
-0.04305000230669975,0.2569500207901001,9.86400032043457,-0.0006874999962747097,-0.00013749999925494194,0.003987499978393316
-0.0499500036239624,0.24795001745224,9.86400032043457,-0.0006874999962747097,-0.00013749999925494194,0.0015124999918043613
-0.04800000041723251,0.24495001137256622,9.855000495910645,0.0005499999970197678,0.0010999999940395355,0.0002749999985098839
-0.05205000191926956,0.2530499994754791,9.8860502243042,0.0030249999836087227,0.015675000846385956,0.0002749999985098839
-0.04005000367760658,0.24795001745224,9.871050834655762,-0.0006874999962747097,-0.0013749999925494194,0.0002749999985098839
-0.028950002044439316,0.2530499994754791,9.867000579833984,-0.0006874999962747097,-0.0013749999925494194,-0.0009624999947845936
-0.031050002202391624,0.25005000829696655,9.883050918579102,0.0005499999970197678,-0.00013749999925494194,0.003987499978393316
-0.037950001657009125,0.24495001137256622,9.86205005645752,-0.0006874999962747097,0.0010999999940395355,0.0015124999918043613
-0.036000002175569534,0.2550000250339508,9.859050750732422,-0.0006874999962747097,-0.00013749999925494194,0.002749999985098839
-0.028950002044439316,0.2550000250339508,9.86400032043457,-0.0006874999962747097,-0.00013749999925494194,0.002749999985098839
-0.032999999821186066,0.2530499994754791,9.856950759887695,-0.0006874999962747097,-0.00013749999925494194,0.0015124999918043613
-0.06405000388622284,0.26205000281333923,9.952950477600098,-0.021449999883770943,-0.07218749821186066,0.010037500411272049
-0.2749500274658203,0.34800001978874207,10.123050689697266,0.031075000762939453,0.10243749618530273,-0.0034374999813735485
0.028050001710653305,0.22095000743865967,9.787050247192383,0.0030249999836087227,0.007149999961256981,-0.0009624999947845936
-0.0019500000635161996,0.2530499994754791,9.835050582885742,-0.012924999929964542,-0.040424998849630356,0.002749999985098839
-0.05700000375509262,0.25995001196861267,9.904950141906738,0.014024999924004078,0.04633750021457672,-0.0009624999947845936
-0.024000000208616257,0.24795001745224,9.850050926208496,-0.0030249999836087227,-0.00989999994635582,0.0015124999918043613
-0.016950000077486038,0.24300001561641693,9.84000015258789,-0.0006874999962747097,-0.0013749999925494194,0.0002749999985098839
-0.04005000367760658,0.24105000495910645,9.880950927734375,-0.0019249999895691872,-0.002612499985843897,0.0002749999985098839
-0.037950001657009125,0.24300001561641693,9.850050926208496,0.0017874999903142452,0.0035749999806284904,-0.0009624999947845936
-0.036000002175569534,0.25005000829696655,9.877950668334961,-0.0006874999962747097,0.0010999999940395355,-0.0009624999947845936
-0.025950001552700996,0.2569500207901001,9.859050750732422,-0.0006874999962747097,-0.00013749999925494194,0.0002749999985098839
-0.09600000083446503,0.28095000982284546,9.91395092010498,0.0005499999970197678,-0.002612499985843897,0.0002749999985098839
0.022950001060962677,0.21900001168251038,9.795000076293945,0.011549999937415123,0.040150001645088196,-0.002199999988079071
0.07800000160932541,0.21705001592636108,9.715950012207031,-0.026262499392032623,-0.08442500233650208,0.002749999985098839
-0.016950000077486038,0.2569500207901001,9.87600040435791,-0.0006874999962747097,-0.002612499985843897,-0.010724999941885471
-0.0499500036239624,0.25995001196861267,9.86400032043457,0.0005499999970197678,0.0035749999806284904,-0.0057749999687075615
-0.037950001657009125,0.2550000250339508,9.855000495910645,-0.0006874999962747097,-0.0013749999925494194,-0.0009624999947845936
-0.04305000230669975,0.26205000281333923,9.868950843811035,0.0005499999970197678,0.0035749999806284904,0.0002749999985098839
-0.037950001657009125,0.24795001745224,9.856950759887695,0.0005499999970197678,0.0010999999940395355,-0.0009624999947845936
-0.036000002175569534,0.2550000250339508,9.871050834655762,0.0017874999903142452,0.004812499973922968,-0.0009624999947845936
-0.037950001657009125,0.25995001196861267,9.855000495910645,-0.0006874999962747097,-0.00013749999925494194,0.0002749999985098839
-0.036000002175569534,0.24795001745224,9.87600040435791,0.0005499999970197678,0.002337499987334013,0.0002749999985098839
-0.031050002202391624,0.2550000250339508,9.86400032043457,0.0005499999970197678,-0.00013749999925494194,0.0002749999985098839
-0.06405000388622284,0.25995001196861267,9.90000057220459,-0.0006874999962747097,-0.002612499985843897,0.0002749999985098839
0.11205000430345535,0.19305001199245453,9.699000358581543,-0.015262499451637268,-0.04661250114440918,0.0015124999918043613
0.04200000315904617,0.23805001378059387,9.792000770568848,-0.012924999929964542,-0.03437500074505806,0.0015124999918043613
-0.024000000208616257,0.2569500207901001,9.868950843811035,-0.0006874999962747097,-0.0013749999925494194,0.0002749999985098839
-0.0499500036239624,0.2670000195503235,9.880950927734375,0.0042624999769032,0.01209999993443489,-0.0009624999947845936
-0.028950002044439316,0.24300001561641693,9.85200023651123,0.005499999970197678,0.018149999901652336,-0.0009624999947845936
-0.08595000207424164,0.28095000982284546,9.922050476074219,0.005499999970197678,0.0193875003606081,-0.0009624999947845936
-0.024000000208616257,0.2550000250339508,9.843000411987305,-0.007974999956786633,-0.028187500312924385,0.0002749999985098839
-0.031050002202391624,0.24795001745224,9.86205005645752,0.0042624999769032,0.01209999993443489,-0.0009624999947845936
-0.04500000178813934,0.25005000829696655,9.880950927734375,0.0005499999970197678,0.0010999999940395355,-0.0009624999947845936
-0.019050000235438347,0.24495001137256622,9.859050750732422,-0.0019249999895691872,-0.006187499966472387,0.0002749999985098839
-0.04305000230669975,0.24495001137256622,9.86400032043457,0.0030249999836087227,0.009624999947845936,-0.0009624999947845936
-0.036000002175569534,0.2670000195503235,9.87405014038086,0.0017874999903142452,0.004812499973922968,0.0002749999985098839
-0.025950001552700996,0.24495001137256622,9.855000495910645,-0.0006874999962747097,-0.0013749999925494194,0.0002749999985098839
-0.04500000178813934,0.25005000829696655,9.87600040435791,0.0030249999836087227,0.008387500420212746,-0.0009624999947845936
-0.021000001579523087,0.24105000495910645,9.855000495910645,-0.0006874999962747097,-0.0013749999925494194,0.0002749999985098839
-0.04305000230669975,0.24495001137256622,9.87405014038086,0.0005499999970197678,-0.00013749999925494194,0.0002749999985098839
-0.04005000367760658,0.25005000829696655,9.87600040435791,-0.0006874999962747097,-0.00013749999925494194,-0.0009624999947845936
-0.031050002202391624,0.2550000250339508,9.867000579833984,-0.0006874999962747097,0.0010999999940395355,0.0002749999985098839
-0.04305000230669975,0.24300001561641693,9.868950843811035,-0.0006874999962747097,-0.00013749999925494194,0.0002749999985098839
-0.04305000230669975,0.25995001196861267,9.855000495910645,-0.0006874999962747097,-0.00013749999925494194,0.0002749999985098839
-0.04005000367760658,0.2569500207901001,9.867000579833984,0.0005499999970197678,-0.00013749999925494194,0.0002749999985098839
-0.037950001657009125,0.24795001745224,9.871050834655762,-0.0006874999962747097,-0.00013749999925494194,0.0002749999985098839
-0.031050002202391624,0.2530499994754791,9.86205005645752,-0.0019249999895691872,-0.0038499999791383743,0.0002749999985098839
-0.1080000028014183,0.2689500153064728,9.997950553894043,0.007837500423192978,0.02914999984204769,-0.0009624999947845936
-0.04500000178813934,0.24795001745224,9.859050750732422,-0.0006874999962747097,-0.0013749999925494194,0.0002749999985098839
-0.05505000427365303,0.24105000495910645,9.867000579833984,-0.0006874999962747097,-0.0013749999925494194,0.0002749999985098839
-0.037950001657009125,0.25005000829696655,9.880950927734375,-0.0042624999769032,-0.013612499460577965,-0.0009624999947845936
-0.012000000104308128,0.23805001378059387,9.847050666809082,-0.005499999970197678,-0.018424998968839645,-0.0057749999687075615
-0.05505000427365303,0.24795001745224,9.871050834655762,0.0017874999903142452,0.005912499967962503,-0.0057749999687075615
-0.024000000208616257,0.24300001561641693,9.86400032043457,-0.0006874999962747097,-0.0013749999925494194,0.0002749999985098839
-0.032999999821186066,0.24495001137256622,9.855000495910645,0.0017874999903142452,0.005912499967962503,-0.0009624999947845936
-0.04005000367760658,0.24300001561641693,9.868950843811035,0.0005499999970197678,0.0035749999806284904,0.0002749999985098839
-0.05205000191926956,0.25005000829696655,9.856950759887695,-0.0006874999962747097,-0.00013749999925494194,0.003987499978393316
-0.028950002044439316,0.25005000829696655,9.86205005645752,0.0005499999970197678,0.0010999999940395355,0.010037500411272049
-0.20805001258850098,0.3630000054836273,9.996000289916992,-0.009212499484419823,-0.03437500074505806,0.021037500351667404
-0.19905000925064087,0.3340500295162201,10.008000373840332,0.031075000762939453,0.08910000324249268,0.014987500384449959
0.15195000171661377,0.15405000746250153,9.688950538635254,-0.014024999924004078,-0.040424998849630356,0.016224998980760574
0.05400000140070915,0.19995000958442688,9.796950340270996,-0.009212499484419823,-0.025849999859929085,0.008799999952316284
-0.0499500036239624,0.2569500207901001,9.87405014038086,0.009074999950826168,0.02914999984204769,-0.0009624999947845936
-0.05205000191926956,0.2740500271320343,9.8899507522583,0.0042624999769032,0.01209999993443489,0.0002749999985098839
-0.016950000077486038,0.24795001745224,9.86400032043457,-0.0019249999895691872,-0.005087499972432852,0.0002749999985098839
-0.036000002175569534,0.25995001196861267,9.859050750732422,-0.0006874999962747097,-0.00013749999925494194,-0.0009624999947845936
-0.04800000041723251,0.24300001561641693,9.855000495910645,0.0005499999970197678,0.0035749999806284904,0.002749999985098839
-0.024000000208616257,0.2550000250339508,9.877950668334961,0.0005499999970197678,-0.00013749999925494194,0.003987499978393316
-0.032999999821186066,0.24495001137256622,9.867000579833984,0.0005499999970197678,-0.00013749999925494194,0.0002749999985098839
-0.024000000208616257,0.2550000250339508,9.847050666809082,0.0005499999970197678,0.0035749999806284904,-0.0009624999947845936
-0.037950001657009125,0.2550000250339508,9.877950668334961,0.0005499999970197678,-0.00013749999925494194,-0.0009624999947845936
-0.036000002175569534,0.2530499994754791,9.86205005645752,-0.0006874999962747097,-0.0013749999925494194,0.0002749999985098839
-0.028950002044439316,0.27195000648498535,9.867000579833984,0.0017874999903142452,0.008387500420212746,0.0002749999985098839
-0.04005000367760658,0.25005000829696655,9.868950843811035,0.0017874999903142452,0.004812499973922968,0.0002749999985098839
-0.037950001657009125,0.23595000803470612,9.867000579833984,0.0005499999970197678,0.0010999999940395355,-0.0009624999947845936
0.1380000114440918,0.18300001323223114,9.691950798034668,-0.023787500336766243,-0.07466249912977219,0.003987499978393316
0.04005000367760658,0.21900001168251038,9.782999992370605,-0.010449999943375587,-0.028187500312924385,0.0015124999918043613
-0.021000001579523087,0.24795001745224,9.847050666809082,-0.0006874999962747097,-0.00013749999925494194,0.0002749999985098839
-0.04005000367760658,0.2569500207901001,9.868950843811035,0.009074999950826168,0.02914999984204769,-0.002199999988079071
-0.04005000367760658,0.24105000495910645,9.883050918579102,0.0017874999903142452,0.007149999961256981,-0.0009624999947845936
-0.024000000208616257,0.2550000250339508,9.868950843811035,0.0017874999903142452,0.005912499967962503,-0.0009624999947845936
-0.037950001657009125,0.25005000829696655,9.859050750732422,-0.0006874999962747097,-0.00013749999925494194,-0.0009624999947845936
-0.04005000367760658,0.25005000829696655,9.86400032043457,-0.0006874999962747097,-0.00013749999925494194,0.0002749999985098839
-0.05205000191926956,0.2530499994754791,9.8860502243042,-0.0030249999836087227,-0.00989999994635582,0.0002749999985098839
0.0019500000635161996,0.24795001745224,9.835050582885742,-0.007974999956786633,-0.023375000804662704,0.0015124999918043613
-0.09795000404119492,0.2770500183105469,9.943050384521484,0.015262499451637268,0.05609999969601631,0.0002749999985098839
-0.0019500000635161996,0.23805001378059387,9.816000938415527,-0.0030249999836087227,-0.008662499487400055,0.0015124999918043613
-0.04800000041723251,0.2550000250339508,9.859050750732422,0.0005499999970197678,0.0010999999940395355,0.0002749999985098839
-0.04800000041723251,0.25005000829696655,9.86400032043457,0.0005499999970197678,-0.00013749999925494194,0.0002749999985098839
-0.04500000178813934,0.24300001561641693,9.880950927734375,0.0005499999970197678,-0.00013749999925494194,0.0002749999985098839
-0.04005000367760658,0.25005000829696655,9.86205005645752,0.0005499999970197678,-0.00013749999925494194,0.0002749999985098839
-0.024000000208616257,0.2569500207901001,9.85200023651123,-0.0006874999962747097,-0.00013749999925494194,-0.0009624999947845936
-0.028950002044439316,0.2530499994754791,9.871050834655762,0.0005499999970197678,0.0010999999940395355,0.0002749999985098839
-0.05205000191926956,0.2569500207901001,9.867000579833984,-0.0006874999962747097,-0.00013749999925494194,0.0002749999985098839
-0.037950001657009125,0.2550000250339508,9.86400032043457,-0.0006874999962747097,-0.00013749999925494194,-0.0009624999947845936
-0.04005000367760658,0.24795001745224,9.86400032043457,-0.0006874999962747097,-0.00013749999925494194,0.0002749999985098839
-0.025950001552700996,0.26205000281333923,9.86400032043457,-0.0006874999962747097,-0.00013749999925494194,-0.0009624999947845936
-0.028950002044439316,0.2530499994754791,9.867000579833984,-0.0006874999962747097,-0.00013749999925494194,-0.002199999988079071
-0.036000002175569534,0.25005000829696655,9.856950759887695,0.0005499999970197678,0.0010999999940395355,-0.002199999988079071
-0.0499500036239624,0.2569500207901001,9.86400032043457,0.0005499999970197678,0.0010999999940395355,0.0002749999985098839
-0.037950001657009125,0.35100001096725464,9.86205005645752,0.0005499999970197678,-0.00013749999925494194,0.0002749999985098839
-0.0070500001311302185,0.4249500334262848,9.8860502243042,-0.0006874999962747097,0.0010999999940395355,0.003987499978393316
-0.05205000191926956,0.13305000960826874,9.868950843811035,-0.0031624999828636646,-0.0038499999791383743,-0.0009624999947845936
-0.0499500036239624,0.11400000751018524,9.85200023651123,-0.0019249999895691872,-0.0038499999791383743,-0.011962499469518661
-0.04500000178813934,0.2050500065088272,9.856950759887695,-0.0006874999962747097,-0.002612499985843897,-0.010724999941885471
-0.021000001579523087,0.286050021648407,9.85200023651123,0.0005499999970197678,-0.00013749999925494194,-0.011962499469518661
-0.04305000230669975,0.21900001168251038,9.87600040435791,-0.0006874999962747097,0.0010999999940395355,-0.014299999922513962
-0.025950001552700996,0.2050500065088272,9.85200023651123,-0.0006874999962747097,-0.00013749999925494194,-0.013199999928474426
-0.031050002202391624,0.21405000984668732,9.86400032043457,0.0005499999970197678,-0.00013749999925494194,-0.029012499377131462
-0.05205000191926956,0.2550000250339508,9.871050834655762,-0.0006874999962747097,-0.00013749999925494194,-0.029012499377131462
-0.05505000427365303,0.2670000195503235,9.867000579833984,0.0005499999970197678,-0.00013749999925494194,-0.01924999989569187
-0.0499500036239624,0.2740500271320343,9.867000579833984,0.0005499999970197678,-0.00013749999925494194,-0.007012499962002039
-0.04305000230669975,0.25995001196861267,9.86205005645752,0.0005499999970197678,-0.00013749999925494194,-0.0009624999947845936
-0.032999999821186066,0.2650500237941742,9.856950759887695,0.0005499999970197678,-0.00013749999925494194,-0.0009624999947845936
-0.04500000178813934,0.24105000495910645,9.86205005645752,0.0005499999970197678,-0.00013749999925494194,0.0002749999985098839
-0.04305000230669975,0.2530499994754791,9.86400032043457,-0.0006874999962747097,-0.00013749999925494194,0.0015124999918043613
-0.0499500036239624,0.2550000250339508,9.868950843811035,0.0005499999970197678,-0.00013749999925494194,0.0015124999918043613
-0.037950001657009125,0.2569500207901001,9.856950759887695,0.0005499999970197678,0.0010999999940395355,0.002749999985098839
-0.031050002202391624,0.2550000250339508,9.856950759887695,0.0005499999970197678,0.0010999999940395355,0.003987499978393316
-0.04500000178813934,0.2569500207901001,9.871050834655762,0.0005499999970197678,-0.00013749999925494194,0.006462499964982271
-0.037950001657009125,0.2569500207901001,9.86205005645752,0.0005499999970197678,-0.00013749999925494194,0.010037500411272049
-0.032999999821186066,0.22605000436306,9.859050750732422,0.0005499999970197678,-0.00013749999925494194,0.008799999952316284
-0.04305000230669975,0.24795001745224,9.868950843811035,0.0005499999970197678,-0.00013749999925494194,0.0015124999918043613
-0.04500000178813934,0.25005000829696655,9.868950843811035,0.0005499999970197678,0.0010999999940395355,0.0002749999985098839
-0.037950001657009125,0.25005000829696655,9.856950759887695,0.0005499999970197678,-0.00013749999925494194,0.0002749999985098839
-0.036000002175569534,0.2530499994754791,9.871050834655762,0.0005499999970197678,0.0010999999940395355,-0.0009624999947845936
-0.037950001657009125,0.2569500207901001,9.859050750732422,0.0005499999970197678,-0.00013749999925494194,0.0002749999985098839
-0.04005000367760658,0.24795001745224,9.859050750732422,0.0005499999970197678,-0.00013749999925494194,0.0002749999985098839
-0.04305000230669975,0.25995001196861267,9.86400032043457,-0.0006874999962747097,-0.00013749999925494194,0.003987499978393316
-0.04305000230669975,0.2550000250339508,9.868950843811035,0.0005499999970197678,-0.00013749999925494194,0.007562499959021807
-0.028950002044439316,0.24495001137256622,9.859050750732422,0.0005499999970197678,-0.00013749999925494194,0.008799999952316284
-0.031050002202391624,0.24300001561641693,9.859050750732422,-0.0006874999962747097,-0.00013749999925494194,0.005224999971687794
-0.04305000230669975,0.2530499994754791,9.86205005645752,0.0005499999970197678,-0.00013749999925494194,0.0015124999918043613
-0.04005000367760658,0.24105000495910645,9.871050834655762,0.0005499999970197678,-0.00013749999925494194,0.0002749999985098839
-0.04500000178813934,0.24495001137256622,9.867000579833984,0.0005499999970197678,-0.00013749999925494194,0.0002749999985098839
-0.04800000041723251,0.2569500207901001,9.855000495910645,-0.0006874999962747097,-0.00013749999925494194,0.0002749999985098839
-0.04305000230669975,0.24105000495910645,9.859050750732422,-0.0006874999962747097,0.0010999999940395355,-0.0009624999947845936
-0.025950001552700996,0.25995001196861267,9.871050834655762,0.0005499999970197678,-0.00013749999925494194,0.0002749999985098839
-0.037950001657009125,0.24795001745224,9.883050918579102,-0.0006874999962747097,-0.0013749999925494194,0.0002749999985098839
-0.037950001657009125,0.24495001137256622,9.859050750732422,0.0005499999970197678,-0.0013749999925494194,0.0002749999985098839
-0.04005000367760658,0.25005000829696655,9.87405014038086,-0.0006874999962747097,-0.0038499999791383743,0.0002749999985098839
-0.04305000230669975,0.24300001561641693,9.86205005645752,0.0005499999970197678,0.002337499987334013,-0.0009624999947845936
-0.04500000178813934,0.24300001561641693,9.868950843811035,-0.0006874999962747097,-0.00013749999925494194,0.0002749999985098839
-0.037950001657009125,0.2530499994754791,9.867000579833984,0.0005499999970197678,0.0010999999940395355,0.0002749999985098839
-0.0499500036239624,0.24105000495910645,9.855000495910645,-0.0006874999962747097,-0.00013749999925494194,-0.0009624999947845936
-0.037950001657009125,0.25995001196861267,9.86400032043457,-0.0006874999962747097,0.0010999999940395355,0.0002749999985098839
-0.04500000178813934,0.2550000250339508,9.86205005645752,0.0005499999970197678,0.0010999999940395355,-0.0009624999947845936
-0.04800000041723251,0.27195000648498535,9.867000579833984,0.0005499999970197678,-0.00013749999925494194,0.0002749999985098839
-0.05700000375509262,0.25005000829696655,9.867000579833984,-0.0006874999962747097,0.0010999999940395355,-0.0009624999947845936
-0.037950001657009125,0.2569500207901001,9.868950843811035,0.0005499999970197678,-0.00013749999925494194,0.0002749999985098839
-0.036000002175569534,0.25005000829696655,9.868950843811035,0.0005499999970197678,-0.00013749999925494194,-0.0009624999947845936
-0.036000002175569534,0.24795001745224,9.87405014038086,0.0005499999970197678,-0.00013749999925494194,0.0002749999985098839
-0.04005000367760658,0.25995001196861267,9.86205005645752,-0.0006874999962747097,-0.00013749999925494194,0.0002749999985098839
-0.04800000041723251,0.25005000829696655,9.87405014038086,0.0005499999970197678,-0.00013749999925494194,0.0002749999985098839
-0.036000002175569534,0.2650500237941742,9.86400032043457,0.0005499999970197678,-0.00013749999925494194,0.0002749999985098839
-0.04305000230669975,0.24795001745224,9.871050834655762,0.0005499999970197678,0.0010999999940395355,-0.0009624999947845936
-0.036000002175569534,0.24795001745224,9.87600040435791,-0.0006874999962747097,-0.00013749999925494194,0.0002749999985098839
-0.031050002202391624,0.2689500153064728,9.859050750732422,0.0005499999970197678,-0.00013749999925494194,0.0002749999985098839
-0.04005000367760658,0.25005000829696655,9.871050834655762,0.0005499999970197678,-0.00013749999925494194,0.0002749999985098839
-0.0499500036239624,0.25005000829696655,9.867000579833984,0.0005499999970197678,-0.00013749999925494194,0.0002749999985098839
-0.05700000375509262,0.2569500207901001,9.871050834655762,-0.0006874999962747097,-0.0013749999925494194,-0.0009624999947845936
-0.036000002175569534,0.2550000250339508,9.859050750732422,0.0005499999970197678,-0.00013749999925494194,-0.0009624999947845936
-0.04305000230669975,0.25005000829696655,9.86205005645752,-0.0006874999962747097,-0.00013749999925494194,0.0002749999985098839
-0.04305000230669975,0.2569500207901001,9.859050750732422,0.0005499999970197678,-0.00013749999925494194,-0.0009624999947845936
-0.0880500078201294,0.2740500271320343,9.964950561523438,-0.010449999943375587,-0.040424998849630356,0.0015124999918043613
-0.14100000262260437,0.29100000858306885,9.996000289916992,0.015262499451637268,0.049912501126527786,-0.002199999988079071
0.004050000105053186,0.23295001685619354,9.811050415039062,0.0030249999836087227,0.008387500420212746,0.0002749999985098839
0.032999999821186066,0.22905001044273376,9.792000770568848,-0.009212499484419823,-0.030662499368190765,0.0002749999985098839
-0.06000000238418579,0.2569500207901001,9.892950057983398,0.006599999964237213,0.02433750033378601,-0.0009624999947845936
-0.04800000041723251,0.25995001196861267,9.87405014038086,0.0042624999769032,0.014574999921023846,-0.0009624999947845936
-0.019050000235438347,0.24795001745224,9.859050750732422,-0.0019249999895691872,-0.0038499999791383743,0.0002749999985098839
-0.024000000208616257,0.2550000250339508,9.850050926208496,-0.0006874999962747097,0.0010999999940395355,-0.0009624999947845936
-0.031050002202391624,0.2650500237941742,9.87600040435791,0.0042624999769032,0.005912499967962503,0.0015124999918043613
-0.028950002044439316,0.24795001745224,9.871050834655762,-0.0006874999962747097,-0.0013749999925494194,0.008799999952316284
-0.04500000178813934,0.22905001044273376,9.856950759887695,-0.0006874999962747097,-0.0013749999925494194,0.0015124999918043613
-0.05505000427365303,0.26205000281333923,9.880950927734375,-0.0006874999962747097,-0.002612499985843897,0.0002749999985098839
-0.0070500001311302185,0.24495001137256622,9.843000411987305,-0.0042624999769032,-0.012374999932944775,-0.0009624999947845936
-0.036000002175569534,0.2530499994754791,9.868950843811035,0.0030249999836087227,0.007149999961256981,-0.0009624999947845936
-0.031050002202391624,0.2550000250339508,9.838050842285156,-0.0006874999962747097,-0.002612499985843897,0.0002749999985098839
-0.04005000367760658,0.26205000281333923,9.880950927734375,0.0005499999970197678,-0.0013749999925494194,0.0002749999985098839
0.13305000960826874,0.1980000138282776,9.670050621032715,-0.016499999910593033,-0.050187498331069946,0.0015124999918043613
-0.1099500060081482,0.2670000195503235,9.937950134277344,-0.007974999956786633,-0.02708750031888485,0.0002749999985098839
-0.1189500093460083,0.27900001406669617,9.981000900268555,0.017737500369548798,0.05609999969601631,-0.002199999988079071
0.06599999964237213,0.21900001168251038,9.720000267028809,-0.007974999956786633,-0.02461249940097332,0.0015124999918043613
-0.09300000220537186,0.2650500237941742,9.93600082397461,0.006737499963492155,0.023099999874830246,-0.0009624999947845936
-0.06405000388622284,0.2550000250339508,9.868950843811035,0.0042624999769032,0.01691249944269657,-0.0009624999947845936
-0.019050000235438347,0.2530499994754791,9.86400032043457,-0.0006874999962747097,-0.002612499985843897,-0.0009624999947845936
-0.024000000208616257,0.24795001745224,9.838050842285156,-0.0006874999962747097,-0.005087499972432852,0.0002749999985098839
-0.028950002044439316,0.24105000495910645,9.871050834655762,-0.0006874999962747097,-0.0013749999925494194,0.0002749999985098839
-0.04800000041723251,0.2530499994754791,9.86205005645752,0.0005499999970197678,0.0010999999940395355,0.0002749999985098839
-0.05205000191926956,0.2569500207901001,9.883050918579102,0.0005499999970197678,0.002337499987334013,0.0002749999985098839
0.004050000105053186,0.23805001378059387,9.838050842285156,-0.006737499963492155,-0.02213750034570694,0.0015124999918043613
-0.06000000238418579,0.2670000195503235,9.8899507522583,-0.0019249999895691872,-0.006187499966472387,0.0002749999985098839
-0.025950001552700996,0.24300001561641693,9.85200023651123,0.0017874999903142452,0.004812499973922968,-0.0009624999947845936
-0.037950001657009125,0.2670000195503235,9.892950057983398,0.005499999970197678,0.01691249944269657,-0.0009624999947845936
-0.024000000208616257,0.24495001137256622,9.84000015258789,0.0017874999903142452,0.008387500420212746,-0.0009624999947845936
-0.036000002175569534,0.24495001137256622,9.871050834655762,-0.0006874999962747097,-0.0013749999925494194,0.0002749999985098839
-0.037950001657009125,0.2569500207901001,9.87600040435791,-0.0006874999962747097,-0.0013749999925494194,0.0002749999985098839
-0.04305000230669975,0.2650500237941742,9.867000579833984,-0.0006874999962747097,0.0010999999940395355,-0.0009624999947845936
-0.04305000230669975,0.26205000281333923,9.867000579833984,0.0005499999970197678,0.0010999999940395355,0.0002749999985098839
-0.04005000367760658,0.25995001196861267,9.86400032043457,-0.0006874999962747097,-0.00013749999925494194,-0.0009624999947845936
-0.04305000230669975,0.25005000829696655,9.855000495910645,-0.0006874999962747097,-0.0013749999925494194,0.0002749999985098839
-0.04500000178813934,0.24795001745224,9.856950759887695,-0.0006874999962747097,-0.002612499985843897,-0.0009624999947845936
-0.028950002044439316,0.26205000281333923,9.871050834655762,0.0005499999970197678,-0.00013749999925494194,-0.0009624999947845936
-0.036000002175569534,0.2550000250339508,9.855000495910645,-0.0006874999962747097,-0.002612499985843897,-0.0057749999687075615
-0.04005000367760658,0.2530499994754791,9.859050750732422,0.0005499999970197678,0.002337499987334013,-0.0057749999687075615
-0.04500000178813934,0.2650500237941742,9.867000579833984,0.0005499999970197678,0.002337499987334013,-0.004537499975413084
-0.036000002175569534,0.24300001561641693,9.86205005645752,-0.0006874999962747097,-0.0038499999791383743,-0.002199999988079071
-0.04500000178813934,0.24795001745224,9.883050918579102,0.0005499999970197678,0.0010999999940395355,-0.004537499975413084
-0.013950000517070293,0.24105000495910645,9.856950759887695,-0.0019249999895691872,-0.005087499972432852,-0.008249999955296516
-0.025950001552700996,0.2569500207901001,9.859050750732422,-0.0019249999895691872,-0.005087499972432852,-0.011962499469518661
-0.04500000178813934,0.24795001745224,9.856950759887695,0.0005499999970197678,0.004674999974668026,-0.009487500414252281
-0.04305000230669975,0.25995001196861267,9.855000495910645,0.0005499999970197678,0.0010999999940395355,-0.004537499975413084
-0.037950001657009125,0.26205000281333923,9.87405014038086,0.0005499999970197678,0.002337499987334013,-0.0009624999947845936
-0.032999999821186066,0.2530499994754791,9.868950843811035,0.0005499999970197678,0.002337499987334013,0.0002749999985098839
-0.031050002202391624,0.24300001561641693,9.87405014038086,0.0005499999970197678,-0.00013749999925494194,0.0002749999985098839
-0.031050002202391624,0.25005000829696655,9.86205005645752,-0.0006874999962747097,0.0010999999940395355,0.0002749999985098839
-0.04005000367760658,0.24795001745224,9.868950843811035,0.0005499999970197678,0.0010999999940395355,0.0002749999985098839
-0.04305000230669975,0.2550000250339508,9.868950843811035,0.0005499999970197678,0.002337499987334013,0.0002749999985098839
-0.04005000367760658,0.25005000829696655,9.868950843811035,-0.0006874999962747097,-0.002612499985843897,0.0002749999985098839
-0.028950002044439316,0.2550000250339508,9.850050926208496,-0.0006874999962747097,-0.00013749999925494194,0.0002749999985098839
-0.032999999821186066,0.24300001561641693,9.87405014038086,0.0005499999970197678,-0.00013749999925494194,0.0002749999985098839
-0.037950001657009125,0.25005000829696655,9.856950759887695,0.0005499999970197678,0.002337499987334013,0.0002749999985098839
-0.04305000230669975,0.2569500207901001,9.86400032043457,-0.0006874999962747097,0.0010999999940395355,0.0002749999985098839
-0.04500000178813934,0.24300001561641693,9.86205005645752,0.0005499999970197678,0.0010999999940395355,0.0002749999985098839
-0.04500000178813934,0.2530499994754791,9.868950843811035,0.0005499999970197678,-0.0013749999925494194,0.0002749999985098839
-0.037950001657009125,0.2530499994754791,9.85200023651123,-0.0006874999962747097,-0.00013749999925494194,0.0002749999985098839
-0.032999999821186066,0.24495001137256622,9.86400032043457,-0.0006874999962747097,-0.00013749999925494194,0.0002749999985098839
-0.037950001657009125,0.24105000495910645,9.867000579833984,0.0005499999970197678,0.0010999999940395355,0.0002749999985098839
-0.04800000041723251,0.24495001137256622,9.868950843811035,0.0005499999970197678,-0.00013749999925494194,-0.0009624999947845936
-0.028950002044439316,0.2569500207901001,9.86205005645752,-0.0006874999962747097,-0.00013749999925494194,0.0002749999985098839
-0.04305000230669975,0.25995001196861267,9.867000579833984,-0.0006874999962747097,-0.00013749999925494194,0.0002749999985098839
-0.028950002044439316,0.26205000281333923,9.86205005645752,0.0005499999970197678,-0.00013749999925494194,0.0002749999985098839
-0.037950001657009125,0.2689500153064728,9.868950843811035,0.0005499999970197678,0.0010999999940395355,0.0002749999985098839
-0.036000002175569534,0.24105000495910645,9.86205005645752,-0.0006874999962747097,-0.00013749999925494194,0.0002749999985098839
-0.036000002175569534,0.25005000829696655,9.86205005645752,0.0005499999970197678,0.002337499987334013,0.0002749999985098839
-0.04800000041723251,0.24300001561641693,9.867000579833984,0.0017874999903142452,0.002337499987334013,-0.0009624999947845936
-0.0499500036239624,0.26205000281333923,9.855000495910645,0.0030249999836087227,0.009624999947845936,0.0002749999985098839
-0.0499500036239624,0.26205000281333923,9.892950057983398,-0.0006874999962747097,-0.0013749999925494194,0.003987499978393316
-0.025950001552700996,0.2550000250339508,9.85200023651123,-0.0019249999895691872,-0.005087499972432852,0.0002749999985098839
-0.025950001552700996,0.24795001745224,9.880950927734375,-0.0006874999962747097,-0.00013749999925494194,0.0002749999985098839
-0.036000002175569534,0.2550000250339508,9.859050750732422,-0.0006874999962747097,-0.00013749999925494194,0.0002749999985098839
-0.04305000230669975,0.25995001196861267,9.87600040435791,-0.0006874999962747097,-0.0013749999925494194,0.0002749999985098839
-0.032999999821186066,0.24795001745224,9.85200023651123,-0.0006874999962747097,-0.00013749999925494194,0.0002749999985098839
-0.037950001657009125,0.24795001745224,9.86400032043457,0.0005499999970197678,0.0010999999940395355,0.0002749999985098839
-0.04305000230669975,0.26205000281333923,9.85200023651123,-0.0006874999962747097,-0.00013749999925494194,0.0002749999985098839
-0.04800000041723251,0.2569500207901001,9.871050834655762,0.0005499999970197678,0.0010999999940395355,0.0002749999985098839
-0.04800000041723251,0.25005000829696655,9.859050750732422,0.0005499999970197678,0.002337499987334013,0.0002749999985098839
-0.0499500036239624,0.2650500237941742,9.871050834655762,0.0042624999769032,0.008387500420212746,-0.0009624999947845936
-0.024000000208616257,0.24300001561641693,9.880950927734375,-0.0006874999962747097,-0.0013749999925494194,-0.007012499962002039
-0.04500000178813934,0.27195000648498535,9.850050926208496,-0.0006874999962747097,-0.0038499999791383743,-0.009487500414252281
-0.036000002175569534,0.24300001561641693,9.868950843811035,-0.0006874999962747097,0.0010999999940395355,-0.0009624999947845936
-0.04500000178813934,0.2530499994754791,9.856950759887695,-0.0006874999962747097,-0.0013749999925494194,-0.0009624999947845936
-0.05205000191926956,0.24795001745224,9.856950759887695,-0.0006874999962747097,-0.00013749999925494194,0.0002749999985098839
-0.04005000367760658,0.2569500207901001,9.85200023651123,0.0005499999970197678,-0.00013749999925494194,0.0002749999985098839
0.25095000863075256,0.13500000536441803,9.658050537109375,-0.03244999796152115,-0.10037499666213989,0.01746249943971634
-0.12405000627040863,0.28905001282691956,9.984000205993652,-0.006737499963492155,-0.020899999886751175,0.003987499978393316
-0.16305001080036163,0.31005001068115234,10.044000625610352,0.02502499893307686,0.07809999585151672,-0.0009624999947845936
0.046950001269578934,0.19500000774860382,9.708000183105469,-0.004399999976158142,-0.013612499460577965,0.0015124999918043613
-0.031050002202391624,0.24300001561641693,9.87405014038086,-0.0019249999895691872,-0.00989999994635582,0.006462499964982271
-0.0880500078201294,0.25005000829696655,9.895050048828125,0.0042624999769032,0.018149999901652336,-0.0009624999947845936
-0.021000001579523087,0.2550000250339508,9.847050666809082,0.0005499999970197678,-0.00013749999925494194,-0.0009624999947845936
-0.04500000178813934,0.23595000803470612,9.84000015258789,-0.0006874999962747097,-0.0038499999791383743,0.0002749999985098839
-0.05205000191926956,0.27195000648498535,9.892950057983398,0.0030249999836087227,0.01209999993443489,0.0002749999985098839
-0.05205000191926956,0.26205000281333923,9.856950759887695,0.0005499999970197678,0.0010999999940395355,0.010037500411272049
-0.04005000367760658,0.25005000829696655,9.867000579833984,-0.0006874999962747097,-0.006187499966472387,0.0002749999985098839
-0.028950002044439316,0.2569500207901001,9.880950927734375,0.0005499999970197678,0.002337499987334013,0.0002749999985098839
-0.036000002175569534,0.24300001561641693,9.850050926208496,-0.0006874999962747097,-0.0013749999925494194,0.0002749999985098839
-0.04005000367760658,0.24795001745224,9.86400032043457,-0.0006874999962747097,-0.002612499985843897,0.0002749999985098839
-0.04305000230669975,0.2530499994754791,9.856950759887695,0.0005499999970197678,-0.0013749999925494194,0.0002749999985098839
-0.05700000375509262,0.24795001745224,9.86205005645752,0.0005499999970197678,0.0010999999940395355,0.0015124999918043613
-0.031050002202391624,0.25995001196861267,9.867000579833984,-0.0006874999962747097,-0.00013749999925494194,0.003987499978393316
-0.037950001657009125,0.26205000281333923,9.86400032043457,0.0005499999970197678,-0.00013749999925494194,0.003987499978393316
-0.036000002175569534,0.2569500207901001,9.867000579833984,0.0005499999970197678,0.0010999999940395355,0.005224999971687794
-0.04800000041723251,0.2530499994754791,9.871050834655762,0.0005499999970197678,0.0010999999940395355,0.003987499978393316
-0.032999999821186066,0.2569500207901001,9.856950759887695,0.0005499999970197678,-0.00013749999925494194,0.0002749999985098839
-0.037950001657009125,0.2550000250339508,9.867000579833984,-0.0006874999962747097,-0.00013749999925494194,0.0002749999985098839
-0.036000002175569534,0.24300001561641693,9.86400032043457,-0.0006874999962747097,-0.00013749999925494194,0.0002749999985098839
-0.0499500036239624,0.25005000829696655,9.86400032043457,0.0005499999970197678,-0.00013749999925494194,0.0002749999985098839
-0.0499500036239624,0.25005000829696655,9.87405014038086,0.0005499999970197678,-0.00013749999925494194,0.0002749999985098839
-0.036000002175569534,0.2550000250339508,9.86400032043457,0.0005499999970197678,-0.00013749999925494194,0.0002749999985098839
-0.04500000178813934,0.25995001196861267,9.86400032043457,0.0005499999970197678,0.0010999999940395355,-0.0009624999947845936
-0.032999999821186066,0.2530499994754791,9.867000579833984,0.0005499999970197678,-0.00013749999925494194,0.0002749999985098839
-0.04500000178813934,0.26205000281333923,9.86400032043457,0.0005499999970197678,0.0010999999940395355,0.002749999985098839
-0.04500000178813934,0.24495001137256622,9.86205005645752,-0.0006874999962747097,0.0010999999940395355,0.007562499959021807
-0.036000002175569534,0.26205000281333923,9.855000495910645,0.0005499999970197678,-0.00013749999925494194,0.007562499959021807
-0.032999999821186066,0.24300001561641693,9.859050750732422,-0.0006874999962747097,-0.00013749999925494194,0.002749999985098839
-0.032999999821186066,0.24795001745224,9.871050834655762,-0.0006874999962747097,-0.0013749999925494194,0.0002749999985098839
-0.04305000230669975,0.24495001137256622,9.868950843811035,-0.0006874999962747097,-0.00013749999925494194,0.0002749999985098839
-0.021000001579523087,0.25005000829696655,9.856950759887695,-0.0006874999962747097,-0.00013749999925494194,-0.0009624999947845936
-0.025950001552700996,0.24795001745224,9.859050750732422,-0.0006874999962747097,-0.00013749999925494194,-0.0057749999687075615
-0.032999999821186066,0.2550000250339508,9.868950843811035,0.0005499999970197678,-0.00013749999925494194,-0.008249999955296516
-0.05505000427365303,0.25995001196861267,9.883050918579102,0.0017874999903142452,0.002337499987334013,-0.007012499962002039
-0.037950001657009125,0.25995001196861267,9.87405014038086,-0.0006874999962747097,-0.00013749999925494194,-0.010724999941885471
-0.032999999821186066,0.24300001561641693,9.883050918579102,-0.0006874999962747097,-0.0013749999925494194,-0.011962499469518661
-0.032999999821186066,0.2550000250339508,9.859050750732422,-0.0006874999962747097,-0.00013749999925494194,-0.01677500084042549
-0.04800000041723251,0.27195000648498535,9.84000015258789,0.0005499999970197678,0.002337499987334013,-0.008249999955296516
