accX,accY,accZ,gyroX,gyroY,gyroZ
1.1417181491851807,6.786996364593506,7.372848033905029,-0.07452555745840073,0.05642649531364441,-0.07133160531520844
1.2236765623092651,6.809789657592773,7.5086283683776855,-0.05642649531364441,0.1192408949136734,-0.10007718205451965
1.131289005279541,6.752462863922119,7.389492511749268,-0.02768092229962349,0.12562879920005798,-0.11711159348487854
1.124776840209961,6.738107204437256,7.014235496520996,0.017034413293004036,0.12882275879383087,-0.13840460777282715
0.9038398265838623,6.62527322769165,6.940800189971924,-0.10752973705530167,0.10433578491210938,-0.1714087873697281
0.8997984528541565,6.71405029296875,7.154267311096191,-0.16395622491836548,0.1575683206319809,-0.17673203349113464
0.8716330528259277,6.707107067108154,7.211297512054443,-0.1927018016576767,0.20228366553783417,-0.20441296696662903
0.6704435348510742,6.565130710601807,7.289549350738525,-0.20121900737285614,0.1895078420639038,-0.22144737839698792
0.5617467761039734,6.481429576873779,7.3180975914001465,-0.19696040451526642,0.16715018451213837,-0.22251202166080475
0.3746446967124939,6.3376336097717285,7.458053112030029,-0.126693457365036,0.06281439960002899,-0.21293017268180847
0.3831010162830353,6.37056827545166,7.545489311218262,-0.12030554562807083,0.05216789245605469,-0.2001543641090393
0.4017949104309082,6.375672817230225,7.559797286987305,-0.1054004356265068,0.05536184459924698,-0.19376645982265472
0.3486628234386444,6.362044811248779,7.527600288391113,-0.07665485888719559,0.03087487444281578,-0.2001543641090393
0.24831701815128326,6.273210525512695,7.614039897918701,-0.05110324174165726,0.0351334773004055,-0.19163715839385986
0.19126799702644348,6.228372097015381,7.597242832183838,-0.042586032301187515,0.07559020817279816,-0.17034412920475006
0.1502601057291031,6.221534252166748,7.350533962249756,-0.05110324174165726,0.10433578491210938,-0.13201670348644257
0.21101535856723785,6.28125524520874,7.465599536895752,-0.09901253134012222,0.02874557301402092,-0.11817624419927597
0.0949157327413559,6.2565178871154785,7.560841083526611,-0.08943066745996475,0.018099064007401466,-0.10433578491210938
0.1401565670967102,6.17365026473999,7.469717979431152,-0.06707300245761871,-0.006387905217707157,-0.08517206460237503
0.0515327975153923,6.212043285369873,7.3668437004089355,-0.07133160531520844,0.005323254037648439,-0.06920230388641357
0.09257899224758148,6.193751811981201,7.351396560668945,-0.0841074138879776,0.0010646508308127522,-0.05749114602804184
0.11120587587356567,6.275518417358398,7.909369468688965,-0.06174974888563156,0.08730136603116989,-0.03087487444281578
0.20623654127120972,6.337011337280273,7.9385504722595215,-0.018099064007401466,0.13521066308021545,-0.008517206646502018
0.31974083185195923,6.3189496994018555,8.080833435058594,0.022357666864991188,0.14159856736660004,-0.013840461149811745
0.4332164227962494,6.4846086502075195,7.550833702087402,0.08730136603116989,0.13946926593780518,-0.03406882658600807
0.49328216910362244,6.56526517868042,7.130640983581543,0.06174974888563156,0.09262461960315704,-0.07133160531520844
0.27263253927230835,6.423413276672363,6.976617813110352,-0.02661627158522606,0.11817624419927597,-0.1054004356265068
0.11450030654668808,6.322368621826172,7.192220211029053,-0.06600835174322128,0.12775810062885284,-0.10220648348331451
0.11296801269054413,6.2746663093566895,7.847541809082031,-0.0734609067440033,0.20441296696662903,-0.06707300245761871
0.10638874769210815,6.371354103088379,7.794591903686523,-0.009581857360899448,0.20121900737285614,-0.07771950960159302
0.019517531618475914,6.322253227233887,7.757088661193848,0.02874557301402092,0.1469218134880066,-0.09049531817436218
-0.01199016161262989,6.214322566986084,7.802396774291992,0.09688322991132736,0.13733996450901031,-0.0947539210319519
-0.13538731634616852,6.227845191955566,7.629851341247559,0.11817624419927597,0.14905111491680145,-0.09581857919692993
-0.4478689432144165,6.224139213562012,7.327454090118408,0.11072368919849396,0.10114183276891708,-0.0841074138879776
-0.4659116566181183,6.0886945724487305,7.291445255279541,0.08943066745996475,0.06174974888563156,-0.03406882658600807
-0.42124542593955994,6.11148738861084,7.12660026550293,0.05003859102725983,0.0010646508308127522,0.0010646508308127522
-0.22233514487743378,6.2255754470825195,7.259276866912842,-0.006387905217707157,-0.06281439960002899,0.01171115878969431
-0.2031049132347107,6.262618541717529,7.484753608703613,-0.0021293016616255045,-0.09155996888875961,0.01171115878969431
-0.16132129728794098,6.335641860961914,7.863765239715576,0.07771950960159302,-0.12562879920005798,0.012775810435414314
-0.06728664040565491,6.456903457641602,7.651246070861816,0.17247343063354492,-0.1682148277759552,-0.0010646508308127522
0.03168965503573418,6.385871887207031,7.658332824707031,-0.040456730872392654,-0.020228365436196327,0.018099064007401466
-0.006924031302332878,6.382951259613037,7.768848896026611,-0.0010646508308127522,0.0010646508308127522,0.02342231757938862
-0.04949294030666351,6.394089221954346,7.9562578201293945,0.1054004356265068,0.02768092229962349,0.03619812801480293
0.1574714332818985,6.493534564971924,7.224838733673096,0.15863297879695892,0.03619812801480293,0.009581857360899448
0.3280056416988373,6.627140522003174,7.142985820770264,0.09262461960315704,0.018099064007401466,-0.03193952515721321
0.07621222734451294,6.569469451904297,8.224178314208984,0.45354124903678894,0.0351334773004055,0.10752973705530167
0.12625104188919067,6.703965663909912,7.2113261222839355,0.657954216003418,-0.047909289598464966,0.09794788062572479
0.2281099557876587,6.789889335632324,6.3739013671875,0.506773829460144,-0.0010646508308127522,0.038327429443597794
0.025483882054686546,6.7545599937438965,6.383851528167725,0.140533909201622,0.17779669165611267,0.013840461149811745
-0.08362467586994171,6.653467178344727,6.711723327636719,-0.0596204474568367,0.3428175747394562,0.048973940312862396
-0.2873329520225525,6.602643013000488,7.597175121307373,-0.2108008712530136,0.5908812284469604,0.12243484705686569
-0.024114398285746574,6.868246555328369,8.021207809448242,-0.07559020817279816,0.6153681874275208,0.1682148277759552
0.05343858152627945,6.969971179962158,7.867002010345459,0.07559020817279816,0.5365840196609497,0.17779669165611267
0.0790373831987381,7.055070877075195,7.0874786376953125,0.2491282969713211,0.3374943137168884,0.18631389737129211
-0.15042290091514587,6.71840763092041,6.932650566101074,0.32152456045150757,0.03193952515721321,0.3055547773838043
-0.25641900300979614,6.405610084533691,7.261422157287598,0.35985198616981506,-0.01171115878969431,0.43011894822120667
-0.35214877128601074,6.4794087409973145,6.5930376052856445,0.23954643309116364,0.2278352826833725,0.4982565939426422
-0.21459709107875824,6.785531520843506,6.227050304412842,-0.09155996888875961,0.39711475372314453,0.4695110321044922
0.07521624118089676,7.17887020111084,6.900893688201904,-0.26829200983047485,0.5408426523208618,0.40882593393325806
-0.20884142816066742,7.051546573638916,7.6747283935546875,-0.17353808879852295,0.5184849500656128,0.37688639760017395
-0.1655159443616867,6.543918609619141,7.772134304046631,0.2874557375907898,0.4588645100593567,0.49293333292007446
0.16988298296928406,5.981261730194092,6.960413455963135,0.41840776801109314,0.3374943137168884,0.44715335965156555
-0.09424535185098648,7.184817314147949,6.125153541564941,0.2778738737106323,-0.06813765317201614,0.3822096586227417
-0.9675830602645874,7.365714073181152,6.572687149047852,0.140533909201622,0.2352878302335739,0.39711475372314453
-0.5261593461036682,7.4141435623168945,6.2471137046813965,-0.004258603323251009,0.2842617630958557,0.5429719090461731
0.29953378438949585,7.0423431396484375,6.6385178565979,-0.07878416031599045,0.37262779474258423,0.5238082408905029
0.7163834571838379,6.400189399719238,6.836211681365967,-0.070266954600811,0.3683691918849945,0.4737696349620819
0.5936854481697083,6.531257629394531,7.154899597167969,0.11817624419927597,0.21931807696819305,0.21931807696819305
-0.3126061260700226,6.990925312042236,6.243598937988281,0.2831971347332001,0.10007718205451965,0.1756673902273178
0.0114921685308218,7.108700752258301,6.210817813873291,0.20760691165924072,-0.10433578491210938,0.13414600491523743
0.20346884429454803,7.091970443725586,6.709865093231201,0.0947539210319519,0.012775810435414314,0.10433578491210938
0.2659958302974701,7.150043964385986,6.486400127410889,-0.006387905217707157,-0.10220648348331451,0.01171115878969431
-0.02338656224310398,7.297325611114502,6.7024335861206055,-0.05216789245605469,-0.08091346174478531,-0.06387905031442642
-0.017046716064214706,7.175317287445068,7.0946807861328125,0.0031939526088535786,-0.22889992594718933,-0.14585717022418976
0.08982086926698685,7.023687362670898,7.499156951904297,0.15224507451057434,-0.45034730434417725,-0.20121900737285614
0.20809443295001984,7.320472717285156,6.577351093292236,0.26190412044525146,-0.3481408357620239,-0.23315852880477905
0.23285047709941864,7.408387660980225,6.128935813903809,0.12030554562807083,-0.35878732800483704,-0.25764551758766174
0.24179521203041077,7.262533187866211,6.392709732055664,0.006387905217707157,-0.3513347804546356,-0.2970375716686249
0.22345562279224396,7.163776874542236,6.454930782318115,-0.03300417587161064,-0.3268478214740753,-0.3481408357620239
0.11599428206682205,7.083858966827393,6.665792465209961,-0.0074525559321045876,-0.47909286618232727,-0.377951055765152
0.39519649744033813,7.12686824798584,6.874567031860352,0.24486969411373138,-0.6206914186477661,-0.2352878302335739
0.5278544425964355,7.2939066886901855,6.892274379730225,0.2661627233028412,-0.5717175006866455,-0.19802506268024445
0.49278417229652405,7.31796407699585,6.622247219085693,0.2725506126880646,-0.5408426523208618,-0.1682148277759552
0.45531970262527466,7.229426383972168,6.212273597717285,0.1085943877696991,-0.4205370843410492,-0.1085943877696991
0.6508493423461914,7.238007068634033,5.85176420211792,-0.08623671531677246,-0.2384817898273468,-0.11711159348487854
0.296105295419693,7.446426868438721,6.8750457763671875,-0.0841074138879776,-0.2778738737106323,-0.3183306157588959
0.446892112493515,7.330758094787598,7.094383716583252,0.04684463515877724,-0.3992440700531006,-0.2981022298336029
0.5232671499252319,7.114313125610352,7.184261798858643,0.1543743759393692,-0.3130073547363281,-0.2725506126880646
0.23472753167152405,7.06115198135376,6.5991668701171875,0.1895078420639038,-0.1298874020576477,-0.21293017268180847
-0.015399505384266376,7.016274929046631,6.421909809112549,0.1437278687953949,-0.044715333729982376,-0.11711159348487854
-0.19508913159370422,6.868945121765137,6.583978176116943,0.14798647165298462,0.0074525559321045876,-0.012775810435414314
0.5772420167922974,7.344165802001953,6.234060764312744,0.12562879920005798,-0.11711159348487854,0.0
0.2978099584579468,7.3534650802612305,6.50390625,0.05642649531364441,-0.15330971777439117,-0.02555162087082863
0.34148019552230835,7.351511001586914,6.893931865692139,0.024486970156431198,-0.047909289598464966,0.009581857360899448
0.521102786064148,7.373595237731934,7.094613075256348,0.10327113419771194,0.039392080157995224,0.024486970156431198
0.511142909526825,7.445746898651123,6.637484073638916,0.19376645982265472,0.05855579674243927,0.02342231757938862
0.430764764547348,7.4393205642700195,5.9582295417785645,0.1852492392063141,0.03193952515721321,0.008517206646502018
0.44087785482406616,7.356385707855225,6.166409969329834,0.1054004356265068,-0.013840461149811745,0.008517206646502018
0.46083593368530273,7.406491756439209,6.354814529418945,0.07984881103038788,0.010646508075296879,0.0031939526088535786
0.41732853651046753,7.444942474365234,6.647855281829834,0.06068509817123413,0.13201670348644257,0.0074525559321045876
0.4190714955329895,7.505008220672607,6.510839939117432,0.05216789245605469,0.17673203349113464,0.009581857360899448
0.3572244644165039,7.532302379608154,6.2592573165893555,0.040456730872392654,0.14266321063041687,0.01171115878969431
0.48878106474876404,7.581421852111816,6.268106460571289,0.070266954600811,0.05855579674243927,-0.005323254037648439
0.3336176574230194,7.420694351196289,6.2874321937561035,0.12349949777126312,-0.05323254317045212,-0.019163714721798897
0.43245986104011536,7.4090681076049805,6.184759140014648,0.09368927031755447,-0.018099064007401466,0.0010646508308127522
0.33256417512893677,7.4218244552612305,6.311670780181885,0.05216789245605469,0.0596204474568367,0.010646508075296879
0.31732746958732605,7.528040409088135,6.6844482421875,0.013840461149811745,0.2555162012577057,0.05536184459924698
0.28815653920173645,7.533958911895752,6.611157417297363,0.03619812801480293,0.31726595759391785,0.0596204474568367
0.3459908664226532,7.53133487701416,6.64613151550293,0.13521066308021545,0.18099063634872437,0.043650683015584946
0.314569354057312,7.546102523803711,6.834181785583496,0.19589576125144958,0.1756673902273178,0.042586032301187515
0.4005690813064575,7.620906829833984,6.777985095977783,0.26509806513786316,0.2917143404483795,0.020228365436196327
0.1618480384349823,7.546331882476807,6.391263961791992,0.28639107942581177,0.36304593086242676,0.02874557301402092
0.18950586020946503,7.52310848236084,6.293618679046631,0.28532642126083374,0.36304593086242676,0.038327429443597794
0.19299180805683136,7.530185699462891,6.2058281898498535,0.30981338024139404,0.3832743167877197,0.06920230388641357
0.17151103913784027,7.653602123260498,5.835559844970703,0.2906496822834015,0.46738171577453613,0.09581857919692993
0.15773001313209534,7.489465236663818,5.856696128845215,0.28639107942581177,0.56107097864151,0.1575683206319809
-0.08884403854608536,8.073918342590332,4.114914417266846,0.18099063634872437,0.1788613349199295,0.15650367736816406
0.0701405331492424,7.976043224334717,5.0255446434021,0.070266954600811,-0.06920230388641357,0.10327113419771194
0.1755620241165161,7.7794413566589355,6.382960796356201,-0.07133160531520844,0.006387905217707157,0.02555162087082863
0.08355764299631119,7.855299472808838,6.5364484786987305,-0.12243484705686569,0.1362753063440323,-0.0074525559321045876
-0.4179030954837799,8.121294975280762,6.290487289428711,-0.1895078420639038,0.28852036595344543,-0.0351334773004055
-0.18356823921203613,7.524056434631348,6.645327091217041,-0.06920230388641357,-0.006387905217707157,0.02342231757938862
0.26660874485969543,7.560515403747559,5.636707305908203,0.2587101459503174,-0.06813765317201614,-0.0074525559321045876
0.07633672654628754,7.840886116027832,5.109312534332275,0.21931807696819305,-0.02661627158522606,-0.021293016150593758
0.056646812707185745,8.04331111907959,4.968648433685303,0.1575683206319809,-0.009581857360899448,-0.02874557301402092
0.02758120372891426,8.061564445495605,4.961015701293945,-0.03087487444281578,-0.02768092229962349,-0.015969762578606606
0.0368419773876667,7.937755584716797,5.509010314941406,-0.2065422683954239,-0.11285299062728882,-0.043650683015584946
-0.12696930766105652,7.764434337615967,5.882256984710693,-0.20973621308803558,-0.377951055765152,-0.08623671531677246
-0.09596917778253555,7.55540132522583,6.424342155456543,-0.12775810062885284,-0.41947242617607117,-0.12243484705686569
0.055459290742874146,7.633385181427002,6.757672309875488,-0.05749114602804184,-0.25764551758766174,-0.10220648348331451
0.09808565676212311,7.762787342071533,6.5413994789123535,-0.03619812801480293,-0.1682148277759552,-0.08304276317358017
0.12957420945167542,7.911658763885498,6.33563232421875,-0.03406882658600807,-0.13521066308021545,-0.06174974888563156
0.21893538534641266,7.840052604675293,6.27043342590332,-0.03406882658600807,-0.09368927031755447,-0.03726277872920036
0.20186950266361237,7.641439437866211,6.204659461975098,-0.0010646508308127522,-0.07239625602960587,-0.0351334773004055
0.18734149634838104,7.699455738067627,6.095570087432861,0.070266954600811,-0.043650683015584946,-0.019163714721798897
0.11229763925075531,7.8025593757629395,5.963803291320801,0.09155996888875961,-0.03193952515721321,-0.019163714721798897
0.10645578801631927,7.854494571685791,5.948757648468018,0.08517206460237503,-0.017034413293004036,-0.010646508075296879
0.1535545140504837,7.729296684265137,5.921378135681152,0.040456730872392654,0.010646508075296879,0.009581857360899448
0.14792335033416748,7.7183122634887695,5.866876602172852,0.02342231757938862,0.0351334773004055,0.01171115878969431
0.10557471215724945,7.685712814331055,5.892341136932373,0.0021293016616255045,0.02661627158522606,0.012775810435414314
0.11360008269548416,7.795520305633545,6.053863048553467,0.010646508075296879,0.0031939526088535786,-0.0021293016616255045
0.13457328081130981,7.8227763175964355,6.237058162689209,0.03193952515721321,0.04684463515877724,0.013840461149811745
0.1757918745279312,7.779699802398682,6.178160667419434,0.07133160531520844,0.06174974888563156,0.017034413293004036
0.0789128839969635,7.7135910987854,6.039096355438232,0.10007718205451965,0.07665485888719559,0.014905111864209175
0.08828858286142349,7.700777530670166,5.911647796630859,0.10220648348331451,0.08623671531677246,0.02768092229962349
0.20252074301242828,7.567286014556885,5.59177303314209,0.08836601674556732,0.11604694277048111,0.039392080157995224
-0.1827063113451004,7.813601493835449,4.285409927368164,0.05429719388484955,0.2693566679954529,0.043650683015584946
0.25060588121414185,8.164266586303711,4.921999931335449,-0.2171887755393982,-0.08943066745996475,0.0351334773004055
0.11707646399736404,7.764233589172363,7.2546515464782715,-0.2246413230895996,0.05323254317045212,0.0
-0.08599015325307846,7.904581546783447,7.176370620727539,-0.02768092229962349,-0.015969762578606606,-0.012775810435414314
-0.14057794213294983,7.875563621520996,6.478633403778076,0.1192408949136734,-0.10433578491210938,0.009581857360899448
0.08623914420604706,7.718322277069092,5.9597907066345215,0.1192408949136734,-0.1469218134880066,0.0010646508308127522
0.1133798137307167,7.669854164123535,5.368853569030762,0.05429719388484955,-0.1511804163455963,-0.02874557301402092
0.2719525694847107,7.673186302185059,5.059149265289307,-0.005323254037648439,-0.1298874020576477,-0.043650683015584946
0.09695558995008469,7.745118141174316,4.916426181793213,-0.1543743759393692,-0.12562879920005798,-0.06494370102882385
0.043612778186798096,7.79950475692749,5.557679653167725,-0.2597748041152954,-0.2065422683954239,-0.05855579674243927
0.08681374788284302,7.803009986877441,6.130889415740967,-0.2587101459503174,-0.20228366553783417,-0.05003859102725983
0.1883087456226349,7.722287178039551,6.215453147888184,-0.253386914730072,-0.12562879920005798,-0.05216789245605469
0.15864938497543335,7.721559047698975,6.185113906860352,-0.2661627233028412,-0.11178833991289139,-0.06494370102882385
0.24569298326969147,7.63893985748291,6.156383514404297,-0.30023154616355896,-0.08304276317358017,-0.0841074138879776
0.20717506110668182,7.626547336578369,6.598735809326172,-0.27467992901802063,-0.1927018016576767,-0.12456414848566055
-0.006263231858611107,7.5601325035095215,6.774479866027832,-0.15543901920318604,-0.23954643309116364,-0.1085943877696991
0.19843144714832306,7.406271457672119,6.585404872894287,-0.0596204474568367,-0.22889992594718933,-0.07239625602960587
0.31959718465805054,7.608782768249512,6.145389080047607,-0.009581857360899448,-0.19589576125144958,-0.070266954600811
0.19091364741325378,7.652481555938721,5.748823165893555,-0.09794788062572479,-0.21612411737442017,-0.10220648348331451
0.25010788440704346,7.547070026397705,5.960843563079834,-0.20867156982421875,-0.2139948159456253,-0.10220648348331451
0.25306713581085205,7.502700328826904,6.207025527954102,-0.2171887755393982,-0.20760691165924072,-0.10646508634090424
0.18405665457248688,7.49526834487915,6.45604133605957,-0.1852492392063141,-0.21825341880321503,-0.11391764134168625
0.2612840235233307,7.4601311683654785,6.668349742889404,-0.09794788062572479,-0.19908970594406128,-0.07984881103038788
0.2705352306365967,7.374658107757568,6.314793109893799,-0.12562879920005798,-0.12456414848566055,-0.07452555745840073
0.2905794680118561,7.423883438110352,6.225268840789795,-0.21186551451683044,-0.0734609067440033,-0.06600835174322128
0.337783545255661,7.363358020782471,6.409316539764404,-0.2736152708530426,-0.03406882658600807,-0.05429719388484955
0.2645305395126343,7.326017379760742,6.586832046508789,-0.22889992594718933,-0.024486970156431198,-0.04684463515877724
0.24577917158603668,7.3905463218688965,6.500296115875244,-0.1362753063440323,-0.06707300245761871,-0.040456730872392654
0.33529359102249146,7.319572925567627,6.618492603302002,-0.12456414848566055,-0.06068509817123413,-0.03300417587161064
0.25744372606277466,7.24744987487793,6.804685115814209,-0.07984881103038788,-0.021293016150593758,-0.02342231757938862
0.2787042260169983,7.239337921142578,6.8014960289001465,-0.039392080157995224,0.0,-0.019163714721798897
0.26077646017074585,7.309449672698975,6.6746416091918945,0.021293016150593758,0.0,-0.012775810435414314
0.3015640676021576,7.325184345245361,6.3704915046691895,-0.008517206646502018,-0.018099064007401466,0.0010646508308127522
0.2757737338542938,7.23114013671875,6.36765718460083,-0.043650683015584946,-0.013840461149811745,0.0021293016616255045
0.21642625331878662,7.2380452156066895,6.5106964111328125,-0.05642649531364441,0.0031939526088535786,-0.005323254037648439
0.19797176122665405,7.309535980224609,6.644848346710205,-0.048973940312862396,0.004258603323251009,0.0
0.2361736297607422,7.321564674377441,6.806045055389404,-0.008517206646502018,0.010646508075296879,0.005323254037648439
0.26926150918006897,7.267790794372559,6.594742298126221,0.02661627158522606,0.022357666864991188,0.0
0.31422460079193115,7.286685943603516,6.318556785583496,0.008517206646502018,0.010646508075296879,-0.005323254037648439
0.27006596326828003,7.253042697906494,6.281494617462158,-0.05323254317045212,0.02768092229962349,0.0010646508308127522
0.19911138713359833,7.263845443725586,6.8565144538879395,0.0010646508308127522,-0.012775810435414314,0.01171115878969431
0.21259553730487823,7.269505023956299,6.742129325866699,0.02981022372841835,-0.01171115878969431,0.008517206646502018
0.2585163414478302,7.273191928863525,6.558159351348877,0.02342231757938862,-0.012775810435414314,0.0010646508308127522
0.2279854565858841,7.220165729522705,6.639925956726074,0.0031939526088535786,0.010646508075296879,0.008517206646502018
0.2789340913295746,7.086358547210693,6.713849067687988,0.04684463515877724,0.041521381586790085,0.02342231757938862
0.21923226118087769,7.32958984375,5.935580730438232,0.14159856736660004,0.2278352826833725,0.01171115878969431
0.19366218149662018,7.668254375457764,5.638737678527832,-0.09368927031755447,-0.0596204474568367,0.02874557301402092
0.44992795586586,7.324638843536377,6.728999614715576,-0.2246413230895996,-0.03406882658600807,0.03193952515721321
0.3812335133552551,7.2504377365112305,7.415790557861328,-0.24274039268493652,0.07452555745840073,0.02661627158522606
0.07554185390472412,7.1228556632995605,7.632236480712891,-0.10327113419771194,0.1330813616514206,0.02555162087082863
0.12423034012317657,7.233706951141357,7.084251403808594,0.11498229205608368,0.08197811245918274,0.044715333729982376
0.3994007408618927,7.173497676849365,6.695289134979248,0.19057250022888184,0.12562879920005798,0.06707300245761871
0.43242156505584717,7.2445478439331055,6.385240077972412,0.17353808879852295,0.20973621308803558,0.0734609067440033
0.33178848028182983,7.295994758605957,6.126120567321777,0.140533909201622,0.22889992594718933,0.08943066745996475
0.2999168634414673,7.372848033905029,6.070182800292969,0.12775810062885284,0.23209388554096222,0.09794788062572479
0.17673039436340332,7.396378517150879,6.009800910949707,0.11072368919849396,0.23741713166236877,0.10007718205451965
-0.06319735199213028,7.364602565765381,6.499788761138916,0.06174974888563156,0.19802506268024445,0.10646508634090424
0.15952087938785553,7.334780693054199,7.305284023284912,0.07878416031599045,0.203348308801651,0.10646508634090424
0.03275267779827118,7.252257347106934,6.752817153930664,0.126693457365036,0.2661627233028412,0.12882275879383087
0.20670579373836517,7.3804521560668945,6.473873615264893,0.12775810062885284,0.28213247656822205,0.14159856736660004
0.25519317388534546,7.31634521484375,6.461701393127441,0.1511804163455963,0.36304593086242676,0.11178833991289139
0.12242031842470169,7.4642205238342285,6.539177894592285,0.19908970594406128,0.3673045337200165,0.08091346174478531
-0.18866309523582458,7.7192511558532715,6.186904430389404,0.21186551451683044,0.3428175747394562,0.10327113419771194
0.017764976248145103,7.4560227394104,6.571566581726074,0.1852492392063141,0.15863297879695892,0.15863297879695892
-0.012746729888021946,7.4728779792785645,6.288581371307373,0.20867156982421875,0.3513347804546356,0.11604694277048111
-0.02919010818004608,7.545613765716553,6.030285358428955,0.17460273206233978,0.3396236300468445,0.07771950960159302
-0.025254039093852043,7.584045886993408,6.317484378814697,0.18631389737129211,0.2587101459503174,0.06494370102882385
-0.0006033388199284673,7.629928112030029,6.203826427459717,0.20760691165924072,0.24274039268493652,0.070266954600811
-0.20324856042861938,7.643403053283691,5.924346446990967,0.19802506268024445,0.16927948594093323,0.07133160531520844
-0.23079147934913635,7.5963521003723145,6.048807144165039,0.1756673902273178,0.12882275879383087,0.0841074138879776
-0.044043734669685364,7.535586833953857,6.314582347869873,0.18418459594249725,0.16608552634716034,0.09581857919692993
-0.020954053848981857,7.566318988800049,6.129424095153809,0.2001543641090393,0.21186551451683044,0.08304276317358017
-0.07096414268016815,7.730149269104004,6.01668643951416,0.19589576125144958,0.20441296696662903,0.05855579674243927
-0.12302365899085999,7.81566047668457,5.773952484130859,0.15863297879695892,0.203348308801651,0.03726277872920036
-0.19459113478660583,7.784938335418701,5.819538116455078,0.12349949777126312,0.17034412920475006,0.04684463515877724
-0.1547803431749344,7.720773696899414,6.0523600578308105,0.12562879920005798,0.14266321063041687,0.05642649531364441
-0.12827174365520477,7.729670524597168,6.007032871246338,0.16715018451213837,0.12137019634246826,0.043650683015584946
-0.17113754153251648,7.7403106689453125,6.023772716522217,0.16182692348957062,0.15650367736816406,0.04684463515877724
-0.1842481791973114,7.767575740814209,6.0353803634643555,0.13733996450901031,0.2139948159456253,0.06494370102882385
-0.14696568250656128,7.704387664794922,6.002311706542969,0.1650208830833435,0.2768092155456543,0.08623671531677246
-0.11630074679851532,7.6722002029418945,5.773099899291992,0.1788613349199295,0.2661627233028412,0.09581857919692993
-0.14211980998516083,7.66295862197876,5.498552322387695,0.1820552945137024,0.2629687488079071,0.10114183276891708
-0.6766013503074646,7.6844964027404785,4.877486705780029,0.12243484705686569,0.3087487518787384,0.06281439960002899
0.14494498074054718,7.543631553649902,4.297850608825684,0.02981022372841835,0.13414600491523743,0.07878416031599045
-0.38190388679504395,8.074655532836914,5.781795978546143,-0.2108008712530136,-0.0074525559321045876,0.005323254037648439
-0.1664736270904541,8.042200088500977,6.800059795379639,-0.22677062451839447,0.16927948594093323,0.0010646508308127522
-0.6374514102935791,8.081110954284668,6.389310359954834,-0.13414600491523743,0.07559020817279816,0.0021293016616255045
-0.40255147218704224,7.715113639831543,6.237211227416992,-0.022357666864991188,-0.17460273206233978,-0.020228365436196327
-0.2980397939682007,7.6875901222229,6.227653980255127,0.02342231757938862,-0.2693566679954529,-0.042586032301187515
-0.2709566056728363,7.556550979614258,5.673999309539795,0.07239625602960587,-0.26190412044525146,-0.07878416031599045
-0.1694520264863968,7.874309062957764,5.1279778480529785,0.018099064007401466,-0.3012961745262146,-0.09688322991132736
-0.2088988870382309,7.928982734680176,5.237536430358887,-0.07665485888719559,-0.3790156841278076,-0.10327113419771194
-0.13976392149925232,7.9242329597473145,5.5202436447143555,-0.12137019634246826,-0.39711475372314453,-0.10327113419771194
-0.03871902823448181,7.816005229949951,6.304909706115723,-0.1575683206319809,-0.25445154309272766,-0.12243484705686569
-0.09209057688713074,7.756677150726318,6.388429164886475,-0.11604694277048111,-0.20867156982421875,-0.09901253134012222
0.004702212288975716,7.652634620666504,6.089661598205566,-0.09049531817436218,-0.3428175747394562,-0.140533909201622
0.08337567746639252,7.675657272338867,6.452038764953613,-0.06600835174322128,-0.2736152708530426,-0.09368927031755447
0.054204728454351425,7.602950096130371,6.552211761474609,0.040456730872392654,-0.15863297879695892,-0.03406882658600807
0.11218271404504776,7.698986530303955,6.404537677764893,0.13733996450901031,0.040456730872392654,0.03193952515721321
0.16521906852722168,7.790674686431885,6.153835773468018,0.1650208830833435,0.07771950960159302,0.05003859102725983
0.02198834717273712,7.687389373779297,6.099372386932373,0.1852492392063141,0.12456414848566055,0.04684463515877724
-0.08969637006521225,7.778512001037598,6.032459259033203,0.16927948594093323,0.12137019634246826,0.05323254317045212
-0.07432559877634048,7.845358371734619,5.862940311431885,0.14266321063041687,0.08517206460237503,0.05429719388484955
-0.2657085061073303,7.774796485900879,5.384387016296387,0.06494370102882385,-0.03406882658600807,0.041521381586790085
-0.28875988721847534,7.639093399047852,5.095024108886719,-0.04684463515877724,-0.1511804163455963,0.03193952515721321
-0.20401470363140106,7.679976463317871,5.244748115539551,-0.1511804163455963,-0.21293017268180847,0.03726277872920036
-0.0414675734937191,7.804934501647949,5.7358078956604,-0.1788613349199295,-0.2831971347332001,0.038327429443597794
0.4793957769870758,7.973639488220215,6.0785908699035645,-0.1575683206319809,-0.3470761775970459,-0.0074525559321045876
0.220170795917511,7.86852502822876,6.262292861938477,-0.13521066308021545,-0.31087803840637207,-0.0596204474568367
0.10137049853801727,7.675188064575195,6.103021621704102,-0.15650367736816406,-0.26829200983047485,-0.039392080157995224
0.1414685994386673,7.641640663146973,6.109102725982666,-0.1682148277759552,-0.22889992594718933,-0.03406882658600807
0.12875059247016907,7.570484638214111,6.145580768585205,-0.1756673902273178,-0.18844319880008698,-0.03193952515721321
0.3131903111934662,7.617985725402832,6.1907734870910645,-0.16608552634716034,-0.14266321063041687,-0.03193952515721321
0.4249420762062073,7.787131309509277,6.188340663909912,-0.13201670348644257,-0.1820552945137024,-0.05323254317045212
0.3966138958930969,7.759406566619873,6.3996148109436035,-0.09368927031755447,-0.24061109125614166,-0.0596204474568367
0.3161974251270294,7.7349090576171875,6.471795558929443,-0.05642649531364441,-0.252322256565094,-0.05749114602804184
0.28790754079818726,7.693115711212158,6.454020977020264,0.019163714721798897,-0.2171887755393982,-0.05003859102725983
0.30543309450149536,7.6128621101379395,6.167186260223389,0.0351334773004055,-0.18631389737129211,-0.05749114602804184
0.37045004963874817,7.608993053436279,6.05830717086792,0.021293016150593758,-0.16927948594093323,-0.06174974888563156
0.34089604020118713,7.618531703948975,6.050271987915039,0.0010646508308127522,-0.17353808879852295,-0.06387905031442642
0.3796437680721283,7.672516345977783,6.092495918273926,-0.0010646508308127522,-0.16608552634716034,-0.06494370102882385
0.37375402450561523,7.682811737060547,6.042764186859131,0.0074525559321045876,-0.17353808879852295,-0.06813765317201614
0.14024275541305542,7.596917152404785,6.117434501647949,0.013840461149811745,-0.22996458411216736,-0.05749114602804184
0.3882916271686554,7.615179538726807,6.262753009796143,0.02768092229962349,-0.16715018451213837,-0.03300417587161064
0.3642251193523407,7.653353214263916,6.206805229187012,0.010646508075296879,-0.09901253134012222,-0.038327429443597794
0.39811742305755615,7.671529769897461,6.123630523681641,-0.0031939526088535786,-0.10327113419771194,-0.042586032301187515
0.3780252933502197,7.630818843841553,6.204573631286621,-0.0074525559321045876,-0.11498229205608368,-0.06068509817123413
0.34029266238212585,7.524056434631348,6.403445720672607,0.01171115878969431,-0.10114183276891708,-0.06068509817123413
0.2999838888645172,7.58720588684082,6.118248462677002,0.03087487444281578,-0.07878416031599045,-0.03406882658600807
0.38723820447921753,7.590394973754883,4.778932094573975,-0.0031939526088535786,-0.15543901920318604,-0.009581857360899448
0.3769335448741913,7.627036094665527,5.733480930328369,-0.11604694277048111,-0.2981022298336029,-0.03193952515721321
0.291891485452652,7.553112983703613,6.096039772033691,-0.1298874020576477,-0.19802506268024445,-0.004258603323251009
0.5850662589073181,7.751811981201172,6.524822235107422,-0.18311993777751923,-0.014905111864209175,0.014905111864209175
0.7627735137939453,7.7717509269714355,6.867087364196777,-0.1650208830833435,0.06813765317201614,0.0031939526088535786
0.6426899433135986,7.664577007293701,6.857137203216553,-0.11178833991289139,0.06813765317201614,-0.017034413293004036
0.175954669713974,7.460179328918457,6.426764965057373,-0.0021293016616255045,-0.012775810435414314,-0.0010646508308127522
0.4763790965080261,7.528720855712891,6.326821804046631,0.041521381586790085,0.039392080157995224,0.0031939526088535786
0.5330354571342468,7.661550998687744,6.135084629058838,-0.014905111864209175,0.08517206460237503,-0.009581857360899448
0.43019014596939087,7.618445873260498,6.299613952636719,-0.03406882658600807,0.11072368919849396,-0.020228365436196327
0.3389231860637665,7.521116733551025,6.4080424308776855,0.015969762578606606,0.11604694277048111,-0.015969762578606606
0.22603179514408112,7.586325168609619,6.139346122741699,0.05749114602804184,0.01171115878969431,-0.0021293016616255045
0.3555963933467865,7.541994094848633,6.1328911781311035,0.05110324174165726,0.0031939526088535786,0.008517206646502018
0.3863092362880707,7.598535060882568,6.253329277038574,0.03193952515721321,0.06068509817123413,-0.0074525559321045876
0.3304285705089569,7.645078659057617,6.122433662414551,-0.0031939526088535786,0.06387905031442642,-0.009581857360899448
0.4944792687892914,7.632063865661621,6.492778301239014,-0.0010646508308127522,0.06707300245761871,-0.009581857360899448
0.4150013327598572,7.616137504577637,6.394376277923584,0.07133160531520844,0.07239625602960587,-0.019163714721798897
0.29432401061058044,7.62106990814209,5.914080619812012,0.08517206460237503,0.02768092229962349,-0.01171115878969431
0.33695995807647705,7.631048679351807,6.216630935668945,0.06920230388641357,0.06920230388641357,-0.01171115878969431
0.28994739055633545,7.641554355621338,6.197754859924316,0.06813765317201614,0.09049531817436218,-0.010646508075296879
0.2054608166217804,7.591401100158691,6.109341621398926,0.06174974888563156,0.05110324174165726,-0.005323254037648439
0.2565818130970001,7.50415563583374,6.049649715423584,0.05536184459924698,0.03087487444281578,0.004258603323251009
0.280897319316864,7.5044145584106445,6.107053279876709,0.05323254317045212,0.04684463515877724,0.010646508075296879
0.24711991846561432,7.75014591217041,5.7395429611206055,0.09901253134012222,0.16289158165454865,0.015969762578606606
0.5955719947814941,7.71689510345459,6.450343132019043,0.05110324174165726,-0.10646508634090424,0.03300417587161064
0.5042092800140381,7.788577556610107,6.4404120445251465,-0.10752973705530167,0.07665485888719559,-0.018099064007401466
0.12540829181671143,7.775093078613281,6.49188756942749,-0.12349949777126312,0.13095206022262573,-0.021293016150593758
0.1817677915096283,7.554759979248047,6.297123908996582,-0.02768092229962349,0.06494370102882385,-0.005323254037648439
0.20949263870716095,7.481937885284424,6.3092193603515625,0.03619812801480293,-0.02768092229962349,-0.004258603323251009
0.3136787414550781,7.527925968170166,5.8653154373168945,0.06174974888563156,-0.03087487444281578,-0.009581857360899448
0.3561135530471802,7.668560981750488,5.800087928771973,0.0010646508308127522,0.008517206646502018,-0.012775810435414314
0.2845843732357025,7.73647928237915,5.848651885986328,-0.019163714721798897,-0.0010646508308127522,-0.0074525559321045876
0.2030666023492813,7.652969837188721,6.056142807006836,-0.038327429443597794,-0.048973940312862396,-0.0010646508308127522
0.3793947696685791,7.625034332275391,6.174952507019043,-0.05110324174165726,-0.042586032301187515,-0.0031939526088535786
0.2543216943740845,7.633625030517578,6.092400550842285,-0.02874557301402092,-0.03726277872920036,-0.01171115878969431
0.2811846435070038,7.677362442016602,6.121485233306885,-0.07133160531520844,-0.012775810435414314,-0.0074525559321045876
0.29776209592819214,7.578041076660156,6.20736026763916,-0.10965903848409653,0.03193952515721321,-0.0021293016616255045
0.26588088274002075,7.612642288208008,6.188551902770996,-0.08623671531677246,0.004258603323251009,-0.0074525559321045876
0.35494518280029297,7.646457672119141,6.1736884117126465,-0.0734609067440033,-0.03726277872920036,-0.015969762578606606
0.38893330097198486,7.640347480773926,6.2345871925354,-0.08091346174478531,-0.0031939526088535786,-0.02342231757938862
0.2704298794269562,7.544867038726807,6.408703327178955,-0.07239625602960587,0.03726277872920036,-0.024486970156431198
0.19330784678459167,7.541017055511475,6.175690174102783,-0.04684463515877724,0.014905111864209175,-0.014905111864209175
0.3547249138355255,7.5239129066467285,6.061103343963623,-0.07133160531520844,-0.0010646508308127522,-0.02555162087082863
0.29192981123924255,7.5761542320251465,5.861886501312256,-0.1192408949136734,-0.015969762578606606,-0.05216789245605469
0.22935494780540466,7.548008441925049,6.308788776397705,-0.15969762206077576,-0.0010646508308127522,-0.06281439960002899
0.2347371131181717,7.524679183959961,6.4925384521484375,-0.14266321063041687,0.015969762578606606,-0.05323254317045212
0.18767668306827545,7.454624652862549,6.222588062286377,-0.05216789245605469,-0.02555162087082863,-0.045779984444379807
0.19017621874809265,7.435701370239258,6.12769079208374,-0.09901253134012222,-0.05323254317045212,-0.05536184459924698
0.1214434877038002,7.3830671310424805,6.144651889801025,-0.1543743759393692,-0.08197811245918274,-0.07239625602960587
0.1682261824607849,7.389205455780029,6.15864372253418,-0.18099063634872437,-0.10220648348331451,-0.07665485888719559
0.2406364232301712,7.371641635894775,6.4792938232421875,-0.18099063634872437,-0.11817624419927597,-0.08730136603116989
0.24422772228717804,7.300074100494385,6.434091091156006,-0.12456414848566055,-0.06813765317201614,-0.05429719388484955
0.14472469687461853,7.266067028045654,6.4708662033081055,-0.10114183276891708,-0.10007718205451965,-0.05642649531364441
0.24410322308540344,7.284214973449707,6.333822250366211,-0.12456414848566055,-0.2065422683954239,-0.0351334773004055
0.24376803636550903,7.2255859375,6.508464813232422,-0.1469218134880066,-0.203348308801651,-0.02768092229962349
0.13222697377204895,6.912586688995361,6.799571514129639,-0.1650208830833435,-0.11178833991289139,-0.013840461149811745
0.37813064455986023,7.547280311584473,6.986050605773926,-0.16927948594093323,-0.018099064007401466,-0.017034413293004036
0.4219636917114258,7.355237007141113,7.064063549041748,-0.1054004356265068,0.014905111864209175,-0.02661627158522606
0.17658674716949463,7.17940616607666,6.682705402374268,-0.010646508075296879,-0.03619812801480293,-0.02768092229962349
0.2560167908668518,7.298896312713623,6.694475173950195,0.02768092229962349,-0.07771950960159302,-0.013840461149811745
0.30148744583129883,7.312131404876709,6.474409580230713,0.02661627158522606,-0.09049531817436218,-0.019163714721798897
0.3317789137363434,7.256269931793213,6.522562026977539,0.004258603323251009,-0.11391764134168625,-0.02661627158522606
0.35135388374328613,7.236158847808838,6.607192516326904,0.008517206646502018,-0.10752973705530167,-0.039392080157995224
0.3363470435142517,7.220615386962891,6.633509159088135,0.012775810435414314,-0.09794788062572479,-0.041521381586790085
0.3573872745037079,7.238868713378906,6.594847679138184,0.017034413293004036,-0.10007718205451965,-0.02981022372841835
0.35223495960235596,7.2833147048950195,6.56746768951416,0.008517206646502018,-0.10220648348331451,-0.021293016150593758
0.40053078532218933,7.258578300476074,6.48150634765625,-0.009581857360899448,-0.043650683015584946,-0.015969762578606606
0.3142533302307129,7.277482509613037,6.518951892852783,-0.02874557301402092,-0.048973940312862396,-0.017034413293004036
0.33793675899505615,7.234645366668701,6.618157863616943,-0.020228365436196327,-0.070266954600811,-0.018099064007401466
0.3438456654548645,7.251452445983887,6.770371437072754,-0.005323254037648439,-0.0734609067440033,-0.020228365436196327
0.4062385559082031,7.263222694396973,6.8539581298828125,0.03193952515721321,-0.048973940312862396,-0.014905111864209175
0.29582756757736206,7.224005699157715,6.494521141052246,-0.008517206646502018,-0.009581857360899448,-0.009581857360899448
0.3980216681957245,7.2852301597595215,6.627609729766846,-0.01171115878969431,-0.02342231757938862,-0.0031939526088535786
0.4124443233013153,7.2728190422058105,6.702337741851807,0.004258603323251009,-0.02768092229962349,-0.005323254037648439
0.32795774936676025,7.2587409019470215,6.580779075622559,0.024486970156431198,-0.015969762578606606,-0.0021293016616255045
0.34894052147865295,7.284712791442871,6.48468542098999,0.0010646508308127522,-0.0031939526088535786,-0.0010646508308127522
0.3914424180984497,7.306375980377197,6.504146099090576,-0.013840461149811745,0.01171115878969431,-0.006387905217707157
0.37444356083869934,7.260617733001709,6.643249034881592,-0.019163714721798897,-0.0021293016616255045,-0.004258603323251009
0.3590153157711029,7.244471073150635,6.751323223114014,0.009581857360899448,-0.006387905217707157,0.0031939526088535786
0.44871169328689575,7.256021022796631,6.6601996421813965,0.02342231757938862,-0.005323254037648439,0.0031939526088535786
0.33364635705947876,7.250552654266357,6.472561359405518,0.02981022372841835,0.009581857360899448,-0.004258603323251009
0.32389718294143677,7.2119293212890625,6.246203899383545,-0.013840461149811745,-0.004258603323251009,0.0010646508308127522
0.24731145799160004,7.221860408782959,6.83010196685791,-0.018099064007401466,-0.0021293016616255045,0.008517206646502018
0.5362628698348999,7.350314140319824,6.924174785614014,-0.0074525559321045876,0.013840461149811745,0.018099064007401466
0.3675003945827484,7.279848098754883,6.288590908050537,-0.020228365436196327,-0.0021293016616255045,-0.014905111864209175
0.3704787492752075,7.253291606903076,6.396560192108154,-0.02981022372841835,0.0074525559321045876,-0.012775810435414314
0.3341539204120636,7.2865519523620605,6.4772539138793945,-0.0351334773004055,0.0,0.006387905217707157
0.3837139308452606,7.211364269256592,6.688672065734863,-0.017034413293004036,-0.0010646508308127522,0.009581857360899448
0.3402831256389618,7.237547397613525,6.740453720092773,-0.022357666864991188,0.024486970156431198,0.0021293016616255045
0.353489488363266,7.2631940841674805,6.7862114906311035,-0.0031939526088535786,0.021293016150593758,0.0
0.38677850365638733,7.266737461090088,6.609279632568359,0.010646508075296879,-0.0010646508308127522,0.0031939526088535786
0.4112184941768646,7.2262654304504395,6.534168720245361,-0.005323254037648439,0.017034413293004036,-0.0010646508308127522
0.3757460117340088,7.251443386077881,6.603658199310303,0.0031939526088535786,0.03300417587161064,-0.0010646508308127522
0.39446866512298584,7.284837245941162,6.666367053985596,0.015969762578606606,0.019163714721798897,-0.0074525559321045876
0.2889801263809204,7.216037750244141,6.70824670791626,0.012775810435414314,0.039392080157995224,0.0021293016616255045
0.346871942281723,7.2709221839904785,6.683490753173828,0.019163714721798897,0.05323254317045212,0.0
0.3367779850959778,7.2618727684021,6.603658199310303,0.021293016150593758,0.039392080157995224,0.004258603323251009
0.3684580624103546,7.2692179679870605,6.457909107208252,0.019163714721798897,0.008517206646502018,0.0021293016616255045
0.3310318887233734,7.22036600112915,6.372665882110596,-0.004258603323251009,0.02981022372841835,-0.0021293016616255045
0.3075016736984253,7.275193691253662,6.607852935791016,-0.017034413293004036,0.02555162087082863,0.005323254037648439
0.3105854094028473,7.2971343994140625,6.795999050140381,-0.009581857360899448,0.021293016150593758,0.0074525559321045876
0.2937493920326233,7.254325866699219,6.884823799133301,0.02555162087082863,0.038327429443597794,0.014905111864209175
0.40824970602989197,7.17627477645874,6.716856479644775,0.07239625602960587,0.10007718205451965,0.02342231757938862
0.22693200409412384,7.372494220733643,6.1490092277526855,0.12562879920005798,0.1437278687953949,0.004258603323251009
0.3338187634944916,7.296329498291016,5.996479511260986,0.047909289598464966,-0.11285299062728882,0.010646508075296879
0.5286014676094055,7.457268238067627,6.578155040740967,-0.06494370102882385,0.022357666864991188,0.006387905217707157
0.3937983214855194,7.312198162078857,6.879662036895752,-0.10114183276891708,0.07239625602960587,-0.0010646508308127522
0.23420080542564392,7.293848991394043,7.144805431365967,-0.044715333729982376,0.070266954600811,0.01171115878969431
0.27067887783050537,7.124655723571777,6.664940357208252,0.06387905031442642,0.05216789245605469,0.005323254037648439
0.30874666571617126,7.229885578155518,6.4193525314331055,0.08836601674556732,-0.03300417587161064,0.0
0.3375920057296753,7.299882888793945,6.085897922515869,0.009581857360899448,0.014905111864209175,-0.0010646508308127522
0.3033836781978607,7.296731948852539,6.294155120849609,-0.05536184459924698,0.010646508075296879,0.006387905217707157
0.30640995502471924,7.370377540588379,6.744073867797852,-0.015969762578606606,0.010646508075296879,0.0021293016616255045
0.24479275941848755,7.321746349334717,6.7606987953186035,-0.0021293016616255045,0.006387905217707157,0.015969762578606606
0.33809956908226013,7.203741073608398,6.515169143676758,0.0021293016616255045,0.02342231757938862,0.0
0.24773283302783966,7.25567626953125,6.440670967102051,-0.0031939526088535786,-0.024486970156431198,-0.004258603323251009
0.2406555712223053,7.261221408843994,6.548543930053711,-0.009581857360899448,-0.02661627158522606,0.0021293016616255045
0.35804805159568787,7.309928894042969,6.585855007171631,-0.019163714721798897,0.015969762578606606,0.006387905217707157
0.23245783150196075,7.283544540405273,6.541706085205078,0.0021293016616255045,0.005323254037648439,0.0074525559321045876
0.37000951170921326,7.322512626647949,6.577398777008057,0.0074525559321045876,-0.02981022372841835,0.012775810435414314
0.3068121671676636,7.3113555908203125,6.582675933837891,-0.018099064007401466,0.0031939526088535786,-0.0010646508308127522
0.30453285574913025,7.235076427459717,6.617966175079346,-0.021293016150593758,-0.0021293016616255045,0.0021293016616255045
0.3159196972846985,7.207189083099365,6.603093147277832,0.004258603323251009,-0.0021293016616255045,0.005323254037648439
0.33224818110466003,7.278708457946777,6.572696685791016,0.020228365436196327,-0.017034413293004036,0.006387905217707157
0.2992081642150879,7.291522026062012,6.538976669311523,0.004258603323251009,-0.008517206646502018,0.01171115878969431
0.3531638979911804,7.285833358764648,6.522159576416016,-0.0351334773004055,0.0021293016616255045,0.0074525559321045876
0.3641197681427002,7.264745712280273,6.5529680252075195,-0.03087487444281578,-0.0010646508308127522,0.005323254037648439
0.32755550742149353,7.257256507873535,6.595546722412109,-0.014905111864209175,-0.01171115878969431,0.0031939526088535786
0.3653551936149597,7.243858337402344,6.622228145599365,-0.008517206646502018,-0.018099064007401466,0.006387905217707157
0.3126540184020996,7.2454094886779785,6.61991024017334,-0.0031939526088535786,-0.008517206646502018,0.009581857360899448
0.32864728569984436,7.2806620597839355,6.520828723907471,-0.012775810435414314,-0.004258603323251009,0.010646508075296879
0.3728729784488678,7.2273383140563965,6.542644500732422,-0.019163714721798897,-0.004258603323251009,0.0010646508308127522
0.34410426020622253,7.213815689086914,6.489129543304443,-0.021293016150593758,-0.008517206646502018,-0.0010646508308127522
0.31534507870674133,7.251567840576172,6.605688571929932,-0.03193952515721321,-0.02661627158522606,0.004258603323251009
0.3250272572040558,7.249594688415527,6.722736358642578,-0.020228365436196327,0.008517206646502018,0.0031939526088535786
0.32611897587776184,7.288074493408203,6.730206489562988,-0.0010646508308127522,-0.0021293016616255045,0.013840461149811745
0.40822097659111023,7.25902795791626,6.708237171173096,0.01171115878969431,-0.008517206646502018,0.014905111864209175
0.30701327323913574,7.168335437774658,6.678989887237549,0.048973940312862396,-0.01171115878969431,0.03193952515721321
0.2389892190694809,7.144268989562988,6.680119514465332,0.1362753063440323,-0.006387905217707157,0.07452555745840073
0.2580374777317047,7.196146488189697,6.693814277648926,0.16289158165454865,0.015969762578606606,0.11498229205608368
0.4936748147010803,7.373978614807129,6.410877227783203,0.14159856736660004,0.13521066308021545,0.13414600491523743
0.41431182622909546,7.374409198760986,6.291023254394531,0.024486970156431198,0.25125759840011597,0.14479251205921173
0.6097265481948853,7.373642921447754,6.721510887145996,-0.03726277872920036,0.32791244983673096,0.16182692348957062
0.5415205955505371,7.386619567871094,7.056382656097412,0.02661627158522606,0.4450240433216095,0.1788613349199295
0.2757928669452667,7.322120189666748,6.804359436035156,0.043650683015584946,0.5493598580360413,0.16289158165454865
0.12802274525165558,7.350170612335205,6.699809551239014,0.02981022372841835,0.5248728394508362,0.16927948594093323
0.36412933468818665,7.3645548820495605,6.6724677085876465,0.041521381586790085,0.47164031863212585,0.16927948594093323
0.030722396448254585,7.4114909172058105,5.799656867980957,0.1852492392063141,0.34920546412467957,0.11391764134168625
0.03056916780769825,7.42637300491333,6.079155921936035,0.042586032301187515,0.2831971347332001,0.08730136603116989
0.030444670468568802,7.422168731689453,6.2551774978637695,0.03406882658600807,0.22996458411216736,0.07878416031599045
0.18075264990329742,7.509193420410156,6.467658042907715,0.05536184459924698,0.1298874020576477,0.041521381586790085
-0.08371087163686752,7.4025654792785645,6.512458324432373,0.05642649531364441,0.13201670348644257,0.038327429443597794
-0.058284446597099304,7.4342451095581055,6.495230197906494,0.06813765317201614,0.18418459594249725,0.05110324174165726
-0.059108052402734756,7.448715686798096,6.395152568817139,0.05855579674243927,0.17779669165611267,0.045779984444379807
0.08923668414354324,7.4603705406188965,6.454318046569824,0.03087487444281578,0.15863297879695892,0.040456730872392654
0.03740701079368591,7.439368724822998,6.424840450286865,0.0010646508308127522,0.17353808879852295,0.039392080157995224
0.026546908542513847,7.420559883117676,6.56526517868042,0.02768092229962349,0.1927018016576767,0.041521381586790085
-0.06643430888652802,7.4309892654418945,6.627495288848877,0.10220648348331451,0.2065422683954239,0.08091346174478531
-0.042099643498659134,7.447901725769043,6.119656085968018,0.11498229205608368,0.23315852880477905,0.09581857919692993
-0.17790834605693817,7.59411096572876,5.547288417816162,0.1085943877696991,0.043650683015584946,0.06600835174322128
0.0010726023465394974,7.353512763977051,5.709692478179932,0.02874557301402092,-0.08730136603116989,0.02874557301402092
0.008475474081933498,7.5330586433410645,6.084805965423584,-0.09688322991132736,0.02661627158522606,0.006387905217707157
-0.1030847504734993,7.651063919067383,6.240898609161377,-0.1682148277759552,0.05536184459924698,-0.009581857360899448
-0.11082280427217484,7.695337772369385,6.664882659912109,-0.12030554562807083,-0.11285299062728882,-0.02661627158522606
-0.10484687983989716,7.342202663421631,6.679899215698242,-0.0596204474568367,-0.2384817898273468,-0.03726277872920036
0.06988196074962616,7.274619102478027,6.7477030754089355,-0.004258603323251009,-0.19163715839385986,-0.05536184459924698
-0.11014284938573837,7.356873989105225,6.4110212326049805,0.0021293016616255045,-0.08730136603116989,-0.048973940312862396
-0.077016681432724,7.538651943206787,6.1842803955078125,0.0,-0.12562879920005798,-0.03193952515721321
0.008322244510054588,7.451981544494629,6.226169586181641,-0.021293016150593758,-0.17673203349113464,-0.041521381586790085
0.017362751066684723,7.398131370544434,6.239892959594727,-0.041521381586790085,-0.1895078420639038,-0.05749114602804184
-0.06721002608537674,7.355648517608643,6.100847244262695,-0.07984881103038788,-0.22251202166080475,-0.0734609067440033
0.12862609326839447,7.463981628417969,6.056334495544434,-0.12243484705686569,-0.30661943554878235,-0.08730136603116989
0.08039729297161102,7.300304412841797,6.822220325469971,-0.12882275879383087,-0.3151366412639618,-0.09688322991132736
0.17881813645362854,7.309220314025879,6.898614406585693,-0.08197811245918274,-0.253386914730072,-0.09049531817436218
0.1997530311346054,7.347986698150635,6.809262752532959,-0.05749114602804184,-0.20441296696662903,-0.09262461960315704
0.1045212671160698,7.372675895690918,6.555334091186523,-0.024486970156431198,-0.18844319880008698,-0.09262461960315704
0.13343365490436554,7.355083465576172,6.564920425415039,-0.021293016150593758,-0.20121900737285614,-0.07133160531520844
0.2629503905773163,7.340315818786621,6.517007350921631,-0.009581857360899448,-0.1852492392063141,-0.06600835174322128
0.29680436849594116,7.344089508056641,6.349671840667725,-0.008517206646502018,-0.17992599308490753,-0.07133160531520844
0.3506835103034973,7.438995838165283,6.3001790046691895,-0.014905111864209175,-0.20760691165924072,-0.06813765317201614
0.18150921165943146,7.338831424713135,6.347718238830566,-0.020228365436196327,-0.19163715839385986,-0.06707300245761871
0.13355815410614014,7.258960723876953,6.6125264167785645,-0.02768092229962349,-0.14585717022418976,-0.044715333729982376
0.28528350591659546,7.361260414123535,6.944563865661621,0.014905111864209175,-0.10433578491210938,-0.047909289598464966
0.18805016577243805,7.377962589263916,6.822775840759277,0.0947539210319519,-0.12243484705686569,-0.06494370102882385
0.25833433866500854,7.369142055511475,6.633337020874023,0.12775810062885284,-0.1756673902273178,-0.06494370102882385
0.33035194873809814,7.401176929473877,6.383631229400635,0.17460273206233978,-0.2597748041152954,-0.08091346174478531
0.3237439692020416,7.399682521820068,6.353339672088623,0.16715018451213837,-0.23954643309116364,-0.08304276317358017
0.32491230964660645,7.380854606628418,6.245457172393799,0.1192408949136734,-0.2065422683954239,-0.06068509817123413
0.33191296458244324,7.371383190155029,6.232892036437988,0.07665485888719559,-0.1756673902273178,-0.041521381586790085
0.42622536420822144,7.367475509643555,6.2371826171875,-0.013840461149811745,-0.08304276317358017,-0.0351334773004055
0.38186559081077576,7.398015975952148,6.349767684936523,-0.05429719388484955,-0.03619812801480293,-0.02661627158522606
0.327986478805542,7.390938758850098,6.536275863647461,-0.02555162087082863,-0.06707300245761871,-0.021293016150593758
0.28053340315818787,7.384570121765137,6.606387615203857,0.01171115878969431,-0.05536184459924698,-0.013840461149811745
0.31383198499679565,7.362285137176514,6.561788558959961,0.022357666864991188,-0.05110324174165726,-0.012775810435414314
0.3051074743270874,7.407832622528076,6.45545768737793,0.03087487444281578,-0.043650683015584946,-0.008517206646502018
0.31176337599754333,7.4171600341796875,6.243656635284424,0.014905111864209175,-0.0596204474568367,-0.020228365436196327
0.4710352420806885,7.412151336669922,6.480232238769531,-0.02555162087082863,-0.048973940312862396,-0.020228365436196327
0.36187878251075745,7.401061534881592,6.421344757080078,-0.021293016150593758,-0.020228365436196327,-0.02661627158522606
0.3550218343734741,7.382865905761719,6.4629082679748535,-0.009581857360899448,-0.047909289598464966,-0.010646508075296879
0.4193013310432434,7.396033763885498,6.524630546569824,0.0010646508308127522,-0.044715333729982376,-0.006387905217707157
0.3980503976345062,7.42544412612915,6.4808454513549805,0.017034413293004036,-0.038327429443597794,-0.01171115878969431
0.350779265165329,7.44251012802124,6.43483829498291,0.02661627158522606,-0.017034413293004036,-0.004258603323251009
0.357205331325531,7.409287929534912,6.305666446685791,0.009581857360899448,-0.0010646508308127522,-0.0010646508308127522
0.37814977765083313,7.424783229827881,6.324063301086426,-0.009581857360899448,0.0021293016616255045,-0.004258603323251009
0.35971444845199585,7.4018754959106445,6.409287452697754,-0.014905111864209175,-0.013840461149811745,-0.01171115878969431
0.36992332339286804,7.403561115264893,6.467409133911133,-0.009581857360899448,-0.019163714721798897,-0.013840461149811745
0.33120429515838623,7.372590065002441,6.368863582611084,0.0021293016616255045,-0.021293016150593758,-0.004258603323251009
0.4176541268825531,7.424783229827881,6.424006938934326,0.0010646508308127522,-0.020228365436196327,-0.0010646508308127522
0.4154035747051239,7.493736267089844,6.56021785736084,0.008517206646502018,0.038327429443597794,-0.0031939526088535786
0.38378095626831055,7.475712776184082,6.592358112335205,0.013840461149811745,0.05216789245605469,-0.0010646508308127522
0.34895968437194824,7.3746490478515625,6.42955207824707,0.02555162087082863,0.020228365436196327,0.0021293016616255045
0.3235524296760559,7.392739295959473,6.229885101318359,0.015969762578606606,-0.044715333729982376,-0.004258603323251009
0.3888183534145355,7.455591678619385,6.3030900955200195,-0.03087487444281578,-0.041521381586790085,-0.004258603323251009
0.37729746103286743,7.438248634338379,6.540863513946533,-0.042586032301187515,-0.005323254037648439,-0.009581857360899448
0.39184463024139404,7.437022686004639,6.663647651672363,0.008517206646502018,0.024486970156431198,-0.0010646508308127522
0.40891048312187195,7.4223313331604,6.399528980255127,0.0596204474568367,-0.0021293016616255045,0.0
0.37048834562301636,7.399711608886719,6.310684680938721,0.06707300245761871,-0.02768092229962349,0.0
0.3415376543998718,7.421977519989014,6.278583526611328,0.047909289598464966,-0.02874557301402092,-0.004258603323251009
0.4008947014808655,7.4005632400512695,6.395487308502197,-0.005323254037648439,-0.006387905217707157,-0.0031939526088535786
0.47853386402130127,7.45835018157959,6.5275421142578125,-0.01171115878969431,0.03726277872920036,-0.013840461149811745
0.2725367844104767,7.435509204864502,6.69671630859375,0.15543901920318604,-0.006387905217707157,0.005323254037648439
0.4054149389266968,7.4953932762146,6.1985883712768555,0.20121900737285614,-0.06068509817123413,-0.009581857360899448
0.467683345079422,7.470330715179443,5.757040023803711,0.08197811245918274,0.006387905217707157,-0.03726277872920036
0.4311957359313965,7.441676616668701,5.662536144256592,-0.0021293016616255045,0.03300417587161064,-0.043650683015584946
0.3610551953315735,7.4165472984313965,6.050137996673584,-0.12456414848566055,0.05429719388484955,-0.015969762578606606
0.2414504587650299,7.468127727508545,6.652500152587891,-0.10752973705530167,-0.008517206646502018,-0.017034413293004036
0.10859141498804092,7.429638862609863,6.90164041519165,-0.05216789245605469,-0.05642649531364441,-0.009581857360899448
0.35810554027557373,7.48488712310791,6.560151100158691,0.05323254317045212,-0.1192408949136734,-0.021293016150593758
0.3035847842693329,7.380548477172852,6.235660076141357,0.06920230388641357,-0.17460273206233978,-0.06920230388641357
0.3007308840751648,7.38685941696167,6.197142124176025,0.043650683015584946,-0.16289158165454865,-0.07559020817279816
0.3304285705089569,7.358272552490234,6.167243003845215,-0.042586032301187515,-0.07665485888719559,-0.08304276317358017
0.39847177267074585,7.566204071044922,6.543219089508057,-0.07133160531520844,-0.08943066745996475,-0.06707300245761871
0.32480698823928833,7.5799946784973145,6.712814807891846,-0.038327429443597794,-0.10327113419771194,-0.03300417587161064
0.7608964443206787,7.6594438552856445,6.460925579071045,0.05855579674243927,-0.13733996450901031,-0.039392080157995224
0.44656649231910706,7.493171215057373,6.116371154785156,0.08091346174478531,-0.08091346174478531,-0.08623671531677246
0.2761280834674835,7.345190525054932,5.984125137329102,-0.022357666864991188,0.009581857360899448,-0.06281439960002899
0.37717297673225403,7.414909839630127,6.083494186401367,-0.08623671531677246,0.06920230388641357,-0.05216789245605469
0.28363630175590515,7.415158748626709,6.315022945404053,-0.14479251205921173,0.17992599308490753,-0.02874557301402092
0.1919575184583664,7.42008113861084,6.355370044708252,-0.14159856736660004,0.11711159348487854,-0.0074525559321045876
0.17788919806480408,7.390326023101807,6.460963726043701,-0.0947539210319519,0.03193952515721321,0.0021293016616255045
0.31426289677619934,7.4013872146606445,6.48581600189209,-0.008517206646502018,-0.08836601674556732,0.004258603323251009
0.38422149419784546,7.486802577972412,6.308520317077637,-0.0021293016616255045,-0.039392080157995224,0.0
0.3848535418510437,7.454385280609131,6.255273342132568,-0.07239625602960587,0.01171115878969431,0.012775810435414314
0.4817708432674408,7.419276714324951,6.383698463439941,-0.0947539210319519,0.040456730872392654,0.0074525559321045876
0.48232629895210266,7.384781360626221,6.479916572570801,-0.09368927031755447,0.06813765317201614,-0.005323254037648439
0.32133060693740845,7.3950090408325195,6.451511859893799,-0.08304276317358017,0.010646508075296879,0.0031939526088535786
0.2882523238658905,7.396790504455566,6.1201348304748535,-0.0596204474568367,-0.03300417587161064,0.009581857360899448
0.47571828961372375,7.479734897613525,6.143396854400635,-0.09794788062572479,-0.16395622491836548,-0.005323254037648439
0.4043136239051819,7.360024929046631,6.460810661315918,-0.09581857919692993,-0.09049531817436218,0.0021293016616255045
0.385629266500473,7.383631706237793,6.924251556396484,-0.126693457365036,0.02555162087082863,0.015969762578606606
0.40472543239593506,7.476134300231934,7.245850086212158,-0.11604694277048111,0.09368927031755447,0.015969762578606606
0.503117561340332,7.410676956176758,7.082450866699219,-0.05110324174165726,0.09049531817436218,0.0031939526088535786
0.23723666369915009,7.238581657409668,6.7891035079956055,0.040456730872392654,0.0021293016616255045,-0.0031939526088535786
0.41457995772361755,7.261853218078613,6.448044776916504,0.09262461960315704,0.0,0.0021293016616255045
0.3720972537994385,7.386102676391602,6.021254539489746,0.05003859102725983,0.006387905217707157,0.005323254037648439
0.37523844838142395,7.449089527130127,6.03059196472168,-0.043650683015584946,-0.014905111864209175,0.008517206646502018
0.2973789870738983,7.3309783935546875,6.497001647949219,-0.0734609067440033,-0.0010646508308127522,0.013840461149811745
0.3909156918525696,7.332118034362793,6.604922294616699,-0.043650683015584946,0.004258603323251009,0.010646508075296879
0.37924155592918396,7.361030578613281,6.570082187652588,-0.02874557301402092,-0.02661627158522606,0.0
0.4091978073120117,7.337864398956299,6.8223066329956055,-0.0031939526088535786,0.0074525559321045876,-0.008517206646502018
0.3823156952857971,7.31683349609375,6.72949743270874,0.014905111864209175,0.024486970156431198,-0.008517206646502018
0.35014721751213074,7.367705345153809,6.596964359283447,0.018099064007401466,0.006387905217707157,-0.006387905217707157
0.37180039286613464,7.300371170043945,6.50153112411499,0.015969762578606606,0.0351334773004055,-0.0074525559321045876
0.3292602002620697,7.3187971115112305,6.3993659019470215,0.013840461149811745,0.022357666864991188,-0.0074525559321045876
0.3420165181159973,7.343667984008789,6.268221378326416,0.005323254037648439,-0.01171115878969431,-0.0010646508308127522
0.3634589910507202,7.341723442077637,6.330652236938477,-0.014905111864209175,-0.024486970156431198,0.0010646508308127522
0.3453204929828644,7.398045063018799,6.556214809417725,-0.02768092229962349,0.018099064007401466,0.0031939526088535786
0.3369695246219635,7.333612442016602,6.703410625457764,-0.01171115878969431,0.03726277872920036,0.005323254037648439
0.25657224655151367,7.2956976890563965,6.507516384124756,0.03300417587161064,0.0,0.006387905217707157
0.3642921447753906,7.345248222351074,6.294979095458984,0.0074525559321045876,-0.017034413293004036,0.015969762578606606
0.4119080603122711,7.33921480178833,6.387299537658691,-0.0031939526088535786,-0.02342231757938862,0.005323254037648439
0.35514628887176514,7.375290393829346,6.432559013366699,-0.008517206646502018,-0.013840461149811745,-0.0010646508308127522
0.37004780769348145,7.438286781311035,6.473528861999512,-0.024486970156431198,0.0021293016616255045,0.004258603323251009
0.4005690813064575,7.3525166511535645,6.585864543914795,-0.02981022372841835,0.01171115878969431,0.0
0.42933782935142517,7.278497695922852,6.572524547576904,0.0031939526088535786,-0.0010646508308127522,0.0021293016616255045
0.43242156505584717,7.29707670211792,6.392441749572754,0.020228365436196327,-0.047909289598464966,-0.01171115878969431
0.33968934416770935,7.346311092376709,6.291703701019287,-0.0010646508308127522,-0.0351334773004055,-0.006387905217707157
0.3422655165195465,7.298781394958496,6.713676929473877,-0.048973940312862396,-0.06494370102882385,-0.005323254037648439
0.37509480118751526,7.378115653991699,6.801342964172363,-0.05003859102725983,0.10220648348331451,0.0074525559321045876
0.38728606700897217,7.3961968421936035,6.797310829162598,-0.04684463515877724,0.09155996888875961,0.006387905217707157
0.32283416390419006,7.337442874908447,6.795270919799805,-0.019163714721798897,0.07239625602960587,0.0021293016616255045
0.3735816776752472,7.295132637023926,6.595335960388184,0.05216789245605469,0.0010646508308127522,-0.0074525559321045876
0.3589770197868347,7.386562347412109,6.499223232269287,0.07133160531520844,0.043650683015584946,-0.004258603323251009
0.38718071579933167,7.395162105560303,6.418241500854492,0.03726277872920036,0.06813765317201614,0.0031939526088535786
0.44031283259391785,7.347278118133545,6.450822353363037,0.039392080157995224,0.07133160531520844,0.0031939526088535786
0.4277384877204895,7.416288375854492,6.774087429046631,0.09262461960315704,0.06920230388641357,0.010646508075296879
0.24949496984481812,7.401607513427734,6.699120044708252,0.1511804163455963,0.06813765317201614,0.005323254037648439
0.26242363452911377,7.460274696350098,6.275470733642578,0.1682148277759552,0.041521381586790085,0.0021293016616255045
0.2998306453227997,7.445977210998535,6.321995258331299,0.13840460777282715,0.06707300245761871,-0.013840461149811745
0.17600254714488983,7.379542350769043,6.347258567810059,0.045779984444379807,0.10220648348331451,-0.0021293016616255045
0.2063801884651184,7.388803005218506,6.39634895324707,0.070266954600811,0.1085943877696991,0.014905111864209175
0.25560498237609863,7.552777290344238,6.380346298217773,0.10752973705530167,0.08730136603116989,0.012775810435414314
0.22480596601963043,7.568052291870117,6.266641139984131,0.12030554562807083,0.07984881103038788,0.014905111864209175
0.26947221159935,7.446446418762207,6.086261749267578,0.10433578491210938,0.07559020817279816,0.02555162087082863
0.32285329699516296,7.457785129547119,6.006180763244629,0.10220648348331451,0.07771950960159302,0.041521381586790085
0.0634942278265953,7.626030445098877,5.7575860023498535,0.10114183276891708,0.03406882658600807,0.03193952515721321
0.13690045475959778,7.54915714263916,6.005979537963867,0.06813765317201614,-0.09794788062572479,0.038327429443597794
0.2478477656841278,7.473634719848633,6.686698913574219,0.010646508075296879,-0.06600835174322128,0.009581857360899448
0.3500131368637085,7.650939464569092,6.678913116455078,-0.05749114602804184,0.03406882658600807,-0.01171115878969431
0.25050053000450134,7.851660251617432,6.649962425231934,-0.10327113419771194,0.09049531817436218,-0.039392080157995224
-0.016203956678509712,7.533422946929932,6.143741607666016,-0.17034412920475006,0.0021293016616255045,-0.039392080157995224
0.036056678742170334,7.401368141174316,6.314074516296387,-0.1650208830833435,-0.14905111491680145,-0.038327429443597794
0.4707862436771393,7.3050642013549805,6.447709560394287,-0.07559020817279816,-0.1682148277759552,-0.05323254317045212
0.28980374336242676,7.457037925720215,5.826529502868652,-0.05749114602804184,-0.045779984444379807,-0.06068509817123413
0.17022773623466492,7.626337051391602,5.89654541015625,-0.1192408949136734,-0.06281439960002899,-0.03087487444281578
0.12601162493228912,7.537674903869629,6.243675708770752,-0.18631389737129211,-0.05536184459924698,-0.010646508075296879
0.24871926009655,7.341091632843018,6.511845588684082,-0.21931807696819305,-0.08304276317358017,-0.019163714721798897
0.17864574491977692,7.403637886047363,6.362226963043213,-0.1330813616514206,-0.28639107942581177,-0.05429719388484955
0.41987594962120056,7.3750319480896,6.90981912612915,-0.17247343063354492,-0.13414600491523743,-0.042586032301187515
0.4887523353099823,7.309411525726318,7.177778244018555,-0.09794788062572479,-0.08730136603116989,-0.043650683015584946
0.37878185510635376,7.243590354919434,6.949773788452148,0.0351334773004055,-0.1054004356265068,-0.02981022372841835
0.4164857566356659,7.283133029937744,6.57081937789917,0.1054004356265068,-0.140533909201622,-0.02342231757938862
0.39490920305252075,7.282587051391602,6.176513671875,0.08517206460237503,-0.07984881103038788,-0.012775810435414314
0.4703074097633362,7.280786514282227,6.174952507019043,-0.1054004356265068,0.10220648348331451,0.010646508075296879
0.4376121759414673,7.337376117706299,6.0532026290893555,-0.10114183276891708,0.25125759840011597,-0.008517206646502018
0.2699989080429077,7.395918846130371,6.456759929656982,-0.20228366553783417,0.06920230388641357,-0.0010646508308127522
0.2275928258895874,7.443017482757568,7.30508279800415,-0.19696040451526642,-0.03726277872920036,0.004258603323251009
0.13941915333271027,7.1598219871521,7.218977928161621,-0.06494370102882385,-0.13095206022262573,0.010646508075296879
0.22560083866119385,6.973581314086914,6.628864765167236,0.05855579674243927,-0.15863297879695892,0.0031939526088535786
0.216004878282547,6.99595308303833,6.277951240539551,0.07559020817279816,-0.16076228022575378,0.0031939526088535786
0.3082582652568817,7.266651153564453,5.988616466522217,-0.010646508075296879,-0.30661943554878235,-0.0010646508308127522
0.21142716705799103,7.234703063964844,6.275336742401123,-0.06068509817123413,-0.3130073547363281,-0.004258603323251009
-0.15514427423477173,7.0002336502075195,6.388180255889893,-0.15650367736816406,-0.19802506268024445,0.07239625602960587
0.3500131368637085,7.069809436798096,6.411499977111816,-0.20867156982421875,-0.16289158165454865,0.1543743759393692
0.3248261511325836,6.948001861572266,6.443735122680664,-0.18844319880008698,-0.29277896881103516,0.1362753063440323
0.17788919806480408,6.899639129638672,6.541504859924316,-0.18418459594249725,-0.4247956871986389,0.15863297879695892
0.26561272144317627,6.895674228668213,6.64084529876709,-0.1756673902273178,-0.4939979910850525,0.17992599308490753
0.37040215730667114,6.901228904724121,6.847024440765381,-0.14585717022418976,-0.6079156398773193,0.1895078420639038
0.44254425168037415,6.838702201843262,6.889497756958008,-0.1330813616514206,-0.6100449562072754,0.20121900737285614
0.5608752369880676,6.969214916229248,6.901286602020264,-0.12137019634246826,-0.5908812284469604,0.25019294023513794
0.7775792479515076,7.144613742828369,6.700709819793701,-0.12882275879383087,-0.56107097864151,0.3183306157588959
1.414551854133606,6.755651950836182,6.528997421264648,-0.14479251205921173,-0.5514891147613525,0.34601151943206787
1.4357261657714844,6.88712215423584,6.9322004318237305,-0.11817624419927597,-0.5238082408905029,0.3076840937137604
1.5510883331298828,6.910758018493652,7.0647430419921875,-0.06281439960002899,-0.504644513130188,0.2831971347332001
1.5459647178649902,6.903852939605713,6.738997936248779,0.009581857360899448,-0.5504244565963745,0.25019294023513794
1.467387080192566,7.031176567077637,6.795644760131836,-0.006387905217707157,-0.6153681874275208,0.28852036595344543
2.003305196762085,7.179722785949707,7.242824077606201,-0.0010646508308127522,-0.5557477474212646,0.3055547773838043
2.323218584060669,7.230508327484131,7.460868835449219,0.11391764134168625,-0.39179152250289917,0.25019294023513794
2.3792426586151123,7.266976356506348,7.249259948730469,0.16715018451213837,-0.3151366412639618,0.2203827202320099
2.7141244411468506,7.504194259643555,6.680636882781982,0.21293017268180847,-0.26829200983047485,0.14585717022418976
2.568145275115967,7.346512317657471,6.385087013244629,0.1927018016576767,-0.2384817898273468,0.05323254317045212
2.311208963394165,7.247162818908691,6.350945949554443,0.1650208830833435,-0.18844319880008698,0.03193952515721321
1.9648926258087158,7.178439140319824,6.436926364898682,0.10007718205451965,-0.03726277872920036,0.03087487444281578
1.9549040794372559,7.2581467628479,6.31060791015625,0.07559020817279816,-0.017034413293004036,0.08943066745996475
2.2923617362976074,7.349404335021973,6.66178035736084,0.06813765317201614,-0.06068509817123413,0.06281439960002899
2.198767900466919,7.1906304359436035,6.706082344055176,0.08836601674556732,-0.021293016150593758,0.03087487444281578
2.0411717891693115,7.103491306304932,6.585692405700684,0.10114183276891708,-0.008517206646502018,0.024486970156431198
1.9098451137542725,7.0708537101745605,6.373997211456299,0.07771950960159302,-0.009581857360899448,0.04684463515877724
2.0530662536621094,7.105569362640381,6.25138521194458,0.044715333729982376,-0.0010646508308127522,0.05216789245605469
2.1906657218933105,7.258999347686768,5.61011266708374,-0.03406882658600807,-0.02555162087082863,0.048973940312862396
2.3882064819335938,7.373164653778076,7.124176979064941,-0.03193952515721321,0.02661627158522606,0.009581857360899448
2.2043797969818115,7.4143829345703125,6.853421211242676,0.040456730872392654,0.10007718205451965,-0.009581857360899448
