accX,accY,accZ,gyroX,gyroY,gyroZ
-1.03029203414917,-2.717026472091675,9.439216613769531,0.3928561508655548,-0.5451012253761292,0.1437278687953949
-0.6532626748085022,-1.946485996246338,9.052993774414062,0.280003160238266,-0.7058635354042053,0.3055547773838043
0.3621373474597931,0.7749264240264893,9.444321632385254,0.20121900737285614,-0.126693457365036,0.4460887014865875
0.4504163861274719,0.8571242094039917,8.916801452636719,0.03087487444281578,0.45354124903678894,0.1682148277759552
-0.17800410091876984,0.48340848088264465,9.433566093444824,-0.1330813616514206,-0.15969762206077576,-0.4620584547519684
-0.24329878389835358,-1.0334619283676147,9.535501480102539,-0.27574455738067627,-0.28213247656822205,-0.5557477474212646
0.013024456799030304,0.22978590428829193,9.479544639587402,-0.2352878302335739,-0.008517206646502018,-0.6292086243629456
-0.11462479829788208,0.11902055144309998,9.667000770568848,-0.05855579674243927,0.07452555745840073,-0.6824411749839783
-0.4560379683971405,-0.046552855521440506,9.624375343322754,-0.0010646508308127522,0.19163715839385986,-0.7292858362197876
-0.08829815685749054,0.02770570106804371,9.58804988861084,0.11072368919849396,0.16395622491836548,-0.8389448523521423
-0.41525033116340637,0.1356363147497177,9.675878524780273,0.23741713166236877,0.03193952515721321,-0.7761304378509521
-0.6328449845314026,0.3053947985172272,9.656830787658691,0.31407198309898376,0.12882275879383087,-0.6739239692687988
-0.7321755886077881,0.006770802661776543,9.181112289428711,0.32365384697914124,0.33855897188186646,-0.4247956871986389
-0.7813812494277954,0.07256346195936203,9.121784210205078,0.27893853187561035,0.3609166443347931,-0.2736152708530426
-1.0083420276641846,0.5513654947280884,9.146645545959473,0.04684463515877724,-0.2917143404483795,0.11178833991289139
-0.31401392817497253,0.7109725475311279,8.324725151062012,-0.3928561508655548,-0.07452555745840073,0.26509806513786316
0.06947015225887299,0.48539087176322937,8.557652473449707,-1.0486810207366943,0.32791244983673096,0.22570598125457764
-0.36134248971939087,-0.12772586941719055,10.448431015014648,-1.0167415142059326,0.253386914730072,0.03406882658600807
-0.5558953285217285,-0.51677405834198,10.617298126220703,-0.3268478214740753,0.09901253134012222,0.05003859102725983
-0.7542597055435181,-0.783919095993042,9.893367767333984,0.2565808594226837,0.20867156982421875,0.1852492392063141
-0.49943047761917114,-0.6060107350349426,9.734957695007324,0.4982565939426422,0.05642649531364441,0.22889992594718933
-0.16771861910820007,-0.00022984336828812957,8.819990158081055,0.38433894515037537,-0.03087487444281578,0.1650208830833435
-0.5073026418685913,0.17446069419384003,8.85682201385498,0.23741713166236877,0.12456414848566055,0.15224507451057434
-0.697766125202179,0.30718567967414856,9.370590209960938,0.043650683015584946,0.0596204474568367,0.16076228022575378
-0.8726099133491516,-0.2580949366092682,8.941567420959473,-0.1543743759393692,-0.04684463515877724,0.17353808879852295
-0.5902568697929382,-0.07348284125328064,9.660354614257812,-0.16715018451213837,-0.1543743759393692,0.13521066308021545
-0.24633462727069855,-0.22810038924217224,9.724778175354004,0.06600835174322128,-0.015969762578606606,0.02661627158522606
-0.2869402766227722,0.10611101984977722,9.473827362060547,0.15863297879695892,0.0947539210319519,-0.09155996888875961
-0.8747934103012085,0.02203623205423355,9.241378784179688,0.05855579674243927,0.039392080157995224,-0.08197811245918274
-0.8916102647781372,-0.06051584333181381,9.395441055297852,-0.014905111864209175,-0.1192408949136734,-0.0074525559321045876
-0.6397019624710083,0.09883265197277069,9.690837860107422,0.042586032301187515,-0.15650367736816406,0.038327429443597794
-0.4252197742462158,-0.10773907601833344,9.405122756958008,0.09581857919692993,-0.03726277872920036,0.05110324174165726
-0.702190637588501,0.061693791300058365,9.370205879211426,0.10646508634090424,0.09901253134012222,0.10114183276891708
-0.6920583248138428,0.17832013964653015,9.28937816619873,0.03087487444281578,0.05536184459924698,0.12882275879383087
-0.5969032049179077,0.19553925096988678,9.279839515686035,-0.08730136603116989,-0.02768092229962349,0.10114183276891708
-0.5822985768318176,0.14650599658489227,9.384198188781738,-0.12456414848566055,-0.05536184459924698,0.07771950960159302
-0.529750645160675,-0.06340803951025009,9.640233993530273,-0.070266954600811,-0.07239625602960587,0.039392080157995224
-0.6378728151321411,-0.006924031302332878,9.62304401397705,0.14266321063041687,-0.1054004356265068,0.05216789245605469
-0.5462228059768677,0.18015888333320618,9.371001243591309,0.16289158165454865,-0.15330971777439117,0.05216789245605469
-0.4237641394138336,0.18359696865081787,9.14095687866211,0.041521381586790085,-0.012775810435414314,0.05749114602804184
-0.5453512668609619,0.12106999009847641,9.397366523742676,-0.039392080157995224,0.020228365436196327,0.02981022372841835
-0.2972736656665802,-0.05850471183657646,9.457345962524414,-0.03193952515721321,-0.02768092229962349,-0.13414600491523743
-0.25377580523490906,0.295731782913208,9.695884704589844,0.02661627158522606,-0.0010646508308127522,-0.22251202166080475
-0.6370108723640442,0.18415242433547974,9.561110496520996,0.22357667982578278,0.22144737839698792,-0.17247343063354492
-0.7902876734733582,0.08519527316093445,9.511704444885254,0.26083946228027344,0.203348308801651,-0.1192408949136734
-1.0586297512054443,0.2679590582847595,9.349041938781738,0.17673203349113464,-0.08517206460237503,-0.048973940312862396
-0.7098137736320496,0.37874355912208557,9.01185131072998,0.070266954600811,-0.1085943877696991,-0.010646508075296879
-0.36304718255996704,0.22657766938209534,9.331831932067871,-0.12349949777126312,-0.07452555745840073,-0.018099064007401466
-0.5256900787353516,-0.03457227349281311,9.710633277893066,-0.02874557301402092,-0.03619812801480293,-0.12775810062885284
-0.3506739139556885,0.27419355511665344,9.311798095703125,0.07239625602960587,0.28958502411842346,-0.07878416031599045
-1.1332331895828247,0.07975564897060394,9.372562408447266,-0.03406882658600807,-0.05749114602804184,0.018099064007401466
-1.0880497694015503,0.22939324378967285,9.40085220336914,-0.043650683015584946,-0.18737854063510895,0.09368927031755447
-0.5796554088592529,0.21306480467319489,9.452308654785156,-0.05003859102725983,-0.2725506126880646,0.1820552945137024
-0.4333696663379669,0.18975485861301422,9.532772064208984,-0.014905111864209175,-0.16182692348957062,0.1852492392063141
-0.360624223947525,0.16785268485546112,9.414518356323242,0.024486970156431198,-0.05429719388484955,0.1330813616514206
-0.42657971382141113,0.19976261258125305,9.484946250915527,0.038327429443597794,-0.02661627158522606,0.06281439960002899
-0.4766472578048706,0.2905603349208832,9.449051856994629,0.012775810435414314,-0.009581857360899448,0.0010646508308127522
-0.6808439493179321,0.17946936190128326,9.43248462677002,0.01171115878969431,-0.06281439960002899,0.03726277872920036
-0.6271084547042847,0.23580971360206604,9.362248420715332,-0.0074525559321045876,-0.1511804163455963,0.10965903848409653
-0.5848747491836548,0.3393828868865967,9.338018417358398,-0.038327429443597794,-0.18418459594249725,0.1362753063440323
-0.4495927691459656,0.25727131962776184,9.423405647277832,-0.0947539210319519,-0.26829200983047485,0.14266321063041687
-0.38032373785972595,0.17909586429595947,9.442673683166504,-0.10327113419771194,-0.2629687488079071,0.1362753063440323
0.09761639684438705,0.0124977333471179,9.487157821655273,-0.09049531817436218,-0.18099063634872437,0.08623671531677246
-0.038019925355911255,-0.058590903878211975,9.605958938598633,-0.0074525559321045876,0.07452555745840073,-0.021293016150593758
-0.12703633308410645,0.027054479345679283,9.76749038696289,0.13201670348644257,0.05749114602804184,-0.1575683206319809
-0.2797098159790039,0.3081529140472412,9.290029525756836,0.1852492392063141,0.12456414848566055,-0.252322256565094
-0.3262626528739929,0.5763130784034729,9.237710952758789,0.021293016150593758,0.09581857919692993,-0.23422318696975708
-0.6613646745681763,0.11726799607276917,9.655269622802734,-0.004258603323251009,-0.14479251205921173,0.009581857360899448
-0.2889418303966522,0.12145306169986725,9.302641868591309,0.02661627158522606,-0.20867156982421875,0.041521381586790085
-0.309694766998291,0.12122321873903275,9.571414947509766,0.03726277872920036,-0.10114183276891708,0.05216789245605469
-0.2448214888572693,-0.03462973237037659,9.874052047729492,0.18844319880008698,-0.12349949777126312,-0.043650683015584946
-0.08907388150691986,0.2744712829589844,9.551188468933105,0.31407198309898376,-0.09262461960315704,-0.07665485888719559
-0.2008352130651474,0.9826953411102295,9.629182815551758,0.24699899554252625,-0.20547761023044586,-0.045779984444379807
-0.4104619324207306,0.6349901556968689,8.568129539489746,0.09155996888875961,0.021293016150593758,0.012775810435414314
-0.14769351482391357,0.6885724067687988,9.451772689819336,-0.1852492392063141,0.1543743759393692,0.0947539210319519
-0.4094180464744568,0.5788221955299377,9.737410545349121,-0.11604694277048111,0.140533909201622,0.13946926593780518
-0.5399786829948425,-0.054827217012643814,9.398965835571289,-0.024486970156431198,0.07771950960159302,0.20867156982421875
-0.6058288216590881,-0.3018800914287567,9.358455657958984,-0.1298874020576477,-0.15011577308177948,0.2661627233028412
-0.3960488438606262,0.46209052205085754,9.516358375549316,-0.1756673902273178,-0.09262461960315704,0.2001543641090393
0.015562310814857483,0.09464758634567261,9.727813720703125,-0.06281439960002899,0.18311993777751923,-0.08730136603116989
-0.5471996068954468,0.13422852754592896,9.692628860473633,0.14479251205921173,0.18099063634872437,-0.05855579674243927
-0.30857428908348083,0.31889811158180237,9.369210243225098,0.12349949777126312,0.0596204474568367,0.0021293016616255045
-0.36544138193130493,0.34543541073799133,9.204355239868164,0.0074525559321045876,0.10114183276891708,-0.010646508075296879
-0.5843863487243652,0.35810554027557373,9.49352741241455,-0.05749114602804184,0.02874557301402092,0.024486970156431198
-0.5422675013542175,0.1521179974079132,9.457728385925293,-0.06174974888563156,-0.08517206460237503,0.08836601674556732
-0.31078651547431946,0.12516885995864868,9.50694465637207,-0.06600835174322128,-0.13733996450901031,0.10007718205451965
-0.11390653997659683,0.24920767545700073,9.504310607910156,-0.006387905217707157,-0.06387905031442642,0.0596204474568367
-0.2890854775905609,0.275314062833786,9.505843162536621,0.043650683015584946,0.04684463515877724,0.017034413293004036
-0.36285561323165894,0.1450311541557312,9.456933975219727,0.02768092229962349,0.03619812801480293,0.014905111864209175
-0.346871942281723,0.26742276549339294,9.574250221252441,0.043650683015584946,-0.06068509817123413,-0.024486970156431198
-0.34695813059806824,0.22378124296665192,9.507824897766113,0.07878416031599045,-0.07771950960159302,-0.05749114602804184
-0.33054348826408386,0.3138798475265503,9.359546661376953,0.08730136603116989,-0.11072368919849396,-0.06174974888563156
-0.24126850068569183,0.35457170009613037,9.455449104309082,0.06281439960002899,-0.06494370102882385,-0.0351334773004055
-0.23606827855110168,0.3934152126312256,9.419211387634277,0.045779984444379807,-0.06920230388641357,-0.0021293016616255045
-0.3300454914569855,0.41032785177230835,9.384561538696289,0.02768092229962349,-0.08197811245918274,0.02981022372841835
-0.19336530566215515,0.3213018774986267,9.523933410644531,0.008517206646502018,-0.08943066745996475,0.05642649531364441
-0.0921671912074089,0.20913830399513245,9.582505226135254,0.06068509817123413,-0.05536184459924698,-0.009581857360899448
-0.21212626993656158,0.23641306161880493,9.56079387664795,0.0947539210319519,-0.05110324174165726,-0.07133160531520844
-0.18420030176639557,0.3905230462551117,9.501657485961914,0.12456414848566055,-0.10114183276891708,-0.06813765317201614
-0.1464293897151947,0.47613009810447693,9.354280471801758,0.126693457365036,-0.05323254317045212,-0.04684463515877724
-0.13014879822731018,0.41495347023010254,9.392539024353027,0.09262461960315704,-0.0074525559321045876,-0.05323254317045212
-0.17998650670051575,0.4969213604927063,9.41519832611084,0.038327429443597794,-0.06174974888563156,-0.044715333729982376
-0.28913336992263794,0.4895663857460022,9.364402770996094,0.010646508075296879,-0.08197811245918274,-0.015969762578606606
-0.3135254979133606,0.5703850388526917,9.291169166564941,-0.05216789245605469,-0.10646508634090424,0.02874557301402092
0.11773726344108582,0.29001444578170776,9.391265869140625,-0.13840460777282715,-0.05429719388484955,0.0
-0.012430695816874504,0.3233800232410431,9.64920711517334,-0.06600835174322128,-0.02874557301402092,-0.11711159348487854
-0.08957187831401825,0.333991140127182,9.599647521972656,-0.017034413293004036,-0.02768092229962349,-0.1362753063440323
-0.3000892400741577,0.36467522382736206,9.357871055603027,0.018099064007401466,0.015969762578606606,-0.08943066745996475
-0.16202041506767273,0.5471230149269104,9.12895679473877,-0.06600835174322128,-0.047909289598464966,0.040456730872392654
-0.20430201292037964,0.8408340215682983,9.599091529846191,-0.09688322991132736,-0.019163714721798897,0.05216789245605469
-0.25214776396751404,0.7377780079841614,9.707204818725586,0.004258603323251009,0.10433578491210938,0.18418459594249725
-0.054961297661066055,0.5265998244285583,9.41683578491211,-0.06920230388641357,-0.010646508075296879,0.34175291657447815
0.21857145428657532,-0.5010968446731567,9.467056274414062,-0.2778738737106323,-0.05323254317045212,0.07452555745840073
0.29630640149116516,-0.2283397912979126,10.048081398010254,-0.09262461960315704,0.07984881103038788,-0.24274039268493652
0.03928406164050102,0.2563711106777191,9.69205379486084,0.21505947411060333,0.2555162012577057,-0.33855897188186646
-0.6900280714035034,0.3473220467567444,9.231667518615723,0.18631389737129211,0.3374943137168884,-0.2672273516654968
-0.6760938167572021,0.45877692103385925,9.277636528015137,0.07452555745840073,0.18737854063510895,-0.11391764134168625
-0.7651677131652832,0.4587003290653229,9.31031322479248,-0.021293016150593758,0.07239625602960587,0.0596204474568367
-0.4813590347766876,0.39078161120414734,9.336017608642578,-0.09155996888875961,0.010646508075296879,0.16182692348957062
-0.19376753270626068,0.2776412069797516,9.49435043334961,-0.14905111491680145,-0.10965903848409653,0.10327113419771194
-0.07425855845212936,0.19665014743804932,9.673264503479004,-0.08304276317358017,-0.15330971777439117,-0.009581857360899448
-0.10901279747486115,0.33201831579208374,9.571711540222168,0.017034413293004036,-0.06387905031442642,-0.038327429443597794
-0.21334253251552582,0.3578278124332428,9.495020866394043,0.02768092229962349,0.015969762578606606,0.03193952515721321
-0.18611566722393036,0.35525164008140564,9.361692428588867,-0.08836601674556732,0.041521381586790085,-0.009581857360899448
-0.23729410767555237,0.31239545345306396,9.393573760986328,-0.15969762206077576,0.038327429443597794,-0.040456730872392654
-0.3174424171447754,0.12637554109096527,9.616981506347656,-0.09794788062572479,0.09901253134012222,-0.014905111864209175
-0.38227739930152893,0.061310719698667526,9.658927917480469,-0.03406882658600807,0.10646508634090424,0.015969762578606606
-0.3529340624809265,0.2760801911354065,9.530119895935059,0.039392080157995224,0.09688322991132736,0.048973940312862396
-0.26444438099861145,0.21705831587314606,9.277081489562988,-0.018099064007401466,0.09581857919692993,0.0351334773004055
-0.4319522976875305,0.2403012365102768,9.606916427612305,-0.017034413293004036,-0.0031939526088535786,0.010646508075296879
-0.3951103091239929,0.21584206819534302,9.549311637878418,0.05323254317045212,-0.03300417587161064,0.07559020817279816
-0.17754441499710083,0.23646093904972076,9.487607955932617,0.09901253134012222,-0.039392080157995224,0.03300417587161064
-0.21050779521465302,0.28492915630340576,9.45727825164795,0.08836601674556732,-0.0010646508308127522,-0.0074525559321045876
-0.35622847080230713,0.4003584086894989,9.186800956726074,-0.015969762578606606,-0.05855579674243927,-0.0021293016616255045
-0.2600294351577759,0.23275472223758698,9.510909080505371,-0.040456730872392654,-0.040456730872392654,-0.01171115878969431
-0.40020516514778137,0.23218010365962982,9.603976249694824,0.008517206646502018,-0.06494370102882385,0.02981022372841835
-0.25881320238113403,0.2992560863494873,9.427006721496582,0.013840461149811745,-0.12243484705686569,0.039392080157995224
-0.32549652457237244,0.3239450752735138,9.395173072814941,-0.014905111864209175,-0.11498229205608368,0.0596204474568367
-0.29788658022880554,0.3057299852371216,9.40925121307373,-0.08197811245918274,-0.18418459594249725,0.10114183276891708
0.03973417356610298,0.15164874494075775,9.575035095214844,-0.01171115878969431,-0.005323254037648439,0.05216789245605469
-0.21572713553905487,0.23999477922916412,9.529325485229492,0.07133160531520844,0.070266954600811,0.0351334773004055
-0.10207918286323547,0.2734561562538147,9.438019752502441,-0.03193952515721321,-0.11178833991289139,0.05216789245605469
-0.008619125932455063,0.28388527035713196,9.477782249450684,-0.0351334773004055,-0.09901253134012222,0.02342231757938862
-0.0431339368224144,0.2630749046802521,9.5441312789917,0.010646508075296879,0.020228365436196327,-0.006387905217707157
-0.26338136196136475,0.21532492339611053,9.579900741577148,0.06813765317201614,0.10965903848409653,0.021293016150593758
-0.12943054735660553,0.34442028403282166,9.3712797164917,0.01171115878969431,-0.05323254317045212,0.018099064007401466
-0.07733272016048431,0.26405173540115356,9.460400581359863,-0.02874557301402092,-0.043650683015584946,-0.03726277872920036
0.07324341684579849,0.04639962688088417,9.689162254333496,0.02874557301402092,-0.03406882658600807,-0.1298874020576477
-0.20316238701343536,0.14319241046905518,9.399578094482422,0.10433578491210938,0.09155996888875961,-0.22357667982578278
-0.22042936086654663,0.559295117855072,9.466596603393555,0.1192408949136734,0.11604694277048111,-0.17247343063354492
-0.3366151750087738,0.5281991958618164,9.2769193649292,0.10433578491210938,0.05855579674243927,-0.07133160531520844
-0.4211783707141876,0.4183627963066101,9.527159690856934,0.042586032301187515,0.05003859102725983,0.021293016150593758
-0.43854114413261414,0.27094700932502747,9.693998336791992,0.070266954600811,-0.12349949777126312,0.05003859102725983
-0.26416662335395813,0.3969873785972595,9.486612319946289,0.11072368919849396,-0.16608552634716034,0.10114183276891708
-0.13841359317302704,0.46194684505462646,9.235642433166504,0.09794788062572479,-0.022357666864991188,0.16289158165454865
0.05886863172054291,0.6009925007820129,9.308905601501465,-0.03300417587161064,0.09688322991132736,0.15011577308177948
-0.038355108350515366,0.25145822763442993,9.502625465393066,-0.041521381586790085,0.010646508075296879,0.03193952515721321
-0.19707153737545013,0.34674742817878723,9.568886756896973,0.010646508075296879,0.047909289598464966,0.006387905217707157
-0.21046948432922363,0.45993572473526,9.478232383728027,0.041521381586790085,0.013840461149811745,0.010646508075296879
-0.06537128239870071,0.5306604504585266,9.35506534576416,0.006387905217707157,0.0074525559321045876,-0.014905111864209175
-0.10755711048841476,0.39691075682640076,9.392385482788086,-0.02342231757938862,0.07665485888719559,-0.05429719388484955
-0.32343751192092896,0.3383868932723999,9.485990524291992,-0.006387905217707157,0.09262461960315704,-0.05216789245605469
-0.40405505895614624,0.3789733946323395,9.525120735168457,0.0010646508308127522,0.020228365436196327,-0.006387905217707157
-0.16721104085445404,0.4123390018939972,9.461482048034668,0.0,-0.08623671531677246,-0.008517206646502018
-0.12722787261009216,0.4562678039073944,9.4336519241333,0.010646508075296879,0.08304276317358017,-0.03087487444281578
-0.3127402067184448,0.3708139657974243,9.538442611694336,0.004258603323251009,0.07878416031599045,-0.024486970156431198
-0.31747111678123474,0.44468945264816284,9.4827241897583,0.0010646508308127522,0.014905111864209175,-0.024486970156431198
-0.21633048355579376,0.4430326521396637,9.429045677185059,-0.03406882658600807,-0.0596204474568367,-0.02874557301402092
-0.15939638018608093,0.3378601670265198,9.5446195602417,-0.03193952515721321,0.02555162087082863,-0.05642649531364441
-0.2826594412326813,0.3972172141075134,9.484400749206543,-0.015969762578606606,-0.021293016150593758,-0.08091346174478531
-0.18550275266170502,0.42179128527641296,9.405660629272461,-0.041521381586790085,-0.05642649531364441,-0.08091346174478531
-0.18461211025714874,0.38454708456993103,9.446083068847656,-0.05855579674243927,-0.045779984444379807,-0.08943066745996475
-0.16744089126586914,0.35863226652145386,9.555047988891602,-0.0351334773004055,-0.02768092229962349,-0.10433578491210938
-0.17284220457077026,0.38622304797172546,9.493307113647461,-0.006387905217707157,-0.0074525559321045876,-0.13840460777282715
-0.42422381043434143,0.45317450165748596,9.383431434631348,-0.02555162087082863,-0.0031939526088535786,-0.05429719388484955
-0.3448416590690613,0.3410109281539917,9.501925468444824,-0.041521381586790085,-0.013840461149811745,0.07133160531520844
-0.2526170015335083,0.353748083114624,8.980889320373535,0.045779984444379807,-0.018099064007401466,0.06600835174322128
-0.11361923068761826,0.5583565831184387,9.177099227905273,-0.015969762578606606,-0.038327429443597794,0.10965903848409653
-0.23547452688217163,0.1873127520084381,9.541373252868652,-0.024486970156431198,0.02768092229962349,0.042586032301187515
-0.09287586808204651,0.40869981050491333,9.604330062866211,0.07133160531520844,0.11072368919849396,0.048973940312862396
-0.29481241106987,0.41422560811042786,9.333172798156738,0.040456730872392654,0.14905111491680145,0.08730136603116989
-0.17807115614414215,0.39955395460128784,9.499378204345703,-0.02342231757938862,-0.12562879920005798,-0.021293016150593758
-0.11028650403022766,0.4582406282424927,9.532629013061523,0.014905111864209175,0.014905111864209175,-0.0031939526088535786
-0.2666662037372589,0.19497421383857727,9.460620880126953,0.06281439960002899,0.05642649531364441,0.012775810435414314
-0.13512873649597168,0.37853285670280457,9.404692649841309,0.06174974888563156,-0.02661627158522606,-0.004258603323251009
-0.1480095535516739,0.5613062381744385,9.380233764648438,0.039392080157995224,-0.048973940312862396,-0.004258603323251009
-0.125484898686409,0.67989581823349,9.443315505981445,0.017034413293004036,0.02768092229962349,0.02874557301402092
-0.15602533519268036,0.22457613050937653,9.523224830627441,0.024486970156431198,0.08197811245918274,0.006387905217707157
-0.18629762530326843,0.21712537109851837,9.60538387298584,0.042586032301187515,0.07984881103038788,-0.03087487444281578
-0.17463307082653046,0.10549809783697128,9.28124713897705,0.0734609067440033,-0.0596204474568367,-0.10114183276891708
-0.19126799702644348,0.5732389688491821,9.482169151306152,-0.038327429443597794,-0.02768092229962349,-0.1330813616514206
-0.2561987340450287,0.6825389862060547,9.599015235900879,-0.013840461149811745,-0.02874557301402092,-0.07771950960159302
-0.2892482876777649,0.5466058254241943,9.446686744689941,0.02874557301402092,-0.006387905217707157,0.010646508075296879
-0.2678345739841461,0.33664393424987793,9.585531234741211,0.02661627158522606,-0.012775810435414314,0.05642649531364441
-0.22983378171920776,0.06775590777397156,9.214545249938965,0.040456730872392654,-0.15863297879695892,0.03300417587161064
0.21220287680625916,0.4756608307361603,9.45271110534668,0.0031939526088535786,-0.11604694277048111,-0.12562879920005798
-0.09521261602640152,0.9013881683349609,9.617499351501465,0.0734609067440033,0.012775810435414314,-0.14798647165298462
-0.5641122460365295,0.48440444469451904,9.448027610778809,0.09581857919692993,0.010646508075296879,0.06813765317201614
-0.3210337162017822,0.5323267579078674,9.527295112609863,0.09581857919692993,-0.06494370102882385,0.2246413230895996
0.10686758160591125,0.5118898749351501,9.466913223266602,0.08730136603116989,-0.2108008712530136,0.17992599308490753
0.31795957684516907,0.49811843037605286,9.320991516113281,0.05003859102725983,-0.19163715839385986,0.10007718205451965
0.2046276181936264,0.4469304084777832,9.180499076843262,-0.06174974888563156,-0.044715333729982376,-0.0074525559321045876
0.10517249256372452,0.5324417352676392,9.297346115112305,-0.15863297879695892,0.044715333729982376,-0.08091346174478531
0.6449404954910278,0.5748094916343689,8.781471252441406,-0.2970375716686249,0.22251202166080475,-0.2001543641090393
-0.08858546614646912,0.31643685698509216,9.705432891845703,-0.456735223531723,0.24593433737754822,-0.32365384697914124
-0.3030867874622345,0.030186094343662262,9.889365196228027,-0.3864682614803314,-0.126693457365036,-0.3992440700531006
-0.013417107053101063,0.04294240102171898,9.996041297912598,-0.12137019634246826,-0.2310292273759842,-0.4109552204608917
-0.10313262790441513,0.28152939677238464,9.771723747253418,0.16076228022575378,0.02874557301402092,-0.328977108001709
-0.43834003806114197,0.37566938996315,9.402719497680664,0.2384817898273468,0.12562879920005798,-0.16076228022575378
-0.3721163868904114,0.3383294343948364,9.19017219543457,0.08623671531677246,-0.047909289598464966,-0.03726277872920036
-0.13819332420825958,0.5076282620429993,9.309308052062988,-0.043650683015584946,-0.18631389737129211,0.0031939526088535786
0.24566423892974854,0.2504335045814514,9.53337574005127,-0.0841074138879776,0.047909289598464966,0.07133160531520844
0.11699027568101883,0.12343546003103256,9.548842430114746,-0.02661627158522606,0.06068509817123413,-0.05536184459924698
-0.23111708462238312,0.20566192269325256,9.757818222045898,0.07878416031599045,-0.08623671531677246,-0.09688322991132736
-0.2054608166217804,0.3593888282775879,9.420398712158203,0.09581857919692993,-0.17247343063354492,-0.03087487444281578
0.0786638930439949,0.1828116625547409,9.52983283996582,-0.07452555745840073,0.05216789245605469,-0.015969762578606606
-0.06057330220937729,0.08056967705488205,9.695961952209473,-0.039392080157995224,-0.04684463515877724,-0.06387905031442642
-0.0677846372127533,0.30493512749671936,9.58760929107666,-0.004258603323251009,-0.14266321063041687,-0.07771950960159302
-0.16165649890899658,0.3967479467391968,9.366087913513184,0.07452555745840073,-0.14905111491680145,0.03087487444281578
-0.039255332201719284,0.3528861701488495,9.581940650939941,0.070266954600811,-0.17247343063354492,0.13095206022262573
0.1381741613149643,0.06689399480819702,9.393592834472656,0.0074525559321045876,-0.2917143404483795,0.07133160531520844
0.6653390526771545,0.6929394602775574,9.665056228637695,0.07452555745840073,-0.10965903848409653,0.05003859102725983
0.48475882411003113,0.928749144077301,9.872576713562012,0.11604694277048111,0.1437278687953949,0.05536184459924698
0.09442731738090515,0.438177227973938,9.18091106414795,-0.0074525559321045876,0.1362753063440323,0.07984881103038788
-0.09700348228216171,0.607801616191864,9.153473854064941,-0.17460273206233978,0.1330813616514206,0.1895078420639038
-0.047146622091531754,0.2806291878223419,9.443469047546387,-0.22144737839698792,0.1469218134880066,0.280003160238266
0.2868923842906952,-0.04299028217792511,9.977989196777344,-0.17034412920475006,0.21505947411060333,0.3151366412639618
0.2711673080921173,0.15302780270576477,9.628138542175293,-0.0734609067440033,0.21931807696819305,0.2246413230895996
-0.3761386573314667,0.3606146574020386,9.572296142578125,0.006387905217707157,0.2970375716686249,0.2587101459503174
-0.7374045252799988,0.2505771517753601,9.541525840759277,-0.021293016150593758,0.09049531817436218,0.5184849500656128
-0.2945442795753479,0.41745299100875854,9.492348670959473,-0.08836601674556732,-0.2842617630958557,0.6547602415084839
0.45817357301712036,0.011568782851099968,9.491477966308594,-0.08517206460237503,-0.35239943861961365,0.6004630923271179
1.1474642753601074,-0.3606625497341156,9.604875564575195,-0.0010646508308127522,-0.12562879920005798,0.21825341880321503
1.1208025217056274,-0.07333918660879135,9.589122772216797,0.08836601674556732,0.12775810062885284,-0.2597748041152954
0.47165775299072266,0.009988609701395035,9.091780662536621,-0.02661627158522606,0.1895078420639038,-0.562135636806488
0.11455776542425156,0.1810207962989807,9.011564254760742,-0.16395622491836548,0.18099063634872437,-0.581299364566803
-0.13910311460494995,0.9327331185340881,9.47094440460205,-0.2842617630958557,0.3928561508655548,-0.5440365672111511
-0.5015565156936646,0.2613127529621124,9.424602508544922,-0.281067818403244,0.20547761023044586,-0.39498546719551086
-0.8551609516143799,-0.044398076832294464,9.584210395812988,-0.28958502411842346,0.17673203349113464,-0.2587101459503174
-0.49076345562934875,-0.273647665977478,9.738961219787598,-0.2597748041152954,-0.004258603323251009,-0.09155996888875961
0.06597462296485901,0.04791276529431343,9.85984992980957,-0.11711159348487854,-0.1469218134880066,-0.126693457365036
0.212921142578125,-0.054616525769233704,9.642752647399902,0.10965903848409653,0.638790488243103,-0.30342549085617065
-0.8282118439674377,-0.1340082585811615,9.620429039001465,0.13521066308021545,0.2778738737106323,-0.2725506126880646
-0.6650900840759277,-0.11134953051805496,9.438698768615723,0.12243484705686569,-0.15969762206077576,-0.0947539210319519
-0.5118036866188049,0.11558248102664948,9.307680130004883,0.10007718205451965,-0.12243484705686569,0.038327429443597794
-0.22160731256008148,0.26838043332099915,9.382244110107422,0.07878416031599045,0.05323254317045212,0.19057250022888184
-0.21416613459587097,0.018971655517816544,9.368175506591797,0.005323254037648439,0.13095206022262573,0.2246413230895996
-0.150949627161026,0.06760267913341522,9.426192283630371,-0.041521381586790085,0.09262461960315704,0.15650367736816406
-0.30234935879707336,0.021365856751799583,9.417649269104004,-0.06281439960002899,0.0734609067440033,0.12562879920005798
-0.13693876564502716,0.06225882098078728,9.615592956542969,0.0074525559321045876,0.06068509817123413,0.09794788062572479
-0.252808541059494,-0.12075395882129669,9.451704978942871,0.05216789245605469,0.05323254317045212,0.03300417587161064
-0.2419484406709671,0.01623268611729145,9.503898620605469,0.047909289598464966,-0.039392080157995224,-0.06494370102882385
-0.28880777955055237,0.16548722982406616,9.421930313110352,0.02342231757938862,-0.07239625602960587,-0.07665485888719559
-0.3633727729320526,0.17140568792819977,9.390633583068848,0.0,-0.02555162087082863,-0.047909289598464966
-0.20174500346183777,0.12181698530912399,9.45924186706543,-0.044715333729982376,0.08943066745996475,-0.0074525559321045876
-0.5755565166473389,0.029228415340185165,10.236600875854492,0.1788613349199295,0.01171115878969431,0.03193952515721321
-0.04548025503754616,0.40839335322380066,8.735551834106445,-0.15224507451057434,0.013840461149811745,-0.07239625602960587
-0.11888648569583893,0.2603646516799927,9.258684158325195,-0.4173431396484375,0.10007718205451965,-0.12030554562807083
-0.42377370595932007,-0.24365311861038208,9.688108444213867,-0.38114500045776367,0.09901253134012222,-0.10965903848409653
-0.38176023960113525,-0.14702312648296356,10.016708374023438,-0.09794788062572479,-0.022357666864991188,-0.0947539210319519
-0.30368053913116455,0.15395674109458923,9.232022285461426,0.08943066745996475,-0.05749114602804184,0.05323254317045212
-0.29565519094467163,0.18797355890274048,9.301885604858398,0.0010646508308127522,0.009581857360899448,0.06920230388641357
-0.3744339942932129,0.1307808756828308,9.514681816101074,-0.02768092229962349,0.02661627158522606,0.13946926593780518
-0.30686962604522705,0.0719313994050026,9.569011688232422,0.009581857360899448,0.010646508075296879,0.19376645982265472
-0.1898506134748459,-0.011463438160717487,9.58337688446045,0.05003859102725983,-0.042586032301187515,0.16289158165454865
-0.029132647439837456,0.10096827894449234,9.486602783203125,0.10752973705530167,-0.13095206022262573,0.03300417587161064
-0.20987571775913239,0.2479531168937683,9.365015983581543,0.09368927031755447,-0.08091346174478531,-0.03193952515721321
-0.254762202501297,0.18049408495426178,9.335729598999023,0.017034413293004036,-0.07878416031599045,-0.01171115878969431
-0.14349886775016785,0.2238004058599472,9.40445327758789,-0.06281439960002899,-0.0947539210319519,-0.02342231757938862
-0.07222828269004822,0.07402871549129486,9.477524757385254,-0.10220648348331451,-0.1362753063440323,-0.07239625602960587
-0.21924184262752533,-0.015275007113814354,9.734125137329102,0.13946926593780518,-0.02981022372841835,-0.2108008712530136
-0.30059680342674255,-0.04604528844356537,9.667680740356445,0.18418459594249725,-0.13414600491523743,-0.2203827202320099
-0.17236337065696716,0.1086297258734703,9.486152648925781,0.19376645982265472,-0.21825341880321503,-0.2139948159456253
-0.0690775066614151,0.24273374676704407,9.205772399902344,0.140533909201622,-0.12562879920005798,-0.19802506268024445
-0.26334303617477417,0.3928118944168091,9.259259223937988,-0.02342231757938862,0.006387905217707157,-0.12243484705686569
-0.231509730219841,0.15225207805633545,9.412383079528809,-0.1192408949136734,-0.14798647165298462,-0.0596204474568367
-0.14779886603355408,0.07065768539905548,9.650059700012207,-0.09368927031755447,-0.13946926593780518,-0.010646508075296879
0.22386743128299713,0.029305029660463333,9.58609676361084,0.02874557301402092,0.07984881103038788,0.0021293016616255045
0.10312305390834808,0.14668793976306915,9.418013572692871,0.044715333729982376,0.16395622491836548,-0.0841074138879776
-0.1739531308412552,0.38084086775779724,9.516223907470703,0.006387905217707157,0.07239625602960587,-0.10327113419771194
-0.12444102764129639,0.3156132400035858,9.578866004943848,0.040456730872392654,0.014905111864209175,-0.0074525559321045876
-0.15090174973011017,0.06537128239870071,9.363990783691406,0.04684463515877724,0.044715333729982376,0.040456730872392654
-0.2355511486530304,-0.23099258542060852,9.338766098022461,-0.02874557301402092,0.024486970156431198,0.009581857360899448
0.10800722241401672,0.0840173289179802,9.59121036529541,-0.03726277872920036,0.03193952515721321,-0.08943066745996475
0.1654106080532074,0.16245137155056,9.513427734375,0.01171115878969431,-0.004258603323251009,-0.23635248839855194
0.06436571478843689,0.24010969698429108,9.348984718322754,0.0,0.009581857360899448,-0.2831971347332001
-0.41874587535858154,0.3152589201927185,9.308417320251465,-0.10965903848409653,0.040456730872392654,-0.1927018016576767
-0.4770015776157379,-0.002844311762601137,9.639640808105469,-0.12456414848566055,-0.02342231757938862,-0.02555162087082863
-0.3014587163925171,-0.00729752704501152,9.765153884887695,-0.06281439960002899,-0.13201670348644257,0.0074525559321045876
0.009337387047708035,-0.10403285175561905,9.82246208190918,0.12349949777126312,-0.18099063634872437,-0.02874557301402092
0.08089528977870941,0.10341993719339371,9.456857681274414,0.23209388554096222,-0.009581857360899448,-0.05216789245605469
0.07176858931779861,0.2906465232372284,9.24582290649414,0.19802506268024445,0.10114183276891708,-0.043650683015584946
-0.13281115889549255,0.3944973945617676,9.02438735961914,-0.01171115878969431,0.16076228022575378,-0.0351334773004055
-0.31326693296432495,0.04668693244457245,9.570945739746094,-0.23315852880477905,-0.017034413293004036,0.043650683015584946
-0.21096748113632202,-0.16473065316677094,9.977203369140625,-0.03087487444281578,-0.09262461960315704,0.09901253134012222
0.18063773214817047,0.024794353172183037,9.65019416809082,0.18844319880008698,-0.05536184459924698,0.0351334773004055
-0.0898112952709198,0.38296690583229065,9.124963760375977,0.09581857919692993,0.10007718205451965,-0.03619812801480293
-0.2325727492570877,0.23268766701221466,9.297661781311035,-0.06707300245761871,0.13201670348644257,0.02342231757938862
-0.28705519437789917,0.11209652572870255,9.557595252990723,-0.140533909201622,0.022357666864991188,0.05216789245605469
-0.01004607044160366,0.04128561541438103,9.680686950683594,-0.06920230388641357,-0.13414600491523743,0.012775810435414314
0.01458547729998827,0.09078813344240189,9.557289123535156,0.006387905217707157,-0.08836601674556732,-0.07559020817279816
0.05207867547869682,0.14243584871292114,9.429658889770508,0.024486970156431198,-0.06387905031442642,-0.10433578491210938
-0.22810038924217224,0.0863732248544693,9.346206665039062,-0.024486970156431198,0.05642649531364441,-0.06707300245761871
-0.3268372416496277,0.16433799266815186,9.446734428405762,-0.047909289598464966,0.06494370102882385,-0.012775810435414314
-0.05043146386742592,0.0692020058631897,9.452595710754395,-0.06813765317201614,-0.08623671531677246,0.02874557301402092
0.2917095422744751,-0.1186087504029274,9.62537956237793,-0.02981022372841835,-0.0351334773004055,-0.09581857919692993
0.2368823140859604,0.05419514700770378,9.577323913574219,0.03406882658600807,0.1362753063440323,-0.24593433737754822
-0.10491392016410828,0.18023550510406494,9.402144432067871,0.03726277872920036,0.1330813616514206,-0.31407198309898376
-0.4270106554031372,0.26906996965408325,9.278470039367676,-0.12562879920005798,-0.09794788062572479,-0.2906496822834015
-0.7327885031700134,0.11663593351840973,9.554933547973633,-0.1575683206319809,-0.12137019634246826,-0.005323254037648439
-0.10765288770198822,-0.10999920964241028,9.997859954833984,0.009581857360899448,-0.02555162087082863,0.11391764134168625
0.36331531405448914,0.059232551604509354,9.544445991516113,0.09794788062572479,-0.16182692348957062,-0.11498229205608368
-0.14550042152404785,0.07144297659397125,9.16047477722168,-0.05323254317045212,-0.3130073547363281,-0.2949082851409912
-0.38851189613342285,0.5786019563674927,9.470666885375977,-0.11817624419927597,-0.3896622061729431,-0.043650683015584946
-0.21821711957454681,-0.0907689779996872,9.561205863952637,-0.09262461960315704,-0.06281439960002899,0.2938436269760132
0.20031806826591492,-0.030751127749681473,9.633587837219238,-0.09794788062572479,-0.1575683206319809,0.2778738737106323
0.19797176122665405,-0.13819332420825958,9.3556489944458,-0.140533909201622,-0.3012961745262146,0.1852492392063141
0.38223907351493835,0.21574631333351135,9.523741722106934,-0.08943066745996475,-0.1298874020576477,0.27467992901802063
0.40618112683296204,-0.3805631399154663,9.457479476928711,-0.03300417587161064,0.1330813616514206,0.2587101459503174
0.3952922523021698,-0.08499416708946228,9.318337440490723,-0.044715333729982376,0.22357667982578278,0.15011577308177948
-0.0907689779996872,-0.11289139837026596,9.85602855682373,0.048973940312862396,0.07665485888719559,0.1511804163455963
0.05478890985250473,0.0005171475349925458,9.41813850402832,0.10646508634090424,0.06600835174322128,0.21186551451683044
-0.05099649727344513,0.0869765654206276,9.41301441192627,0.01171115878969431,-0.015969762578606606,0.252322256565094
-0.10128431022167206,0.006751649081707001,9.647407531738281,-0.040456730872392654,-0.17779669165611267,0.35665804147720337
0.6672640442848206,-0.1947731077671051,9.423395156860352,0.014905111864209175,-0.05003859102725983,0.06600835174322128
-0.06651092320680618,-0.0880395844578743,9.576346397399902,0.08091346174478531,0.06707300245761871,-0.024486970156431198
-0.15633179247379303,0.27105236053466797,9.47094440460205,-0.0074525559321045876,-0.17673203349113464,0.1330813616514206
1.210537075996399,-0.4806886613368988,9.025374412536621,0.012775810435414314,0.05855579674243927,-0.01171115878969431
0.19859424233436584,-0.24533863365650177,9.59399700164795,-0.047909289598464966,-0.012775810435414314,-0.06813765317201614
-0.008274360559880733,0.4611232578754425,9.650116920471191,0.0,-0.18844319880008698,0.1192408949136734
0.8228775858879089,-0.37975868582725525,9.608457565307617,0.02981022372841835,0.19589576125144958,-0.009581857360899448
0.3580001890659332,-0.6399796605110168,9.599245071411133,-0.012775810435414314,-0.07984881103038788,-0.19696040451526642
0.35861310362815857,0.12033258378505707,9.004563331604004,0.005323254037648439,-0.10327113419771194,-0.18099063634872437
-0.5755661129951477,0.45677539706230164,9.73561954498291,-0.02874557301402092,0.2725506126880646,-0.02661627158522606
-0.07137593626976013,0.24958115816116333,9.96341323852539,0.07771950960159302,0.23635248839855194,0.09581857919692993
-0.17650054395198822,0.16560214757919312,9.01180362701416,-0.05003859102725983,0.045779984444379807,0.0021293016616255045
0.3496971130371094,0.42255744338035583,9.174179077148438,-0.041521381586790085,0.005323254037648439,0.15330971777439117
0.9010913372039795,-0.4120517075061798,10.124513626098633,-0.4460887014865875,-0.1895078420639038,0.17460273206233978
0.7754149436950684,-0.6869539022445679,9.207658767700195,-0.020228365436196327,0.16395622491836548,-0.35239943861961365
-1.0212993621826172,-0.01682645082473755,9.437875747680664,-0.07771950960159302,0.09581857919692993,-0.3119426965713501
-0.4270106554031372,0.2496194690465927,10.153646469116211,-0.05749114602804184,-0.17992599308490753,0.09368927031755447
0.8901737928390503,-0.31432995200157166,9.259422302246094,0.01171115878969431,-0.06174974888563156,0.1650208830833435
1.1345068216323853,-0.4959157705307007,8.930362701416016,0.044715333729982376,0.24380503594875336,-0.10965903848409653
0.7124186158180237,-0.2617820203304291,9.148004531860352,0.043650683015584946,0.34601151943206787,-0.20760691165924072
-0.37628230452537537,0.00484586413949728,9.541075706481934,0.03619812801480293,0.24380503594875336,-0.22677062451839447
-1.0116363763809204,0.20594923198223114,9.47765827178955,-0.13946926593780518,0.24274039268493652,0.06600835174322128
0.1489097774028778,-0.3256784677505493,9.540281295776367,-0.13414600491523743,0.039392080157995224,0.1820552945137024
0.23435403406620026,-0.4804396629333496,9.24409008026123,-0.13733996450901031,0.038327429443597794,0.02768092229962349
0.6972202658653259,0.2359437793493271,9.936290740966797,0.010646508075296879,0.14905111491680145,-0.03726277872920036
0.7237767577171326,-0.43852198123931885,8.893204689025879,-0.02555162087082863,0.15863297879695892,-0.3012961745262146
-1.7930080890655518,-0.3328419327735901,9.531230926513672,-0.14266321063041687,0.2949082851409912,-0.08836601674556732
-0.8053902983665466,-0.10793060809373856,9.480138778686523,-0.12562879920005798,0.11178833991289139,0.15543901920318604
0.026087220758199692,-0.2679973840713501,9.501303672790527,-0.09155996888875961,0.20973621308803558,0.20121900737285614
0.5156535506248474,-0.8035898208618164,9.853586196899414,0.1085943877696991,0.43970078229904175,0.07133160531520844
0.05963477864861488,-0.3875063359737396,9.335126876831055,0.19696040451526642,0.1895078420639038,-0.19057250022888184
-0.5509154200553894,0.00793917290866375,9.362832069396973,0.12349949777126312,0.20867156982421875,-0.15863297879695892
-0.7101393938064575,-0.3782072365283966,9.269946098327637,-0.009581857360899448,0.05323254317045212,0.0074525559321045876
0.03085647150874138,-0.20939688384532928,9.57142448425293,-0.06281439960002899,-0.015969762578606606,-0.024486970156431198
0.33633747696876526,-0.3183809518814087,9.518119812011719,0.022357666864991188,0.17353808879852295,-0.23635248839855194
-0.46235865354537964,-0.2645305395126343,9.6290864944458,0.10433578491210938,0.2842617630958557,-0.3747570812702179
-0.43673110008239746,-0.09447519481182098,9.343180656433105,0.11072368919849396,0.015969762578606606,-0.4109552204608917
-0.41897571086883545,-0.09363243728876114,9.472783088684082,0.039392080157995224,-0.008517206646502018,-0.4035026729106903
-0.4672906994819641,-0.17323486506938934,9.463973045349121,0.0841074138879776,0.03300417587161064,-0.35665804147720337
-0.45029187202453613,-0.14250288903713226,9.3997220993042,0.05642649531364441,0.14905111491680145,-0.2693566679954529
-0.13834655284881592,-0.22234472632408142,9.50928020477295,-0.0010646508308127522,0.29597294330596924,-0.18631389737129211
-0.5106545090675354,-0.21403205394744873,9.38484001159668,0.02555162087082863,0.3481408357620239,-0.3193952441215515
-0.6330077648162842,-0.14841178059577942,9.383010864257812,0.008517206646502018,0.2874557375907898,-0.34175291657447815
-0.922457218170166,-0.28461313247680664,9.23843002319336,-0.08304276317358017,0.09155996888875961,-0.28852036595344543
-0.6540480256080627,-0.2987963855266571,9.500604629516602,-0.10007718205451965,-0.07771950960159302,-0.21293017268180847
-0.35377681255340576,-0.39497625827789307,9.674700736999512,0.040456730872392654,0.06174974888563156,-0.2725506126880646
-0.4675014019012451,-0.486894428730011,9.629488945007324,0.09794788062572479,0.12137019634246826,-0.30023154616355896
-0.6237757802009583,-0.2816251516342163,9.393735885620117,0.18631389737129211,0.1437278687953949,-0.29597294330596924
-1.2501564025878906,-0.28138574957847595,9.669452667236328,0.30342549085617065,-0.10646508634090424,-0.1085943877696991
-0.8900014162063599,-0.259895384311676,9.357258796691895,0.34494686126708984,-0.09901253134012222,-0.03193952515721321
-0.42826521396636963,-0.22305341064929962,9.386017799377441,0.3545287251472473,0.0596204474568367,0.03300417587161064
-0.5555122494697571,-0.009279925376176834,9.195859909057617,0.2565808594226837,0.26403340697288513,0.05536184459924698
-0.9005454778671265,-0.09692686796188354,9.157831192016602,0.11498229205608368,0.11604694277048111,0.11072368919849396
-0.5733921527862549,-0.16167566180229187,9.4287109375,0.039392080157995224,-0.05216789245605469,0.1820552945137024
-0.6258922219276428,0.0516572967171669,9.377724647521973,0.02981022372841835,0.0,0.16715018451213837
-0.807181179523468,0.2499929666519165,9.443659782409668,0.03087487444281578,0.03193952515721321,0.12456414848566055
-0.8019235134124756,0.14995364844799042,9.282597541809082,0.013840461149811745,-0.008517206646502018,0.02555162087082863
-0.6125420928001404,0.0719122365117073,9.31226634979248,-0.07984881103038788,-0.11604694277048111,-0.09368927031755447
-0.6675321459770203,-0.12618400156497955,9.698173522949219,0.07559020817279816,-0.1192408949136734,-0.0734609067440033
-0.6104065179824829,-0.06598419696092606,9.371126174926758,0.1054004356265068,-0.20867156982421875,-0.03726277872920036
-0.1584099531173706,-0.4267329275608063,8.88316822052002,-0.12243484705686569,-0.6185621619224548,-0.25125759840011597
0.11558248102664948,-0.12575304508209229,9.524383544921875,-0.24061109125614166,-0.5397779941558838,-0.6536956429481506
0.11428961157798767,0.09885179996490479,9.813976287841797,-0.16395622491836548,-0.3012961745262146,-0.7952941656112671
-0.7250983119010925,0.2830999791622162,9.56679916381836,0.12030554562807083,-0.019163714721798897,-0.5493598580360413
-0.7009169459342957,-0.22009417414665222,9.47062873840332,0.15863297879695892,0.41521382331848145,-0.14479251205921173
-0.561344563961029,-0.03118208236992359,9.250151634216309,0.1054004356265068,0.1543743759393692,-0.09581857919692993
-0.4598495066165924,0.3194439709186554,9.19399356842041,-0.07878416031599045,-0.08836601674556732,-0.13521066308021545
-0.13288776576519012,0.2839523255825043,9.628377914428711,-0.11391764134168625,-0.28852036595344543,-0.11285299062728882
-0.33754414319992065,-0.6674268245697021,9.552635192871094,0.1469218134880066,-0.22570598125457764,0.045779984444379807
-0.007469909265637398,-0.26871564984321594,9.547368049621582,0.27148595452308655,0.19589576125144958,-0.014905111864209175
-0.22083158791065216,0.0927896797657013,9.33244514465332,0.23209388554096222,0.3193952441215515,-0.018099064007401466
-0.22423134744167328,-0.05197333171963692,9.316940307617188,0.10220648348331451,-0.07878416031599045,-0.0010646508308127522
-0.14958971738815308,0.054539911448955536,9.901383399963379,0.09049531817436218,0.08517206460237503,-0.26829200983047485
0.19413144886493683,0.38932591676712036,9.529086112976074,0.29277896881103516,0.26190412044525146,-0.16182692348957062
0.408958375453949,0.3282737731933594,9.447098731994629,0.32152456045150757,0.3087487518787384,-0.12243484705686569
0.14098018407821655,-0.204043447971344,9.406511306762695,0.2171887755393982,0.4130845367908478,-0.13414600491523743
-0.19049225747585297,-0.18748515844345093,9.036895751953125,-0.06387905031442642,0.09262461960315704,-0.21825341880321503
-0.3670215308666229,0.07108864188194275,9.565133094787598,-0.27148595452308655,-0.3044901490211487,-0.23954643309116364
-0.7931032776832581,0.11657846719026566,9.947074890136719,-0.03619812801480293,-0.10007718205451965,-0.1820552945137024
-0.9800041913986206,-0.14154520630836487,9.655940055847168,0.17353808879852295,0.21931807696819305,-0.07239625602960587
-0.7038666009902954,0.17539921402931213,9.815929412841797,-0.126693457365036,0.012775810435414314,0.18311993777751923
-0.41242516040802,0.20353586971759796,9.008576393127441,-0.20547761023044586,-0.25445154309272766,0.3183306157588959
0.41397660970687866,-0.15239572525024414,9.516721725463867,-0.13521066308021545,0.11604694277048111,0.1788613349199295
0.05362053960561752,0.3029431104660034,9.779748916625977,-0.05323254317045212,0.28958502411842346,-0.006387905217707157
-0.23369324207305908,0.27279534935951233,9.491497039794922,-0.0351334773004055,0.17353808879852295,-0.0596204474568367
-0.43749725818634033,-0.44877874851226807,9.41142463684082,-0.09794788062572479,-0.07878416031599045,-0.04684463515877724
-0.4459152817726135,-0.264013409614563,9.437119483947754,-0.1788613349199295,-0.25764551758766174,-0.048973940312862396
-0.09644801914691925,0.06691315025091171,9.636959075927734,-0.14585717022418976,-0.27148595452308655,-0.06387905031442642
-0.042856208980083466,-0.1908753365278244,9.517574310302734,-0.1192408949136734,-0.140533909201622,-0.12882275879383087
0.0017046716529875994,-0.2408662736415863,9.530417442321777,-0.047909289598464966,-0.018099064007401466,-0.16395622491836548
-0.026901250705122948,-0.09224380552768707,9.525063514709473,0.02661627158522606,0.13414600491523743,-0.1330813616514206
-0.3236673176288605,0.02841438539326191,9.34798812866211,-0.0031939526088535786,0.16395622491836548,-0.06600835174322128
-0.5813696384429932,-0.0561583936214447,9.364479064941406,-0.126693457365036,-0.06813765317201614,0.013840461149811745
-0.4982525408267975,0.10036493837833405,9.61591911315918,-0.20121900737285614,-0.32471850514411926,0.10007718205451965
-0.19354727864265442,-0.3096277415752411,9.601237297058105,-0.17673203349113464,-0.30023154616355896,0.13733996450901031
0.4340974986553192,-0.33846351504325867,9.234292030334473,-0.08943066745996475,-0.07559020817279816,0.004258603323251009
0.5730473399162292,-0.4059416949748993,9.279858589172363,-0.0351334773004055,0.5461658835411072,-0.1192408949136734
0.6250494122505188,-0.4226149022579193,8.933637619018555,-0.1927018016576767,0.8794015645980835,-0.4237310290336609
-1.1035258769989014,-0.04006936028599739,10.368463516235352,-0.15330971777439117,0.5376486778259277,-0.37369245290756226
-1.4925644397735596,-0.3841065764427185,9.727344512939453,-0.012775810435414314,-0.2874557375907898,0.014905111864209175
-0.31153354048728943,-0.3214838206768036,9.137978553771973,-0.04684463515877724,-0.1362753063440323,0.2778738737106323
-0.16914556920528412,-0.4409928023815155,9.468780517578125,-0.042586032301187515,-0.018099064007401466,0.203348308801651
-0.18161456286907196,-0.41024166345596313,9.62071704864502,-0.006387905217707157,0.1054004356265068,0.09581857919692993
-0.41445547342300415,-0.40068402886390686,9.437541007995605,0.05749114602804184,0.09262461960315704,0.10965903848409653
-0.3308212161064148,-0.2494470775127411,9.469498634338379,0.06920230388641357,0.16182692348957062,0.1852492392063141
-0.4858984351158142,-0.29292577505111694,9.481039047241211,0.07133160531520844,0.16289158165454865,0.21505947411060333
-0.5240715742111206,-0.3224223554134369,9.505478858947754,0.08836601674556732,0.07239625602960587,0.21186551451683044
-0.5848556160926819,-0.2686868906021118,9.432762145996094,0.09368927031755447,-0.02874557301402092,0.253386914730072
-0.33350270986557007,-0.2222776859998703,9.4160795211792,0.08730136603116989,0.02874557301402092,0.280003160238266
-0.03940856084227562,-0.08193915337324142,9.46965217590332,0.10752973705530167,0.20760691165924072,0.19483110308647156
-0.036554671823978424,-0.08030152320861816,9.556819915771484,0.17353808879852295,0.33110642433166504,-0.015969762578606606
-0.5716491937637329,-0.3824402093887329,9.493900299072266,0.2310292273759842,0.4758989214897156,-0.05216789245605469
-0.8882296681404114,-0.5627043843269348,9.276985168457031,0.22144737839698792,0.4971919357776642,-0.040456730872392654
-1.382603645324707,0.01443224772810936,9.52116584777832,0.14266321063041687,0.140533909201622,-0.018099064007401466
-1.282516360282898,0.05477933585643768,9.415485382080078,0.15330971777439117,-0.5089030861854553,0.05642649531364441
-0.29667991399765015,0.03685155138373375,9.142930030822754,0.05429719388484955,-0.4971919357776642,0.07771950960159302
-0.5355733633041382,-0.14096102118492126,9.705279350280762,0.06068509817123413,0.280003160238266,-0.03406882658600807
-0.436884343624115,0.0025378537829965353,9.798921585083008,0.15863297879695892,0.2672273516654968,-0.06494370102882385
-0.7784507274627686,-0.14504073560237885,9.47706413269043,0.26829200983047485,0.1895078420639038,-0.10007718205451965
-0.9471749067306519,-0.032503679394721985,9.370052337646484,0.24593433737754822,0.09581857919692993,-0.05003859102725983
-0.6329503059387207,0.2926289141178131,9.177569389343262,0.15330971777439117,0.08197811245918274,0.0031939526088535786
-0.511564314365387,0.2702000141143799,9.116171836853027,-0.0734609067440033,0.15863297879695892,-0.006387905217707157
-0.6531190872192383,0.2488437443971634,9.283804893493652,-0.19696040451526642,0.11498229205608368,-0.021293016150593758
-0.839435875415802,0.2531437277793884,9.486536026000977,-0.19908970594406128,0.039392080157995224,0.0074525559321045876
-0.9653134346008301,-0.18594327569007874,9.581585884094238,-0.1192408949136734,-0.07771950960159302,0.06813765317201614
-0.9425014853477478,-0.3492182493209839,9.591546058654785,-0.07239625602960587,-0.12137019634246826,0.10007718205451965
-0.6499683260917664,-0.2522243559360504,9.511378288269043,0.006387905217707157,-0.048973940312862396,0.11817624419927597
-0.5816856622695923,0.11900140345096588,9.426738739013672,0.07133160531520844,0.07771950960159302,0.08943066745996475
-0.7315722703933716,0.17363709211349487,9.246023178100586,-0.0031939526088535786,0.24061109125614166,0.09262461960315704
-0.9398103356361389,0.22960394620895386,9.1654634475708,-0.14479251205921173,0.06707300245761871,0.15650367736816406
-0.9359605312347412,0.12165417522192001,9.332128524780273,-0.24061109125614166,-0.2629687488079071,0.2139948159456253
-0.5072643160820007,0.18799272179603577,9.683090209960938,-0.2171887755393982,-0.2981022298336029,0.19483110308647156
-0.40409335494041443,-0.2541205883026123,9.810480117797852,0.014905111864209175,-0.11391764134168625,0.08304276317358017
-0.6021129488945007,-0.5643325448036194,9.546276092529297,0.19696040451526642,-0.08197811245918274,-0.02555162087082863
-0.6318681836128235,-0.505942702293396,9.345479965209961,0.21931807696819305,0.0074525559321045876,-0.0074525559321045876
-0.7253282070159912,0.152491495013237,9.541296005249023,0.21612411737442017,0.021293016150593758,0.019163714721798897
-0.7137402296066284,0.13658441603183746,9.02864933013916,0.0947539210319519,-0.1575683206319809,0.03193952515721321
-0.4668501913547516,0.28025567531585693,9.036023139953613,-0.12456414848566055,-0.1756673902273178,-0.018099064007401466
-0.22709481418132782,0.031335312873125076,9.349923133850098,-0.2587101459503174,-0.1543743759393692,-0.0947539210319519
-0.3898143172264099,-0.1070016622543335,9.583443641662598,-0.2065422683954239,0.03406882658600807,-0.12243484705686569
-0.5623021721839905,-0.15613067150115967,9.666436195373535,-0.06920230388641357,0.08943066745996475,-0.13946926593780518
-0.6986472010612488,0.10117895901203156,9.63791561126709,0.07133160531520844,0.020228365436196327,-0.0947539210319519
-0.7228860855102539,-0.3631429374217987,9.395326614379883,0.11072368919849396,-0.03406882658600807,-0.03087487444281578
-0.6786125302314758,-0.28482383489608765,9.295699119567871,0.08304276317358017,-0.020228365436196327,0.006387905217707157
-0.438014417886734,0.061128757894039154,9.372973442077637,0.024486970156431198,0.02661627158522606,-0.0074525559321045876
-0.6836498975753784,-0.04935886338353157,9.476949691772461,0.02768092229962349,0.0,-0.02342231757938862
-0.8103223443031311,-0.07626969367265701,9.546687126159668,0.039392080157995224,-0.07559020817279816,-0.004258603323251009
-0.8008221387863159,-0.12944012880325317,9.470149040222168,0.0734609067440033,-0.3151366412639618,0.05110324174165726
-0.09551907330751419,0.005334281362593174,9.421988487243652,0.10220648348331451,-0.2768092155456543,-0.0074525559321045876
-0.10100658237934113,0.0283186174929142,9.259795188903809,0.021293016150593758,0.017034413293004036,-0.0734609067440033
-0.6775590777397156,0.045231256633996964,9.495030403137207,-0.0734609067440033,0.047909289598464966,-0.045779984444379807
-0.2370738536119461,-0.0597209669649601,10.199376106262207,0.1820552945137024,0.22677062451839447,0.03300417587161064
-0.6881605982780457,0.36139994859695435,9.145256996154785,0.16927948594093323,0.280003160238266,0.09901253134012222
-0.7794371247291565,0.21747012436389923,9.090209007263184,-0.044715333729982376,-0.014905111864209175,0.07665485888719559
-0.8412458300590515,-0.01568681001663208,9.288516998291016,-0.1788613349199295,-0.23209388554096222,0.1650208830833435
-0.37653130292892456,-0.1885002851486206,9.603755950927734,-0.16182692348957062,-0.20121900737285614,0.23422318696975708
-0.23150014877319336,-0.1318822056055069,9.543910026550293,-0.11285299062728882,-0.07771950960159302,0.22570598125457764
-0.17175045609474182,0.1115027591586113,9.603536605834961,0.0010646508308127522,0.041521381586790085,0.12775810062885284
-0.1860007494688034,0.29870060086250305,9.557490348815918,0.07452555745840073,0.11178833991289139,0.038327429443597794
-0.5269925594329834,0.11113884299993515,9.583232879638672,0.12243484705686569,0.12456414848566055,0.017034413293004036
-0.7661924362182617,-0.2920638620853424,9.58462142944336,0.16927948594093323,0.06813765317201614,0.024486970156431198
-0.8062043190002441,-0.6856131553649902,9.471835136413574,0.21612411737442017,0.02661627158522606,0.015969762578606606
-0.49120402336120605,0.47794970870018005,9.24403190612793,0.12137019634246826,-0.02768092229962349,0.10965903848409653
-0.34215056896209717,0.06865613162517548,9.25057315826416,-0.005323254037648439,0.14798647165298462,0.126693457365036
-0.6916082501411438,0.10670477896928787,9.42817497253418,-0.0074525559321045876,0.1650208830833435,0.08304276317358017
-0.7334780097007751,0.11093772947788239,9.521778106689453,0.03300417587161064,0.08197811245918274,0.09262461960315704
-0.7399806976318359,0.09305783361196518,9.589438438415527,0.10114183276891708,-0.048973940312862396,0.1085943877696991
-0.47681963443756104,0.1432403028011322,9.222455024719238,0.0841074138879776,-0.10114183276891708,0.10752973705530167
-0.3455311954021454,0.1694520264863968,9.15621280670166,-0.07771950960159302,0.09155996888875961,0.0841074138879776
-0.5659796595573425,0.04551856219768524,9.673187255859375,-0.07984881103038788,0.2693566679954529,0.044715333729982376
-0.7010701298713684,-0.04890875145792961,9.676339149475098,0.10114183276891708,0.2001543641090393,0.03300417587161064
-0.9667786359786987,0.14001290500164032,9.624201774597168,0.2278352826833725,0.09262461960315704,0.09794788062572479
-1.03913152217865,0.27147376537323,9.382072448730469,0.2278352826833725,0.10646508634090424,0.140533909201622
-0.7090093493461609,0.4633259177207947,9.049747467041016,0.06174974888563156,0.07984881103038788,0.18631389737129211
-0.5796170830726624,0.2577022910118103,9.238774299621582,-0.12882275879383087,0.09155996888875961,0.08091346174478531
-0.9592225551605225,0.11974839121103287,9.665095329284668,0.02768092229962349,0.005323254037648439,0.0021293016616255045
-0.7843596339225769,0.23114581406116486,9.194461822509766,0.04684463515877724,-0.09368927031755447,0.044715333729982376
-0.4776240885257721,0.3884544372558594,9.109210014343262,-0.126693457365036,-0.008517206646502018,0.015969762578606606
-0.40013813972473145,0.23274512588977814,9.230202674865723,-0.19057250022888184,0.13201670348644257,-0.042586032301187515
-0.8279054164886475,0.1783105581998825,9.539936065673828,-0.14266321063041687,0.24486969411373138,-0.12243484705686569
-1.0219218730926514,0.12197978794574738,9.582754135131836,-0.06600835174322128,0.024486970156431198,-0.11604694277048111
-0.9435740113258362,0.20736658573150635,9.469986915588379,-0.043650683015584946,-0.013840461149811745,-0.06813765317201614
-0.7781442999839783,0.14131537079811096,9.497922897338867,-0.024486970156431198,0.06600835174322128,0.009581857360899448
-0.7699177861213684,0.12327265739440918,9.455076217651367,0.01171115878969431,0.11711159348487854,0.005323254037648439
-0.96804279088974,-0.010668562725186348,9.421586036682129,0.05855579674243927,0.08197811245918274,-0.015969762578606606
-1.5752027034759521,-0.06713341176509857,9.704436302185059,0.1192408949136734,-0.4205370843410492,0.040456730872392654
-0.2253805696964264,0.2749309837818146,8.98215389251709,0.21293017268180847,-0.43650683760643005,0.06494370102882385
0.00914585031569004,0.2569074034690857,9.048942565917969,-0.1298874020576477,0.21825341880321503,-0.18631389737129211
-1.0606791973114014,0.152951180934906,9.538930892944336,-0.15650367736816406,0.26829200983047485,-0.22996458411216736
-1.2587084770202637,0.172621950507164,9.600059509277344,-0.09901253134012222,0.10752973705530167,-0.1682148277759552
-1.290838599205017,-0.06794743984937668,9.823793411254883,0.02661627158522606,-0.3673045337200165,-0.021293016150593758
-0.330533891916275,0.19313547015190125,9.51352310180664,0.19589576125144958,-0.26190412044525146,-0.014905111864209175
-0.2882523238658905,0.19805793464183807,9.28883171081543,0.23954643309116364,0.1085943877696991,-0.16395622491836548
-0.9576902389526367,0.25552836060523987,9.389714241027832,0.19696040451526642,0.11072368919849396,-0.20547761023044586
-1.2066489458084106,0.35346078872680664,9.291274070739746,0.08304276317358017,-0.2831971347332001,-0.0351334773004055
-0.45477384328842163,0.35737767815589905,9.008251190185547,-0.09262461960315704,-0.30023154616355896,0.040456730872392654
-0.2643485963344574,0.5224722623825073,9.443573951721191,-0.1895078420639038,0.06813765317201614,0.07665485888719559
-0.21545900404453278,0.32170408964157104,9.582524299621582,-0.14585717022418976,0.29916688799858093,-0.08197811245918274
-0.6495373249053955,0.5781709551811218,9.721837997436523,0.008517206646502018,0.15969762206077576,-0.2672273516654968
-0.7998166084289551,0.27896279096603394,9.39830493927002,0.11498229205608368,-0.17353808879852295,-0.2555162012577057
-0.9251961708068848,-0.26052746176719666,9.342299461364746,0.041521381586790085,-0.15543901920318604,-0.06387905031442642
-1.0593671798706055,-0.4464132785797119,9.435501098632812,0.06600835174322128,-0.19057250022888184,-0.0351334773004055
-0.6614317893981934,0.19054973125457764,9.476815223693848,0.07984881103038788,-0.10220648348331451,-0.03193952515721321
-0.4828147292137146,0.18150921165943146,9.222034454345703,0.047909289598464966,-0.0596204474568367,-0.03406882658600807
-0.7857099771499634,0.25287556648254395,9.524938583374023,0.019163714721798897,-0.07239625602960587,0.018099064007401466
-0.7674086689949036,0.19802920520305634,9.616368293762207,0.09901253134012222,-0.13946926593780518,0.06600835174322128
-0.42051756381988525,0.1760600060224533,9.46653938293457,0.17247343063354492,-0.03406882658600807,0.12243484705686569
-0.46565306186676025,0.23389434814453125,9.385758399963379,0.14585717022418976,0.09049531817436218,0.11498229205608368
-0.7253856658935547,0.3105854094028473,9.333057403564453,0.07984881103038788,0.08304276317358017,0.12775810062885284
-0.7602548003196716,0.4177594482898712,9.425704002380371,0.07984881103038788,-0.0074525559321045876,0.15011577308177948
-0.44373178482055664,0.24921724200248718,9.077567100524902,0.13095206022262573,0.05855579674243927,0.13733996450901031
-0.2461143583059311,0.1468411684036255,9.11739730834961,0.2555162012577057,0.3885975480079651,0.07239625602960587
-1.1856948137283325,0.6767546534538269,9.389167785644531,0.07133160531520844,0.07559020817279816,0.005323254037648439
-1.1065521240234375,0.3958381712436676,9.024866104125977,-0.044715333729982376,-0.28852036595344543,0.013840461149811745
-0.5527158379554749,0.4568902850151062,9.364019393920898,-0.14798647165298462,-0.3641105890274048,0.07984881103038788
-0.04744350165128708,0.36021244525909424,9.46778392791748,-0.06707300245761871,-0.09794788062572479,-0.021293016150593758
-0.07893204689025879,0.31597718596458435,9.289167404174805,-0.08304276317358017,0.03619812801480293,-0.07984881103038788
-0.42293092608451843,0.5518634915351868,9.226658821105957,-0.17034412920475006,0.18844319880008698,-0.1543743759393692
-0.980502188205719,0.12908577919006348,9.469709396362305,-0.21293017268180847,0.1330813616514206,-0.15650367736816406
-0.9101988673210144,0.23972661793231964,9.677133560180664,-0.10114183276891708,-0.07133160531520844,-0.05855579674243927
-0.5114014744758606,0.21076636016368866,9.267839431762695,-0.07559020817279816,0.03619812801480293,0.044715333729982376
-0.43662574887275696,0.32772791385650635,8.92241382598877,-0.20441296696662903,0.15330971777439117,0.07771950960159302
-0.6874327659606934,0.19728222489356995,9.397049903869629,-0.3321710526943207,0.07133160531520844,0.06174974888563156
-0.7092870473861694,0.11040142923593521,9.67717170715332,-0.2831971347332001,0.06174974888563156,0.10646508634090424
-0.7554951310157776,-0.02888364903628826,9.576499938964844,-0.20228366553783417,0.10433578491210938,0.14585717022418976
-0.684981107711792,0.06492117047309875,9.641766548156738,-0.09581857919692993,0.022357666864991188,0.11391764134168625
-0.6720524430274963,0.0246411245316267,9.36843490600586,-0.06813765317201614,-0.06920230388641357,0.06600835174322128
-0.6420291066169739,0.02896026335656643,9.498411178588867,-0.02342231757938862,-0.05855579674243927,0.06813765317201614
-0.5914444327354431,0.018559850752353668,9.444809913635254,0.01171115878969431,-0.010646508075296879,0.05003859102725983
-0.5506089329719543,0.08154650777578354,9.444570541381836,0.03726277872920036,0.07665485888719559,0.03406882658600807
-0.8355284929275513,0.11969093233346939,9.299002647399902,0.0021293016616255045,0.03726277872920036,0.07239625602960587
-0.7149277925491333,0.08276276290416718,9.414499282836914,-0.044715333729982376,-0.07771950960159302,0.07133160531520844
-0.6445669531822205,0.06733452528715134,9.456799507141113,-0.041521381586790085,-0.08623671531677246,0.05429719388484955
-0.5725685358047485,0.11842679232358932,9.378807067871094,-0.02981022372841835,-0.048973940312862396,0.03726277872920036
-0.5859856605529785,0.0669514536857605,9.432062149047852,-0.020228365436196327,0.03619812801480293,0.013840461149811745
-0.5809482336044312,0.09182242304086685,9.455670356750488,-0.0031939526088535786,0.13946926593780518,-0.0021293016616255045
-0.7520762085914612,0.018550273030996323,9.504204750061035,0.03193952515721321,0.1820552945137024,-0.021293016150593758
-0.7668436169624329,0.028548462316393852,9.46827220916748,0.07665485888719559,0.018099064007401466,-0.039392080157995224
-0.7889756560325623,0.1762036681175232,9.370590209960938,0.07239625602960587,-0.0734609067440033,-0.07559020817279816
-0.7569987177848816,0.09217676520347595,9.34960651397705,0.0351334773004055,-0.05536184459924698,-0.06920230388641357
-0.7041060328483582,0.14412136375904083,9.42076301574707,0.03406882658600807,0.024486970156431198,-0.039392080157995224
-0.6981588006019592,0.06358042359352112,9.44332504272461,0.04684463515877724,0.08730136603116989,-0.020228365436196327
-0.6940024495124817,0.08010998368263245,9.508437156677246,0.10007718205451965,0.18844319880008698,-0.01171115878969431
-0.7798298001289368,0.05450160428881645,9.500077247619629,0.14585717022418976,0.12775810062885284,-0.021293016150593758
-0.8974905014038086,0.14306791126728058,9.409806251525879,0.15650367736816406,0.043650683015584946,-0.03406882658600807
-0.8718054890632629,0.22290976345539093,9.277215957641602,0.14266321063041687,-0.03406882658600807,-0.040456730872392654
-0.7628501057624817,0.2947070598602295,9.240364074707031,0.040456730872392654,-0.05855579674243927,-0.05749114602804184
-0.7905749678611755,0.24371059238910675,9.376507759094238,-0.0734609067440033,-0.0074525559321045876,-0.11072368919849396
-0.8357775211334229,0.07717949151992798,9.444091796875,-0.041521381586790085,-0.1469218134880066,-0.16715018451213837
-0.7301357388496399,0.14737749099731445,9.515256881713867,0.018099064007401466,0.0074525559321045876,-0.10327113419771194
-1.0166642665863037,0.14428415894508362,9.379706382751465,0.047909289598464966,0.1650208830833435,0.0031939526088535786
-0.8796392679214478,0.23762930929660797,9.329092979431152,0.02661627158522606,0.14479251205921173,0.038327429443597794
-0.9029013514518738,0.22507411241531372,9.349165916442871,-0.03193952515721321,-0.02981022372841835,0.040456730872392654
-0.8467333912849426,0.20399555563926697,9.461617469787598,-0.03406882658600807,-0.09688322991132736,0.02661627158522606
-0.7135199904441833,0.1526351422071457,9.434486389160156,-0.009581857360899448,-0.06920230388641357,0.018099064007401466
-0.778383731842041,0.15577633678913116,9.331812858581543,-0.014905111864209175,0.008517206646502018,0.02981022372841835
-0.8816407918930054,0.21670398116111755,9.30937385559082,-0.048973940312862396,-0.014905111864209175,0.042586032301187515
-0.8324447870254517,0.1405109167098999,9.489255905151367,0.05642649531364441,0.0351334773004055,0.02555162087082863
-0.8452011346817017,0.20422540605068207,9.388976097106934,0.05642649531364441,0.01171115878969431,0.03193952515721321
-0.789550244808197,0.20628441870212555,9.223681449890137,-0.015969762578606606,-0.02874557301402092,0.03087487444281578
-0.9013977646827698,0.13726437091827393,9.305458068847656,-0.012775810435414314,-0.038327429443597794,0.0351334773004055
-0.679570198059082,0.17125245928764343,10.057927131652832,0.05429719388484955,-0.05003859102725983,0.03726277872920036
-0.5809291005134583,0.21339040994644165,9.142316818237305,0.012775810435414314,0.13095206022262573,0.0074525559321045876
-0.9264219999313354,0.010438719764351845,9.572736740112305,0.02342231757938862,0.05003859102725983,-0.05110324174165726
-0.9771982431411743,-0.038019925355911255,9.917961120605469,0.12562879920005798,-0.07559020817279816,-0.047909289598464966
-0.6982928514480591,0.17182707786560059,9.563082695007324,0.3374943137168884,-0.12775810062885284,-0.01171115878969431
-0.5221275091171265,0.3444107174873352,9.503621101379395,0.46738171577453613,-0.06707300245761871,-0.08091346174478531
-0.3487681448459625,0.4493725001811981,8.906257629394531,0.3087487518787384,0.10327113419771194,-0.2171887755393982
-0.8174570798873901,0.7680982351303101,8.808095932006836,-0.02555162087082863,0.14798647165298462,-0.27467992901802063
-0.9767001867294312,0.38857895135879517,9.379179954528809,-0.21293017268180847,-0.02555162087082863,-0.26190412044525146
-1.0748145580291748,0.2690221071243286,9.522947311401367,-0.16289158165454865,-0.02981022372841835,-0.1543743759393692
-0.9456617832183838,0.21808303892612457,9.61912727355957,-0.019163714721798897,0.05749114602804184,-0.021293016150593758
-0.7594982385635376,0.22139662504196167,9.563993453979492,0.08943066745996475,0.0947539210319519,0.014905111864209175
-0.7662882208824158,0.2777657210826874,9.444331169128418,0.1714087873697281,0.041521381586790085,-0.020228365436196327
-0.7246195077896118,0.4599931836128235,9.205792427062988,0.10965903848409653,0.020228365436196327,-0.06707300245761871
-0.7125335931777954,0.4940482974052429,9.173527717590332,-0.02661627158522606,0.03300417587161064,-0.05323254317045212
-1.1352155208587646,0.3048968017101288,9.308550834655762,-0.1085943877696991,-0.0021293016616255045,0.0351334773004055
-1.3084408044815063,0.2654690742492676,9.427542686462402,-0.09368927031755447,-0.02555162087082863,0.15011577308177948
-1.1924848556518555,0.3274884819984436,9.488882064819336,-0.06494370102882385,-0.041521381586790085,0.19589576125144958
-0.7846373319625854,0.28961220383644104,9.42919921875,-0.02342231757938862,-0.05003859102725983,0.2310292273759842
-0.7375578284263611,0.28665298223495483,9.428768157958984,-0.0074525559321045876,0.07239625602960587,0.21186551451683044
-0.7782688140869141,0.31264445185661316,9.424487113952637,0.009581857360899448,0.03406882658600807,0.1682148277759552
-0.7439550757408142,0.38265088200569153,9.319803237915039,0.004258603323251009,0.0010646508308127522,0.12137019634246826
-0.7291876077651978,0.39836642146110535,9.309317588806152,-0.038327429443597794,0.05749114602804184,0.08836601674556732
-0.7981311082839966,0.27633875608444214,9.37790584564209,-0.07452555745840073,0.05429719388484955,0.043650683015584946
-0.8772546648979187,0.2514965236186981,9.462852478027344,-0.06494370102882385,0.0351334773004055,0.02981022372841835
-0.8013201355934143,0.31440654397010803,9.52857780456543,0.013840461149811745,-0.048973940312862396,0.0
-0.6649559736251831,0.31316158175468445,9.390901565551758,0.06494370102882385,-0.018099064007401466,-0.0596204474568367
-0.719189465045929,0.3576841354370117,9.412755966186523,0.070266954600811,0.010646508075296879,-0.08091346174478531
-0.9237883687019348,0.29166164994239807,9.337444305419922,0.05216789245605469,0.018099064007401466,-0.08836601674556732
-0.961425244808197,0.3827945590019226,9.298284530639648,0.014905111864209175,-0.06920230388641357,-0.05749114602804184
-0.7966083288192749,0.2612169682979584,9.412928581237793,-0.11498229205608368,0.017034413293004036,-0.17779669165611267
-0.8968679904937744,0.16662685573101044,9.476432800292969,-0.08091346174478531,-0.0021293016616255045,-0.1788613349199295
-0.8680896759033203,0.12918154895305634,9.591153144836426,0.0,0.06174974888563156,-0.1511804163455963
-0.8165760040283203,0.23681527376174927,9.401398658752441,0.06600835174322128,0.08091346174478531,-0.16076228022575378
-0.9629383683204651,0.26056575775146484,9.29062271118164,0.05323254317045212,0.0031939526088535786,-0.16715018451213837
-0.9696516990661621,0.27594611048698425,9.338449478149414,0.0031939526088535786,-0.10114183276891708,-0.14585717022418976
-0.8678406476974487,0.2306573987007141,9.362726211547852,-0.024486970156431198,-0.06068509817123413,-0.1054004356265068
-0.8351742029190063,0.23205560445785522,9.457929611206055,-0.019163714721798897,-0.0021293016616255045,-0.08836601674556732
-0.8406712412834167,0.14379575848579407,9.51053524017334,0.043650683015584946,-0.006387905217707157,-0.10007718205451965
-0.6764577627182007,0.29049327969551086,9.513906478881836,0.09901253134012222,-0.0351334773004055,-0.1650208830833435
-0.7102159857749939,0.2980493903160095,9.438508033752441,0.1575683206319809,0.03300417587161064,-0.20973621308803558
-0.8595662713050842,0.35121023654937744,9.334131240844727,0.1511804163455963,0.06281439960002899,-0.19483110308647156
-1.2500797510147095,0.2236759066581726,9.22914981842041,0.05536184459924698,0.03193952515721321,-0.0596204474568367
-1.2533646821975708,0.348873496055603,9.26168155670166,-0.03087487444281578,-0.11498229205608368,0.07559020817279816
-1.0571932792663574,0.33704614639282227,9.297747611999512,-0.0596204474568367,-0.13946926593780518,0.09581857919692993
-0.5018630027770996,0.4064588248729706,9.40204906463623,-0.05855579674243927,-0.23209388554096222,0.05110324174165726
-0.5651177763938904,0.4076271951198578,9.708248138427734,-0.010646508075296879,-0.047909289598464966,-0.015969762578606606
-0.800678551197052,0.10511502623558044,9.47635555267334,0.09049531817436218,0.06920230388641357,-0.048973940312862396
-0.8092401623725891,0.31229010224342346,9.264286994934082,0.07452555745840073,-0.10114183276891708,-0.09262461960315704
-0.43919235467910767,0.37917450070381165,9.247173309326172,-0.02661627158522606,-0.08623671531677246,-0.1788613349199295
-0.5597835183143616,0.3522062301635742,9.436429977416992,-0.05749114602804184,0.14159856736660004,-0.2384817898273468
-0.8718341588973999,0.2172115445137024,9.464442253112793,0.010646508075296879,0.13946926593780518,-0.2555162012577057
-0.9853289127349854,0.24826914072036743,9.4430570602417,0.02874557301402092,0.06813765317201614,-0.2491282969713211
-1.097952127456665,0.199168860912323,9.30044937133789,0.013840461149811745,-0.040456730872392654,-0.1788613349199295
-1.1187050342559814,0.337735652923584,9.34160041809082,-0.013840461149811745,0.009581857360899448,-0.08943066745996475
-1.0570878982543945,0.23136606812477112,9.478415489196777,-0.039392080157995224,0.12775810062885284,0.08623671531677246
-1.0099700689315796,0.2163592278957367,9.329275131225586,-0.02661627158522606,0.03193952515721321,0.16076228022575378
-0.8794573545455933,0.2836267054080963,9.458332061767578,0.02981022372841835,0.02768092229962349,0.05110324174165726
-0.7698315978050232,0.3111887574195862,9.471184730529785,0.06174974888563156,-0.048973940312862396,0.020228365436196327
-0.7405266165733337,0.2901293635368347,9.441764831542969,0.08943066745996475,0.013840461149811745,0.0074525559321045876
-0.8237777948379517,0.2737721800804138,9.438796043395996,0.11285299062728882,0.05429719388484955,0.004258603323251009
-0.8401349782943726,0.3681420385837555,9.342491149902344,0.12137019634246826,0.040456730872392654,-0.0074525559321045876
-0.5312063097953796,0.31449276208877563,9.81840991973877,0.07452555745840073,0.36623987555503845,-0.0010646508308127522
-0.9821685552597046,0.4343273341655731,9.356550216674805,0.06920230388641357,0.36198127269744873,0.013840461149811745
-1.103305697441101,0.39413347840309143,9.425636291503906,0.0031939526088535786,0.0596204474568367,-0.021293016150593758
-1.1853787899017334,0.4545343816280365,9.20799446105957,-0.1085943877696991,-0.1788613349199295,-0.01171115878969431
-0.8236340880393982,0.2822093367576599,9.441534042358398,-0.16289158165454865,-0.12243484705686569,0.014905111864209175
-0.9233478307723999,0.2797864079475403,9.51996898651123,-0.12137019634246826,-0.02342231757938862,0.03619812801480293
-0.8405371904373169,0.2698935568332672,9.519317626953125,-0.038327429443597794,0.07665485888719559,0.06707300245761871
-0.9245736598968506,0.34823185205459595,9.316097259521484,-0.043650683015584946,0.06920230388641357,0.08943066745996475
-0.8764981031417847,0.2624523937702179,9.408503532409668,-0.09901253134012222,-0.06920230388641357,0.06068509817123413
-0.7736240029335022,0.24256135523319244,9.406377792358398,-0.06707300245761871,-0.12349949777126312,0.010646508075296879
-0.8609644770622253,0.307856023311615,9.404921531677246,-0.05216789245605469,-0.10752973705530167,-0.01171115878969431
-0.7250121235847473,0.17890432476997375,9.44865894317627,-0.0351334773004055,-0.11604694277048111,-0.03726277872920036
-0.7446063160896301,0.11400230973958969,9.41382884979248,-0.013840461149811745,-0.08730136603116989,-0.12243484705686569
-0.6974979639053345,0.223091721534729,9.441093444824219,0.039392080157995224,-0.06174974888563156,-0.1437278687953949
-0.7123899459838867,0.19294393062591553,9.415849685668945,0.05536184459924698,0.006387905217707157,-0.140533909201622
-0.8969828486442566,0.16185760498046875,9.506771087646484,0.09262461960315704,0.11178833991289139,-0.07984881103038788
-1.061244249343872,0.22386743128299713,9.490701675415039,0.16395622491836548,0.12882275879383087,0.02981022372841835
-1.0151702165603638,0.26377397775650024,9.36160659790039,0.16289158165454865,0.09049531817436218,0.06600835174322128
-0.8895992040634155,0.4471794068813324,9.166125297546387,0.06707300245761871,0.01171115878969431,0.08730136603116989
-0.7878551483154297,0.37702929973602295,9.266911506652832,-0.08304276317358017,-0.02555162087082863,0.08091346174478531
-0.7973361611366272,0.2956743538379669,9.403160095214844,-0.09688322991132736,-0.019163714721798897,0.06813765317201614
-0.7841393351554871,0.27517038583755493,9.545461654663086,-0.03726277872920036,0.009581857360899448,0.06707300245761871
-0.7404308319091797,0.257185161113739,9.476136207580566,0.0010646508308127522,0.0351334773004055,0.05216789245605469
-0.8326554298400879,0.265095591545105,9.43750286102295,0.02342231757938862,0.047909289598464966,0.02661627158522606
-0.9455277323722839,0.24486936628818512,9.378567695617676,0.015969762578606606,0.041521381586790085,0.05323254317045212
-1.025005578994751,0.30476272106170654,9.360064506530762,-0.0010646508308127522,0.11391764134168625,0.140533909201622
-0.9695080518722534,0.3159196972846985,9.357460021972656,-0.0074525559321045876,-0.03300417587161064,0.18844319880008698
-0.8965231776237488,0.2428869754076004,9.530867576599121,0.02555162087082863,-0.16289158165454865,0.1543743759393692
-0.5569679737091064,0.24072261154651642,9.319066047668457,0.048973940312862396,-0.0734609067440033,0.10327113419771194
-0.6027833819389343,0.444019079208374,9.445269584655762,0.06920230388641357,0.1330813616514206,0.05323254317045212
-0.9497893452644348,0.5127326846122742,9.496706008911133,0.09155996888875961,0.08730136603116989,0.043650683015584946
-1.0595492124557495,0.21826499700546265,9.325406074523926,0.08091346174478531,0.044715333729982376,0.05110324174165726
-1.061474084854126,0.508327305316925,9.467056274414062,0.09581857919692993,0.05003859102725983,0.15330971777439117
-0.9687227010726929,0.5134221911430359,8.748058319091797,0.02874557301402092,0.09368927031755447,0.1927018016576767
-0.7409384250640869,0.327277809381485,8.97495174407959,-0.13733996450901031,0.1852492392063141,0.18099063634872437
-1.0388824939727783,0.32519960403442383,9.718457221984863,-0.11604694277048111,0.17673203349113464,0.14905111491680145
-1.1319019794464111,0.4677408039569855,9.382827758789062,-0.014905111864209175,-0.03406882658600807,0.14266321063041687
-0.9543096423149109,0.3531351685523987,9.07429313659668,-0.047909289598464966,-0.09368927031755447,0.1543743759393692
