accX,accY,accZ,gyroX,gyroY,gyroZ
-2.4134607315063477,5.674279689788818,7.666005611419678,-0.2131093442440033,-0.22540263831615448,-0.19592925906181335
-2.791825771331787,5.748457431793213,7.677969455718994,-0.23425991833209991,-0.1044548824429512,-0.15805672109127045
-2.9306094646453857,5.769992828369141,7.883752346038818,-0.2566322088241577,-0.05375456064939499,-0.05238015204668045
-2.712862730026245,5.7149577140808105,8.070392608642578,-0.2354816198348999,-0.06902574002742767,0.010537114925682545
-2.525923490524292,5.659923076629639,8.12542724609375,-0.17706935107707977,-0.09529217332601547,-0.004734066314995289
-2.4972095489501953,5.650351524353027,8.048856735229492,-0.11995512992143631,-0.06841489672660828,-0.04016320779919624
-2.609971284866333,5.707779407501221,8.012965202331543,-0.10254598408937454,-0.009773556143045425,-0.026724567636847496
-2.633899450302124,5.755635738372803,8.091927528381348,-0.09636115282773972,0.038483377546072006,0.02641914412379265
-2.4900310039520264,5.748457431793213,8.14217758178711,-0.06650599837303162,0.051922015845775604,0.06306997686624527
-2.3584258556365967,5.7532429695129395,8.058428764343262,-0.02489202655851841,0.047646086663007736,0.047798797488212585
-2.3823540210723877,5.7221360206604,7.847859859466553,-0.004352286923676729,0.056808795779943466,-0.01695101149380207
-2.45413875579834,5.750850200653076,7.83111047744751,-0.009315420873463154,0.05131116881966591,-0.026724567636847496
-2.478066921234131,5.750850200653076,7.809575080871582,-0.018707197159528732,0.01954711228609085,-0.0328330397605896
-2.4206392765045166,5.741278648376465,7.740182876586914,-0.03665083646774292,-0.031153209507465363,-0.0462716780602932
-2.401496648788452,5.724529266357422,7.666005611419678,-0.0683385357260704,-0.12155860662460327,-0.0719272643327713
-2.430210590362549,5.738885879516602,7.550850868225098,-0.12430741637945175,-0.21562908589839935,-0.10796725004911423
-2.401496648788452,5.686244010925293,7.426424026489258,-0.20814619958400726,-0.25716668367385864,-0.14461809396743774
-2.3488545417785645,5.638387680053711,7.491030216217041,-0.3174878656864166,-0.23028941452503204,-0.1892099380493164
-2.233999013900757,5.492425441741943,7.642077445983887,-0.4249969720840454,-0.2376195788383484,-0.2527380585670471
-2.4206392765045166,5.3940205574035645,7.95553731918335,-0.5026509165763855,-0.3133646547794342,-0.32970482110977173
-2.736790895462036,5.353342533111572,8.259724617004395,-0.524336040019989,-0.363454133272171,-0.35169529914855957
-2.854039192199707,5.159523963928223,8.293224334716797,-0.5399126410484314,-0.3432961702346802,-0.3046600818634033
-2.8181469440460205,5.18105936050415,8.381758689880371,-0.5896202921867371,-0.23945212364196777,-0.2283041626214981
-2.370389938354492,4.692624092102051,8.68325424194336,-0.6287145614624023,-0.18142163753509521,-0.16905197501182556
-2.370389938354492,4.6663031578063965,8.987442016601562,-0.5951942801475525,-0.17897824943065643,-0.23319093883037567
-2.5546371936798096,4.812265396118164,8.8438720703125,-0.5486171841621399,-0.16187451779842377,-0.26373329758644104
-2.6602206230163574,4.65433931350708,8.999405860900879,-0.4933355152606964,-0.1569877415895462,-0.20753535628318787
-2.6865415573120117,4.623232364654541,9.135796546936035,-0.4162923991680145,-0.1820324808359146,-0.11346487700939178
-2.6458635330200195,4.6184468269348145,9.207581520080566,-0.3044309914112091,-0.17714570462703705,-0.02367033064365387
-2.3584258556365967,4.427021026611328,9.154939651489258,-0.16905197501182556,-0.13988402485847473,0.028251685202121735
-2.2220349311828613,4.362414836883545,8.980263710021973,-0.036039989441633224,-0.055587101727724075,-0.026724567636847496
-2.3632113933563232,4.54426908493042,8.664112091064453,0.0067956759594380856,-0.0006108472589403391,-0.08292251825332642
-2.446960210800171,4.587339878082275,8.700003623962402,-0.033596597611904144,-0.029320668429136276,-0.08719844371080399
-2.432603359222412,4.5562334060668945,8.719146728515625,-0.057801421731710434,-0.08979454636573792,-0.0853659063577652
-2.3560330867767334,4.4150567054748535,8.704790115356445,-0.09445225447416306,-0.2089097648859024,-0.06398624926805496
-2.243570327758789,4.285545349121094,8.506185531616211,-0.15347537398338318,-0.25289076566696167,0.005650337319821119
-2.054537296295166,4.3121657371521,8.800801277160645,-0.1671430766582489,0.10323318839073181,0.24449162185192108
-2.150250196456909,4.446163654327393,8.941978454589844,-0.051616594195365906,0.15943112969398499,0.23227466642856598
-2.20528507232666,4.546662330627441,9.181260108947754,0.0683385357260704,0.1313321590423584,0.1913478970527649
-2.202892303466797,4.549055099487305,9.09990406036377,0.18943901360034943,0.021990500390529633,0.1766875684261322
-2.1382861137390137,4.525126934051514,8.872586250305176,0.2826695740222931,-0.06963659077882767,0.19623468816280365
-1.9250258207321167,4.494019985198975,8.635397911071777,0.33298811316490173,-0.11361759155988693,0.21822518110275269
-1.841277003288269,4.582554340362549,8.467900276184082,0.3310792148113251,-0.10995250940322876,0.2163926362991333
-1.9106688499450684,4.733302116394043,8.451150894165039,0.29320669174194336,-0.10628741979598999,0.19256959855556488
-1.9920248985290527,4.838586330413818,8.525327682495117,0.2583884000778198,-0.12339114397764206,0.17424418032169342
-1.92741858959198,4.812265396118164,8.518149375915527,0.25029465556144714,-0.14965757727622986,0.17363333702087402
-1.812563180923462,4.805087089538574,8.388936996459961,0.2434989959001541,-0.13805148005485535,0.16996824741363525
-1.659422516822815,4.802694320678711,8.223832130432129,0.20127417147159576,-0.0794101431965828,0.15836215019226074
-1.5852450132369995,4.8074798583984375,8.226224899291992,0.1304158866405487,-0.012827792204916477,0.13392825424671173
-1.719243049621582,4.925027370452881,8.379365921020508,0.07200361788272858,0.03176405653357506,0.09666658192873001
-1.6666009426116943,4.972883701324463,8.314759254455566,0.027946261689066887,0.022601349279284477,0.07406523078680038
-1.628315806388855,4.920241355895996,8.386544227600098,-0.010613471269607544,0.06291726976633072,0.05512896552681923
-1.7407784461975098,4.905884742736816,8.546863555908203,-0.02489202655851841,0.11667182296514511,0.02886253222823143
-1.9561325311660767,5.0087761878967285,8.642576217651367,-0.0019088976550847292,0.13499724864959717,0.01175880990922451
-2.047358989715576,5.035097122192383,8.546863555908203,0.02229592576622963,0.1056765764951706,0.023975754156708717
-1.9106688499450684,4.953741073608398,8.44157886505127,0.019241688773036003,0.062306419014930725,0.04169032722711563
-1.7575281858444214,4.877170562744141,8.432007789611816,0.004352286923676729,0.046424392610788345,0.03558185324072838
-1.8269200325012207,4.874777793884277,8.525327682495117,-0.0050394898280501366,0.04947862774133682,0.005650337319821119
-2.0063817501068115,4.936991214752197,8.5731840133667,0.005573981441557407,0.04459185153245926,-0.010842538438737392
-2.0832512378692627,4.972883701324463,8.589934349060059,0.0198525357991457,0.05986303091049194,0.0068720318377017975
-1.9417755603790283,4.951348304748535,8.601898193359375,0.02229592576622963,0.07696675509214401,0.03374931216239929
-1.872383713722229,4.90827751159668,8.611469268798828,0.03229855000972748,0.12705622613430023,0.038636088371276855
-1.9250258207321167,4.965705394744873,8.649754524230957,0.053983625024557114,0.1832541823387146,0.022754060104489326
-2.109572172164917,5.092525005340576,8.702396392822266,0.07391251623630524,0.1979145109653473,0.025808297097682953
-2.1119651794433594,5.042275428771973,8.796015739440918,0.10934165865182877,0.1966928243637085,0.05207473039627075
-1.9489539861679077,4.953741073608398,8.680861473083496,0.16584503650665283,0.2339545041322708,0.06795676052570343
-1.9752750396728516,4.963312149047852,8.52054214477539,0.20188501477241516,0.27854636311531067,0.06306997686624527
-2.1358933448791504,5.1188459396362305,8.391329765319824,0.19256959855556488,0.2602209448814392,0.051463883370161057
-2.1430718898773193,5.111667156219482,8.321938514709473,0.1682884246110916,0.2620534598827362,0.04474456235766411
-2.580958366394043,5.269593715667725,8.214261054992676,0.15591876208782196,0.20341213047504425,0.03924693539738655
-2.430210590362549,5.49003267288208,7.864609718322754,0.0856713280081749,-0.056808795779943466,0.04352286830544472
-1.872383713722229,5.020740032196045,8.168498039245605,0.029167955741286278,-0.0647498071193695,0.001985253533348441
-1.9226330518722534,4.927420139312744,8.312366485595703,0.04527905210852623,0.08368607610464096,-0.07925742864608765
-2.4062821865081787,5.219344615936279,8.362615585327148,0.08383878320455551,0.23151111602783203,-0.0981936976313591
-2.820539712905884,5.403591632843018,8.11107063293457,0.08261708915233612,0.16492876410484314,-0.05421269312500954
-2.7391836643218994,5.389235019683838,7.977072715759277,0.0198525357991457,-0.04337015375494957,0.02214321307837963
-2.3871397972106934,5.130809783935547,7.960322856903076,-0.05841226875782013,-0.2492256760597229,0.046577103435993195
-2.241177558898926,4.992026329040527,8.106285095214844,-0.08513683825731277,-0.35917818546295166,-0.013896775431931019
-2.1598215103149414,4.965705394744873,8.079963684082031,-0.09261971712112427,-0.4563029110431671,-0.09452861547470093
-2.1382861137390137,4.972883701324463,7.989036560058594,-0.12491826713085175,-0.49234288930892944,-0.1238492801785469
-2.0063817501068115,5.054239749908447,7.945965766906738,-0.19570018351078033,-0.45324867963790894,-0.09147437661886215
-1.812563180923462,5.1188459396362305,8.252546310424805,-0.2665584683418274,-0.33718767762184143,-0.03771981969475746
-1.7599210739135742,5.039882659912109,8.800801277160645,-0.27152159810066223,-0.24067382514476776,-0.031000498682260513
-1.8915263414382935,4.982454776763916,8.96112060546875,-0.17332790791988373,-0.2999260127544403,-0.04932591691613197
-1.8197416067123413,5.054239749908447,8.786444664001465,-0.07895200699567795,-0.30847787857055664,-0.11346487700939178
-1.7359927892684937,5.020740032196045,8.621041297912598,-0.04604261368513107,-0.33474430441856384,-0.1769929975271225
-1.7575281858444214,5.027918815612793,8.362615585327148,-0.1205659806728363,-0.3432961702346802,-0.17943638563156128
-1.6235301494598389,4.925027370452881,8.649754524230957,-0.18455222249031067,-0.2864873707294464,-0.15866757929325104
-1.786242127418518,4.7931227684021,8.80798053741455,-0.0752105712890625,-0.2235700935125351,-0.1647760421037674
-1.7336000204086304,4.819443702697754,8.666504859924316,-0.05031854286789894,-0.21562908589839935,-0.1378987729549408
-1.4967105388641357,4.687838554382324,8.623434066772461,-0.06711684167385101,-0.12888877093791962,-0.06337540596723557
-1.5134602785110474,4.6663031578063965,8.692825317382812,-0.05841226875782013,-0.02626643143594265,-0.03955236077308655
-1.6235301494598389,4.769194602966309,8.63779067993164,-0.03733803704380989,0.09651386737823486,-0.011453386396169662
-1.7216359376907349,4.821836948394775,8.695218086242676,-0.030466007068753242,0.17897824943065643,0.04413371533155441
-1.6666009426116943,4.797908306121826,8.702396392822266,-0.02802261710166931,0.17592400312423706,0.10705098509788513
-1.534995675086975,4.726123809814453,8.702396392822266,-0.009315420873463154,0.1563768982887268,0.12781979143619537
-1.5637096166610718,4.742873668670654,8.723932266235352,0.01175880990922451,0.11667182296514511,0.10155335813760757
-1.6474584341049194,4.8074798583984375,8.65214729309082,0.030389651656150818,0.0916270911693573,0.06612421572208405
-1.786242127418518,4.8074798583984375,8.69043254852295,0.04161396995186806,0.07085828483104706,0.05207473039627075
-1.7647067308425903,4.812265396118164,8.65214729309082,0.0459662564098835,0.0397050715982914,0.06978929787874222
-1.6450655460357666,4.745266437530518,8.589934349060059,0.049020491540431976,0.04337015375494957,0.08750387281179428
-1.6115660667419434,4.764409065246582,8.570791244506836,0.04161396995186806,0.04825693368911743,0.07467607408761978
-1.659422516822815,4.843372344970703,8.54447078704834,0.029778804630041122,0.03665083646774292,0.05329642444849014
-1.6785650253295898,4.833800792694092,8.570791244506836,0.02107422985136509,0.014049487188458443,0.039857782423496246
-1.6618152856826782,4.824229717254639,8.546863555908203,0.0198525357991457,-0.005497625097632408,0.03680354729294777
-1.5637096166610718,4.769194602966309,8.532505989074707,0.015500249341130257,0.014660334214568138,0.03558185324072838
-1.561316728591919,4.809872627258301,8.539685249328613,-0.0025197449140250683,0.038483377546072006,0.023364907130599022
-1.695314884185791,4.925027370452881,8.618648529052734,-0.017409147694706917,0.06352811306715012,0.016645587980747223
-1.7359927892684937,4.917848587036133,8.704790115356445,-0.016187451779842377,0.062306419014930725,0.01847812905907631
-1.6618152856826782,4.833800792694092,8.714361190795898,0.0036650835536420345,0.046424392610788345,0.016645587980747223
-1.5804593563079834,4.776372909545898,8.700003623962402,0.023593975231051445,0.05741964280605316,0.008093725889921188
-1.5637096166610718,4.77876615524292,8.709575653076172,0.03352024406194687,0.12094775587320328,-0.007177455350756645
-1.6378871202468872,4.824229717254639,8.664112091064453,0.04283566400408745,0.18630841374397278,-0.021837789565324783
-2.054537296295166,5.0255255699157715,8.786444664001465,0.0459662564098835,0.13316470384597778,-0.024281177669763565
-1.8077775239944458,5.013561725616455,8.499007225036621,0.014278554357588291,-0.21807247400283813,-0.012675080448389053
-1.3863415718078613,4.671088695526123,8.530113220214844,0.04405735805630684,-0.208298921585083,-0.05115845799446106
-1.5780665874481201,4.7835516929626465,8.439186096191406,0.06329904496669769,-0.04031591862440109,-0.10185877978801727
-1.8460626602172852,4.9393839836120605,8.379365921020508,0.028557108715176582,0.08735115826129913,-0.09330692142248154
-1.8293129205703735,4.877170562744141,8.5133638381958,-0.02053973823785782,0.1973036676645279,-0.05421269312500954
-1.7455641031265259,4.833800792694092,8.621041297912598,-0.04169032722711563,0.2999260127544403,-0.04810422286391258
-1.8963119983673096,4.819443702697754,8.640183448791504,-0.04291202127933502,0.27976804971694946,-0.08170082420110703
-2.219642162322998,4.994419097900391,8.66171932220459,-0.05405998229980469,0.07452336698770523,-0.09391776472330093
-2.032702922821045,4.852943420410156,8.649754524230957,-0.05405998229980469,-0.10017894953489304,-0.06765133142471313
-1.8915263414382935,4.60648250579834,8.611469268798828,-0.02802261710166931,-0.10873081535100937,-0.06887302547693253
-2.0398812294006348,4.66869592666626,8.577970504760742,0.0006108472589403391,-0.00916270911693573,-0.05360184609889984
-2.092822551727295,4.728516578674316,8.55882740020752,0.004963133949786425,0.07024743407964706,0.004428642801940441
-2.0880367755889893,4.781158924102783,8.563612937927246,-0.004352286923676729,0.07635590434074402,0.04840964451432228
-1.9800606966018677,4.766801834106445,8.55164909362793,-0.009315420873463154,0.04337015375494957,0.056961506605148315
-1.8939191102981567,4.754837512969971,8.525327682495117,-0.010002624243497849,-0.00916270911693573,0.03558185324072838
-1.9010975360870361,4.7931227684021,8.496614456176758,-0.01435491070151329,-0.04031591862440109,0.0068720318377017975
-1.841277003288269,4.7931227684021,8.491828918457031,-0.02367033064365387,-0.025655584409832954,-0.0029015245381742716
-1.8532410860061646,4.838586330413818,8.525327682495117,-0.04291202127933502,0.00916270911693573,-0.0010689827613532543
-1.8388842344284058,4.838586330413818,8.599505424499512,-0.05841226875782013,0.03298575058579445,0.005650337319821119
-1.812563180923462,4.824229717254639,8.671290397644043,-0.05467082932591438,0.04092676565051079,0.0050394898280501366
-1.7958134412765503,4.821836948394775,8.666504859924316,-0.036039989441633224,0.033596597611904144,0.00015271181473508477
-1.7407784461975098,4.764409065246582,8.609076499938965,-0.012446013279259205,0.02504473738372326,0.008093725889921188
-1.6522440910339355,4.781158924102783,8.470293045043945,-0.0031305921729654074,0.05008947476744652,0.01969982497394085
-1.688136339187622,4.814658164978027,8.455936431884766,-0.02489202655851841,0.1319430023431778,0.01175880990922451
-1.7072789669036865,4.833800792694092,8.381758689880371,-0.049707695841789246,0.23334364593029022,0.001985253533348441
-1.7383856773376465,4.805087089538574,8.376973152160645,-0.08269345015287399,0.2993151545524597,0.0050394898280501366
-1.812563180923462,4.711766719818115,8.436793327331543,-0.10315682739019394,0.3555130958557129,0.014202198944985867
-2.1143579483032227,4.639982223510742,8.587541580200195,-0.0988045409321785,0.4734066128730774,0.03802524134516716
-2.322533369064331,4.920241355895996,8.66889762878418,-0.07704310864210129,0.6077930331230164,0.10216420143842697
-2.3632113933563232,4.565804481506348,8.5731840133667,-0.04352286830544472,0.6749862432479858,0.13026317954063416
-2.3009979724884033,4.647160530090332,8.372187614440918,-0.036039989441633224,0.726908266544342,0.05635065957903862
-2.3584258556365967,4.594518661499023,8.312366485595703,-0.08200624585151672,0.813648521900177,-0.02733541466295719
-2.8588249683380127,4.745266437530518,8.55164909362793,-0.1292705535888672,0.8179244995117188,-0.07009471952915192
-3.3017961978912354,4.773980140686035,8.774480819702148,-0.1280488520860672,0.7067502737045288,-0.020005248486995697
-3.237190008163452,4.596911430358887,8.903693199157715,-0.07146912813186646,0.6474980711936951,0.072232685983181
-2.9928228855133057,4.3432722091674805,9.040083885192871,0.03229855000972748,0.6444438695907593,0.09239064902067184
-3.6343984603881836,4.819443702697754,8.642576217651367,0.1763821393251419,0.6548282504081726,0.07528692483901978
-3.8045880794525146,4.623232364654541,8.685647010803223,0.25029465556144714,0.6432221531867981,0.21822518110275269
-3.809373617172241,4.584947109222412,8.329116821289062,0.2919849753379822,0.5088357925415039,0.3452814221382141
-3.7974095344543457,4.738088130950928,8.027321815490723,0.30313295125961304,0.5412106513977051,0.36360684037208557
-3.5219359397888184,4.742873668670654,7.929215908050537,0.2757975459098816,0.6707102656364441,0.3849864900112152
-3.5386855602264404,4.889134883880615,7.536494255065918,0.18699561059474945,0.8057075142860413,0.3214583694934845
-3.4669008255004883,4.90827751159668,7.4479594230651855,0.12048961967229843,0.8472451567649841,0.2976353168487549
-3.306581735610962,4.975276470184326,7.40488862991333,-0.02924431301653385,0.8637380003929138,0.2438807636499405
-3.3209388256073,4.9776692390441895,7.512565612792969,-0.1435490995645523,0.869846522808075,0.17241163551807404
-3.5769708156585693,5.044668197631836,7.754539966583252,-0.2131093442440033,0.9217684864997864,0.10521844029426575
-3.7181472778320312,5.015954494476318,7.867002487182617,-0.2212030589580536,0.8802309036254883,0.055739812552928925
-3.862015724182129,5.0015974044799805,7.661220073699951,-0.23112933337688446,0.7916580438613892,0.009315420873463154
-3.90987229347229,4.90109920501709,7.704290866851807,-0.26220619678497314,0.8276980519294739,-0.02367033064365387
-4.1491546630859375,4.886742115020752,7.991429328918457,-0.250981867313385,0.8002098798751831,-0.08353336155414581
-4.7931227684021,4.850550651550293,7.811967849731445,-0.1360662281513214,0.47646087408065796,-0.05604523420333862
-4.59930419921875,4.675874710083008,7.89332389831543,-0.10002623498439789,0.3536805510520935,-0.004123218823224306
-4.644767761230469,4.584947109222412,7.888537883758545,-0.051616594195365906,0.3408527672290802,0.004428642801940441
-4.663910388946533,4.575376033782959,7.811967849731445,-0.022372281178832054,0.3701734244823456,0.009315420873463154
-4.742873668670654,4.596911430358887,7.699504852294922,-0.000687203137204051,0.4043808877468109,0.013591351918876171
-5.171487808227539,4.889134883880615,7.392924785614014,-0.016187451779842377,0.13438639044761658,0.014202198944985867
-4.304986953735352,4.273581027984619,8.11107063293457,-0.1280488520860672,-0.10201149433851242,0.02641914412379265
-4.671088695526123,4.718945503234863,7.910073280334473,-0.009315420873463154,-0.05986303091049194,-0.032222192734479904
-4.7596235275268555,4.869693279266357,7.895716667175293,0.04031591862440109,-0.08918370306491852,-0.005344913341104984
-4.702195644378662,4.903491973876953,7.902894973754883,0.06146650388836861,-0.08490777015686035,0.015423892997205257
-4.498805522918701,4.896313190460205,7.912466049194336,0.10621106624603271,-0.08307522535324097,0.01969982497394085
-4.496412754058838,4.869693279266357,7.835896015167236,0.12048961967229843,-0.2339545041322708,-0.013285927474498749
-4.577768802642822,4.877170562744141,7.524529933929443,0.020463382825255394,-0.5870242118835449,-0.043828289955854416
-4.348057746887207,4.6423749923706055,7.840681552886963,0.0024433890357613564,-0.5888567566871643,-0.05604523420333862
-4.352843284606934,4.630411148071289,7.788039684295654,0.028557108715176582,-0.6206207871437073,-0.06032116711139679
-4.256831645965576,4.630411148071289,7.747361660003662,0.02733541466295719,-0.6163448691368103,-0.03955236077308655
-4.151547431945801,4.558626174926758,7.790432453155518,0.015500249341130257,-0.5809157490730286,-0.01817270554602146
-4.18983268737793,4.575376033782959,7.902894973754883,-0.0025197449140250683,-0.5100574493408203,0.017867282032966614
-3.9912281036376953,4.752444744110107,8.058428764343262,-0.0,-0.37689274549484253,-0.007788302376866341
-3.926621913909912,4.754837512969971,8.053643226623535,-0.010613471269607544,-0.3536805510520935,-0.02489202655851841
-3.7902309894561768,4.776372909545898,8.137392044067383,-0.031076854094862938,-0.38483378291130066,-0.050547610968351364
-3.792623996734619,4.864907741546631,8.367402076721191,-0.037948887795209885,-0.5210527181625366,-0.09086353331804276
-3.94815731048584,4.874777793884277,8.623434066772461,-0.0037414394319057465,-0.7769976854324341,-0.0988045409321785
-3.8285162448883057,4.781158924102783,8.66171932220459,0.07200361788272858,-1.0164498090744019,-0.059710320085287094
-3.4692938327789307,4.577768802642822,8.446364402770996,0.13973131775856018,-1.09219491481781,-0.01511846948415041
-3.004786968231201,4.491627216339111,8.274081230163574,0.14904673397541046,-1.037218689918518,-0.0022906772792339325
-2.8636105060577393,4.53709077835083,8.242975234985352,0.10682191699743271,-0.8521319031715393,-0.01817270554602146
-2.8971099853515625,4.620839595794678,8.3267240524292,0.07452336698770523,-0.5680879354476929,-0.008399149402976036
-2.894717216491699,4.800301551818848,8.197212219238281,0.04222481697797775,-0.31092125177383423,0.01969982497394085
-2.8636105060577393,4.884349346160889,8.250153541564941,0.014278554357588291,-0.22784602642059326,0.02886253222823143
-2.6985056400299072,4.944169998168945,8.357830047607422,-0.036039989441633224,-0.19974705576896667,0.03130592033267021
-2.480459690093994,4.884349346160889,8.39611530303955,-0.05344913527369499,-0.2095206081867218,0.014813045971095562
-2.4110679626464844,4.809872627258301,8.503792762756348,-0.045355409383773804,-0.19424942135810852,0.009315420873463154
-2.4349961280822754,4.711766719818115,8.642576217651367,0.00862821750342846,-0.1954711228609085,-0.004734066314995289
-2.5378875732421875,4.829015254974365,8.503792762756348,0.08628217875957489,-0.21807247400283813,-0.007177455350756645
-2.501995086669922,4.864907741546631,8.228617668151855,0.11865708231925964,-0.24617144465446472,0.0007635590736754239
-2.408675193786621,4.812265396118164,8.094321250915527,0.08070819079875946,-0.25777754187583923,-0.01695101149380207
-2.425424814224243,4.805087089538574,8.247760772705078,0.01794363744556904,-0.2113531529903412,-0.0261137206107378
-2.45413875579834,4.726123809814453,8.491828918457031,0.004963133949786425,-0.17531315982341766,-0.012675080448389053
-2.4972095489501953,4.738088130950928,8.463114738464355,0.04283566400408745,-0.17775654792785645,-0.01511846948415041
-2.511566400527954,4.773980140686035,8.262117385864258,0.053983625024557114,-0.16859383881092072,-0.024281177669763565
-2.5689942836761475,4.795515537261963,8.276473999023438,0.005573981441557407,-0.13682979345321655,-0.021226942539215088
-2.5953152179718018,4.745266437530518,8.393722534179688,-0.045355409383773804,-0.09284878522157669,0.006261184345930815
-2.5235304832458496,4.699802875518799,8.546863555908203,-0.06032116711139679,-0.04947862774133682,0.04291202127933502
-2.487638235092163,4.683053016662598,8.491828918457031,-0.04474456235766411,0.008551862090826035,0.07711946964263916
-2.4756741523742676,4.7141594886779785,8.458329200744629,-0.039170581847429276,0.0525328628718853,0.10094250738620758
-2.432603359222412,4.764409065246582,8.429615020751953,-0.039170581847429276,0.14049486815929413,0.14553436636924744
-2.425424814224243,4.7931227684021,8.446364402770996,-0.03855973482131958,0.183865025639534,0.15714046359062195
-2.4756741523742676,4.903491973876953,8.52054214477539,-0.02802261710166931,0.2363978922367096,0.16935740411281586
-2.3560330867767334,4.929812908172607,8.55882740020752,-0.010613471269607544,0.22723518311977386,0.1785201132297516
-2.20528507232666,4.877170562744141,8.601898193359375,0.028557108715176582,0.16248537600040436,0.14370182156562805
-2.212463617324829,4.881956577301025,8.443971633911133,0.0683385357260704,0.05741964280605316,0.07345438003540039
-2.4684956073760986,4.877170562744141,8.341080665588379,0.07017108052968979,-0.09529217332601547,-0.01511846948415041
-2.4972095489501953,4.843372344970703,8.300402641296387,0.050929389894008636,-0.1172826737165451,0.005650337319821119
-2.439781904220581,4.824229717254639,8.28843879699707,0.030389651656150818,-0.129499614238739,0.02641914412379265
-2.3105692863464355,4.812265396118164,8.231010437011719,0.006184828467667103,-0.0916270911693573,0.02214321307837963
-2.3081765174865723,4.802694320678711,8.360222816467285,-0.0261137206107378,-0.043981000781059265,-0.012064233422279358
-2.4996023178100586,4.8553361892700195,8.472685813903809,-0.03542914241552353,-0.024433890357613564,-0.0456608310341835
-2.5594229698181152,4.860121726989746,8.55164909362793,-0.036039989441633224,-0.02748812735080719,-0.01511846948415041
-2.4373888969421387,4.750051975250244,8.625826835632324,-0.029855160042643547,-0.01588202826678753,0.03924693539738655
-2.336890459060669,4.73090934753418,8.671290397644043,0.004352286923676729,0.06902574002742767,0.05757235363125801
-2.3584258556365967,4.850550651550293,8.66171932220459,0.04405735805630684,0.15026842057704926,0.04963133856654167
-2.4996023178100586,4.934598445892334,8.649754524230957,0.06704048812389374,0.18753011524677277,0.037414394319057465
-2.5522444248199463,4.946562767028809,8.647361755371094,0.08819106966257095,0.15332266688346863,0.04963133856654167
-2.4732813835144043,4.920241355895996,8.633005142211914,0.1372879147529602,0.1588202863931656,0.07711946964263916
-2.384746789932251,4.881956577301025,8.609076499938965,0.1993652731180191,0.22784602642059326,0.10216420143842697
-2.36081862449646,4.9393839836120605,8.365009307861328,0.24288813769817352,0.2877090573310852,0.1107160672545433
-2.736790895462036,5.264808177947998,8.00100040435791,0.19195875525474548,0.20280128717422485,0.09605573117733002
-2.5211377143859863,5.286343574523926,7.804789066314697,0.04840964451432228,-0.16187451779842377,0.07711946964263916
-2.0760726928710938,4.817050933837891,8.2788667678833,0.018630841746926308,-0.25777754187583923,0.008704573847353458
-2.281855583190918,4.889134883880615,8.367402076721191,0.09437590092420578,-0.10995250940322876,-0.10430216789245605
-2.696112871170044,5.114060401916504,8.120641708374023,0.12171131372451782,-0.051922015845775604,-0.13484452664852142
-2.8971099853515625,5.233701229095459,8.01057243347168,0.09376505762338638,-0.10140064358711243,-0.10979979485273361
-2.899502754211426,5.24327278137207,8.02492904663086,-0.019928891211748123,-0.32252734899520874,-0.011453386396169662
-2.4373888969421387,4.84815788269043,8.219046592712402,-0.08887827396392822,-0.46546560525894165,0.04107947647571564
-2.2722842693328857,4.73090934753418,8.290831565856934,-0.09636115282773972,-0.4819584786891937,0.0331384651362896
-2.1933209896087646,4.78594446182251,8.408080101013184,-0.08948912471532822,-0.4202629029750824,-0.0065666078589856625
-2.2244277000427246,4.90827751159668,8.381758689880371,-0.07834116369485855,-0.2883199155330658,-0.04016320779919624
-2.39192533493042,5.106881618499756,8.42722225189209,-0.08452598750591278,-0.18753011524677277,-0.029778804630041122
-2.2794625759124756,5.0949177742004395,8.506185531616211,-0.09636115282773972,-0.18997350335121155,0.017867282032966614
-2.0159530639648438,4.980062007904053,8.582756042480469,-0.07643226534128189,-0.21501824259757996,0.031916771084070206
-1.9058831930160522,4.910670280456543,8.570791244506836,-0.031076854094862938,-0.1966928243637085,0.01175880990922451
-1.95852530002594,4.936991214752197,8.463114738464355,0.007406522985547781,-0.15210096538066864,-0.018783552572131157
-1.994417667388916,4.968098163604736,8.376973152160645,0.0036650835536420345,-0.11667182296514511,-0.021226942539215088
-1.9441684484481812,4.980062007904053,8.388936996459961,-0.02924431301653385,-0.11483928561210632,-0.010231691412627697
-1.9058831930160522,4.9776692390441895,8.415258407592773,-0.04291202127933502,-0.11667182296514511,-0.007788302376866341
-1.8963119983673096,4.994419097900391,8.443971633911133,-0.0522274412214756,-0.11361759155988693,-0.009009997360408306
-1.8915263414382935,5.027918815612793,8.491828918457031,-0.05657972767949104,-0.08307522535324097,-0.024281177669763565
-1.908276081085205,4.965705394744873,8.635397911071777,-0.04787515476346016,-0.04153761267662048,-0.050547610968351364
-2.008774518966675,4.913063049316406,8.606683731079102,-0.03168770298361778,-0.01588202826678753,-0.06581879407167435
-2.085644006729126,4.879563808441162,8.621041297912598,-0.02802261710166931,0.007330167107284069,-0.04810422286391258
-2.071287155151367,4.8553361892700195,8.656932830810547,-0.024281177669763565,0.018936265259981155,-0.020005248486995697
-2.0665013790130615,4.857728958129883,8.678468704223633,-0.015576604753732681,0.01588202826678753,-0.013285927474498749
-2.102393865585327,4.960919380187988,8.67607593536377,0.004352286923676729,-0.009773556143045425,-0.008399149402976036
-2.068894386291504,4.903491973876953,8.582756042480469,0.02542651630938053,-0.028098974376916885,-0.0022906772792339325
-2.047358989715576,4.884349346160889,8.54447078704834,0.03161134570837021,-0.02076880633831024,-0.0022906772792339325
-2.0641086101531982,4.903491973876953,8.472685813903809,0.026037365198135376,0.01588202826678753,-0.004734066314995289
-2.0808584690093994,4.886742115020752,8.542078018188477,0.011147962883114815,0.03787253051996231,0.001374406274408102
-2.061715841293335,4.90827751159668,8.64496898651123,0.02107422985136509,0.045202698558568954,0.008093725889921188
-2.0303099155426025,4.889134883880615,8.312366485595703,0.05894676223397255,0.07269082218408585,0.00992626789957285
-2.2148563861846924,4.972883701324463,8.369794845581055,0.04161396995186806,0.03420744836330414,0.023975754156708717
-2.0425732135772705,4.927420139312744,8.235795974731445,-0.031076854094862938,-0.14110571146011353,0.05390727147459984
-1.781456470489502,4.7596235275268555,8.40329360961914,-0.05657972767949104,-0.19913621246814728,0.03436015918850899
-1.7599210739135742,4.824229717254639,8.455936431884766,-0.030466007068753242,-0.1172826737165451,-0.01695101149380207
-1.9752750396728516,4.996811866760254,8.56600570678711,-0.004352286923676729,0.007330167107284069,-0.028557108715176582
-1.9824535846710205,5.061418056488037,8.568398475646973,0.013667707331478596,0.08796200156211853,-0.004734066314995289
-1.8939191102981567,5.0255255699157715,8.570791244506836,0.038483377546072006,0.1716480851173401,-0.0035123717971146107
-1.9298114776611328,4.944169998168945,8.522934913635254,0.034131091088056564,0.13377554714679718,-0.02367033064365387
-1.9680966138839722,4.889134883880615,8.487042427062988,-0.018707197159528732,-0.07757759839296341,-0.016340164467692375
-1.9537396430969238,4.872086048126221,8.594719886779785,-0.004352286923676729,-0.045202698558568954,-0.018783552572131157
-2.078465461730957,4.946562767028809,8.568398475646973,0.02420482225716114,0.03542914241552353,-0.013285927474498749
-2.133500576019287,4.9704909324646,8.54447078704834,0.03665083646774292,0.062306419014930725,0.00992626789957285
-1.994417667388916,4.934598445892334,8.56600570678711,0.04527905210852623,0.03787253051996231,0.023975754156708717
-1.9202401638031006,4.872086048126221,8.518149375915527,0.06459710001945496,0.016492875292897224,0.0007635590736754239
-1.9800606966018677,4.8553361892700195,8.324331283569336,0.07452336698770523,0.055587101727724075,-0.041384901851415634
-2.430210590362549,5.0949177742004395,8.298009872436523,0.014278554357588291,0.03542914241552353,-0.03161134570837021
-1.8987047672271729,4.948955535888672,8.5731840133667,0.027946261689066887,0.02870982140302658,-0.03649812191724777
-2.119143486022949,5.049454212188721,8.424829483032227,0.053983625024557114,0.01832541823387146,-0.02733541466295719
-1.8771693706512451,4.884349346160889,8.257331848144531,-0.019928891211748123,-0.12278030067682266,0.014813045971095562
-1.7910277843475342,4.905884742736816,8.379365921020508,-0.059023115783929825,-0.08857285231351852,-0.031000498682260513
-1.9465612173080444,4.9393839836120605,8.446364402770996,-0.08200624585151672,-0.05741964280605316,-0.07437065243721008
-2.054537296295166,4.934598445892334,8.5133638381958,-0.09384141117334366,-0.05741964280605316,-0.08292251825332642
-2.061715841293335,4.9393839836120605,8.534899711608887,-0.0981936976313591,-0.07269082218408585,-0.06581879407167435
-1.970489501953125,4.8553361892700195,8.56600570678711,-0.09636115282773972,-0.10078980028629303,-0.0462716780602932
-1.9058831930160522,4.819443702697754,8.568398475646973,-0.08513683825731277,-0.13744063675403595,-0.05604523420333862
-1.9178473949432373,4.8314080238342285,8.570791244506836,-0.07398887723684311,-0.15087927877902985,-0.07375980913639069
-1.9154545068740845,4.850550651550293,8.55164909362793,-0.07024743407964706,-0.12278030067682266,-0.08047912269830704
-1.908276081085205,4.843372344970703,8.611469268798828,-0.0745997205376625,-0.07391251623630524,-0.062153708189725876
-1.903490424156189,4.821836948394775,8.666504859924316,-0.0745997205376625,-0.053143709897994995,-0.04932591691613197
-1.8987047672271729,4.809872627258301,8.680861473083496,-0.06772769242525101,-0.05803048983216286,-0.0462716780602932
-1.9130617380142212,4.7931227684021,8.666504859924316,-0.048486001789569855,-0.08674030750989914,-0.0456608310341835
-1.8556339740753174,4.769194602966309,8.621041297912598,-0.028633465990424156,-0.12216944992542267,-0.05604523420333862
-1.841277003288269,4.819443702697754,8.577970504760742,-0.04169032722711563,-0.12888877093791962,-0.059710320085287094
-1.841277003288269,4.819443702697754,8.68325424194336,-0.049707695841789246,-0.13499724864959717,-0.06337540596723557
-1.8269200325012207,4.776372909545898,8.66171932220459,-0.02802261710166931,-0.14782503247261047,-0.07803573459386826
-1.8149559497833252,4.788337230682373,8.546863555908203,-0.010002624243497849,-0.15454435348510742,-0.09330692142248154
-1.7479569911956787,4.733302116394043,8.506185531616211,-0.029855160042643547,-0.15943112969398499,-0.10002623498439789
-1.7527425289154053,4.675874710083008,8.55164909362793,-0.06528430432081223,-0.1325538605451584,-0.09941539168357849
-1.8245272636413574,4.692624092102051,8.63061237335205,-0.08635853230953217,-0.09651386737823486,-0.09086353331804276
-1.8819550275802612,4.695017337799072,8.735896110534668,-0.08826743066310883,-0.07757759839296341,-0.0713164210319519
-1.848455548286438,4.66151762008667,8.784051895141602,-0.07269082218408585,-0.08368607610464096,-0.06459710001945496
-1.8747764825820923,4.659124851226807,8.786444664001465,-0.057801421731710434,-0.08002099394798279,-0.0713164210319519
-1.8508483171463013,4.675874710083008,8.839086532592773,-0.049707695841789246,-0.09529217332601547,-0.0584886260330677
-1.8293129205703735,4.623232364654541,8.877371788024902,-0.02924431301653385,-0.0910162404179573,-0.03527642786502838
-1.7934205532073975,4.623232364654541,8.83669376373291,0.0018325417768210173,-0.07207997888326645,-0.005344913341104984
-1.6929219961166382,4.651946544647217,8.738288879394531,0.02664821222424507,-0.062306419014930725,0.01175880990922451
-1.6139588356018066,4.620839595794678,8.7478609085083,0.030389651656150818,-0.08612946420907974,0.008093725889921188
-1.6618152856826782,4.663910388946533,8.743074417114258,0.02664821222424507,-0.12033691257238388,0.0038177953101694584
-1.683350682258606,4.704588413238525,8.702396392822266,0.02542651630938053,-0.10628741979598999,0.01847812905907631
-1.628315806388855,4.6974101066589355,8.695218086242676,0.020463382825255394,-0.0390942245721817,0.045355409383773804
-1.4676976203918457,4.656732082366943,8.702396392822266,0.014889402315020561,0.014660334214568138,0.05635065957903862
-1.4437693357467651,4.6974101066589355,8.685647010803223,0.014889402315020561,0.05070032179355621,0.03680354729294777
-1.5493526458740234,4.754837512969971,8.695218086242676,0.014889402315020561,0.038483377546072006,0.014813045971095562
-1.573280930519104,4.771587371826172,8.700003623962402,0.016721943393349648,0.011606098152697086,0.012369656935334206
-1.5397813320159912,4.706981182098389,8.743074417114258,0.02664821222424507,0.007941014133393764,0.02214321307837963
-1.5565310716629028,4.680660247802734,8.743074417114258,0.050929389894008636,0.017714571207761765,0.02641914412379265
-1.6115660667419434,4.716552734375,8.594719886779785,0.07452336698770523,0.021990500390529633,0.025197450071573257
-1.7359927892684937,4.762016296386719,8.585148811340332,0.0683385357260704,-0.01038440316915512,0.023364907130599022
-1.657029628753662,4.850550651550293,8.360222816467285,0.007406522985547781,-0.21807247400283813,0.016645587980747223
-1.410269856452942,4.623232364654541,8.561220169067383,-0.016187451779842377,-0.23334364593029022,-0.007177455350756645
-1.4054841995239258,4.680660247802734,8.585148811340332,-0.011835165321826935,-0.1447708010673523,-0.0590994730591774
-1.5541383028030396,4.726123809814453,8.611469268798828,-0.0037414394319057465,0.010995250195264816,-0.07070557028055191
-1.6713865995407104,4.781158924102783,8.534899711608887,-0.010613471269607544,0.12583453953266144,-0.03527642786502838
-1.7072789669036865,4.805087089538574,8.692825317382812,-0.04604261368513107,0.1582094430923462,0.028251685202121735
-1.5517455339431763,4.6974101066589355,8.827122688293457,-0.06650599837303162,0.06902574002742767,0.06551336497068405
-1.4437693357467651,4.616054058074951,8.86062240600586,-0.028633465990424156,0.04886778071522713,0.04291202127933502
-1.5708880424499512,4.659124851226807,8.839086532592773,0.01794363744556904,0.07696675509214401,0.001374406274408102
-1.683350682258606,4.692624092102051,8.805587768554688,0.034131091088056564,0.10873081535100937,-0.0004581354442052543
-1.8197416067123413,4.742873668670654,8.796015739440918,0.049020491540431976,0.16615045070648193,0.03558185324072838
-1.786242127418518,4.728516578674316,8.788837432861328,0.05031854286789894,0.20463383197784424,0.07956285774707794
-1.714457392692566,4.704588413238525,8.810373306274414,0.05337277799844742,0.21257483959197998,0.08811471611261368
-1.664208173751831,4.695017337799072,8.769695281982422,0.06704048812389374,0.1973036676645279,0.07834116369485855
-1.6809579133987427,4.733302116394043,8.680861473083496,0.07765395939350128,0.16248537600040436,0.04840964451432228
-1.6977076530456543,4.805087089538574,8.570791244506836,0.07200361788272858,0.1459924876689911,0.022754060104489326
-1.7790635824203491,4.840979099273682,8.55164909362793,0.05894676223397255,0.15026842057704926,0.025808297097682953
-1.8029918670654297,4.826622486114502,8.522934913635254,0.05467082932591438,0.1716480851173401,0.047798797488212585
-1.6618152856826782,4.752444744110107,8.621041297912598,0.06581879407167435,0.19058434665203094,0.07589777559041977
-1.6402798891067505,4.7141594886779785,8.604290962219238,0.09750649333000183,0.20524467527866364,0.0716218426823616
-1.8293129205703735,4.833800792694092,8.410472869873047,0.11613733321428299,0.2516690790653229,0.05635065957903862
-2.0135602951049805,4.927420139312744,8.417651176452637,0.08383878320455551,0.29442837834358215,0.07650861889123917
-2.0832512378692627,4.929812908172607,8.589934349060059,0.046577103435993195,0.26755109429359436,0.10399674624204636
-1.92741858959198,4.833800792694092,8.5731840133667,0.049020491540431976,0.2626643180847168,0.08750387281179428
-2.0207388401031494,4.840979099273682,8.592327117919922,0.037261683493852615,0.30481278896331787,0.04291202127933502
-2.3009979724884033,4.972883701324463,8.728717803955078,0.02298312820494175,0.3286358118057251,0.03497100621461868
-2.3751754760742188,4.982454776763916,8.743074417114258,0.03229855000972748,0.3261924386024475,0.051463883370161057
-2.3249263763427734,4.944169998168945,8.788837432861328,0.07139277458190918,0.29565006494522095,0.08811471611261368
-2.2292134761810303,4.917848587036133,8.623434066772461,0.11300674080848694,0.2504473626613617,0.09177979826927185
-2.1909282207489014,4.910670280456543,8.522934913635254,0.12606360018253326,0.23884128034114838,0.08383878320455551
-2.1933209896087646,4.932205677032471,8.367402076721191,0.12423106282949448,0.2241809368133545,0.07467607408761978
-2.23639178276062,4.922634601593018,8.31715202331543,0.10185877978801727,0.19424942135810852,0.07773031294345856
-2.233999013900757,4.9704909324646,8.235795974731445,0.08880192041397095,0.16187451779842377,0.07773031294345856
-2.210070848464966,5.018347263336182,8.144570350646973,0.06581879407167435,0.13560809195041656,0.06795676052570343
-2.2292134761810303,5.066203594207764,8.144570350646973,0.02664821222424507,0.12400199472904205,0.04352286830544472
-2.233999013900757,5.080560684204102,8.219046592712402,-0.0050394898280501366,0.12644538283348083,0.02886253222823143
-2.20528507232666,5.030311584472656,8.353044509887695,-0.010613471269607544,0.11361759155988693,0.025197450071573257
-2.250748872756958,5.051846981048584,8.360222816467285,0.0067956759594380856,0.1050657257437706,0.017867282032966614
-2.3105692863464355,5.099703311920166,8.333902359008789,0.020463382825255394,0.09040539711713791,0.008704573847353458
-2.2938196659088135,5.068596363067627,8.329116821289062,0.010537114925682545,0.05803048983216286,-0.0022906772792339325
-2.353640079498291,5.0327043533325195,8.398508071899414,-0.0,0.05008947476744652,-0.020005248486995697
-2.4134607315063477,4.972883701324463,8.472685813903809,0.008017370477318764,0.10873081535100937,-0.01695101149380207
-2.4684956073760986,5.0015974044799805,8.539685249328613,0.03474193811416626,0.17653486132621765,0.0007635590736754239
-2.6530420780181885,5.0949177742004395,8.508578300476074,0.08628217875957489,0.1575985997915268,0.025808297097682953
-2.758326292037964,5.358128070831299,8.29561710357666,0.0850604772567749,-0.12827792763710022,0.04291202127933502
-2.4828526973724365,5.176273345947266,8.262117385864258,0.08628217875957489,-0.1960819661617279,0.054518118500709534
-2.0904297828674316,4.934598445892334,8.216653823852539,0.10995250940322876,-0.14049486815929413,0.009315420873463154
-2.226820468902588,5.090131759643555,8.02492904663086,0.09437590092420578,-0.007941014133393764,-0.06520794332027435
-2.557030200958252,5.212165832519531,8.041678428649902,0.030389651656150818,0.05008947476744652,-0.08719844371080399
-2.5283162593841553,5.173880577087402,8.20947551727295,-0.015576604753732681,0.00916270911693573,-0.0590994730591774
-2.4684956073760986,5.066203594207764,8.298009872436523,-0.02176143415272236,-0.08979454636573792,-0.05726693198084831
-2.4852454662323,5.003990173339844,8.20947551727295,-0.012446013279259205,-0.17225892841815948,-0.07009471952915192
-2.4373888969421387,5.003990173339844,8.257331848144531,-0.03237490355968475,-0.17531315982341766,-0.06337540596723557
-2.430210590362549,5.030311584472656,8.266902923583984,-0.047264307737350464,-0.14049486815929413,-0.05665608495473862
-2.430210590362549,5.030311584472656,8.367402076721191,-0.059710320085287094,-0.12583453953266144,-0.042606595903635025
-2.3512473106384277,5.037489891052246,8.429615020751953,-0.06154286116361618,-0.14904673397541046,-0.03161134570837021
-2.3105692863464355,5.030311584472656,8.44157886505127,-0.059023115783929825,-0.15210096538066864,-0.0328330397605896
-2.322533369064331,5.049454212188721,8.482256889343262,-0.05344913527369499,-0.14782503247261047,-0.03894151374697685
-2.3273191452026367,5.054239749908447,8.491828918457031,-0.039170581847429276,-0.13805148005485535,-0.050547610968351364
-2.336890459060669,5.068596363067627,8.463114738464355,-0.034818295389413834,-0.1435490995645523,-0.05115845799446106
-2.3416759967803955,5.047060966491699,8.415258407592773,-0.03855973482131958,-0.15943112969398499,-0.03955236077308655
-2.2938196659088135,5.023132801055908,8.400900840759277,-0.05031854286789894,-0.1704263836145401,-0.0261137206107378
-2.2004995346069336,4.987240791320801,8.4200439453125,-0.060932014137506485,-0.1716480851173401,-0.02733541466295719
-2.171785593032837,4.9704909324646,8.436793327331543,-0.062153708189725876,-0.1710372269153595,-0.03649812191724777
-2.150250196456909,4.975276470184326,8.3267240524292,-0.06772769242525101,-0.16676130890846252,-0.07314895838499069
-2.1143579483032227,5.0327043533325195,8.283653259277344,-0.10498937219381332,-0.24067382514476776,-0.12323843687772751
-2.0641086101531982,5.015954494476318,8.336295127868652,-0.1292705535888672,-0.30908870697021484,-0.15805672109127045
-2.0207388401031494,5.049454212188721,8.465507507324219,-0.1677539348602295,-0.499673068523407,-0.26190075278282166
-1.9417755603790283,5.0327043533325195,8.721539497375488,-0.19325679540634155,-0.7531746625900269,-0.36696648597717285
-1.8269200325012207,4.920241355895996,8.319544792175293,-0.2423536479473114,-0.9761339426040649,-0.4243861436843872
-1.6187444925308228,4.7141594886779785,8.503792762756348,-0.2907632887363434,-0.9614735841751099,-0.4622586667537689
-1.5589239597320557,4.639982223510742,8.499007225036621,-0.3268032968044281,-0.8301414251327515,-0.49768781661987305
-1.4605190753936768,4.47487735748291,8.975478172302246,-0.39827242493629456,-0.5741963982582092,-0.3187095522880554
-1.3360923528671265,4.299902439117432,9.186046600341797,-0.3113030195236206,-0.4966188073158264,-0.2307475507259369
-1.3576277494430542,4.316951274871826,9.023334503173828,-0.18699561059474945,-0.3524588644504547,-0.1757712960243225
-1.415055513381958,4.355236530303955,8.949156761169434,-0.11308310180902481,-0.19302773475646973,-0.11468657106161118
-1.4605190753936768,4.3193440437316895,8.863015174865723,-0.10873081535100937,-0.11667182296514511,-0.029778804630041122
-1.4413765668869019,4.244867324829102,8.743074417114258,-0.11560284346342087,-0.08612946420907974,0.06368082761764526
-1.3719847202301025,4.18983268737793,8.666504859924316,-0.13362284004688263,-0.129499614238739,0.13209572434425354
-1.230808138847351,4.211368083953857,8.479864120483398,-0.17210622131824493,-0.17348061501979828,0.1632489264011383
-1.1159526109695435,4.151547431945801,8.709575653076172,-0.2435753494501114,-0.15332266688346863,0.16813570261001587
-1.0513464212417603,4.1036906242370605,8.994620323181152,-0.2877090573310852,-0.15149012207984924,0.14125843346118927
-1.017846941947937,4.144368648529053,9.20997428894043,-0.26220619678497314,-0.08551861345767975,0.11682453751564026
-0.9628120064735413,4.139583110809326,9.365806579589844,-0.20753535628318787,0.017714571207761765,0.10705098509788513
-1.0154540538787842,4.101297855377197,9.499805450439453,-0.1453816443681717,0.09040539711713791,0.0984991192817688
-1.1303095817565918,4.110869407653809,9.638588905334473,-0.0752105712890625,0.07391251623630524,0.0856713280081749
-1.103988528251648,4.118047714233398,9.547661781311035,0.004963133949786425,0.005497625097632408,0.08383878320455551
-0.7663014531135559,3.6415770053863525,9.399306297302246,0.06398624926805496,-0.029320668429136276,0.06673506647348404
-1.0250253677368164,4.331307888031006,8.973084449768066,0.0925433561205864,-0.022601349279284477,-0.008399149402976036
-1.1231311559677124,4.132404804229736,8.40329360961914,0.06520794332027435,0.13927318155765533,0.012980503961443901
-1.202094316482544,4.213760852813721,8.463114738464355,-0.018019994720816612,0.24006296694278717,0.006261184345930815
-1.0752747058868408,4.225724697113037,8.704790115356445,-0.1423274129629135,0.13499724864959717,-0.0035123717971146107
-0.9122636318206787,4.039084434509277,8.908478736877441,-0.22868594527244568,0.04153761267662048,-0.04871506989002228
-1.0106685161590576,3.988835334777832,9.193224906921387,-0.21807247400283813,-0.007941014133393764,-0.10918894410133362
-1.2236297130584717,4.084548473358154,9.109476089477539,0.14225105941295624,-0.12216944992542267,0.03802524134516716
-1.0154540538787842,3.9696927070617676,8.796015739440918,0.15034478902816772,-0.037261683493852615,0.03558185324072838
-1.0034899711608887,3.955335855484009,8.805587768554688,0.11674818396568298,-0.012216945178806782,0.014813045971095562
-1.0561320781707764,4.015156269073486,8.793622970581055,0.011147962883114815,-0.012827792204916477,-0.02244863659143448
-1.1063814163208008,3.926621913909912,9.073583602905273,-0.07146912813186646,-0.006108472589403391,-0.04993676394224167
-1.1685947179794312,3.950550079345703,9.241081237792969,-0.08513683825731277,-0.011606098152697086,-0.05543438717722893
-1.3145569562911987,4.019941806793213,9.29611587524414,-0.04909684881567955,0.004275931045413017,-0.025502873584628105
-1.293021559715271,3.933800458908081,9.368199348449707,0.017332790419459343,0.07635590434074402,0.0587940476834774
-1.261914849281311,3.893122434616089,9.341878890991211,0.07017108052968979,0.1050657257437706,0.13026317954063416
-1.261914849281311,3.9290146827697754,9.279366493225098,0.10430216789245605,0.11117420345544815,0.14797775447368622
-1.3648061752319336,4.024727821350098,9.238688468933105,0.1310267299413681,0.12033691257238388,0.13514995574951172
-1.3695918321609497,4.1036906242370605,9.176474571228027,0.14408360421657562,0.10140064358711243,0.1388150453567505
-1.2714861631393433,4.096512317657471,9.068798065185547,0.15156647562980652,0.10262233763933182,0.16935740411281586
-1.1374880075454712,4.041477680206299,9.044869422912598,0.1602710485458374,0.1050657257437706,0.1882936656475067
-1.194915771484375,4.067798614501953,8.894122123718262,0.1763821393251419,0.12216944992542267,0.16996824741363525
-1.3097712993621826,4.360022068023682,8.776873588562012,0.16958646476268768,0.17531315982341766,0.1779092699289322
-1.1901301145553589,4.345664978027344,8.798408508300781,0.11674818396568298,0.21257483959197998,0.23288552463054657
-1.0034899711608887,4.237689018249512,8.922835350036621,0.08628217875957489,0.2089097648859024,0.23960483074188232
-0.9508479237556458,4.2831525802612305,8.903693199157715,0.10063708573579788,0.20157960057258606,0.1907370537519455
-1.0250253677368164,4.424628257751465,8.810373306274414,0.10498937219381332,0.1844758689403534,0.13148486614227295
-1.1207382678985596,4.53709077835083,8.800801277160645,0.07887565344572067,0.1319430023431778,0.09361234307289124
-1.2164511680603027,4.381557464599609,8.791230201721191,0.031000498682260513,0.033596597611904144,-0.020616095513105392
-1.2595219612121582,4.393521308898926,8.848658561706543,0.007406522985547781,0.034818295389413834,-0.029167955741286278
-1.297807216644287,4.393521308898926,8.958727836608887,0.004963133949786425,0.04214845970273018,-0.029167955741286278
-1.3432707786560059,4.352843284606934,9.090332984924316,0.04161396995186806,0.05619794875383377,-0.03588727489113808
-1.4006985425949097,4.360022068023682,9.080761909484863,0.09315420687198639,0.0397050715982914,-0.04749337583780289
-1.4365909099578857,4.383950233459473,8.999405860900879,0.10934165865182877,0.03176405653357506,-0.04688252881169319
-1.4676976203918457,4.376771926879883,8.673683166503906,0.09750649333000183,0.037261683493852615,-0.0328330397605896
-1.5302101373672485,4.424628257751465,8.803194046020508,0.0626882016658783,-0.033596597611904144,-0.021226942539215088
-1.4030914306640625,4.381557464599609,8.623434066772461,-0.008704573847353458,-0.1692046970129013,-0.0004581354442052543
-1.2690932750701904,4.264009952545166,8.781659126281738,-0.03168770298361778,-0.11972606182098389,-0.034665580838918686
-1.3097712993621826,4.3121657371521,8.798408508300781,-0.02924431301653385,-0.06169557198882103,-0.04871506989002228
-1.415055513381958,4.395914077758789,8.96112060546875,-0.015576604753732681,0.047646086663007736,-0.017561858519911766
-1.3911272287368774,4.46769905090332,8.97787094116211,-0.0037414394319057465,0.04886778071522713,0.02764083817601204
-1.3360923528671265,4.448556423187256,8.93958568572998,0.0036650835536420345,0.04947862774133682,0.030695075169205666
-1.2834502458572388,4.453341960906982,8.810373306274414,0.00992626789957285,0.04581354558467865,0.015423892997205257
-1.3049856424331665,4.4150567054748535,8.812766075134277,-0.05596888065338135,-0.028098974376916885,0.0050394898280501366
-1.2499507665634155,4.3070807456970215,8.870193481445312,-0.06467345356941223,-0.0036650835536420345,-0.005955760832875967
-1.3336994647979736,4.376771926879883,8.944371223449707,-0.06032116711139679,0.01954711228609085,-0.007788302376866341
-1.3719847202301025,4.386343002319336,9.078369140625,-0.04352286830544472,0.03298575058579445,0.012980503961443901
-1.3576277494430542,4.364807605743408,8.992227554321289,-0.005650337319821119,0.033596597611904144,0.029473381116986275
-1.3648061752319336,4.326522350311279,9.044869422912598,0.03474193811416626,0.011606098152697086,0.028251685202121735
-1.4174482822418213,4.362414836883545,8.922835350036621,0.05894676223397255,-0.03542914241552353,0.02092151902616024
-1.4533406496047974,4.3983073234558105,8.827122688293457,0.06398624926805496,-0.051922015845775604,0.031916771084070206
-1.3313066959381104,4.4054856300354,8.764909744262695,0.03787253051996231,-0.03542914241552353,0.049020491540431976
-1.2236297130584717,4.376771926879883,8.740681648254395,-0.0031305921729654074,0.017714571207761765,0.045355409383773804
-1.2379865646362305,4.448556423187256,8.848658561706543,-0.033596597611904144,0.04947862774133682,0.036192700266838074
-1.202094316482544,4.427021026611328,8.879764556884766,-0.04604261368513107,0.045202698558568954,0.01847812905907631
-1.2140583992004395,4.453341960906982,8.949156761169434,-0.03542914241552353,0.031153209507465363,-0.0004581354442052543
-1.2236297130584717,4.477270126342773,8.95394229888916,-0.02176143415272236,0.0006108472589403391,-0.005955760832875967
-1.194915771484375,4.434199333190918,8.927620887756348,-0.0130568603053689,-0.018936265259981155,-0.01695101149380207
-1.230808138847351,4.436592102050781,8.910871505737305,-0.0068720318377017975,-0.013438640162348747,-0.0328330397605896
-1.2810574769973755,4.453341960906982,8.901300430297852,-0.013667707331478596,-0.02076880633831024,-0.04321744292974472
-1.2714861631393433,4.4389848709106445,8.882157325744629,-0.021150587126612663,-0.031153209507465363,-0.05482354015111923
-1.2643076181411743,4.477270126342773,8.96112060546875,-0.02733541466295719,-0.04092676565051079,-0.06154286116361618
-1.202094316482544,4.427021026611328,9.020941734313965,-0.02733541466295719,-0.04825693368911743,-0.06398624926805496
-1.1685947179794312,4.338486671447754,9.032905578613281,-0.01122431829571724,-0.07085828483104706,-0.0847550556063652
-1.233201026916504,4.297509670257568,8.930013656616211,0.012369656935334206,-0.054365407675504684,-0.10246963053941727
-1.293021559715271,4.302295207977295,8.855836868286133,0.016111096367239952,-0.042759306728839874,-0.10491301864385605
-1.410269856452942,4.29033088684082,8.776873588562012,-0.0,-0.017714571207761765,-0.08780929446220398
-1.4198411703109741,4.264009952545166,8.848658561706543,-0.025502873584628105,-0.009773556143045425,-0.0590994730591774
-1.3983057737350464,4.225724697113037,8.982656478881836,-0.028633465990424156,-0.012827792204916477,-0.04199574887752533
-1.4198411703109741,4.268795490264893,9.049654960632324,-0.007482878863811493,-0.01954711228609085,-0.0456608310341835
-1.4847464561462402,4.285545349121094,9.025727272033691,0.016721943393349648,-0.029320668429136276,-0.042606595903635025
-1.4991034269332886,4.297509670257568,8.997013092041016,0.026037365198135376,-0.031153209507465363,-0.021837789565324783
-1.438983678817749,4.299902439117432,8.927620887756348,0.02107422985136509,-0.01710372418165207,0.001985253533348441
-1.348056435585022,4.285545349121094,8.918049812316895,0.00992626789957285,0.005497625097632408,0.016645587980747223
-1.2954143285751343,4.326522350311279,8.910871505737305,0.0024433890357613564,0.029320668429136276,0.014202198944985867
-1.3145569562911987,4.360022068023682,8.927620887756348,0.004352286923676729,0.0397050715982914,0.012980503961443901
-1.3265210390090942,4.369593143463135,8.918049812316895,0.00992626789957285,0.023823043331503868,0.012980503961443901
-1.3073785305023193,4.355236530303955,8.937192916870117,0.02298312820494175,0.01038440316915512,0.017867282032966614
-1.2762718200683594,4.324129581451416,8.901300430297852,0.03665083646774292,-0.0030542362947016954,0.013591351918876171
-1.3336994647979736,4.3672003746032715,8.846264839172363,0.03596363216638565,0.0024433890357613564,0.010537114925682545
-1.355234980583191,4.4150567054748535,8.8438720703125,0.02733541466295719,0.01588202826678753,0.021532366052269936
-1.324128270149231,4.436592102050781,8.913264274597168,0.026037365198135376,0.01710372418165207,0.025197450071573257
-1.2523435354232788,4.4150567054748535,9.083154678344727,0.046577103435993195,-0.01710372418165207,0.019088976085186005
-1.2595219612121582,4.374378681182861,9.013762474060059,0.091321662068367,-0.02870982140302658,0.01175880990922451
-1.3193426132202148,4.383950233459473,8.934800148010254,0.1143047958612442,-0.029320668429136276,0.016645587980747223
-1.3576277494430542,4.3983073234558105,8.769695281982422,0.10369132459163666,-0.004275931045413017,0.03008422814309597
-1.3767703771591187,4.431806564331055,8.66171932220459,0.06085565686225891,0.045202698558568954,0.046577103435993195
-1.3408780097961426,4.434199333190918,8.666504859924316,-0.0,0.12278030067682266,0.05512896552681923
-1.3336994647979736,4.427021026611328,8.81515884399414,-0.04604261368513107,0.17653486132621765,0.05512896552681923
-1.3863415718078613,4.41266393661499,8.944371223449707,-0.04230117425322533,0.20524467527866364,0.06245913356542587
-1.4437693357467651,4.4150567054748535,9.044869422912598,-0.006261184345930815,0.22479179501533508,0.08689302206039429
-1.5134602785110474,4.431806564331055,9.052047729492188,0.04405735805630684,0.2095206081867218,0.11010521650314331
-1.5397813320159912,4.472484588623047,8.93958568572998,0.08758022636175156,0.19363857805728912,0.12720894813537598
-1.5182459354400635,4.486841678619385,8.80798053741455,0.10063708573579788,0.17531315982341766,0.14309096336364746
-1.4557334184646606,4.496412754058838,8.817551612854004,0.08261708915233612,0.1582094430923462,0.14553436636924744
-1.5756736993789673,4.59930419921875,8.75503921508789,0.07574506103992462,0.1832541823387146,0.08872556686401367
-1.5948163270950317,4.589733123779297,8.752646446228027,0.060244809836149216,0.17531315982341766,0.10216420143842697
-1.566102385520935,4.546662330627441,8.776873588562012,0.05772506445646286,0.18142163753509521,0.11987877637147903
-1.5397813320159912,4.54426908493042,8.733503341674805,0.06398624926805496,0.21868331730365753,0.11804623156785965
-1.5445669889450073,4.577768802642822,8.743074417114258,0.06520794332027435,0.22906772792339325,0.10949437320232391
-1.5948163270950317,4.613661289215088,8.714361190795898,0.0626882016658783,0.22784602642059326,0.09972081333398819
-1.683350682258606,4.6734819412231445,8.855836868286133,0.055892523378133774,0.19058434665203094,0.08017370104789734
-1.6929219961166382,4.675874710083008,8.918049812316895,0.07078192383050919,0.13438639044761658,0.072232685983181
-1.6713865995407104,4.685445785522461,9.075976371765137,0.1291942000389099,0.09407047927379608,0.06673506647348404
-1.5804593563079834,4.565804481506348,8.611469268798828,0.22364644706249237,0.09284878522157669,0.05085303261876106
-1.9848463535308838,4.795515537261963,8.656932830810547,0.21616357564926147,0.01710372418165207,0.03802524134516716
-1.8580267429351807,4.850550651550293,8.240582466125488,0.1149156391620636,-0.2870981991291046,0.06490252166986465
-1.3935201168060303,4.553840637207031,8.577970504760742,0.07078192383050919,-0.2877090573310852,0.04230117425322533
-1.3743774890899658,4.611268520355225,8.465507507324219,0.08383878320455551,-0.14660334587097168,-0.004123218823224306
-1.5086746215820312,4.766801834106445,8.563612937927246,0.07261446863412857,0.01832541823387146,-0.019394399598240852
-1.7216359376907349,4.9154558181762695,8.52054214477539,0.03596363216638565,0.06841489672660828,-0.0065666078589856625
-1.6785650253295898,4.999204635620117,8.556434631347656,-0.02176143415272236,-0.0006108472589403391,0.027029991149902344
-1.4174482822418213,4.762016296386719,8.635397911071777,-0.06589514762163162,-0.05741964280605316,0.007482878863811493
-1.446162223815918,4.728516578674316,8.697610855102539,-0.07765395939350128,-0.05375456064939499,-0.04810422286391258
-1.5254244804382324,4.764409065246582,8.723932266235352,-0.08200624585151672,-0.04337015375494957,-0.06398624926805496
-1.542174220085144,4.745266437530518,8.707182884216309,-0.08391514420509338,-0.029320668429136276,-0.07009471952915192
-1.592423439025879,4.754837512969971,8.685647010803223,-0.08269345015287399,0.01588202826678753,-0.06154286116361618
-1.5876377820968628,4.7596235275268555,8.642576217651367,-0.08452598750591278,0.06169557198882103,-0.03894151374697685
-1.5158531665802002,4.692624092102051,8.640183448791504,-0.08452598750591278,0.07635590434074402,-0.03649812191724777
-1.5278172492980957,4.692624092102051,8.618648529052734,-0.08452598750591278,0.04947862774133682,-0.06398624926805496
-1.5493526458740234,4.704588413238525,8.625826835632324,-0.08574768155813217,0.007941014133393764,-0.09941539168357849
-1.5397813320159912,4.66869592666626,8.561220169067383,-0.09697200357913971,-0.029320668429136276,-0.13362284004688263
-1.542174220085144,4.6184468269348145,8.55164909362793,-0.12300936877727509,-0.02870982140302658,-0.15622419118881226
-1.5948163270950317,4.582554340362549,8.570791244506836,-0.1522536724805832,0.0,-0.16050012409687042
-1.6689938306808472,4.568197727203369,8.704790115356445,-0.1752368062734604,0.0036650835536420345,-0.1525591015815735
-1.6618152856826782,4.525126934051514,8.94676399230957,-0.15408621728420258,-0.015271181240677834,-0.14034216105937958
-1.7575281858444214,4.498805522918701,8.908478736877441,-0.1211768239736557,-0.04459185153245926,-0.14339639246463776
-1.7766708135604858,4.5083770751953125,8.934800148010254,-0.0975828468799591,-0.0659715011715889,-0.14034216105937958
-1.7336000204086304,4.448556423187256,8.901300430297852,-0.07765395939350128,-0.07696675509214401,-0.1244601309299469
-1.695314884185791,4.403092861175537,8.922835350036621,-0.0528382882475853,-0.04886778071522713,-0.11835165321826935
-1.7742780447006226,4.41266393661499,8.951549530029297,-0.02367033064365387,-0.02748812735080719,-0.1250709742307663
-1.805384635925293,4.436592102050781,9.020941734313965,-0.005650337319821119,-0.034818295389413834,-0.12262758612632751
-1.7599210739135742,4.371985912322998,9.030512809753418,0.02420482225716114,-0.09407047927379608,-0.1244601309299469
-1.7958134412765503,4.403092861175537,8.980263710021973,0.0626882016658783,-0.16248537600040436,-0.1256818175315857
-1.7694923877716064,4.393521308898926,8.901300430297852,0.08941277116537094,-0.17958909273147583,-0.10124793648719788
-1.7647067308425903,4.3911285400390625,8.76221752166748,0.09872818738222122,-0.1178935244679451,-0.06948387622833252
-1.7599210739135742,4.441378116607666,8.678468704223633,0.07574506103992462,-0.004275931045413017,-0.03833066672086716
-1.7479569911956787,4.4389848709106445,8.695218086242676,0.028557108715176582,0.10078980028629303,-0.014507622458040714
-1.7383856773376465,4.446163654327393,8.82233715057373,-0.0068720318377017975,0.14110571146011353,0.001374406274408102
-1.6666009426116943,4.441378116607666,8.879764556884766,-0.0050394898280501366,0.09834641218185425,0.0007635590736754239
-1.6307085752487183,4.443770885467529,8.877371788024902,0.01175880990922451,0.033596597611904144,-0.026724567636847496
-1.7647067308425903,4.505984306335449,8.81515884399414,0.02733541466295719,0.025655584409832954,-0.04504998400807381
-1.7910277843475342,4.510769844055176,8.791230201721191,0.035352785140275955,0.051922015845775604,-0.029167955741286278
-1.7670994997024536,4.505984306335449,8.7478609085083,0.029778804630041122,0.08063183724880219,-0.009009997360408306
-1.6977076530456543,4.465306282043457,8.743074417114258,0.016721943393349648,0.08979454636573792,-0.0004581354442052543
-1.695314884185791,4.477270126342773,8.784051895141602,0.004963133949786425,0.08368607610464096,-0.005955760832875967
-1.841277003288269,4.498805522918701,8.882157325744629,0.006184828467667103,0.06169557198882103,-0.013896775431931019
-1.9226330518722534,4.517948150634766,8.786444664001465,0.050929389894008636,0.03176405653357506,0.022754060104489326
-1.8628123998641968,4.47487735748291,8.633005142211914,0.04527905210852623,0.03787253051996231,0.04107947647571564
-1.9417755603790283,4.482056140899658,8.63779067993164,0.02107422985136509,0.021990500390529633,0.05268557742238045
-1.8843477964401245,4.53709077835083,8.666504859924316,-0.01122431829571724,-0.036039989441633224,0.06306997686624527
-1.8269200325012207,4.379164695739746,8.86062240600586,-0.00129805039614439,-0.05864133685827255,0.05268557742238045
-1.9154545068740845,4.450949192047119,8.793622970581055,0.035352785140275955,-0.129499614238739,0.028251685202121735
-1.963310956954956,4.4605207443237305,8.7478609085083,0.044668205082416534,-0.22784602642059326,0.04413371533155441
-1.8747764825820923,4.4605207443237305,8.609076499938965,0.0198525357991457,-0.25594499707221985,0.06429167091846466
-1.7647067308425903,4.431806564331055,8.618648529052734,-0.03237490355968475,-0.2241809368133545,0.08261708915233612
-1.7001005411148071,4.520340919494629,8.733503341674805,-0.09323056042194366,-0.15332266688346863,0.09544488787651062
-1.5637096166610718,4.558626174926758,8.877371788024902,-0.13301199674606323,-0.05986303091049194,0.09544488787651062
-1.4847464561462402,4.5083770751953125,8.987442016601562,-0.1280488520860672,0.016492875292897224,0.06551336497068405
-1.5469598770141602,4.568197727203369,9.052047729492188,-0.10254598408937454,0.04825693368911743,0.031916771084070206
-1.5637096166610718,4.52991247177124,9.10229778289795,-0.07704310864210129,0.021990500390529633,0.029473381116986275
-1.5517455339431763,4.422235488891602,9.049654960632324,-0.02924431301653385,0.0390942245721817,0.046577103435993195
-1.5541383028030396,4.393521308898926,8.913264274597168,0.018630841746926308,0.11545012891292572,0.06978929787874222
-1.5637096166610718,4.4389848709106445,8.877371788024902,0.035352785140275955,0.17592400312423706,0.09300149232149124
-1.5589239597320557,4.450949192047119,8.796015739440918,0.03229855000972748,0.16859383881092072,0.09666658192873001
-1.566102385520935,4.446163654327393,8.692825317382812,0.031000498682260513,0.16126367449760437,0.07589777559041977
-1.5828521251678467,4.486841678619385,8.692825317382812,0.023593975231051445,0.129499614238739,0.0594048947095871
-1.592423439025879,4.5083770751953125,8.716753959655762,0.018630841746926308,0.07207997888326645,0.058183200657367706
-1.5182459354400635,4.510769844055176,8.757431983947754,0.03290939703583717,0.016492875292897224,0.05085303261876106
-1.4871392250061035,4.525126934051514,8.654540061950684,0.053983625024557114,-0.017714571207761765,0.03374931216239929
-1.5254244804382324,4.53709077835083,8.69043254852295,0.05772506445646286,-0.018936265259981155,0.014202198944985867
-1.5804593563079834,4.563411712646484,8.680861473083496,0.05154023692011833,-0.037261683493852615,0.008093725889921188
-1.5493526458740234,4.515555381774902,8.654540061950684,0.037261683493852615,-0.053143709897994995,0.0050394898280501366
-1.5038890838623047,4.565804481506348,8.656932830810547,0.01175880990922451,-0.07452336698770523,-0.007788302376866341
-1.506281852722168,4.570590496063232,8.738288879394531,-0.02489202655851841,-0.010995250195264816,-0.0456608310341835
-1.6809579133987427,4.651946544647217,8.767302513122559,-0.05405998229980469,-0.02748812735080719,-0.08780929446220398
-1.7575281858444214,4.549055099487305,8.915657043457031,-0.034818295389413834,0.00916270911693573,-0.09269607067108154
-1.7359927892684937,4.462913513183594,8.903693199157715,-0.018019994720816612,0.007330167107284069,-0.052990999072790146
-1.6378871202468872,4.364807605743408,8.896514892578125,-0.0025197449140250683,-0.006719320081174374,-0.023059483617544174
-1.6618152856826782,4.403092861175537,8.76221752166748,0.014889402315020561,0.034818295389413834,-0.04077405482530594
-1.8556339740753174,4.515555381774902,8.784051895141602,-0.0025197449140250683,0.01588202826678753,-0.04993676394224167
-1.9010975360870361,4.541876316070557,8.863015174865723,-0.011835165321826935,-0.01588202826678753,-0.041384901851415634
-1.688136339187622,4.441378116607666,8.865407943725586,-0.0037414394319057465,-0.04153761267662048,-0.024281177669763565
-1.5493526458740234,4.371985912322998,8.66889762878418,0.03290939703583717,0.036039989441633224,-0.024281177669763565
-1.7910277843475342,4.608875751495361,8.819944381713867,0.0397050715982914,-0.005497625097632408,-0.0065666078589856625
-1.6378871202468872,4.630411148071289,8.561220169067383,0.01794363744556904,-0.07696675509214401,0.01847812905907631
-1.5326029062271118,4.515555381774902,8.594719886779785,-0.0025197449140250683,-0.07207997888326645,0.009315420873463154
-1.542174220085144,4.539483547210693,8.628219604492188,-0.04291202127933502,-0.03298575058579445,-0.030389651656150818
-1.6522440910339355,4.46769905090332,8.769695281982422,-0.06589514762163162,0.021990500390529633,-0.04993676394224167
-1.7527425289154053,4.470091819763184,8.886942863464355,-0.0683385357260704,-0.0018325417768210173,-0.030389651656150818
-1.7001005411148071,4.410271167755127,8.922835350036621,-0.049707695841789246,-0.031153209507465363,-0.0022906772792339325
-1.6857435703277588,4.427021026611328,8.937192916870117,-0.021150587126612663,-0.03665083646774292,-0.0016798300202935934
-1.7742780447006226,4.4389848709106445,8.963513374328613,0.013667707331478596,-0.022601349279284477,-0.008399149402976036
-1.8340985774993896,4.489234447479248,8.913264274597168,0.03229855000972748,-0.03237490355968475,0.001985253533348441
-1.633101463317871,4.422235488891602,8.910871505737305,0.05276193097233772,-0.00916270911693573,0.07711946964263916
-1.6211373805999756,4.443770885467529,8.896514892578125,0.06704048812389374,-0.0030542362947016954,0.08628217875957489
-1.6187444925308228,4.470091819763184,8.901300430297852,0.1080436110496521,0.021379653364419937,0.10705098509788513
-1.6115660667419434,4.54426908493042,8.824729919433594,0.1385096162557602,0.024433890357613564,0.1247655525803566
-1.5493526458740234,4.5323052406311035,8.745467185974121,0.159660205245018,0.05864133685827255,0.1375933438539505
-1.4533406496047974,4.553840637207031,8.678468704223633,0.1757712960243225,0.12033691257238388,0.15652960538864136
-1.3504493236541748,4.549055099487305,8.714361190795898,0.2074590027332306,0.19974705576896667,0.1889045089483261
-1.4318052530288696,4.726123809814453,8.64496898651123,0.22547899186611176,0.17958909273147583,0.19623468816280365
-1.5254244804382324,4.838586330413818,8.53729248046875,0.2211267054080963,0.1575985997915268,0.17057909071445465
-1.5134602785110474,4.869693279266357,8.472685813903809,0.18630841374397278,0.1453816443681717,0.13026317954063416
-1.450947880744934,4.788337230682373,8.458329200744629,0.1391204595565796,0.17775654792785645,0.08689302206039429
-1.5230315923690796,4.790729999542236,8.575576782226562,0.09376505762338638,0.21562908589839935,0.03924693539738655
-1.7982062101364136,4.836193561553955,8.855836868286133,0.07635590434074402,0.2376195788383484,0.0032069480512291193
-1.9992033243179321,4.927420139312744,8.97787094116211,0.11674818396568298,0.1985253542661667,0.01725643500685692
-2.025524377822876,4.843372344970703,8.810373306274414,0.19195875525474548,0.17836740612983704,0.056961506605148315
-1.9992033243179321,4.889134883880615,8.673683166503906,0.2229592502117157,0.183865025639534,0.10094250738620758
-1.9298114776611328,4.790729999542236,8.731110572814941,0.21555273234844208,0.20096874237060547,0.13514995574951172
-1.9178473949432373,4.824229717254639,8.338687896728516,0.2068481594324112,0.312142938375473,0.12965233623981476
-1.92741858959198,4.987240791320801,8.314759254455566,0.16584503650665283,0.45202696323394775,0.13514995574951172
-1.970489501953125,5.006382942199707,8.053643226623535,0.10934165865182877,0.5589252710342407,0.11743538826704025
-2.1382861137390137,5.164309501647949,8.499007225036621,0.037261683493852615,0.6193991303443909,0.10033166408538818
-2.202892303466797,5.085346221923828,8.649754524230957,0.035352785140275955,0.569309651851654,0.11987877637147903
-2.1382861137390137,4.972883701324463,8.594719886779785,0.11674818396568298,0.5949652194976807,0.12965233623981476
-2.243570327758789,5.092525005340576,8.422436714172363,0.1614927500486374,0.6468872427940369,0.11743538826704025
-2.449352979660034,5.209773063659668,8.341080665588379,0.15591876208782196,0.6365028619766235,0.10338589549064636
-2.542673110961914,5.2145586013793945,8.5133638381958,0.1540098637342453,0.6175665855407715,0.09361234307289124
-2.6458635330200195,5.303092956542969,8.53729248046875,0.19501298666000366,0.5442649126052856,0.07834116369485855
-2.5307090282440186,5.303092956542969,7.610671520233154,0.253425270318985,0.4874561131000519,0.04169032722711563
-3.1076784133911133,5.607280731201172,8.180462837219238,0.15095563232898712,0.19913621246814728,0.013591351918876171
-2.925823926925659,5.482853889465332,8.046463966369629,0.1149156391620636,-0.042759306728839874,0.004428642801940441
-2.681756019592285,5.226522922515869,8.214261054992676,0.13537901639938354,-0.1435490995645523,-0.01695101149380207
-2.4110679626464844,5.097310543060303,7.969893932342529,0.24785128235816956,-0.08063183724880219,-0.08292251825332642
