accX,accY,accZ,gyroX,gyroY,gyroZ
0.2732786238193512,3.2664098739624023,9.681985855102539,-0.4199236035346985,0.46632280945777893,-0.13288554549217224
0.7810355424880981,3.3693981170654297,8.901189804077148,0.03817608207464218,0.018343964591622353,0.031710751354694366
1.5306955575942993,3.6472272872924805,8.898795127868652,-0.04811711609363556,-0.014149154536426067,0.05621375888586044
1.3510645627975464,3.5562145709991455,9.768209457397461,-0.00976458191871643,-0.036521464586257935,-0.15206179022789001
0.9798271656036377,3.3765833377838135,9.856826782226562,0.08451872318983078,-0.07380864769220352,-0.18508759140968323
0.6493061780929565,3.1969525814056396,9.49038028717041,0.2549744248390198,-0.2202940136194229,-0.14034295082092285
0.7882208824157715,3.0628278255462646,8.764670372009277,0.2746833562850952,-0.35825660824775696,0.025318661704659462
0.864863395690918,3.4939424991607666,9.576602935791016,0.264029860496521,-0.5393657088279724,0.1590198576450348
1.1738286018371582,3.965772867202759,9.880777359008789,0.44247567653656006,-0.9095741510391235,0.1680753231048584
0.9678517580032349,4.432814121246338,9.497565269470215,0.5745788812637329,-1.0581903457641602,0.08124943822622299
1.315138339996338,4.28671407699585,8.800597190856934,0.5197134017944336,-0.8440552949905396,0.06580188870429993
1.4780038595199585,4.234022617340088,8.106022834777832,-0.019352715462446213,-0.2682346999645233,0.13611488044261932
1.032518982887268,3.958587884902954,8.896400451660156,-0.3773096799850464,0.1365976184606552,0.21228726208209991
0.941506028175354,3.8891305923461914,9.27961254119873,-0.497161328792572,0.45833271741867065,0.25969526171684265
0.864863395690918,3.8100929260253906,9.167043685913086,-0.543503999710083,0.6399746537208557,0.2607605755329132
0.37626710534095764,3.6352522373199463,8.757485389709473,-0.6734764575958252,0.7651530504226685,0.22880016267299652
-0.21531769633293152,3.486757278442383,8.83891773223877,-0.8279519081115723,0.7449113726615906,0.1867189258337021
-0.7949270009994507,3.0891740322113037,9.487984657287598,-0.9163758158683777,0.7790024876594543,0.20962388813495636
-1.099102258682251,2.497589111328125,10.20650863647461,-0.8284845948219299,0.8312045931816101,0.23998631536960602
-1.9924671649932861,1.9586961269378662,10.695104598999023,-0.628731906414032,0.7310618162155151,0.2682180404663086
-2.7085957527160645,1.7120028734207153,10.769352912902832,-0.38849586248397827,0.5664655566215515,0.37741619348526
-2.830744981765747,1.6952372789382935,10.580141067504883,-0.2681114673614502,0.4865644574165344,0.45678460597991943
-1.8128360509872437,1.8054109811782837,10.287941932678223,-0.0843389481306076,0.3107820153236389,0.6043354272842407
-1.8703179359436035,2.21736478805542,10.026878356933594,0.011009705252945423,0.23194625973701477,0.6022046804428101
-1.4847100973129272,2.236525297164917,9.636479377746582,-0.012960627675056458,0.20477990806102753,0.5649175047874451
-1.6571558713912964,2.2149696350097656,9.653244972229004,-0.11257067322731018,0.23407694697380066,0.48182034492492676
-0.9577924013137817,2.2868220806121826,10.412485122680664,-0.11257067322731018,0.45300596952438354,0.4722321927547455
-0.8643842935562134,2.2125744819641113,10.189743041992188,0.015271098352968693,0.36404943466186523,0.43228164315223694
-0.7901369333267212,2.2149696350097656,9.988555908203125,0.06853850185871124,0.2969324588775635,0.40085387229919434
-0.6560124158859253,2.344303846359253,9.643665313720703,0.10369499772787094,0.24100172519683838,0.3076359033584595
-0.7015188932418823,2.370649814605713,9.557441711425781,0.09197615832090378,0.2649720311164856,0.25969526171684265
-0.7470254898071289,2.3562796115875244,9.454453468322754,0.06694048643112183,0.3134453594684601,0.18618622422218323
-0.8069024085998535,2.5311200618743896,9.782580375671387,0.09730290621519089,0.21063929796218872,0.07805338501930237
-0.9865334033966064,2.4927990436553955,9.612529754638672,0.1804000437259674,0.13393424451351166,0.053017713129520416
-0.34225690364837646,2.7562577724456787,9.531095504760742,0.3396695852279663,-0.25864654779434204,0.0034790262579917908
-0.34225690364837646,2.813739776611328,9.564626693725586,0.3860122561454773,-0.21177121996879578,-0.062039874494075775
-0.7518155574798584,2.5718367099761963,9.358650207519531,0.2634972035884857,-0.032260071486234665,-0.1302221715450287
-1.022459626197815,2.5383052825927734,9.435293197631836,0.13991683721542358,0.0907876268029213,-0.1355489194393158
-1.2475972175598145,2.514354705810547,9.430501937866211,0.13938415050506592,0.0028964148368686438,-0.14353901147842407
-1.3314249515533447,2.569441556930542,9.262846946716309,0.21662189066410065,-0.3055218756198883,-0.14407166838645935
-1.099102258682251,2.7802083492279053,9.267638206481934,0.22461198270320892,-0.43815770745277405,-0.16005189716815948
-1.7721197605133057,2.7466773986816406,9.471219062805176,0.19265155494213104,-0.09671363979578018,-0.23089754581451416
-1.9804916381835938,2.7993693351745605,9.13830280303955,0.1489722728729248,-0.2357415407896042,-0.09985974431037903
-1.6427853107452393,2.983790159225464,9.09519100189209,0.09570488333702087,-0.38648831844329834,0.02372063882648945
-1.1829298734664917,3.0867788791656494,9.183809280395508,0.03284934163093567,-0.3907497227191925,0.06580188870429993
-1.113472580909729,2.9718148708343506,9.265242576599121,-0.019885387271642685,-0.27089807391166687,0.04928899556398392
-1.221251368522644,2.859246015548706,9.174229621887207,-0.07048942148685455,-0.15637311339378357,0.05248503386974335
-0.6823583841323853,2.8376903533935547,9.796950340270996,-0.08860033005475998,-0.24373166263103485,0.026384009048342705
-0.19376197457313538,3.093964099884033,9.849641799926758,0.10369499772787094,-0.40672996640205383,-0.033808156847953796
-0.24645370244979858,3.0628278255462646,9.442477226257324,0.17240992188453674,-0.3406783938407898,-0.12223204970359802
-0.27040454745292664,3.048457384109497,9.392181396484375,0.04243747517466545,-0.14039289951324463,-0.14833305776119232
-0.5170978307723999,3.163421392440796,9.476009368896484,-0.06196664273738861,0.015147922560572624,-0.15365982055664062
-0.5793697834014893,3.0891740322113037,9.432897567749023,-0.08327360451221466,0.01248454861342907,-0.09719637036323547
-0.3781830966472626,3.156235933303833,9.483194351196289,-0.059303268790245056,-0.04238088056445122,-0.0966636911034584
-0.2727995812892914,3.237668991088867,9.715517044067383,-0.011895276606082916,-0.040782857686281204,-0.16058456897735596
-0.3925536274909973,3.0604329109191895,9.732283592224121,-0.01349329948425293,0.06575195491313934,-0.2410183548927307
-0.5362584590911865,2.9622344970703125,9.674800872802734,-0.033202238380908966,0.09558169543743134,-0.2799035906791687
-0.6200861930847168,2.8688266277313232,9.50475025177002,-0.09392707794904709,0.12061737477779388,-0.32518085837364197
-0.4883567988872528,2.7370970249176025,9.629294395446777,-0.17009946703910828,0.14139167964458466,-0.3358343541622162
-0.2751946747303009,2.7083561420440674,9.871197700500488,-0.169566810131073,0.12807482481002808,-0.3097333312034607
-0.1338849514722824,2.75146746635437,9.830480575561523,-0.12801823019981384,0.11529062688350677,-0.2910897135734558
-0.07879813015460968,2.849665880203247,9.732283592224121,-0.07475081086158752,0.10037575662136078,-0.27564218640327454
0.11759844422340393,2.9694199562072754,9.27961254119873,0.014738422818481922,0.08226484060287476,-0.25486788153648376
0.1319689154624939,2.9790000915527344,8.992202758789062,0.030718645080924034,0.12274808436632156,-0.22610348463058472
0.3092048168182373,2.902357578277588,9.241291046142578,-0.11310335993766785,0.24313241243362427,-0.0929349884390831
0.3642916977405548,2.7993693351745605,8.961067199707031,-0.1972658634185791,0.2383383810520172,-0.06630127876996994
0.47207024693489075,2.634108543395996,8.659287452697754,-0.30007195472717285,0.1552411913871765,-0.06683395057916641
1.1402976512908936,2.658059597015381,9.289193153381348,-0.2563926577568054,-0.08765818178653717,-0.08707556128501892
1.1498777866363525,2.5191450119018555,9.634084701538086,-0.2851570248603821,0.056163813918828964,-0.14620237052440643
1.1091614961624146,2.3754398822784424,9.693961143493652,-0.4236522912979126,0.11795400083065033,-0.22397278249263763
0.8169617652893066,2.382625102996826,9.540677070617676,-0.4566780924797058,0.14884911477565765,-0.2559332549571991
0.8840240240097046,2.4041807651519775,9.396971702575684,-0.3938225507736206,-0.2133692353963852,-0.21225395798683167
1.4037563800811768,2.6029725074768066,10.374164581298828,-0.35067594051361084,-0.08073341846466064,-0.23995299637317657
1.1786189079284668,2.820924997329712,10.422065734863281,-0.2691768407821655,0.030595462769269943,-0.2783055603504181
0.9439009428024292,2.823319673538208,10.410089492797852,-0.21164804697036743,-0.04664226993918419,-0.26818475127220154
0.7762454748153687,2.6939854621887207,10.220878601074219,-0.1493251919746399,-0.11056315898895264,-0.23782232403755188
-0.023711279034614563,2.164673089981079,10.472362518310547,0.13885147869586945,0.04231429472565651,0.0626058429479599
0.08406732231378555,2.219759702682495,9.976581573486328,0.2725526690483093,-0.0482402928173542,0.10095836967229843
0.2732786238193512,2.236525297164917,9.823295593261719,0.28320616483688354,-0.08286411315202713,0.09936035424470901
0.5702685117721558,2.4927990436553955,9.430501937866211,0.23313477635383606,-0.09032154828310013,0.09722965210676193
0.8600732088088989,2.6269233226776123,9.317934036254883,0.14098218083381653,-0.01787787303328514,0.10788314044475555
0.905579686164856,2.7011709213256836,9.286797523498535,0.08931279182434082,0.004494437947869301,0.0940336138010025
1.037309169769287,2.761047840118408,9.071240425109863,0.06321176886558533,-0.0008323027286678553,0.09829500317573547
1.2001745700836182,2.741887331008911,9.181415557861328,-0.014558646827936172,0.024736052379012108,0.11107917875051498
1.2313106060028076,2.6269233226776123,9.825691223144531,-0.056107230484485626,0.08119949698448181,0.08710885792970657
1.044494390487671,2.504774332046509,10.091545104980469,0.01154237985610962,0.1515124887228012,0.0626058429479599
0.9031846523284912,2.3562796115875244,10.1226806640625,0.1303286850452423,0.23034822940826416,0.04875631630420685
0.7666651010513306,2.634108543395996,9.27961254119873,0.19638027250766754,0.2532532215118408,0.04449492692947388
0.6301455497741699,2.732307195663452,9.509540557861328,-0.010829929262399673,0.05403311923146248,0.07166130095720291
0.22298194468021393,2.5095643997192383,10.149026870727539,-0.08327360451221466,0.15097981691360474,0.12812475860118866
0.06251160055398941,2.650874137878418,9.88796329498291,0.09623756259679794,0.2820175886154175,0.19470901787281036
0.24214258790016174,2.7083561420440674,9.401762008666992,0.21821990609169006,0.278288871049881,0.28792697191238403
0.4002178907394409,2.928703546524048,9.351465225219727,0.16122378408908844,0.13553225994110107,0.331073522567749
0.21100656688213348,3.0963592529296875,9.27961254119873,0.10529301315546036,0.08439553529024124,0.34705376625061035
0.2852540612220764,3.2616195678710938,9.224526405334473,0.07599593698978424,-0.048772964626550674,0.36143600940704346
0.5391324758529663,3.2496440410614014,9.36344051361084,0.03870875760912895,-0.2112385332584381,0.33746564388275146
0.4768604338169098,3.0436675548553467,9.61013412475586,-0.03426758944988251,-0.3087179362773895,0.2980477809906006
0.31399500370025635,2.6820101737976074,9.890358924865723,-0.12588752806186676,-0.33641698956489563,0.29644975066185
-0.35902249813079834,2.2053892612457275,10.575350761413574,-0.14293310046195984,-0.20697714388370514,0.3763508200645447
-0.5817649364471436,2.145512342453003,10.632833480834961,-0.09286173433065414,-0.14412161707878113,0.41949743032455444
-0.9003105163574219,2.1790435314178467,10.201719284057617,0.0802573412656784,-0.10896514356136322,0.48395103216171265
-0.7326549291610718,2.3371188640594482,9.351465225219727,0.3290160894393921,-0.5100686550140381,0.49353912472724915
-0.5578141212463379,2.631713628768921,8.87484359741211,0.4398123621940613,-0.4429517686367035,0.4365430176258087
-0.4715912640094757,2.705960988998413,8.470075607299805,0.20863176882266998,-0.083396777510643,0.429618239402771
-0.33986184000968933,2.631713628768921,8.836522102355957,-0.08220825344324112,0.20211653411388397,0.4067132771015167
-0.38297325372695923,2.6005775928497314,9.10716724395752,-0.17542622983455658,0.08759158849716187,0.36889344453811646
-0.3638126254081726,2.3850204944610596,9.98137092590332,-0.0678260549902916,-0.03865215927362442,0.325214147567749
-0.6200861930847168,2.344303846359253,9.98137092590332,-0.015623997896909714,-0.00669171754270792,0.303907185792923
-1.1230530738830566,2.3395137786865234,9.789764404296875,-0.01349329948425293,0.07747077196836472,0.3593052923679352
-0.5099124908447266,2.5862069129943848,9.914308547973633,0.21608920395374298,-0.34334173798561096,0.39872318506240845
-0.5266780853271484,2.775418519973755,9.820900917053223,0.13352474570274353,0.20264919102191925,0.392331063747406
-0.7877417802810669,2.5742316246032715,9.523910522460938,-0.07048942148685455,0.30865129828453064,0.43228164315223694
-0.6631976366043091,2.514354705810547,9.435293197631836,-0.08274092525243759,0.19732244312763214,0.4424024522304535
-0.20813244581222534,2.514354705810547,9.816110610961914,-0.05184583365917206,0.044444989413022995,0.399788498878479
0.2301671952009201,2.605367660522461,10.331052780151367,-0.018820039927959442,0.1184866726398468,0.23625759780406952
0.16310495138168335,2.624528408050537,10.153816223144531,0.015271098352968693,0.11742132902145386,0.11587324738502502
0.1319689154624939,2.614948034286499,9.830480575561523,0.031251318752765656,0.07107869535684586,0.026916684582829475
0.10322795808315277,2.6173431873321533,9.717911720275879,0.028055274859070778,0.057761844247579575,-0.00770712923258543
0.09604272246360779,2.7275168895721436,9.449663162231445,0.007813661359250546,0.09398367255926132,-0.04872302711009979
-0.5721845626831055,2.605367660522461,9.622109413146973,0.06321176886558533,0.08759158849716187,-0.1616499274969101
-0.9242613315582275,2.6724298000335693,9.672405242919922,0.00994435790926218,-0.12334734201431274,-0.20160047709941864
-0.8715696334838867,2.634108543395996,9.502354621887207,-0.024679452180862427,-0.06049179658293724,-0.18721827864646912
-0.6224813461303711,2.4640581607818604,9.521515846252441,0.027522601187229156,0.1110292375087738,-0.16431330144405365
-0.8859400749206543,2.588602066040039,9.51432991027832,0.05149293318390846,0.07534008473157883,-0.1653786450624466
-1.216461181640625,2.705960988998413,9.416131973266602,0.02006516419351101,-0.06422051787376404,-0.1430063396692276
-1.2619677782058716,2.7251217365264893,9.284402847290039,-0.0007091239094734192,-0.13293546438217163,-0.12702612578868866
-1.1517940759658813,2.5933923721313477,9.320328712463379,-0.023614108562469482,-0.18513751029968262,-0.09932707250118256
-0.8332482576370239,2.52632999420166,9.684380531311035,0.01367307547479868,-0.12174931168556213,-0.07535673677921295
-0.8140877485275269,2.595787286758423,9.50475025177002,0.03711073473095894,-0.09405026584863663,-0.07961813360452652
-0.9314466714859009,2.715541124343872,9.636479377746582,0.05895036831498146,-0.11162851005792618,-0.05671314150094986
-0.7542107105255127,2.866431474685669,9.351465225219727,0.18093271553516388,-0.12334734201431274,-0.005043759010732174
-0.6919386386871338,3.1155197620391846,9.634084701538086,0.10476034134626389,-0.31244662404060364,0.021057268604636192
-0.45003554224967957,2.8161346912384033,9.792160034179688,-0.0012417994439601898,-0.22295737266540527,-0.005576433148235083
-0.5338633060455322,2.784998655319214,9.674800872802734,-0.002839818596839905,-0.06581854075193405,-0.09027160704135895
-0.5218878984451294,2.6891956329345703,9.727492332458496,0.01633644476532936,-0.040250182151794434,-0.12915682792663574
-0.344651997089386,2.5574660301208496,9.916704177856445,0.0211305133998394,-0.12068397551774979,-0.21758069097995758
-0.22489801049232483,2.6197381019592285,10.01729679107666,0.008879008702933788,-0.05516505613923073,-0.2969491183757782
-0.4979371130466461,2.634108543395996,9.88796329498291,0.061081066727638245,0.03006279096007347,-0.33104029297828674
-0.5458387136459351,2.7299118041992188,9.480798721313477,0.14204752445220947,0.053500447422266006,-0.3038738965988159
-0.3278864324092865,2.8257150650024414,9.126327514648438,0.15962576866149902,0.10943122208118439,-0.24794311821460724
-0.19855213165283203,2.9909756183624268,8.853287696838379,0.08558407425880432,0.13606493175029755,-0.21438464522361755
-0.04766207933425903,2.9718148708343506,8.920351028442383,-0.03639828786253929,0.17122142016887665,-0.18615294992923737
0.3882424533367157,2.7251217365264893,9.495169639587402,-0.12642019987106323,0.2372729778289795,-0.1227647215127945
1.0157535076141357,2.650874137878418,9.70354175567627,0.026457253843545914,0.12221541255712509,-0.07535673677921295
1.0301239490509033,2.8017640113830566,9.224526405334473,0.08984546363353729,0.0796014666557312,-0.07002998888492584
1.2193351984024048,2.820924997329712,9.059266090393066,-0.0039051659405231476,0.1999858319759369,-0.06683395057916641
1.166643500328064,2.7826037406921387,9.258056640625,-0.1509232074022293,0.35233059525489807,-0.033808156847953796
1.0876058340072632,2.8808016777038574,9.351465225219727,-0.23508571088314056,0.26816806197166443,0.022122615948319435
1.104371428489685,3.0245065689086914,9.576602935791016,-0.2009945511817932,0.031660813838243484,0.01200181059539318
1.4708186388015747,2.830505132675171,10.043643951416016,-0.18554702401161194,0.0039617642760276794,0.034374117851257324
1.5666218996047974,2.7011709213256836,10.240038871765137,-0.15411925315856934,0.08013415336608887,0.005609722808003426
1.4995596408843994,2.686800241470337,9.976581573486328,-0.10990731418132782,0.014615243300795555,-0.04020024836063385
1.4372873306274414,2.7011709213256836,9.818506240844727,-0.06676070392131805,-0.05782843008637428,-0.08228149265050888
1.279212236404419,2.7538628578186035,9.650849342346191,-0.024679452180862427,-0.07007993012666702,-0.09719637036323547
1.2001745700836182,2.8616414070129395,9.638874053955078,0.022195860743522644,-0.0631551668047905,-0.10731717944145203
1.125927209854126,2.6844053268432617,9.624504089355469,0.05948304384946823,-0.21070587635040283,-0.15312713384628296
1.1834089756011963,2.7275168895721436,9.787368774414062,0.013140401802957058,-0.2613099217414856,-0.1579212099313736
1.0133583545684814,3.029296875,10.026878356933594,0.04989491030573845,-0.24799306690692902,-0.17976084351539612
1.1211369037628174,2.8257150650024414,9.61971378326416,0.16708320379257202,-0.23094746470451355,-0.2042638510465622
1.0804206132888794,2.9550492763519287,9.413737297058105,0.1377861201763153,-0.28261688351631165,-0.2207767516374588
1.1642483472824097,3.1610262393951416,9.612529754638672,-0.04385571926832199,-0.3145773708820343,-0.19627374410629272
1.212149977684021,2.9790000915527344,9.883172988891602,-0.15571728348731995,-0.20644448697566986,-0.11370926350355148
1.1522729396820068,2.6269233226776123,10.48433780670166,-0.04279037564992905,-0.18620285391807556,-0.04499430954456329
1.161853313446045,2.6796152591705322,10.074779510498047,0.14311286807060242,-0.21549993753433228,-0.06363790482282639
1.3750152587890625,2.7466773986816406,9.432897567749023,0.22354663908481598,-0.18673554062843323,-0.059376515448093414
1.8420559167861938,2.7826037406921387,9.23650074005127,0.1990436315536499,-0.12015129625797272,-0.09133695811033249
1.8205002546310425,2.765838146209717,9.416131973266602,0.178802028298378,-0.006159042939543724,-0.22290745377540588
1.4803988933563232,2.741887331008911,9.727492332458496,0.2065010666847229,0.07001333683729172,-0.3395630717277527
1.207359790802002,2.6844053268432617,9.737071990966797,0.2549744248390198,0.13180355727672577,-0.3502165377140045
1.0708402395248413,2.7897887229919434,9.334699630737305,0.3583132028579712,0.25431856513023376,-0.2873610258102417
1.3175334930419922,2.8784070014953613,8.798201560974121,0.4067865014076233,0.4759109318256378,-0.19574105739593506
0.9127650260925293,3.2783849239349365,8.685632705688477,0.34819239377975464,0.6522260904312134,-0.17336876690387726
0.5008112192153931,3.424484968185425,8.970647811889648,0.22887340188026428,0.5227863192558289,-0.08973893523216248
0.47207024693489075,3.407719373703003,9.198180198669434,0.17240992188453674,0.3747028410434723,-0.041265591979026794
0.7331340312957764,3.2664098739624023,9.317934036254883,0.18146540224552155,0.07480740547180176,0.06686723977327347
0.6373307704925537,3.3119163513183594,8.977831840515137,0.24432092905044556,0.08652623742818832,0.08071675896644592
0.5247620344161987,3.5131030082702637,9.140698432922363,0.23846150934696198,0.16962340474128723,0.12972278892993927
0.5415276288986206,3.577770233154297,9.20057487487793,0.2432555854320526,0.2053125649690628,0.15209509432315826
0.4768604338169098,3.58974552154541,9.214945793151855,0.26669323444366455,0.11529062688350677,0.16328124701976776
0.6205652952194214,3.5490293502807617,9.274822235107422,0.2800101041793823,-0.05409970507025719,0.16860798001289368
0.6636766195297241,3.517893075942993,9.291587829589844,0.28853291273117065,-0.13400082290172577,0.17073868215084076
0.7546896934509277,3.469991683959961,9.394576072692871,0.2911962866783142,-0.2352088838815689,0.17500007152557373
0.6828372478485107,3.4939424991607666,9.516725540161133,0.258170485496521,-0.3385476768016815,0.18032681941986084
0.7618749141693115,3.472386598587036,9.502354621887207,0.20543572306632996,-0.47011813521385193,0.1941763311624527
0.8409125804901123,3.4771766662597656,9.449663162231445,0.1564297080039978,-0.476510226726532,0.18725158274173737
0.7642700672149658,3.4364607334136963,9.650849342346191,0.1303286850452423,-0.3699754476547241,0.1664772927761078
0.21100656688213348,3.388558864593506,9.3275146484375,0.18093271553516388,-0.1723533421754837,0.1531604528427124
-0.021316200494766235,3.5298686027526855,8.925140380859375,0.2065010666847229,-0.14305627346038818,0.19683972001075745
0.05532635748386383,3.630462169647217,8.71916389465332,0.2006416618824005,-0.1483830064535141,0.22400608658790588
0.1319689154624939,3.6663880348205566,8.752695083618164,0.1511029750108719,-0.18993158638477325,0.16967332363128662
0.10322795808315277,3.6544125080108643,8.826942443847656,0.12020789086818695,-0.2059118002653122,0.11747127771377563
0.012214921414852142,3.6903388500213623,9.013758659362793,0.06267908215522766,-0.2059118002653122,0.0029463516548275948
-0.06203256547451019,3.776561975479126,9.286797523498535,0.023261208087205887,-0.11003048717975616,-0.12383007258176804
-0.13148987293243408,3.805302858352661,9.353860855102539,0.052558280527591705,0.044444989413022995,-0.15099644660949707
-0.20094719529151917,3.8915257453918457,8.019800186157227,0.008346335031092167,-0.022671939805150032,-0.16271527111530304
-0.7757663726806641,3.551424264907837,8.235357284545898,-0.23774905502796173,0.20957393944263458,-0.13501623272895813
-0.9362367391586304,3.3789784908294678,9.356254577636719,-0.4438939094543457,0.3704414963722229,-0.05191907286643982
-0.9170761108398438,3.2879655361175537,10.199323654174805,-0.40394335985183716,0.5078714489936829,0.01626320369541645
-0.9961137771606445,3.1777915954589844,9.612529754638672,-0.27290552854537964,0.4301009774208069,0.06846525520086288
-0.9937187433242798,3.2161130905151367,9.210155487060547,-0.2553272843360901,0.2884097099304199,0.11960197985172272
-0.9985089302062988,3.2232983112335205,9.382601737976074,-0.26278477907180786,0.278288871049881,0.1254613846540451
-0.9530023336410522,3.1945574283599854,9.650849342346191,-0.266513466835022,0.3906830847263336,0.13558219373226166
-0.8212729692459106,3.22808837890625,9.825691223144531,-0.21484410762786865,0.2687007784843445,-0.0540497750043869
-0.8404334783554077,3.084383726119995,9.871197700500488,-0.16690343618392944,0.15257784724235535,-0.1153072863817215
-0.847618818283081,3.0795934200286865,9.770604133605957,-0.15252122282981873,0.1461857408285141,-0.16431330144405365
-1.000903844833374,3.0269017219543457,9.430501937866211,-0.18341632187366486,0.13766296207904816,-0.19520840048789978
-0.9721629619598389,3.0771985054016113,9.231711387634277,-0.30966007709503174,0.1483164280653,-0.25326988101005554
-0.9841383695602417,3.0245065689086914,9.320328712463379,-0.39275723695755005,0.16003526747226715,-0.30493924021720886
-1.1996955871582031,2.8520607948303223,9.413737297058105,-0.42791372537612915,0.1797441989183426,-0.31452736258506775
-1.4727346897125244,2.739492177963257,9.358650207519531,-0.4337731599807739,0.2164987176656723,-0.2596619725227356
-1.491895318031311,2.588602066040039,9.550256729125977,-0.6052942276000977,0.22981557250022888,-0.11104589700698853
-1.6356000900268555,2.4017858505249023,9.986161231994629,-0.5893139839172363,0.17281943559646606,-0.09453300386667252
-1.7433786392211914,2.109586238861084,9.813715934753418,-0.4396325349807739,0.04764103516936302,-0.050853729248046875
-1.436808466911316,2.3107728958129883,9.864011764526367,-0.37251561880111694,-0.024269960820674896,-0.05191907286643982
-1.384116768836975,2.200599431991577,9.885567665100098,-0.3384244441986084,0.011951873078942299,-0.10199043899774551
-1.7649345397949219,2.028153419494629,10.153816223144531,-0.30593132972717285,0.02526872791349888,-0.11583996564149857
-1.8679229021072388,1.9778566360473633,10.362189292907715,-0.184481680393219,-0.05995911732316017,-0.06843197345733643
-1.6595510244369507,2.030548572540283,10.153816223144531,-0.0177546925842762,-0.14998102188110352,-0.008772478438913822
-1.5350067615509033,2.0425238609313965,9.955025672912598,0.03870875760912895,-0.15850381553173065,0.014132505282759666
-1.5565624237060547,2.047314167022705,9.658035278320312,0.0674731582403183,-0.07647202163934708,0.02904737927019596
-1.5661427974700928,2.0712649822235107,9.499959945678711,0.04936223849654198,-0.013616479933261871,0.030645402148365974
-1.5589574575424194,2.0616846084594727,9.59815788269043,0.005150291137397289,0.08759158849716187,0.03703749179840088
-1.4439936876296997,2.0880305767059326,9.964605331420898,0.03870875760912895,0.10357179492712021,0.004544373601675034
-1.3817216157913208,2.135932207107544,9.957420349121094,0.13352474570274353,0.0945163443684578,-0.07162801921367645
-1.757749080657959,2.011388063430786,9.58378791809082,0.19638027250766754,0.0332588367164135,-0.11104589700698853
-1.7098475694656372,2.1479074954986572,9.025734901428223,0.17454063892364502,0.03858557716012001,-0.05245174467563629
-1.784095048904419,2.2772417068481445,9.392181396484375,0.012607728131115437,-0.012551132589578629,-0.09186963737010956
-1.6284148693084717,2.3419089317321777,9.624504089355469,-0.019352715462446213,-0.041315529495477676,-0.058843836188316345
-1.5876984596252441,2.2317352294921875,9.880777359008789,-0.07901220768690109,0.048706378787755966,0.01945924572646618
-1.5254265069961548,2.1598827838897705,10.024482727050781,-0.06143396347761154,0.10889855027198792,0.03863551467657089
-1.4392037391662598,2.2029943466186523,9.98137092590332,0.08558407425880432,0.10996389389038086,0.02958005480468273
-1.4799199104309082,2.2413153648376465,9.547861099243164,0.16974656283855438,-0.07860271632671356,-0.027416067197918892
-1.1829298734664917,2.452082395553589,9.466428756713867,0.02912062406539917,-0.048772964626550674,-0.0007823668420314789
-0.8787548542022705,2.4401071071624756,9.092796325683594,0.009411683306097984,-0.13400082290172577,-0.023687351495027542
-0.8260630369186401,2.399390935897827,9.670010566711426,-0.27024221420288086,-0.10630176961421967,-0.049788378179073334
-0.6823583841323853,2.1934139728546143,10.24962043762207,-0.2457391768693924,0.06628461927175522,-0.015164566226303577
-0.4524305760860443,2.1239566802978516,9.578997611999512,-0.09978649765253067,0.15257784724235535,0.004011699929833412
-0.1602308303117752,2.155092716217041,8.73114013671875,-0.2270956039428711,0.21010662615299225,0.0034790262579917908
-0.006945721805095673,2.3754398822784424,9.277217864990234,-0.2553272843360901,-0.029064027592539787,-0.03061211295425892
0.09843780100345612,2.478428363800049,9.071240425109863,-0.06143396347761154,-0.3278941810131073,-0.10838253051042557
0.3714768886566162,2.389810562133789,9.150278091430664,-0.14879252016544342,-0.06368784606456757,-0.10092509537935257
0.522367000579834,1.9467207193374634,9.286797523498535,-0.4231196641921997,0.2500571608543396,-0.06363790482282639
0.6181701421737671,2.011388063430786,8.932326316833496,-0.573333740234375,0.1365976184606552,-0.11264392733573914
0.7738503217697144,1.7575093507766724,9.895148277282715,-0.7235478758811951,-0.027998678386211395,-0.2245054394006729
0.5127866268157959,1.2689130306243896,11.732173919677734,-0.45081865787506104,-0.14305627346038818,-0.34062841534614563
0.3714768886566162,1.2832834720611572,11.696248054504395,-0.27769964933395386,-0.20910783112049103,-0.34595516324043274
0.34034088253974915,1.5635079145431519,10.946588516235352,0.023793883621692657,-0.3316228985786438,-0.28256696462631226
0.4936259984970093,1.8557076454162598,10.208903312683105,0.25337639451026917,-0.3460051119327545,-0.196806401014328
0.567873477935791,2.1982040405273438,9.131117820739746,0.30717647075653076,-0.4317656457424164,-0.08228149265050888
0.7858257293701172,1.9994124174118042,9.219735145568848,0.10049894452095032,-0.5031439661979675,-0.033275485038757324
0.8720486164093018,2.018573045730591,10.10112476348877,0.2006416618824005,-0.17022264003753662,0.04556027799844742
1.2049647569656372,1.9107944965362549,9.775394439697266,0.21342584490776062,-0.18620285391807556,0.05727910250425339
1.1522729396820068,1.8054109811782837,9.88796329498291,0.24112489819526672,-0.1707553118467331,0.013067157939076424
0.416983425617218,2.1766483783721924,9.799345016479492,0.13139404356479645,0.302259236574173,0.12492869794368744
0.3786621391773224,2.145512342453003,8.779041290283203,0.18093271553516388,0.05509847030043602,0.11161185801029205
0.7283438444137573,2.100005626678467,9.150278091430664,-0.13121427595615387,-0.07061260938644409,0.08338013291358948
0.44572436809539795,1.956300973892212,10.03885269165039,-0.20152723789215088,0.14352238178253174,0.0775207132101059
0.450514554977417,1.9491157531738281,10.060408592224121,0.017934467643499374,0.16376398503780365,0.07379200309515
0.7451093196868896,2.0880305767059326,9.437687873840332,0.18093271553516388,-0.02160659059882164,0.030645402148365974
0.8792338371276855,2.308377981185913,9.078425407409668,0.07652860879898071,-0.06102447584271431,0.0029463516548275948
0.9582715034484863,2.2652664184570312,9.3275146484375,-0.025212127715349197,-0.03385809436440468,0.00720774382352829
0.9319256544113159,2.047314167022705,9.919099807739258,-0.07688150554895401,0.022605353966355324,0.030112730339169502
0.9247404336929321,2.0353386402130127,9.940655708312988,0.04297014698386192,0.03006279096007347,0.04183156043291092
0.9582715034484863,2.183833360671997,9.571812629699707,0.1100870817899704,0.02100733108818531,0.04609294980764389
1.2744220495224,2.425736427307129,9.569416999816895,0.1175445169210434,-0.05782843008637428,0.05994247645139694
1.3582497835159302,2.6269233226776123,9.842455863952637,0.022728534415364265,0.04284696653485298,0.03490679711103439
0.8912092447280884,2.5981826782226562,9.679591178894043,-0.04385571926832199,0.02580139972269535,0.05035434663295746
0.5726636648178101,2.705960988998413,9.763419151306152,-0.08487162739038467,-0.10949781537055969,0.1014910563826561
0.20142623782157898,2.3035876750946045,10.32147216796875,-0.10724394023418427,-0.049305643886327744,0.16594462096691132
0.08406732231378555,2.030548572540283,10.884316444396973,-0.0640973374247551,0.12807482481002808,0.2831329107284546
-0.11951448023319244,1.9946223497390747,10.92982292175293,0.07066920399665833,0.1797441989183426,0.3603706359863281
-0.4165043830871582,1.8557076454162598,10.460387229919434,0.20756642520427704,0.1477837711572647,0.3593052923679352
-0.5889501571655273,1.5730881690979004,9.789764404296875,-0.030006196349859238,-0.267169326543808,0.303907185792923
-0.6991238594055176,1.6664962768554688,10.163397789001465,-0.06889140605926514,-0.17288601398468018,0.24797643721103668
-0.7326549291610718,1.6305701732635498,10.1226806640625,0.08558407425880432,-0.10523641854524612,0.184588223695755
-0.7997171878814697,1.6976324319839478,9.737071990966797,0.12340393662452698,-0.07327597588300705,0.15475845336914062
-0.8979154825210571,1.5898538827896118,9.545465469360352,0.025924578309059143,0.05456579849123955,0.16594462096691132
-1.194905400276184,1.4724948406219482,10.125075340270996,-0.06196664273738861,0.15630656480789185,0.1792614609003067
-1.4727346897125244,1.34795081615448,10.388534545898438,-0.012427955865859985,0.2963998019695282,0.21175459027290344
-1.676316499710083,1.3048393726348877,10.079569816589355,0.13086137175559998,0.44554853439331055,0.2607605755329132
-1.7002671957015991,1.5443472862243652,9.406551361083984,0.2991864085197449,0.4854990839958191,0.2847309112548828
-1.5661427974700928,1.6401504278182983,8.886819839477539,0.28640222549438477,0.26550471782684326,0.2884596288204193
-1.6164395809173584,1.6784718036651611,8.999387741088867,0.11115242540836334,0.1722867786884308,0.26875069737434387
-1.6739214658737183,1.7455339431762695,9.464034080505371,-0.019885387271642685,0.09824506938457489,0.2682180404663086
-1.6116493940353394,1.822176456451416,9.40894603729248,-0.001774471253156662,0.13606493175029755,0.27833881974220276
-1.3649561405181885,1.6712864637374878,9.097586631774902,0.03444736450910568,0.15683922171592712,0.26928335428237915
-1.0607810020446777,1.7694848775863647,9.088006973266602,-0.08700231462717056,0.0076904818415641785,0.17393474280834198
-1.000903844833374,1.7024224996566772,9.186203956604004,-0.17276285588741302,-0.036521464586257935,0.09989303350448608
-0.8859400749206543,1.5898538827896118,9.298773765563965,-0.28941845893859863,-0.09618096053600311,-0.02208932861685753
-0.6631976366043091,1.4437538385391235,9.576602935791016,-0.40234535932540894,-0.15264439582824707,-0.10944787412881851
-0.5913451910018921,1.4198031425476074,9.978975296020508,-0.4438939094543457,-0.15424242615699768,-0.141408309340477
-0.6033205986022949,1.4605193138122559,10.467572212219238,-0.3986166715621948,-0.11162851005792618,-0.18455490469932556
-1.0176695585250854,1.618594765663147,9.978975296020508,-0.0917963832616806,0.026866747066378593,-0.17976084351539612
-1.0631760358810425,1.5730881690979004,9.569416999816895,-0.05770524591207504,0.05403311923146248,-0.13395088911056519
-1.139818549156189,1.582668423652649,9.904728889465332,-0.020418062806129456,0.14512039721012115,-0.10571915656328201
-1.4415987730026245,1.6664962768554688,9.61971378326416,0.0877147689461708,-0.07753737270832062,-0.09400032460689545
-1.374536395072937,1.4437538385391235,9.950235366821289,-0.054509200155735016,-0.2208266705274582,-0.08441218733787537
-1.4487838745117188,1.3311851024627686,10.259200096130371,-0.13760635256767273,-0.17128798365592957,-0.03806954622268677
-1.2356218099594116,1.398247241973877,10.616066932678223,-0.019352715462446213,-0.11429189145565033,0.03650481998920441
-0.7901369333267212,1.4988408088684082,9.789764404296875,0.1750733107328415,-0.25438517332077026,0.03810284286737442
-0.6967287063598633,1.5180013179779053,9.943049430847168,0.07972465455532074,-0.2847476005554199,0.0029463516548275948
-0.8787548542022705,1.5539275407791138,9.950235366821289,0.07013653218746185,-0.2314801663160324,-0.016229912638664246
-0.7781615257263184,1.6161996126174927,9.502354621887207,0.0877147689461708,-0.2815515398979187,-0.04392896592617035
-0.7877417802810669,1.5994341373443604,9.382601737976074,0.07173454761505127,-0.30658721923828125,-0.07855278253555298
-0.5913451910018921,1.6161996126174927,9.174229621887207,0.001954246312379837,-0.3598546087741852,-0.14886574447155
-0.31351596117019653,1.5682979822158813,9.53588581085205,-0.045453742146492004,-0.4285695552825928,-0.20106779038906097
-0.3997388482093811,1.5203964710235596,9.744257926940918,0.14044949412345886,-0.364648699760437,-0.28309962153434753
-0.3542323410511017,1.3695063591003418,9.444872856140137,0.001954246312379837,-0.18087613582611084,-0.2665867209434509
-0.5218878984451294,1.393457293510437,9.418527603149414,-0.07794685661792755,-0.08020073920488358,-0.26605406403541565
-0.5649993419647217,1.3838768005371094,9.337095260620117,-0.22656291723251343,-0.011485784314572811,-0.22184208035469055
-0.4165043830871582,1.2593327760696411,9.672405242919922,-0.35174131393432617,0.027399418875575066,-0.19254502654075623
-0.4165043830871582,1.300049066543579,10.00771713256836,-0.30060458183288574,-0.03758681192994118,-0.22344011068344116
-0.3207012116909027,1.2114311456680298,10.529844284057617,-0.1621093600988388,-0.054632384330034256,-0.2500738203525543
-0.3733929693698883,1.4126179218292236,10.184952735900879,0.20223969221115112,-0.03332541882991791,-0.346487820148468
-0.5266780853271484,1.71439790725708,9.751443862915039,0.34393101930618286,-0.11961861699819565,-0.43491172790527344
0.06011652201414108,1.7191882133483887,9.732283592224121,0.22194862365722656,-0.2645059823989868,-0.5382504463195801
0.26848846673965454,1.4078277349472046,10.151421546936035,0.02006516419351101,-0.19366030395030975,-0.6650269031524658
0.06730175763368607,1.2880736589431763,11.073527336120605,0.14098218083381653,0.3336870074272156,-0.7145655751228333
0.23256227374076843,1.77187979221344,9.883172988891602,0.35884588956832886,0.345938503742218,-0.6895298957824707
0.17987051606178284,2.028153419494629,9.394576072692871,0.35351914167404175,0.32303351163864136,-0.6357297897338867
0.49123090505599976,2.4281318187713623,9.473614692687988,0.3226240277290344,0.37683358788490295,-0.6128248572349548
0.4960210919380188,2.3850204944610596,9.88796329498291,0.3604438900947571,0.38429102301597595,-0.5616881251335144
-0.15783575177192688,2.8448755741119385,9.655640602111816,0.4009271264076233,0.5238516926765442,-0.30493924021720886
-0.2656143605709076,2.8424806594848633,10.019692420959473,0.3673686385154724,0.3480691909790039,-0.2447470724582672
-0.14586035907268524,2.959839344024658,10.309496879577637,0.5356936454772949,0.08546088635921478,-0.19574105739593506
0.33315563201904297,2.928703546524048,9.36344051361084,0.5735135078430176,-0.3502665162086487,-0.1691073477268219
0.8624682426452637,2.9239132404327393,9.396971702575684,0.2549744248390198,-0.3944784700870514,-0.13821226358413696
0.9630616903305054,2.9263083934783936,10.06519889831543,0.06907117366790771,-0.2597119212150574,-0.10518647730350494
0.7235536575317383,3.1251003742218018,10.283151626586914,0.2155565321445465,-0.1723533421754837,-0.07482405751943588
0.7666651010513306,3.0269017219543457,10.149026870727539,0.3455290198326111,-0.18513751029968262,-0.04179826378822327
0.874443769454956,3.110729694366455,9.59815788269043,0.5548699498176575,-0.3758348822593689,-0.01836061105132103
0.8959994316101074,3.149050712585449,9.368230819702148,0.600679874420166,-0.4424191117286682,-0.007174455560743809
0.82414710521698,3.4747817516326904,9.006573677062988,0.6076046228408813,-0.44028839468955994,0.016795875504612923
0.8959994316101074,3.687943696975708,8.877239227294922,0.7913771867752075,-0.433363676071167,-0.14407166838645935
0.7786405086517334,3.6735734939575195,8.747905731201172,0.8579614162445068,-0.5803816318511963,-0.21385198831558228
0.6085898876190186,3.7094995975494385,8.489236831665039,0.8531673550605774,-0.6070153117179871,-0.22716882824897766
0.6109849214553833,3.8364386558532715,8.175480842590332,0.7125414609909058,-0.5201894640922546,-0.17709748446941376
0.8289371728897095,4.1501946449279785,8.364692687988281,0.49041634798049927,-0.2389375865459442,-0.07908545434474945
0.8289371728897095,4.301084518432617,8.637731552124023,0.26882392168045044,-0.08552747964859009,-0.04286361485719681
0.9941977262496948,4.418443202972412,9.380206108093262,0.1250019669532776,0.0076904818415641785,0.0018810033798217773
1.576202154159546,4.1501946449279785,10.000531196594238,0.21662189066410065,0.4817703366279602,0.1957743763923645
1.2816073894500732,4.073551654815674,9.672405242919922,0.31090521812438965,0.645301342010498,0.2660873234272003
0.977432131767273,4.1142683029174805,8.884425163269043,0.3694993257522583,0.552083432674408,0.3055051863193512
1.099581241607666,4.25078821182251,8.355112075805664,0.3524537682533264,0.3683107793331146,0.317756712436676
1.5235103368759155,4.3585662841796875,8.266493797302246,0.27734673023223877,0.22661954164505005,0.2660873234272003
1.810920000076294,4.3944926261901855,8.259308815002441,0.18892282247543335,0.3283602297306061,0.16115054488182068
1.6408692598342896,4.430418968200684,8.364692687988281,0.11860986799001694,0.44341784715652466,0.04609294980764389
1.0756303071975708,4.581308841705322,7.8353800773620605,0.12446927279233932,0.4018692672252655,-0.08867358416318893
1.0923960208892822,4.540592670440674,7.935973644256592,0.0003562234342098236,0.0332588367164135,-0.13714691996574402
1.2145451307296753,4.39688777923584,8.20661735534668,-0.18501433730125427,-0.029064027592539787,-0.1728360801935196
0.9175552129745483,4.406467914581299,8.74551010131836,-0.3128560781478882,0.07427473366260529,-0.196806401014328
0.4936259984970093,4.248392581939697,8.769460678100586,-0.33149969577789307,0.22129277884960175,-0.1877509355545044
