accX,accY,accZ,gyroX,gyroY,gyroZ
0.2554338276386261,0.851844847202301,9.635896682739258,0.001331579522229731,-0.03608580678701401,0.0015978955198079348
0.17347964644432068,0.8757730722427368,9.750752449035645,-0.0007989477599039674,0.02569948509335518,-0.0015978955198079348
0.10169496387243271,0.851844847202301,9.942177772521973,-0.0007989477599039674,0.005459476262331009,-0.0005326318205334246
0.07776673883199692,0.8662018179893494,9.908679008483887,-0.0018642114009708166,0.04593949392437935,-0.002663159044459462
0.15912270545959473,0.8662018179893494,9.774680137634277,-0.0007989477599039674,-0.03821633383631706,0.0015978955198079348
0.17347964644432068,0.8374879360198975,9.731609344482422,0.0002663159102667123,0.011851058341562748,-0.0005326318205334246
0.11126625537872314,0.8709874153137207,9.870393753051758,0.0002663159102667123,0.04061317816376686,-0.002663159044459462
0.16869398951530457,0.8662018179893494,9.7938232421875,0.0023968431632965803,-0.03075948730111122,0.0015978955198079348
0.19800607860088348,0.8614161610603333,9.736394882202148,-0.0018642114009708166,0.006524739786982536,0.0005326318205334246
0.0729810893535614,0.8662018179893494,9.942177772521973,-0.002929474925622344,0.013981585390865803,-0.0015978955198079348
0.19322042167186737,0.8566305041313171,9.68375301361084,-0.0007989477599039674,-0.03395527973771095,0.0015978955198079348
0.1782652884721756,0.8566305041313171,9.707681655883789,-0.0007989477599039674,0.0022636852227151394,0.0005326318205334246
0.11605189740657806,0.8662018179893494,9.89432144165039,0.0002663159102667123,0.01717737689614296,-0.0015978955198079348
0.2027917206287384,0.8566305041313171,9.722038269042969,0.0002663159102667123,-0.0318247526884079,0.0015978955198079348
0.1495514214038849,0.851844847202301,9.827322959899902,-0.0007989477599039674,0.02463422156870365,0.0005326318205334246
0.1256231814622879,0.8566305041313171,9.836894035339355,-0.0007989477599039674,-0.013715269044041634,0.0005326318205334246
0.18843477964401245,0.8470591902732849,9.731609344482422,-0.0007989477599039674,-0.005193160381168127,0.0005326318205334246
0.12083754688501358,0.851844847202301,9.875179290771484,-0.0007989477599039674,0.018242640420794487,-0.0005326318205334246
0.18364913761615753,0.8662018179893494,9.760323524475098,0.0002663159102667123,-0.024367906153202057,0.002663159044459462
0.19322042167186737,0.851844847202301,9.726823806762695,-0.0018642114009708166,-0.007323687430471182,0.0005326318205334246
0.12083754688501358,0.851844847202301,9.879964828491211,-0.0007989477599039674,0.013981585390865803,-0.0005326318205334246
0.20757736265659332,0.8662018179893494,9.755537986755371,0.0002663159102667123,-0.008388951420783997,0.0005326318205334246
0.13040883839130402,0.8757730722427368,9.846465110778809,0.0002663159102667123,0.016112113371491432,-0.0005326318205334246
0.16390834748744965,0.8614161610603333,9.745966911315918,0.0002663159102667123,-0.021172115579247475,0.0005326318205334246
0.1495514214038849,0.8614161610603333,9.789037704467773,-0.0007989477599039674,0.011851058341562748,-0.0005326318205334246
0.14476576447486877,0.8709874153137207,9.822537422180176,-0.0018642114009708166,-0.004127896390855312,-0.0005326318205334246
0.1782652884721756,0.851844847202301,9.789037704467773,0.0002663159102667123,0.01078579481691122,-0.0015978955198079348
0.14476576447486877,0.8757730722427368,9.832108497619629,-0.0007989477599039674,-0.0019973693415522575,0.0005326318205334246
0.18364913761615753,0.8662018179893494,9.750752449035645,-0.0007989477599039674,-0.009454214945435524,0.0005326318205334246
0.1256231814622879,0.851844847202301,9.841679573059082,-0.0007989477599039674,0.011851058341562748,-0.002663159044459462
0.17347964644432068,0.8470591902732849,9.784252166748047,-0.0018642114009708166,-0.01584579609334469,0.0005326318205334246
0.16390834748744965,0.8757730722427368,9.817750930786133,-0.0007989477599039674,0.006524739786982536,-0.0015978955198079348
0.16390834748744965,0.8470591902732849,9.779465675354004,0.0002663159102667123,-0.011584741994738579,0.0005326318205334246
0.13998012244701385,0.8662018179893494,9.779465675354004,0.0002663159102667123,-0.012650005519390106,0.0005326318205334246
0.17347964644432068,0.8614161610603333,9.789037704467773,-0.0007989477599039674,0.005459476262331009,-0.0005326318205334246
0.13998012244701385,0.8614161610603333,9.827322959899902,-0.0018642114009708166,0.00013315795513335615,0.0005326318205334246
0.19800607860088348,0.851844847202301,9.755537986755371,-0.0007989477599039674,-0.008388951420783997,-0.0005326318205334246
0.13519448041915894,0.8662018179893494,9.846465110778809,0.0002663159102667123,0.008655266836285591,-0.0015978955198079348
0.15912270545959473,0.8662018179893494,9.7938232421875,-0.0007989477599039674,-0.009454214945435524,-0.0005326318205334246
0.16869398951530457,0.8374879360198975,9.765109062194824,0.0002663159102667123,-0.008388951420783997,0.0005326318205334246
0.13998012244701385,0.851844847202301,9.779465675354004,-0.0007989477599039674,0.007590003311634064,-0.0015978955198079348
0.45164528489112854,0.8087740540504456,9.276973724365234,-0.0007989477599039674,-0.08508793264627457,0.002663159044459462
0.2315055876970291,0.8709874153137207,9.717252731323242,-0.002929474925622344,0.005459476262331009,-0.0005326318205334246
0.12083754688501358,0.8662018179893494,9.856036186218262,-0.0018642114009708166,0.0703074038028717,-0.0037284228019416332
0.19322042167186737,0.8805587291717529,9.779465675354004,0.001331579522229731,-0.02756369672715664,0.002663159044459462
0.10169496387243271,0.8614161610603333,9.860821723937988,-0.0018642114009708166,0.0033289489801973104,0.0005326318205334246
0.15912270545959473,0.8949156403541565,9.698110580444336,-0.0007989477599039674,-0.022237379103899002,0.0005326318205334246
0.13519448041915894,0.8614161610603333,9.846465110778809,0.0002663159102667123,0.022503694519400597,-0.002663159044459462
0.16390834748744965,0.8757730722427368,9.789037704467773,-0.0007989477599039674,-0.01904158666729927,0.0005326318205334246
0.1782652884721756,0.8566305041313171,9.784252166748047,-0.0007989477599039674,0.0043942127376794815,-0.0015978955198079348
0.11605189740657806,0.8757730722427368,9.856036186218262,-0.002929474925622344,0.005459476262331009,-0.0005326318205334246
0.20757736265659332,0.8566305041313171,9.726823806762695,-0.0007989477599039674,-0.01904158666729927,-0.0005326318205334246
0.13040883839130402,0.8566305041313171,9.817750930786133,0.0002663159102667123,0.018242640420794487,-0.0015978955198079348
0.16390834748744965,0.8614161610603333,9.750752449035645,-0.0018642114009708166,0.0022636852227151394,0.0005326318205334246
0.17347964644432068,0.8566305041313171,9.750752449035645,0.0002663159102667123,-0.017976323142647743,0.0005326318205334246
0.16390834748744965,0.8470591902732849,9.80817985534668,-0.002929474925622344,0.01504684891551733,-0.0015978955198079348
0.005982056725770235,0.8374879360198975,9.970891952514648,0.001331579522229731,0.11185268312692642,-0.006924213841557503
0.058624155819416046,0.885344386100769,9.985248565673828,-0.0018642114009708166,-0.0552605502307415,0.0037284228019416332
0.25064817070961,0.851844847202301,9.449256896972656,-0.002929474925622344,-0.017976323142647743,0.0005326318205334246
0.015553346835076809,0.885344386100769,10.143773078918457,-0.0007989477599039674,0.066046342253685,-0.0037284228019416332
0.3367897868156433,0.8183453679084778,9.511469841003418,-0.0007989477599039674,-0.10745847225189209,0.005858949851244688
0.04426721855998039,0.8566305041313171,9.942177772521973,0.0002663159102667123,0.09693899005651474,-0.006924213841557503
0.08255238085985184,0.8757730722427368,9.908679008483887,0.001331579522229731,-0.029694223776459694,0.0005326318205334246
0.26979073882102966,0.851844847202301,9.554540634155273,0.001331579522229731,-0.0318247526884079,0.0015978955198079348
0.03469592705368996,0.8757730722427368,10.061819076538086,-0.0018642114009708166,0.06817687302827835,-0.004793686326593161
0.2745763957500458,0.8470591902732849,9.53061294555664,-0.0007989477599039674,-0.03928159549832344,0.0015978955198079348
0.06819544732570648,0.8709874153137207,9.985248565673828,-0.0018642114009708166,-0.004127896390855312,-0.0005326318205334246
0.2793620526790619,0.8662018179893494,9.592825889587402,-0.0007989477599039674,-0.04247738793492317,0.002663159044459462
0.06340979784727097,0.9044869542121887,9.966106414794922,-0.0007989477599039674,0.06072002649307251,-0.002663159044459462
0.09212367236614227,0.8757730722427368,9.91825008392334,-0.0018642114009708166,0.05752423778176308,-0.0037284228019416332
0.17347964644432068,0.8614161610603333,9.774680137634277,-0.0007989477599039674,-0.04673844203352928,0.0015978955198079348
0.19800607860088348,0.8566305041313171,9.731609344482422,-0.0007989477599039674,0.013981585390865803,-0.0015978955198079348
0.9445667266845703,0.6747759580612183,9.032307624816895,-0.01784316636621952,-0.15752586722373962,0.00798947736620903
0.6239284873008728,0.8470591902732849,8.82652473449707,-0.00612526573240757,-0.03821633383631706,0.0015978955198079348
0.09212367236614227,0.8374879360198975,9.9469633102417,-0.002929474925622344,0.0564589723944664,-0.0037284228019416332
0.18843477964401245,0.8614161610603333,9.707681655883789,-0.002929474925622344,-0.03395527973771095,0.0015978955198079348
0.5856433510780334,0.7034898400306702,9.822537422180176,-0.0018642114009708166,-0.005193160381168127,0.0005326318205334246
0.10648060590028763,0.885344386100769,9.956535339355469,-0.0018642114009708166,-0.0062584239058196545,0.0005326318205334246
0.22193430364131927,0.8231309652328491,9.564111709594727,0.0002663159102667123,-0.016911059617996216,0.0015978955198079348
0.11126625537872314,0.8757730722427368,9.856036186218262,0.0023968431632965803,0.031025802716612816,-0.0005326318205334246
0.10169496387243271,0.851844847202301,9.832108497619629,0.0002663159102667123,0.0011984215816482902,-0.0005326318205334246
0.1782652884721756,0.8901300430297852,9.860821723937988,0.0002663159102667123,-0.020106852054595947,0.0015978955198079348
0.11605189740657806,0.8709874153137207,9.870393753051758,-0.0018642114009708166,0.0022636852227151394,-0.0005326318205334246
0.1782652884721756,0.851844847202301,9.712467193603516,0.0023968431632965803,-0.01904158666729927,0.0005326318205334246
0.13519448041915894,0.8709874153137207,9.899106979370117,0.004527370445430279,0.02463422156870365,-0.0005326318205334246
0.14476576447486877,0.8566305041313171,9.7938232421875,-0.0018642114009708166,-0.017976323142647743,-0.0005326318205334246
0.17347964644432068,0.8614161610603333,9.76989459991455,-0.0007989477599039674,0.0011984215816482902,-0.0005326318205334246
0.13040883839130402,0.8566305041313171,9.865608215332031,-0.0018642114009708166,0.009720530360937119,-0.0005326318205334246
0.18364913761615753,0.8614161610603333,9.760323524475098,-0.0018642114009708166,-0.020106852054595947,-0.0015978955198079348
0.16869398951530457,0.851844847202301,9.822537422180176,0.0002663159102667123,0.016112113371491432,0.0005326318205334246
0.1543370634317398,0.8470591902732849,9.798608779907227,-0.0007989477599039674,-0.011584741994738579,-0.0015978955198079348
-0.09451649338006973,0.8709874153137207,10.013962745666504,-0.0007989477599039674,-0.004127896390855312,0.0005326318205334246
0.24107688665390015,0.9523434042930603,9.31047248840332,0.008788425475358963,-0.0019973693415522575,-0.0005326318205334246
0.4085744619369507,0.8709874153137207,9.554540634155273,-0.002929474925622344,-0.08082687854766846,0.004793686326593161
-0.003589233849197626,0.9044869542121887,10.023533821105957,-0.0007989477599039674,0.15233269333839417,-0.00798947736620903
0.1495514214038849,0.8662018179893494,9.89432144165039,-0.0018642114009708166,-0.10852373391389847,0.005858949851244688
0.16869398951530457,0.885344386100769,9.717252731323242,-0.0007989477599039674,0.06498108059167862,-0.004793686326593161
0.1782652884721756,0.8566305041313171,9.7938232421875,0.0002663159102667123,0.06498108059167862,-0.0037284228019416332
0.020338991656899452,0.8662018179893494,10.061819076538086,-0.0018642114009708166,0.01717737689614296,-0.0005326318205334246
0.29850462079048157,0.8422735929489136,9.540184020996094,-0.003994738683104515,-0.07123950868844986,0.0037284228019416332
0.06819544732570648,0.885344386100769,9.966106414794922,-0.00612526573240757,0.08202529698610306,-0.004793686326593161
0.11605189740657806,0.8279166221618652,9.688538551330566,-0.010386320762336254,-0.04993423447012901,0.0015978955198079348
0.26500511169433594,0.7848458290100098,9.439684867858887,0.005592633970081806,-0.008388951420783997,0.0005326318205334246
0.13040883839130402,0.8997012972831726,10.071390151977539,0.010918952524662018,0.07243792712688446,-0.002663159044459462
0.2745763957500458,0.8566305041313171,9.611968994140625,0.001331579522229731,-0.029694223776459694,0.0015978955198079348
0.029910283163189888,0.851844847202301,9.937392234802246,-0.002929474925622344,0.06498108059167862,-0.004793686326593161
0.22193430364131927,0.8662018179893494,9.664610862731934,0.0023968431632965803,-0.07230477035045624,0.0037284228019416332
0.13998012244701385,0.8422735929489136,9.803394317626953,0.0034621069207787514,0.04793686419725418,-0.0037284228019416332
0.06819544732570648,0.8614161610603333,9.927821159362793,-0.0007989477599039674,-0.003062632866203785,0.0005326318205334246
0.26979073882102966,0.8470591902732849,9.540184020996094,0.0034621069207787514,-0.04034686088562012,0.0015978955198079348
0.06819544732570648,0.8805587291717529,9.985248565673828,0.001331579522229731,0.061785291880369186,-0.004793686326593161
0.09690931439399719,0.8662018179893494,9.927821159362793,-0.0007989477599039674,0.05752423778176308,-0.0037284228019416332
0.1782652884721756,0.8566305041313171,9.812965393066406,0.0023968431632965803,-0.04460791498422623,0.0015978955198079348
0.19322042167186737,0.8614161610603333,9.726823806762695,0.0002663159102667123,0.01504684891551733,-0.0015978955198079348
0.09690931439399719,0.8757730722427368,9.923035621643066,-0.0007989477599039674,0.050067391246557236,-0.0037284228019416332
0.1543370634317398,0.8757730722427368,9.803394317626953,-0.0007989477599039674,-0.03928159549832344,0.0015978955198079348
0.21714866161346436,0.8662018179893494,9.717252731323242,0.0002663159102667123,0.008655266836285591,-0.0005326318205334246
0.07776673883199692,0.8662018179893494,9.951749801635742,-0.0007989477599039674,0.02143843099474907,-0.0015978955198079348
0.22193430364131927,0.851844847202301,9.66939640045166,0.0002663159102667123,-0.041412122547626495,0.0015978955198079348
0.11126625537872314,0.8614161610603333,9.884750366210938,-0.0007989477599039674,0.039547912776470184,-0.0015978955198079348
0.15912270545959473,0.8709874153137207,9.836894035339355,-0.0007989477599039674,-0.025433169677853584,0.0015978955198079348
0.21236300468444824,0.8662018179893494,9.678967475891113,-0.0018642114009708166,-0.003062632866203785,0.0005326318205334246
0.08733802288770676,0.8949156403541565,9.91825008392334,-0.0018642114009708166,0.02463422156870365,-0.0015978955198079348
0.18843477964401245,0.8614161610603333,9.702896118164062,-0.0007989477599039674,-0.037151068449020386,0.0005326318205334246
0.1543370634317398,0.8614161610603333,9.846465110778809,0.0002663159102667123,0.02996053919196129,-0.0015978955198079348
0.15912270545959473,0.8662018179893494,9.827322959899902,0.0002663159102667123,0.02463422156870365,-0.0005326318205334246
0.13519448041915894,0.8614161610603333,9.841679573059082,-0.0018642114009708166,-0.009454214945435524,-0.0015978955198079348
0.18364913761615753,0.851844847202301,9.970891952514648,-0.002929474925622344,0.00013315795513335615,-0.0005326318205334246
0.12083754688501358,0.8566305041313171,9.875179290771484,0.0002663159102667123,0.039547912776470184,-0.0037284228019416332
0.3032902777194977,0.8327022790908813,9.592825889587402,0.001331579522229731,-0.013715269044041634,0.0005326318205334246
-0.008374879136681557,0.8757730722427368,9.999606132507324,-0.002929474925622344,0.05752423778176308,-0.0015978955198079348
0.14476576447486877,0.8614161610603333,9.789037704467773,-0.0007989477599039674,0.03635212033987045,-0.0037284228019416332
0.04905286431312561,0.8566305041313171,9.951749801635742,0.0002663159102667123,0.05219791829586029,-0.0037284228019416332
0.18843477964401245,0.8662018179893494,9.779465675354004,0.0002663159102667123,-0.05206476151943207,0.0037284228019416332
0.18843477964401245,0.8662018179893494,9.750752449035645,-0.0018642114009708166,0.026764748618006706,-0.0005326318205334246
0.17347964644432068,0.8709874153137207,9.745966911315918,0.0002663159102667123,0.019307903945446014,-0.0015978955198079348
0.08733802288770676,0.8614161610603333,9.961320877075195,-0.0018642114009708166,0.01078579481691122,-0.0015978955198079348
0.21236300468444824,0.8422735929489136,9.664610862731934,-0.0007989477599039674,-0.037151068449020386,-0.0005326318205334246
0.08255238085985184,0.851844847202301,9.879964828491211,-0.0007989477599039674,0.04167843982577324,-0.002663159044459462
0.16390834748744965,0.8614161610603333,9.7938232421875,0.0002663159102667123,-0.03075948730111122,0.0015978955198079348
0.17347964644432068,0.8470591902732849,9.722038269042969,-0.0018642114009708166,0.006524739786982536,-0.0005326318205334246
0.09212367236614227,0.8662018179893494,9.913464546203613,-0.0007989477599039674,0.01504684891551733,-0.0015978955198079348
0.21714866161346436,0.8662018179893494,9.678967475891113,-0.0007989477599039674,-0.03395527973771095,0.0015978955198079348
0.13519448041915894,0.851844847202301,9.836894035339355,-0.0018642114009708166,0.03315633162856102,-0.0015978955198079348
0.11605189740657806,0.8614161610603333,9.827322959899902,-0.0007989477599039674,-0.020106852054595947,0.0015978955198079348
0.1782652884721756,0.8566305041313171,9.731609344482422,0.0002663159102667123,-0.003062632866203785,-0.0005326318205334246
0.08255238085985184,0.8470591902732849,9.89432144165039,-0.0007989477599039674,0.018242640420794487,-0.0005326318205334246
0.1782652884721756,0.8709874153137207,9.722038269042969,-0.0007989477599039674,-0.028628960251808167,0.0015978955198079348
0.14476576447486877,0.8566305041313171,9.80817985534668,-0.0018642114009708166,0.023568958044052124,-0.0015978955198079348
0.13040883839130402,0.8757730722427368,9.832108497619629,-0.0007989477599039674,-0.012650005519390106,0.0005326318205334246
0.21236300468444824,0.8614161610603333,9.717252731323242,-0.0007989477599039674,-0.005193160381168127,0.0005326318205334246
0.13519448041915894,0.8614161610603333,9.89432144165039,-0.0018642114009708166,0.018242640420794487,-0.0005326318205334246
0.2027917206287384,0.8566305041313171,9.745966911315918,0.0002663159102667123,-0.025433169677853584,-0.0005326318205334246
0.1495514214038849,0.8662018179893494,9.812965393066406,-0.0007989477599039674,0.01717737689614296,-0.0015978955198079348
0.10169496387243271,0.8805587291717529,9.870393753051758,0.0002663159102667123,0.018242640420794487,-0.0015978955198079348
0.5808576941490173,0.8087740540504456,8.869595527648926,-0.003994738683104515,-0.0009321057004854083,-0.0005326318205334246
-0.30987054109573364,0.8087740540504456,10.9573335647583,-0.03808317333459854,0.2205095738172531,-0.013315795920789242
0.11126625537872314,0.8662018179893494,9.836894035339355,-0.0007989477599039674,-0.14154690504074097,0.00798947736620903
-0.1136590763926506,0.914058268070221,9.76989459991455,-0.0018642114009708166,0.11611373722553253,-0.00798947736620903
0.32721850275993347,0.8566305041313171,9.4061861038208,0.0023968431632965803,-0.14580796658992767,0.006924213841557503
0.0729810893535614,0.851844847202301,10.01874828338623,0.0002663159102667123,0.13209268450737,-0.00798947736620903
-0.04666004329919815,0.885344386100769,10.085747718811035,-0.0018642114009708166,0.050067391246557236,-0.0037284228019416332
0.3367897868156433,0.8566305041313171,9.45882797241211,-0.0007989477599039674,-0.10532794147729874,0.005858949851244688
0.0729810893535614,0.8709874153137207,9.980463027954102,-0.0007989477599039674,0.10226531326770782,-0.006924213841557503
0.11126625537872314,0.8614161610603333,9.889535903930664,0.0002663159102667123,-0.05952160432934761,0.002663159044459462
0.29371899366378784,0.8614161610603333,9.525827407836914,-0.0007989477599039674,-0.09254477918148041,0.0037284228019416332
0.10169496387243271,0.885344386100769,9.899106979370117,0.0002663159102667123,0.08415582776069641,-0.005858949851244688
0.10169496387243271,0.8470591902732849,9.908679008483887,-0.0018642114009708166,-0.041412122547626495,0.0015978955198079348
0.2793620526790619,0.8374879360198975,9.573683738708496,0.0002663159102667123,-0.021172115579247475,0.0015978955198079348
0.029910283163189888,0.8901300430297852,10.013962745666504,-0.0018642114009708166,0.06391581892967224,-0.002663159044459462
0.23629122972488403,0.8662018179893494,9.645467758178711,-0.0007989477599039674,-0.0786963477730751,0.0037284228019416332
0.14476576447486877,0.851844847202301,9.798608779907227,0.0002663159102667123,0.05326318368315697,-0.0037284228019416332
0.2267199456691742,0.8614161610603333,9.693324089050293,0.0002663159102667123,-0.07123950868844986,0.0037284228019416332
0.1782652884721756,0.8566305041313171,9.765109062194824,-0.0018642114009708166,0.04061317816376686,-0.002663159044459462
0.058624155819416046,0.8566305041313171,9.951749801635742,-0.0007989477599039674,0.00013315795513335615,0.0005326318205334246
0.2602194547653198,0.8422735929489136,9.58325481414795,-0.0007989477599039674,-0.04247738793492317,0.0015978955198079348
0.09690931439399719,0.8757730722427368,9.951749801635742,0.0002663159102667123,0.05752423778176308,-0.002663159044459462
0.1543370634317398,0.8566305041313171,9.779465675354004,-0.0007989477599039674,-0.04993423447012901,0.0005326318205334246
0.389431893825531,0.7848458290100098,9.046664237976074,-0.0007989477599039674,0.018242640420794487,-0.0015978955198079348
-0.5252245664596558,0.7992027401924133,11.651849746704102,-0.025300011038780212,0.2492716908454895,-0.015446322970092297
0.09212367236614227,0.8662018179893494,9.985248565673828,-0.0007989477599039674,-0.02330264262855053,0.0005326318205334246
0.2602194547653198,0.97148597240448,9.659825325012207,-0.002929474925622344,-0.028628960251808167,0.0015978955198079348
0.08255238085985184,0.760917603969574,9.693324089050293,-0.0018642114009708166,0.042743705213069916,-0.00798947736620903
0.15912270545959473,0.8327022790908813,9.970891952514648,0.001331579522229731,-0.007323687430471182,0.0005326318205334246
0.20757736265659332,0.851844847202301,9.602396965026855,0.001331579522229731,-0.032890014350414276,0.0015978955198079348
0.09690931439399719,0.8805587291717529,9.966106414794922,0.0002663159102667123,0.008655266836285591,-0.0005326318205334246
0.2267199456691742,0.8566305041313171,9.664610862731934,-0.0018642114009708166,-0.03821633383631706,0.0015978955198079348
0.08255238085985184,0.8566305041313171,9.875179290771484,0.0002663159102667123,0.043808966875076294,-0.0037284228019416332
0.09690931439399719,0.8662018179893494,9.91825008392334,0.001331579522229731,0.012916321866214275,-0.002663159044459462
0.31764721870422363,0.8997012972831726,9.975677490234375,-0.00612526573240757,0.00013315795513335615,-0.0005326318205334246
0.015553346835076809,0.8805587291717529,9.899106979370117,-0.002929474925622344,0.03315633162856102,-0.002663159044459462
0.21714866161346436,0.8470591902732849,9.698110580444336,-0.0018642114009708166,-0.053130023181438446,0.002663159044459462
0.16869398951530457,0.8709874153137207,9.789037704467773,0.0002663159102667123,-0.016911059617996216,0.0015978955198079348
0.12083754688501358,0.8997012972831726,9.736394882202148,-0.0018642114009708166,0.007590003311634064,0.0005326318205334246
0.2315055876970291,0.7992027401924133,9.899106979370117,-0.0018642114009708166,0.01717737689614296,-0.005858949851244688
0.1543370634317398,0.8614161610603333,9.812965393066406,-0.0007989477599039674,-0.016911059617996216,0.002663159044459462
0.16869398951530457,0.8901300430297852,9.784252166748047,-0.0007989477599039674,0.0033289489801973104,-0.0005326318205334246
0.17347964644432068,0.8709874153137207,9.726823806762695,-0.0007989477599039674,-0.016911059617996216,-0.0005326318205334246
0.1256231814622879,0.8422735929489136,9.812965393066406,-0.0007989477599039674,0.016112113371491432,-0.0005326318205334246
0.13040883839130402,0.8566305041313171,9.832108497619629,-0.0018642114009708166,-0.009454214945435524,0.0005326318205334246
0.16869398951530457,0.8662018179893494,9.741181373596191,-0.0007989477599039674,-0.0009321057004854083,-0.0005326318205334246
0.13040883839130402,0.8709874153137207,9.832108497619629,-0.0018642114009708166,0.007590003311634064,0.0005326318205334246
0.1782652884721756,0.8470591902732849,9.779465675354004,-0.0007989477599039674,-0.013715269044041634,0.0005326318205334246
0.18843477964401245,0.8614161610603333,9.248259544372559,-0.0007989477599039674,0.012916321866214275,-0.0005326318205334246
0.13040883839130402,0.885344386100769,10.095318794250488,0.008788425475358963,-0.02330264262855053,0.0015978955198079348
-0.013160524889826775,0.8709874153137207,10.134202003479004,-0.0018642114009708166,-0.007323687430471182,-0.0005326318205334246
