accX,accY,accZ,gyroX,gyroY,gyroZ
-0.07821378111839294,0.05030696466565132,9.776933670043945,0.00024434609804302454,-0.00022689280740451068,0.00019198621157556772
-0.0679091364145279,0.041936833411455154,9.80227279663086,0.0008552113431505859,0.0005759586347267032,0.00015707963029854
-0.07804139703512192,0.04557602107524872,9.78084945678711,0.0007853981805965304,-0.0003316125657875091,0.00022689280740451068
-0.0746416300535202,0.05804502218961716,9.793462753295898,0.00015707963029854,5.2359879191499203e-05,0.00047123889089562
-0.07015010714530945,0.047338154166936874,9.774250984191895,0.00029670598451048136,0.0013264502631500363,5.2359879191499203e-05
-0.07557057589292526,0.05631162226200104,9.79410457611084,0.0005759586347267032,0.0018151424592360854,0.00013962633966002613
-0.07647079974412918,0.047931917011737823,9.803911209106445,0.0012217304902151227,0.000715585018042475,-1.7453292457503267e-05
-0.07459374517202377,0.061559710651636124,9.80140209197998,0.001029744278639555,6.981316983001307e-05,0.00015707963029854
-0.08286810666322708,0.0479893758893013,9.81686782836914,0.0008377580670639873,0.00019198621157556772,0.00031415926059708
-0.08101978152990341,0.06441359966993332,9.826713562011719,0.00017453292093705386,0.00027925267932005227,0.00041887903353199363
-0.08441954851150513,0.04305732250213623,9.799352645874023,0.0015358896926045418,8.726646046852693e-05,0.00013962633966002613
-0.0673057958483696,0.05761406570672989,9.81779670715332,0.0014660765882581472,0.00019198621157556772,-0.00031415926059708
-0.07934384047985077,0.060420069843530655,9.809053421020508,0.0007853981805965304,6.981316983001307e-05,0.00015707963029854
-0.07758171111345291,0.054424989968538284,9.826626777648926,-0.0007853981805965304,-0.00022689280740451068,0.00012217304902151227
-0.08144116401672363,0.0643465593457222,9.819570541381836,0.0008028514566831291,0.0009075712296180427,0.00015707963029854
-0.08667010068893433,0.05255751311779022,9.787994384765625,0.00012217304902151227,0.0013264502631500363,0.0
-0.12980403006076813,0.0805600956082344,9.83198070526123,0.0005235987482592463,-0.0023038345389068127,-0.001518436474725604
0.46279916167259216,-0.14891934394836426,9.989059448242188,0.0010995573829859495,0.0010821041651070118,-0.00013962633966002613
0.038307227194309235,0.003888183506205678,9.940763473510742,0.0008726646192371845,-0.0013264502631500363,0.0013613568153232336
-0.10893617570400238,0.06992026418447495,9.817777633666992,0.0006457717972807586,0.0010821041651070118,0.0003490658418741077
-0.08276276290416718,0.04776911064982414,9.834211349487305,0.0009773843921720982,0.00031415926059708,0.00015707963029854
-0.07409574836492538,0.04782656952738762,9.824042320251465,0.00040142572834156454,0.0010646508308127522,0.00015707963029854
-0.08581776171922684,0.043804313987493515,9.830306053161621,0.00040142572834156454,-6.981316983001307e-05,0.00019198621157556772
-0.06762182712554932,0.05493256077170372,9.833887100219727,0.000715585018042475,0.0003665191470645368,0.00015707963029854
-0.0836438238620758,0.059941232204437256,9.849200248718262,0.0008377580670639873,8.726646046852693e-05,0.00017453292093705386
-0.08192000538110733,0.05955816060304642,9.82260513305664,0.0008552113431505859,0.00010471975838299841,0.00019198621157556772
-0.07654741406440735,0.04377558082342148,9.822002410888672,0.0006108652451075613,0.00062831852119416,-8.726646046852693e-05
-0.06689399480819702,0.05346731096506119,9.75179386138916,0.00029670598451048136,0.0005235987482592463,0.00029670598451048136
-0.0741819441318512,0.06105213984847069,9.760307312011719,0.0014486232539638877,0.001029744278639555,0.0004886921960860491
-0.07993759959936142,0.04946420341730118,9.797858238220215,0.0005410520825535059,-0.00010471975838299841,0.0
-0.07159620523452759,0.03916913643479347,9.880210876464844,0.0010995573829859495,-0.0005235987482592463,-0.0002617993741296232
-0.06725791096687317,0.04710831120610237,9.89438247680664,0.001029744278639555,0.0,0.0004886921960860491
-0.07751467078924179,0.06088933348655701,9.872729301452637,0.0005235987482592463,0.00022689280740451068,0.0005934119690209627
-0.07080133259296417,0.03371993452310562,9.877326965332031,0.00094247778179124,8.726646046852693e-05,0.00012217304902151227
-0.07674852758646011,0.051982905715703964,9.854659080505371,0.000715585018042475,0.0005759586347267032,0.0006457717972807586
-0.07060021907091141,0.05346731096506119,9.827298164367676,0.0005235987482592463,0.00013962633966002613,0.00015707963029854
-0.07367437332868576,0.05967308208346367,9.834661483764648,0.0006632251315750182,-0.0005410520825535059,0.00047123889089562
0.04861186817288399,0.01473870500922203,9.626519203186035,-0.00905825849622488,-0.037367500364780426,0.0003665191470645368
-0.02471773698925972,0.045844171196222305,9.76321029663086,0.0026703537441790104,0.012077677994966507,0.00047123889089562
-0.07793605327606201,0.045202527195215225,9.83618450164795,0.0003490658418741077,-0.0003316125657875091,0.00017453292093705386
-0.06639599800109863,0.05825571343302727,9.843989372253418,0.0007853981805965304,0.001972222002223134,0.00015707963029854
0.04168783873319626,-0.00979707296937704,9.737591743469238,0.0003665191470645368,0.002478367416188121,-0.0010821041651070118
-0.4431379735469818,0.19597019255161285,9.696870803833008,0.00024434609804302454,0.0009599310578778386,-0.0040317103266716
-0.03649720922112465,0.053496040403842926,9.809685707092285,0.0012915435945615172,-0.00094247778179124,1.7453292457503267e-05
-0.07610688358545303,0.04992389306426048,9.806726455688477,0.0008028514566831291,-0.00040142572834156454,5.2359879191499203e-05
-0.09113288670778275,0.06334099918603897,9.848691940307617,0.0008726646192371845,-0.0007330382941290736,0.00019198621157556772
-0.078683041036129,0.04597824811935425,9.833168029785156,-5.2359879191499203e-05,5.2359879191499203e-05,0.00015707963029854
-0.07836700975894928,0.06317818909883499,9.851019859313965,0.0011693706037476659,0.00040142572834156454,0.00094247778179124
-0.07138551771640778,0.05616797134280205,9.843253135681152,0.0012915435945615172,0.0013264502631500363,-0.0009075712296180427
-0.0700351819396019,0.029783867299556732,9.85561752319336,0.00010471975838299841,0.0005585053586401045,0.00015707963029854
-0.07332960516214371,0.05234682559967041,9.82276725769043,0.0006981316837482154,0.0013264502631500363,-0.0003316125657875091
-0.07325299084186554,0.05813121423125267,9.84975528717041,0.00040142572834156454,-0.00027925267932005227,-0.00045378561480902135
-0.07263050228357315,0.059893347322940826,9.839449882507324,0.0007853981805965304,8.726646046852693e-05,0.00022689280740451068
-0.09165961295366287,0.06060203164815903,9.829290390014648,0.00047123889089562,0.0005235987482592463,0.00022689280740451068
-0.0809335932135582,0.04225286841392517,9.856757164001465,0.0009075712296180427,-6.981316983001307e-05,0.0009599310578778386
-0.07819462567567825,0.0710790604352951,9.81645679473877,0.0012217304902151227,-0.00017453292093705386,0.0002617993741296232
-0.07867346704006195,0.051053956151008606,9.838407516479492,0.0008203047327697277,0.0010995573829859495,0.00015707963029854
-0.07577168941497803,0.04666777700185776,9.848913192749023,0.0011693706037476659,0.0010471974965184927,-0.00015707963029854
-0.087436243891716,0.05957731232047081,9.857780456542969,0.0008377580670639873,0.0009948377264663577,0.00012217304902151227
-0.07101202011108398,0.04836287349462509,9.838598251342773,0.00012217304902151227,0.00010471975838299841,-0.0002617993741296232
-0.07330087572336197,0.06509355455636978,9.831357955932617,0.0008203047327697277,8.726646046852693e-05,0.00017453292093705386
-0.09119992703199387,0.056579772382974625,9.8509521484375,0.0014660765882581472,0.0005934119690209627,0.0007853981805965304
-0.07364564388990402,0.055344365537166595,9.862502098083496,0.0011693706037476659,0.0008377580670639873,0.00015707963029854
-0.07237192243337631,0.0543866828083992,9.843377113342285,0.0008552113431505859,0.00024434609804302454,-0.00010471975838299841
-0.07348283380270004,0.0626801997423172,9.833627700805664,0.0008377580670639873,0.00013962633966002613,0.00019198621157556772
-0.08089528232812881,0.04720407724380493,9.820487976074219,0.0008552113431505859,0.00017453292093705386,0.00015707963029854
-0.06990110874176025,0.05470271781086922,9.847580909729004,0.0015533430268988013,0.0016755161341279745,-0.0005934119690209627
-0.07567592710256577,0.054233454167842865,9.835524559020996,0.0008377580670639873,0.0,0.00015707963029854
-0.07873092591762543,0.04891832545399666,9.836759567260742,0.00045378561480902135,0.00020943951676599681,0.00012217304902151227
-0.08205407857894897,0.05256709083914757,9.839038848876953,0.0006806784076616168,-0.0007504915702156723,0.00017453292093705386
-0.06927862018346786,0.042501866817474365,9.83907699584961,0.0010646508308127522,0.00043633230961859226,-0.00013962633966002613
-0.07697837054729462,0.06083187460899353,9.836395263671875,0.0010122909443452954,0.00010471975838299841,0.0005934119690209627
-0.16699077188968658,0.06350380182266235,9.94454574584961,-0.0007504915702156723,-0.018709929659962654,0.00013962633966002613
-0.20529799163341522,0.08166142553091049,10.075987815856934,0.006894050631672144,0.022846359759569168,0.00047123889089562
-0.14383405447006226,0.0577002577483654,9.952313423156738,0.012496557086706161,0.04968952387571335,-0.00045378561480902135
-0.0828106477856636,0.04927266761660576,9.838397026062012,0.002146754879504442,0.01151917316019535,-1.7453292457503267e-05
-0.08445785939693451,0.05903143435716629,9.836395263671875,0.0017104226863011718,0.002460914198309183,0.00015707963029854
-1.1116948127746582,0.4963946044445038,9.968613624572754,0.004485496319830418,0.0029845130629837513,0.0055850534699857235
-0.24706244468688965,0.11670296639204025,9.915759086608887,0.0012042771559208632,0.0,0.0016929693520069122
-0.10223241150379181,0.06216305121779442,9.802407264709473,0.001029744278639555,-1.7453292457503267e-05,0.00027925267932005227
-0.053591810166835785,0.04109407588839531,9.870977401733398,0.0005061454721726477,0.0005061454721726477,0.0003665191470645368
-0.07671021670103073,0.05571785941720009,9.834796905517578,0.0008377580670639873,0.0016406094655394554,0.0007679448463022709
-0.06298665702342987,0.05604347214102745,9.84410572052002,0.0008901178953237832,0.0003490658418741077,0.00015707963029854
-0.08888234198093414,0.05308423936367035,9.818679809570312,0.0011344640515744686,-0.00031415926059708,0.00015707963029854
-0.08861418813467026,0.07128974795341492,9.836424827575684,0.001483529806137085,0.0007679448463022709,0.00012217304902151227
-0.0824563056230545,0.05186798423528671,9.855903625488281,0.0008377580670639873,0.00045378561480902135,0.0007853981805965304
-0.08670840412378311,0.052097827196121216,9.829500198364258,0.0011693706037476659,0.00041887903353199363,8.726646046852693e-05
-0.07802224159240723,0.06794743984937668,9.823400497436523,0.0011868239380419254,0.00013962633966002613,-8.726646046852693e-05
-0.07811801135540009,0.039992742240428925,9.832478523254395,0.0011519172694534063,0.00029670598451048136,0.00012217304902151227
-0.0661182701587677,0.04845863953232765,9.827949523925781,0.0008726646192371845,-0.0005410520825535059,-0.00013962633966002613
-0.0788075402379036,0.06286215782165527,9.83340835571289,0.0008552113431505859,1.7453292457503267e-05,0.0003316125657875091
-0.07242938876152039,0.036841973662376404,9.830706596374512,0.00040142572834156454,0.00015707963029854,0.00017453292093705386
-0.09020394086837769,0.05774814262986183,9.821648597717285,0.001029744278639555,0.0012740903766825795,0.00017453292093705386
-0.08312667906284332,0.04552813619375229,9.841902732849121,0.001029744278639555,0.0008726646192371845,0.00015707963029854
-0.09013690054416656,0.056177545338869095,9.838550567626953,0.00022689280740451068,0.0005585053586401045,0.00015707963029854
-0.08427589386701584,0.05292143300175667,9.835217475891113,0.0006632251315750182,0.00010471975838299841,0.00015707963029854
-0.0773710161447525,0.055679552257061005,9.848751068115234,0.0016406094655394554,0.00012217304902151227,0.0005235987482592463
-0.06851246953010559,0.06988195329904556,9.83841609954834,0.0006632251315750182,8.726646046852693e-05,0.00022689280740451068
-0.09073066711425781,0.06372407078742981,9.906277656555176,0.005044001620262861,0.016894787549972534,0.00017453292093705386
-0.09854533523321152,0.06121494621038437,9.896202087402344,0.0005410520825535059,-0.003263765713199973,0.0010471974965184927
-0.08033982664346695,0.06234500929713249,9.82300853729248,-0.0010995573829859495,-0.005794493015855551,8.726646046852693e-05
-0.07369352877140045,0.04781699553132057,9.823418617248535,0.0006632251315750182,0.001518436474725604,8.726646046852693e-05
-0.08711063116788864,0.05189671367406845,9.850646018981934,0.0005235987482592463,-0.001658062799833715,0.00015707963029854
-0.07898949831724167,0.05197332799434662,9.850541114807129,0.0005235987482592463,-0.0003316125657875091,0.0013962633674964309
-1.0732057094573975,0.5695614218711853,9.779145240783691,8.726646046852693e-05,0.0005759586347267032,-0.00024434609804302454
-0.07186435163021088,0.06208643689751625,9.793482780456543,0.0006632251315750182,-0.0012740903766825795,-6.981316983001307e-05
-0.06346549838781357,0.05520071089267731,9.877135276794434,0.0008726646192371845,0.001029744278639555,0.0002617993741296232
-0.08494627475738525,0.07178773730993271,9.831147193908691,0.0014137167017906904,-0.0003490658418741077,0.00031415926059708
-0.0574704147875309,0.05274904891848564,9.836241722106934,0.0013788101496174932,1.7453292457503267e-05,-0.0005759586347267032
-0.09236829727888107,0.06047753244638443,9.82548713684082,0.0008552113431505859,6.981316983001307e-05,0.00015707963029854
-0.07640375941991806,0.05803544819355011,9.822778701782227,0.0006457717972807586,0.00047123889089562,0.0002617993741296232
-0.09210015088319778,0.052030790597200394,9.852063179016113,0.0011693706037476659,0.0005235987482592463,8.726646046852693e-05
-0.07081090658903122,0.0434882789850235,9.841136932373047,0.0012042771559208632,-0.0005585053586401045,0.00031415926059708
-0.06995856761932373,0.04789360985159874,9.84882640838623,0.0008552113431505859,-0.00017453292093705386,0.00012217304902151227
-0.08290641009807587,0.045202527195215225,9.843205451965332,0.0004886921960860491,-0.0003490658418741077,8.726646046852693e-05
-0.0697861909866333,0.048429910093545914,9.863746643066406,0.0008726646192371845,0.0013962633674964309,0.00015707963029854
-0.07707414031028748,0.058169521391391754,9.841482162475586,0.0005410520825535059,0.00012217304902151227,0.00027925267932005227
-0.06892427802085876,0.03301125019788742,9.827086448669434,0.0005410520825535059,0.0006806784076616168,0.0005934119690209627
-0.09052955359220505,0.04898536577820778,9.85602855682373,0.0007853981805965304,0.0006108652451075613,0.00015707963029854
-0.07730398327112198,0.06796659529209137,9.829078674316406,0.0011868239380419254,0.0009250245057046413,8.726646046852693e-05
-0.07875965535640717,0.05591897293925285,9.825822830200195,0.0017627825727686286,0.0005410520825535059,0.00015707963029854
-0.0650552436709404,0.04530787095427513,9.830276489257812,0.0012740903766825795,0.0006806784076616168,0.0008377580670639873
-0.06686526536941528,0.06616615504026413,9.854619979858398,0.00045378561480902135,8.726646046852693e-05,0.00015707963029854
-0.07100244611501694,0.07267838716506958,9.821810722351074,0.00047123889089562,0.0010646508308127522,0.00015707963029854
-0.07224743068218231,0.056531887501478195,9.83340835571289,0.0008377580670639873,8.726646046852693e-05,0.00015707963029854
-0.08297345042228699,0.05826529115438461,9.847227096557617,0.0009075712296180427,0.00013962633966002613,0.0
-0.07904695719480515,0.05001965910196304,9.82087230682373,0.00047123889089562,0.00010471975838299841,-0.0002617993741296232
-0.09979990124702454,0.06853162497282028,9.843338966369629,0.0008726646192371845,0.00031415926059708,-8.726646046852693e-05
-0.08256164938211441,0.042521022260189056,9.840437889099121,0.001483529806137085,0.0003490658418741077,6.981316983001307e-05
-0.07671021670103073,0.0533236563205719,9.820996284484863,0.0008377580670639873,0.0005585053586401045,-0.00020943951676599681
-0.07327214628458023,0.03712927922606468,9.83574390411377,0.00040142572834156454,0.0003665191470645368,0.00043633230961859226
-0.07250600308179855,0.04888959601521492,9.828600883483887,0.0005410520825535059,0.0008028514566831291,0.00015707963029854
-0.075015127658844,0.04962700977921486,9.844947814941406,0.0012391837080940604,0.00024434609804302454,0.0005934119690209627
-0.0789128839969635,0.0586579404771328,9.842812538146973,0.0012915435945615172,0.00012217304902151227,0.0007853981805965304
-0.09091262519359589,0.04684973508119583,9.830792427062988,0.001483529806137085,0.0010995573829859495,0.00015707963029854
-0.08600930124521255,0.06451894342899323,9.82751750946045,0.00094247778179124,-0.00015707963029854,0.00017453292093705386
0.022505495697259903,0.029209259897470474,9.693471908569336,-0.002321287989616394,-0.01392772700637579,0.00022689280740451068
-0.027121515944600105,0.05476975440979004,9.793644905090332,0.00457276264205575,0.014608405530452728,0.00022689280740451068
-0.08340440690517426,0.056388236582279205,9.877747535705566,0.0024434609804302454,0.012705996632575989,0.00017453292093705386
-0.07485231757164001,0.047998953610658646,9.848270416259766,0.0011344640515744686,0.00062831852119416,0.00019198621157556772
0.7511759400367737,-0.27252718806266785,9.772958755493164,0.0008377580670639873,-0.0016406094655394554,-0.003036872949451208
0.26164793968200684,-0.061080873012542725,9.809370040893555,0.0013962633674964309,0.00062831852119416,-0.0014486232539638877
-0.049349281936883926,0.027935544028878212,9.86850643157959,0.002199114765971899,6.981316983001307e-05,-0.00013962633966002613
-0.08873868733644485,0.06353253126144409,9.809427261352539,0.0010471974965184927,8.726646046852693e-05,0.00010471975838299841
-0.09054870158433914,0.04213794693350792,9.951211929321289,-0.020367993041872978,-0.08471827954053879,0.00015707963029854
-0.0822456106543541,0.043497852981090546,9.851526260375977,0.0014660765882581472,0.0009599310578778386,0.00017453292093705386
-0.062383316457271576,0.04978981614112854,9.821378707885742,0.0011868239380419254,0.0008901178953237832,0.00012217304902151227
-0.12541785836219788,0.14732958376407623,10.084559440612793,0.001972222002223134,0.002321287989616394,0.00251327408477664
-0.055181559175252914,0.0388626791536808,9.943560600280762,0.00029670598451048136,0.0007679448463022709,0.0010646508308127522
-0.09661082178354263,0.06752606481313705,9.830007553100586,0.0006632251315750182,0.0012217304902151227,3.490658491500653e-05
-0.06190447509288788,0.05740337818861008,9.878495216369629,0.0015009831404313445,0.00027925267932005227,-0.00029670598451048136
-0.10742303729057312,0.06187574565410614,9.839106559753418,0.0012391837080940604,0.00045378561480902135,0.00022689280740451068
-0.06488286703824997,0.048994939774274826,9.850435256958008,0.0006632251315750182,0.00024434609804302454,0.00015707963029854
-0.06358041614294052,0.052595820277929306,9.846270561218262,0.0006806784076616168,0.0009948377264663577,0.00012217304902151227
-0.059184662997722626,0.06795702129602432,9.85482120513916,0.0012915435945615172,0.0027052604127675295,0.00015707963029854
-0.07941088080406189,0.03487873077392578,9.846125602722168,0.0009773843921720982,0.00024434609804302454,-0.00031415926059708
-0.07362648844718933,0.05246174708008766,9.844861030578613,0.0008552113431505859,8.726646046852693e-05,0.0003665191470645368
-0.07456501573324203,0.05337154120206833,9.852953910827637,0.0009773843921720982,8.726646046852693e-05,0.00015707963029854
-0.062028974294662476,0.07089709490537643,9.843098640441895,0.0009075712296180427,0.0015009831404313445,-0.00015707963029854
-0.08262868225574493,0.0423007532954216,9.843761444091797,0.0007679448463022709,0.0009599310578778386,0.000715585018042475
-0.07304230332374573,0.044331036508083344,9.832019805908203,0.0006632251315750182,0.00041887903353199363,-0.0002617993741296232
-0.07298484444618225,0.04178360477089882,9.827201843261719,0.0013089969288557768,0.0008552113431505859,0.00015707963029854
-0.08373001962900162,0.056531887501478195,9.829633712768555,0.0016057029133662581,0.00024434609804302454,0.00015707963029854
-0.07284118980169296,0.05970181152224541,9.84610652923584,0.0013089969288557768,0.0009075712296180427,0.00015707963029854
-0.08028236776590347,0.04701254144310951,9.840093612670898,0.0005410520825535059,1.7453292457503267e-05,-0.0005934119690209627
-0.09013690054416656,0.060937218368053436,9.82726001739502,0.0006632251315750182,0.0006632251315750182,6.981316983001307e-05
-0.07793605327606201,0.054233454167842865,9.842859268188477,0.0008726646192371845,0.0004886921960860491,0.00015707963029854
-0.07794562727212906,0.05735549330711365,9.827527046203613,0.001117010717280209,0.0010646508308127522,0.00015707963029854
-0.07500554621219635,0.0524904765188694,9.835179328918457,0.0014486232539638877,0.0009773843921720982,0.00015707963029854
-0.0857890322804451,0.04636131972074509,9.858757972717285,0.0008552113431505859,0.00010471975838299841,0.0003490658418741077
-0.08013871312141418,0.055516745895147324,9.835237503051758,0.00010471975838299841,0.00047123889089562,0.00022689280740451068
-0.08017702400684357,0.05091987922787666,9.866294860839844,0.00040142572834156454,0.0009075712296180427,0.0006108652451075613
-0.09423577785491943,0.043852195143699646,9.84058952331543,0.0008726646192371845,0.0019547687843441963,0.00015707963029854
-0.08735004812479019,0.07664318382740021,9.851622581481934,0.0007330382941290736,-0.0012740903766825795,0.00015707963029854
-0.06541916728019714,0.045911211520433426,9.858173370361328,0.0009599310578778386,0.0005410520825535059,0.00015707963029854
-0.06858908385038376,0.051293376833200455,9.85526180267334,0.00045378561480902135,0.00027925267932005227,-0.00010471975838299841
-0.07211335003376007,0.055133674293756485,9.844392776489258,0.0008552113431505859,0.0007853981805965304,0.00022689280740451068
-0.07083963602781296,0.06289088726043701,9.82091999053955,0.00022689280740451068,0.0009773843921720982,0.00017453292093705386
-0.07491935789585114,0.052931010723114014,9.852619171142578,0.0007504915702156723,0.0015358896926045418,-0.0002617993741296232
-0.08576030284166336,0.060841452330350876,9.851411819458008,0.0003490658418741077,0.0003665191470645368,0.00022689280740451068
-0.07557057589292526,0.04774995520710945,9.855789184570312,0.0007853981805965304,0.00020943951676599681,0.00015707963029854
-0.09034758806228638,0.0652850866317749,9.855549812316895,0.0009773843921720982,0.00043633230961859226,0.00047123889089562
-0.09182242304086685,0.06041049584746361,9.838473320007324,0.00024434609804302454,0.0014486232539638877,0.00015707963029854
-0.06713341176509857,0.0668269544839859,9.853719711303711,0.0010471974965184927,0.0008552113431505859,0.0005934119690209627
-0.07890331000089645,0.04936843737959862,9.84708309173584,0.000715585018042475,0.0018675023457035422,0.00031415926059708
-0.07136636227369308,0.05680961534380913,9.82805347442627,0.0010995573829859495,0.00022689280740451068,0.0
0.029209259897470474,0.027217283844947815,9.65530776977539,-0.0021293016616255045,-0.019826939329504967,-0.0005759586347267032
-0.01878969371318817,0.052643705159425735,9.8103666305542,0.004380776546895504,0.018291050568223,-0.0003316125657875091
-0.07930553704500198,0.04362235218286514,9.89494800567627,0.005113814491778612,0.018413223326206207,0.0005235987482592463
-0.07458417117595673,0.06325480341911316,9.8779878616333,0.00125663704238832,0.002548180753365159,-0.00024434609804302454
0.7335163354873657,-0.26160961389541626,10.225404739379883,0.002740166848525405,0.001518436474725604,0.005218534264713526
0.11770852655172348,-0.04683058336377144,9.947429656982422,-0.00012217304902151227,-0.00013962633966002613,0.0013788101496174932
-0.11111968755722046,0.061981089413166046,9.875497817993164,0.0016406094655394554,0.0010471974965184927,0.0005934119690209627
-0.03688028082251549,0.044963106513023376,9.845301628112793,0.00094247778179124,6.981316983001307e-05,0.00047123889089562
-0.0931248664855957,0.039820361882448196,9.850081443786621,0.0008552113431505859,0.0021816615480929613,-1.7453292457503267e-05
-0.07787858694791794,0.04970362409949303,9.847092628479004,0.00045378561480902135,0.00040142572834156454,0.0003316125657875091
-0.08216899633407593,0.06160759553313255,9.836128234863281,0.0005235987482592463,0.0009599310578778386,0.00015707963029854
-0.06969999521970749,0.06851246953010559,9.834077835083008,8.726646046852693e-05,0.0013089969288557768,0.00017453292093705386
-0.08433336019515991,0.056273315101861954,9.843052864074707,0.0012915435945615172,0.0005410520825535059,0.0006108652451075613
-0.0058993129059672356,0.026441562920808792,9.736872673034668,-0.005462880712002516,-0.025394540280103683,0.00015707963029854
-0.050728343427181244,0.03765600174665451,9.782008171081543,0.0027052604127675295,0.011693705804646015,0.00015707963029854
-0.06545747071504593,0.04729984700679779,9.848155975341797,-8.726646046852693e-05,-0.00022689280740451068,0.00031415926059708
-0.07577168941497803,0.04720407724380493,9.839594841003418,0.0012915435945615172,0.0006806784076616168,0.00015707963029854
-0.104147769510746,0.053381118923425674,9.693087577819824,0.0003665191470645368,0.004136430099606514,0.00015707963029854
-0.6655592918395996,0.32714369893074036,9.756190299987793,-0.0003490658418741077,0.00125663704238832,-0.0034732052590698004
-0.047596726566553116,0.05070919170975685,9.819416046142578,-0.00038397242315113544,-0.0013264502631500363,0.00010471975838299841
-0.08115385472774506,0.0577002577483654,9.87495231628418,0.0018675023457035422,0.0007853981805965304,0.00027925267932005227
-0.0815369263291359,0.04772122576832771,9.829338073730469,0.0009599310578778386,0.00041887903353199363,-0.0002617993741296232
-0.07035122066736221,0.055152829736471176,9.866294860839844,0.0012740903766825795,-0.0005235987482592463,0.00015707963029854
-0.08338525146245956,0.04318182170391083,9.84922981262207,0.0010471974965184927,8.726646046852693e-05,0.00017453292093705386
-0.07783070206642151,0.05229894071817398,9.854035377502441,0.0005410520825535059,3.490658491500653e-05,-0.0006632251315750182
-0.07988014072179794,0.052806511521339417,9.849668502807617,0.0003490658418741077,0.0005585053586401045,0.00015707963029854
-0.09068278223276138,0.054779332131147385,9.856861114501953,0.00013962633966002613,0.0005585053586401045,-0.00027925267932005227
-0.0753694698214531,0.05650315806269646,9.851402282714844,0.0007330382941290736,1.7453292457503267e-05,-0.0005061454721726477
-0.07150043547153473,0.04943547397851944,9.841625213623047,0.001029744278639555,-0.00012217304902151227,-0.00045378561480902135
-0.059088896960020065,0.06709510833024979,9.848616600036621,0.0009948377264663577,0.00040142572834156454,0.00015707963029854
-0.08794381469488144,0.05132210627198219,9.832948684692383,0.00040142572834156454,0.0003490658418741077,0.00015707963029854
-0.07396167516708374,0.04907155781984329,9.841538429260254,0.0008552113431505859,1.7453292457503267e-05,0.0007853981805965304
-0.07162493467330933,0.04054819792509079,9.865365028381348,0.00022689280740451068,0.00015707963029854,0.00015707963029854
-0.06462428718805313,0.05775772035121918,9.837104797363281,0.0008377580670639873,-1.7453292457503267e-05,0.00015707963029854
-0.07407660037279129,0.05614881590008736,9.8190336227417,0.0018500490114092827,-0.00010471975838299841,-0.00020943951676599681
0.1592239886522293,-0.008973467163741589,9.37076187133789,0.0023038345389068127,0.00874409917742014,-0.00013962633966002613
-0.028854917734861374,0.03303040564060211,9.750165939331055,0.011100294068455696,0.04384266957640648,-0.001029744278639555
-0.06799532473087311,0.04824795201420784,9.855319023132324,0.0015882495790719986,0.004782202187925577,0.0003316125657875091
-0.08206365257501602,0.07315722107887268,9.863201141357422,0.0010821041651070118,0.001972222002223134,-0.00024434609804302454
-1.307080864906311,0.6605889797210693,9.827787399291992,-0.00045378561480902135,0.004380776546895504,-0.0005410520825535059
-0.17363707721233368,0.09863153100013733,9.840149879455566,0.0003490658418741077,0.0016755161341279745,-0.00027925267932005227
-0.0605541467666626,0.06876146793365479,9.799429893493652,0.0014660765882581472,0.0007504915702156723,0.0009599310578778386
-0.068263478577137,0.059424083679914474,9.880812644958496,0.0009948377264663577,0.00040142572834156454,0.00012217304902151227
-0.06925946474075317,0.06828262656927109,9.842256546020508,0.0005235987482592463,0.0009075712296180427,0.0009250245057046413
-0.07755298167467117,0.05126464366912842,9.871572494506836,0.0008552113431505859,-0.00022689280740451068,0.00015707963029854
-0.08027279376983643,0.057834334671497345,9.826425552368164,0.0015009831404313445,0.00041887903353199363,0.0
-0.07033206522464752,0.053026776760816574,9.856813430786133,0.0009250245057046413,0.0007504915702156723,-0.0005934119690209627
-0.08853757381439209,0.032379183918237686,9.867328643798828,0.0023387412074953318,-6.981316983001307e-05,0.0006806784076616168
-0.07617391645908356,0.06475836783647537,9.834595680236816,0.001117010717280209,-5.2359879191499203e-05,0.00013962633966002613
-0.08797254413366318,0.067181296646595,9.854524612426758,0.0013613568153232336,0.001029744278639555,1.7453292457503267e-05
-0.06413587182760239,0.05004838854074478,9.847246170043945,0.0017802357906475663,8.726646046852693e-05,8.726646046852693e-05
-0.07414363324642181,0.05530605837702751,9.830286979675293,0.0016929693520069122,8.726646046852693e-05,0.00015707963029854
-0.07803181558847427,0.02942952699959278,9.833819389343262,0.00013962633966002613,0.00040142572834156454,0.00013962633966002613
-0.06578308343887329,0.04743392392992973,9.838033676147461,0.0014660765882581472,0.0005934119690209627,-0.00045378561480902135
-0.07088752090930939,0.05502833053469658,9.850300788879395,0.0008203047327697277,-3.490658491500653e-05,-0.00013962633966002613
-0.07836700975894928,0.06343676894903183,9.842612266540527,0.00047123889089562,1.7453292457503267e-05,0.00015707963029854
-0.08732131868600845,0.042453981935977936,9.840953826904297,8.726646046852693e-05,1.7453292457503267e-05,0.0005235987482592463
-0.06979576498270035,0.05526775121688843,9.846183776855469,-0.00019198621157556772,0.0011868239380419254,0.00031415926059708
-0.06555324047803879,0.06542874127626419,9.83214282989502,0.0008552113431505859,0.001518436474725604,0.00015707963029854
-0.07647079974412918,0.04183148965239525,9.842362403869629,0.0006457717972807586,0.0006457717972807586,0.00047123889089562
-0.09054870158433914,0.04376600682735443,9.841519355773926,0.00047123889089562,0.0003316125657875091,0.00022689280740451068
-0.08146031200885773,0.04697423428297043,9.845598220825195,0.0011693706037476659,0.00022689280740451068,0.0
-0.09994354844093323,0.05779602751135826,9.84464168548584,0.00040142572834156454,0.0015533430268988013,0.00015707963029854
-0.08299260586500168,0.05806417763233185,9.853309631347656,0.00040142572834156454,0.0002617993741296232,0.00013962633966002613
-0.060937218368053436,0.05381207540631294,9.868180274963379,-0.0015009831404313445,-0.013124875724315643,0.00047123889089562
-0.07963114231824875,0.04672523960471153,9.852656364440918,0.0007679448463022709,0.0007679448463022709,-0.00019198621157556772
-0.10304643958806992,0.07022672146558762,9.881377220153809,0.0010646508308127522,0.011379546485841274,-0.00012217304902151227
-0.07919061183929443,0.048688482493162155,9.819156646728516,-0.00024434609804302454,-0.0040317103266716,0.00015707963029854
-0.06270892918109894,0.06490201503038406,9.845887184143066,0.00040142572834156454,0.0006108652451075613,-0.0006457717972807586
-0.060036998242139816,0.05779602751135826,9.829107284545898,0.0012915435945615172,0.00022689280740451068,-0.0002617993741296232
1.126222848892212,-0.5098212957382202,10.007216453552246,0.0020769417751580477,-0.00041887903353199363,-0.002286381321027875
0.01498770248144865,0.02495715767145157,9.904275894165039,0.001343903481028974,0.0011868239380419254,5.2359879191499203e-05
-0.08917921781539917,0.05062299966812134,9.86507797241211,0.0025307273026555777,0.0017802357906475663,0.00022689280740451068
-0.08893022686243057,0.052480898797512054,9.818687438964844,0.0010821041651070118,0.00013962633966002613,0.0005235987482592463
-0.07342537492513657,0.06323565542697906,9.847647666931152,0.000715585018042475,0.0008377580670639873,0.0005934119690209627
-0.08315540850162506,0.06210558861494064,9.821226119995117,0.0007853981805965304,0.0005585053586401045,1.7453292457503267e-05
-0.0708492174744606,0.05900270491838455,9.8512601852417,0.0006457717972807586,0.00012217304902151227,0.0009773843921720982
-0.08481219410896301,0.03801034390926361,9.82935619354248,0.0008377580670639873,0.0002617993741296232,0.00015707963029854
-0.0755993127822876,0.05246174708008766,9.830744743347168,0.0007330382941290736,0.00040142572834156454,-0.00062831852119416
-0.07975564152002335,0.04866933077573776,9.842495918273926,0.0009250245057046413,-0.00013962633966002613,6.981316983001307e-05
-0.07325299084186554,0.06804320961236954,9.84005355834961,0.0008203047327697277,0.0011868239380419254,0.00012217304902151227
-0.07705498486757278,0.05435795336961746,9.850894927978516,0.0008552113431505859,-0.0007853981805965304,0.00015707963029854
-0.06541916728019714,0.053716305643320084,9.82997989654541,0.00047123889089562,8.726646046852693e-05,0.0
-0.07377014309167862,0.06627149879932404,9.840417861938477,0.0005410520825535059,0.00043633230961859226,0.0
-0.06489244103431702,0.058686669915914536,9.849640846252441,0.0003490658418741077,0.00047123889089562,-0.00010471975838299841
-0.08211153745651245,0.06676949560642242,9.830543518066406,0.0005410520825535059,0.00029670598451048136,0.00043633230961859226
-0.07623137533664703,0.058121636509895325,9.843587875366211,0.0008726646192371845,-0.0008203047327697277,0.00017453292093705386
-0.0795162245631218,0.056014738976955414,9.858671188354492,0.0009250245057046413,0.0003490658418741077,0.0003316125657875091
-0.07218996435403824,0.03977247700095177,9.83748722076416,0.0005410520825535059,8.726646046852693e-05,0.00013962633966002613
-0.0757238045334816,0.057786449790000916,9.828447341918945,0.00040142572834156454,1.7453292457503267e-05,8.726646046852693e-05
-0.06336972862482071,0.05186798423528671,9.830907821655273,0.0008552113431505859,0.0012915435945615172,0.0005061454721726477
-0.06809109449386597,0.04590163379907608,9.8356294631958,0.0009773843921720982,8.726646046852693e-05,0.00015707963029854
-0.08473557978868484,0.06322607398033142,9.840953826904297,0.0008552113431505859,0.00020943951676599681,0.00015707963029854
-0.07591534405946732,0.05229894071817398,9.83415412902832,0.0008552113431505859,-0.00045378561480902135,0.0
-0.07861600071191788,0.05760449171066284,9.849007606506348,0.0008552113431505859,0.0003490658418741077,0.00017453292093705386
-0.08321286737918854,0.06225881725549698,9.845704078674316,0.0008203047327697277,0.00013962633966002613,0.00012217304902151227
-0.07937256991863251,0.06028599664568901,9.855588912963867,0.0008552113431505859,0.0005585053586401045,0.00015707963029854
-0.06495948135852814,0.042243294417858124,9.862272262573242,0.0009250245057046413,-6.981316983001307e-05,0.00029670598451048136
-0.0834139809012413,0.049253515899181366,9.841202735900879,0.00038397242315113544,-0.0005235987482592463,0.00015707963029854
-0.08379705250263214,0.050086695700883865,9.861027717590332,0.0005061454721726477,0.00062831852119416,0.00013962633966002613
-0.0784340426325798,0.06285258382558823,9.858412742614746,0.0011344640515744686,1.7453292457503267e-05,0.00015707963029854
-0.07257303595542908,0.0637623742222786,9.853835105895996,0.0012042771559208632,0.00024434609804302454,0.00013962633966002613
-0.07375098764896393,0.049780238419771194,9.87264347076416,0.0008552113431505859,0.00013962633966002613,8.726646046852693e-05
-0.07310934364795685,0.06725791096687317,9.821876525878906,0.001745329238474369,-0.00027925267932005227,0.0003316125657875091
-0.07580042630434036,0.047050848603248596,9.830495834350586,0.0005410520825535059,-0.0002617993741296232,-0.00020943951676599681
-0.08170931041240692,0.07110778987407684,9.847973823547363,0.0008552113431505859,3.490658491500653e-05,0.0
-0.08284895122051239,0.04752011224627495,9.827488899230957,0.0012740903766825795,6.981316983001307e-05,0.00015707963029854
-0.050441037863492966,0.05337154120206833,9.845810890197754,0.0011868239380419254,-0.0010471974965184927,0.0007853981805965304
-0.06158844381570816,0.06052541732788086,9.840226173400879,0.0008377580670639873,8.726646046852693e-05,0.00015707963029854
-0.08018659800291061,0.04791276156902313,9.837783813476562,0.001029744278639555,8.726646046852693e-05,-0.00013962633966002613
-0.07325299084186554,0.05391741916537285,9.837364196777344,0.0010995573829859495,0.0009250245057046413,0.00010471975838299841
-0.0738084465265274,0.05520071089267731,9.843673706054688,0.0012915435945615172,8.726646046852693e-05,0.0007504915702156723
-0.07260177284479141,0.03185245767235756,9.831022262573242,0.0011519172694534063,0.00017453292093705386,0.00010471975838299841
-0.0813932791352272,0.08123046904802322,9.859208106994629,0.0007679448463022709,0.0013962633674964309,0.00015707963029854
-0.06758352369070053,0.056244585663080215,9.844833374023438,0.0008552113431505859,0.00022689280740451068,0.0003316125657875091
-0.07401913404464722,0.05610093101859093,9.84036922454834,0.00040142572834156454,0.00010471975838299841,-0.0002617993741296232
-0.07104074954986572,0.04549940675497055,9.864627838134766,0.0009599310578778386,0.0005235987482592463,0.00013962633966002613
-0.08067502081394196,0.055650822818279266,9.8442964553833,0.0003316125657875091,0.00017453292093705386,3.490658491500653e-05
-0.08124005049467087,0.05732676386833191,9.849152565002441,0.0008552113431505859,0.0005061454721726477,0.00022689280740451068
-0.07707414031028748,0.04933970794081688,9.852609634399414,0.0005235987482592463,0.00010471975838299841,-0.0008901178953237832
-0.0731189176440239,0.04902367293834686,9.856324195861816,0.0011519172694534063,0.00040142572834156454,0.00015707963029854
-0.07893203943967819,0.03708139434456825,9.83187484741211,0.00040142572834156454,0.0021293016616255045,0.0003490658418741077
-0.08264783769845963,0.06121494621038437,9.843960762023926,0.0008552113431505859,0.00019198621157556772,0.00015707963029854
-0.08475473523139954,0.05167644843459129,9.840417861938477,0.0008901178953237832,0.0005235987482592463,0.00013962633966002613
-0.07374140620231628,0.04410119354724884,9.82610034942627,0.001343903481028974,0.0002617993741296232,0.00015707963029854
-0.07173027843236923,0.0427795946598053,9.853652954101562,0.0008552113431505859,0.0018325956771150231,0.00015707963029854
-0.0740574449300766,0.052883125841617584,9.833263397216797,0.0006632251315750182,0.0,0.00015707963029854
-0.07611645758152008,0.040557775646448135,9.85554027557373,0.0008726646192371845,1.7453292457503267e-05,0.00015707963029854
0.0037158008199185133,0.044254422187805176,9.7479248046875,-0.0031939526088535786,-0.025167647749185562,0.00019198621157556772
-0.10622593760490417,0.07791689783334732,9.942889213562012,0.0008377580670639873,0.0013962633674964309,8.726646046852693e-05
-0.1202559545636177,0.06420291215181351,9.919130325317383,0.0036128314677625895,0.019390607252717018,0.00043633230961859226
-0.09661082178354263,0.03867114335298538,9.840323448181152,0.00043633230961859226,0.0008377580670639873,0.00047123889089562
-0.08037813752889633,0.05080495774745941,9.858124732971191,0.0008377580670639873,0.0020769417751580477,-0.0002617993741296232
-0.12261185050010681,0.07432559132575989,10.051434516906738,0.0016231562476605177,-0.0018151424592360854,-0.0008377580670639873
0.18348203599452972,-0.061530981212854385,9.94356918334961,0.0018151424592360854,-6.981316983001307e-05,0.002740166848525405
-0.10381258279085159,0.0639922171831131,9.875372886657715,0.0015358896926045418,0.0007679448463022709,0.0005585053586401045
-0.09708008915185928,0.05459737405180931,9.800808906555176,0.0017627825727686286,0.0002617993741296232,-0.000715585018042475
-0.052030790597200394,0.052739471197128296,9.84664249420166,0.0009250245057046413,-8.726646046852693e-05,0.00045378561480902135
-0.07837658375501633,0.06335057318210602,9.827680587768555,0.000715585018042475,-0.00017453292093705386,8.726646046852693e-05
-0.0855591893196106,0.0565127357840538,9.859915733337402,0.00027925267932005227,0.00022689280740451068,0.00022689280740451068
-0.08640194684267044,0.05824613571166992,9.839097023010254,0.0013089969288557768,0.0005235987482592463,0.0003316125657875091
-0.06958507746458054,0.06423164159059525,9.840332984924316,0.0011868239380419254,0.0003316125657875091,-0.0007330382941290736
-0.07360733300447464,0.048449061810970306,9.84223747253418,0.001029744278639555,0.0006981316837482154,-0.00062831852119416
-0.08487923443317413,0.06692272424697876,9.834939956665039,0.0008203047327697277,-0.00015707963029854,0.00022689280740451068
-0.08716809004545212,0.041390955448150635,9.857847213745117,0.00094247778179124,-0.0002617993741296232,0.00019198621157556772
-0.07320510596036911,0.04682100564241409,9.83415412902832,0.0007853981805965304,0.00017453292093705386,0.0
-0.06272808462381363,0.052500054240226746,9.837104797363281,0.0005585053586401045,0.0003316125657875091,-0.00010471975838299841
-0.07004476338624954,0.05491340905427933,9.841193199157715,0.001117010717280209,0.0010471974965184927,0.00019198621157556772
-0.070724718272686,0.07554184645414352,9.847773551940918,0.00038397242315113544,-0.00038397242315113544,0.00029670598451048136
-0.06675034016370773,0.045202527195215225,9.847935676574707,0.00040142572834156454,8.726646046852693e-05,0.00017453292093705386
-0.06261315941810608,0.06201939657330513,9.844603538513184,0.00062831852119416,0.00020943951676599681,0.00022689280740451068
-0.08669883012771606,0.05161898583173752,9.866544723510742,0.0003490658418741077,-3.490658491500653e-05,0.00013962633966002613
-0.0747661292552948,0.04292324557900429,9.920661926269531,0.0012391837080940604,-0.003979350905865431,0.0003316125657875091
-0.08326075226068497,0.05964434891939163,9.87682819366455,0.00041887903353199363,0.0010995573829859495,0.00015707963029854
-0.08367256075143814,0.038355108350515366,9.847197532653809,0.0008901178953237832,0.0012740903766825795,0.00012217304902151227
-0.08190084993839264,0.04872678965330124,9.83143424987793,0.00041887903353199363,-0.0028623400721699,0.00015707963029854
