accX,accY,accZ,gyroX,gyroY,gyroZ
-4.261050224304199,5.27400016784668,5.236050128936768,-0.5072374939918518,-0.6743000149726868,-0.24406249821186066
-4.4670000076293945,4.833000183105469,6.0769500732421875,-0.811662495136261,-0.6550499796867371,-0.22384999692440033
-4.261050224304199,4.740000247955322,6.357000350952148,-1.0797874927520752,-0.544362485408783,-0.172837495803833
-4.336950302124023,4.6369500160217285,6.259050369262695,-1.294837474822998,-0.6518874764442444,-0.13021250069141388
-4.285050392150879,4.677000045776367,6.618000507354736,-1.5087875127792358,-0.9158874750137329,-0.12815000116825104
-3.775050163269043,4.543050289154053,7.365000247955322,-1.594862461090088,-1.4031875133514404,-0.14300000667572021
-2.8189501762390137,4.330049991607666,7.896000385284424,-1.4863749742507935,-1.9172999858856201,-0.2494249939918518
-2.050950050354004,4.198950290679932,8.551950454711914,-1.2618374824523926,-2.289787530899048,-0.4930749833583832
-1.8349500894546509,3.805950164794922,8.907000541687012,-0.9946749806404114,-2.4822874069213867,-0.8357250094413757
-1.8930001258850098,3.8779501914978027,9.393000602722168,-0.7510250210762024,-2.5590124130249023,-1.1987249851226807
-2.4079501628875732,4.234950065612793,9.58905029296875,-0.5455999970436096,-2.777087450027466,-1.3752750158309937
-2.4720001220703125,4.111950397491455,9.76395034790039,-0.653124988079071,-2.8175125122070312,-1.206149935722351
-2.386050224304199,4.311000347137451,10.111050605773926,-0.9244124889373779,-2.8569750785827637,-0.8931999802589417
-3.0799500942230225,4.819050312042236,10.777050971984863,-1.2309000492095947,-2.3993749618530273,-0.675125002861023
-2.0650501251220703,3.934950113296509,10.91100025177002,-1.4075875282287598,-1.8661500215530396,-0.172837495803833
-1.2370500564575195,2.7690000534057617,10.872000694274902,-1.4055249691009521,-1.362762451171875,0.3880249857902527
-0.6649500131607056,1.3369500637054443,11.409000396728516,-1.1127874851226807,-0.830637514591217,0.9286749958992004
0.25095000863075256,1.2990000247955322,12.31605052947998,-0.4221250116825104,-0.477400004863739,1.3714250326156616
0.6700500249862671,0.9970500469207764,12.084000587463379,0.6527125239372253,-0.6114624738693237,1.443750023841858
2.683950185775757,-1.1130000352859497,10.219050407409668,1.6020125150680542,-0.9201499819755554,1.4150124788284302
2.3749501705169678,-2.5279500484466553,8.599950790405273,2.2181499004364014,-1.137125015258789,1.084049940109253
1.9230000972747803,-1.4560500383377075,8.260050773620605,2.3331000804901123,0.2835249900817871,0.5018749833106995
0.7519500255584717,0.47805002331733704,8.682000160217285,2.4586374759674072,1.112512469291687,0.06132499873638153
-0.5329500436782837,2.986950159072876,9.091050148010254,2.633125066757202,0.9912375211715698,0.025162499397993088
-1.6800000667572021,4.812000274658203,7.647000312805176,2.4150500297546387,0.22824999690055847,0.3689124882221222
-0.7800000309944153,4.950000286102295,6.3949503898620605,1.99361252784729,-0.012374999932944775,0.8009374737739563
-0.30300000309944153,6.970950126647949,6.466950416564941,0.5324000120162964,-1.4341249465942383,0.8318749666213989
1.755000114440918,5.386050224304199,8.73900032043457,-0.29452499747276306,0.26647499203681946,0.8233500123023987
3.0840001106262207,4.869000434875488,9.666000366210938,-0.49348750710487366,1.4679499864578247,0.6253499984741211
2.482950210571289,4.972050189971924,10.272000312805176,-0.3242250084877014,1.2508374452590942,0.3316499888896942
1.645050048828125,5.673000335693359,9.80505084991455,0.17159999907016754,1.2721500396728516,0.16664999723434448
1.0200001001358032,6.124050140380859,8.836950302124023,0.47286251187324524,0.83160001039505,-0.03863750025629997
0.24195000529289246,5.365050315856934,7.9110002517700195,0.4632374942302704,0.683650016784668,-0.196212500333786
-0.29805001616477966,4.756050109863281,7.237950325012207,0.29081249237060547,0.8826124668121338,-0.18658749759197235
-0.6049500107765198,4.5769500732421875,7.2709503173828125,0.082225002348423,0.8529124855995178,-0.09721250087022781
-0.48000001907348633,4.876049995422363,7.707000255584717,-0.05389999970793724,0.6017000079154968,-0.035475000739097595
-0.10395000129938126,5.403000354766846,8.742000579833984,-0.03478749841451645,0.3091000020503998,-0.07699999958276749
-0.2939999997615814,5.283000469207764,9.106050491333008,0.13227500021457672,0.17599999904632568,-0.24199999868869781
-0.9180000424385071,4.464000225067139,8.848950386047363,0.20886249840259552,0.030249999836087227,-0.30896249413490295
-1.1700000762939453,4.315950393676758,7.987050533294678,0.13337500393390656,0.19731250405311584,-0.18342499434947968
-1.1959500312805176,4.972050189971924,7.528050422668457,-0.10821250081062317,0.3867875039577484,-0.0471624992787838
-1.1340000629425049,5.530050277709961,8.569050788879395,-0.24021250009536743,0.18988749384880066,0.018837500363588333
-0.8059500455856323,5.422050476074219,8.818050384521484,0.006737499963492155,-0.25712499022483826,-0.05142499879002571
-0.6910500526428223,4.7470502853393555,8.148000717163086,0.22907499969005585,-0.7614749670028687,-0.16747500002384186
-0.7699500322341919,4.132050037384033,7.635000228881836,0.12691250443458557,-0.6732000112533569,-0.15895000100135803
-0.7680000066757202,3.850950241088867,7.498950481414795,-0.15289999544620514,0.05898749828338623,-0.04193750023841858
-0.934950053691864,3.9619503021240234,7.437000274658203,-0.40837499499320984,0.7837499976158142,0.09968750178813934
-1.2580500841140747,4.492950439453125,8.119050025939941,-0.5296499729156494,0.8336625099182129,0.21986250579357147
-1.3609501123428345,4.809000015258789,8.773050308227539,-0.415800005197525,0.25052499771118164,0.3082749843597412
-1.0519500970840454,4.669950008392334,9.079050064086914,-0.06998749822378159,-0.3485625088214874,0.3199625015258789
-0.598050057888031,4.8259501457214355,8.79900074005127,0.318450003862381,-0.7062000036239624,0.2550624907016754
-0.7870500087738037,5.551050186157227,9.2160005569458,0.36217498779296875,-0.859375,0.11137499660253525
-0.0880500078201294,5.235000133514404,9.249000549316406,0.22165000438690186,-0.5561875104904175,0.23691250383853912
0.5890500545501709,4.9770002365112305,9.08595085144043,0.050324998795986176,-0.03355000168085098,0.2667500078678131
0.3850500285625458,5.002950191497803,8.920950889587402,0.018424998968839645,0.33137500286102295,0.21559999883174896
0.031050002202391624,5.082000255584717,8.49000072479248,0.13433749973773956,0.3100624978542328,0.17311249673366547
-0.16695000231266022,5.104050159454346,7.803000450134277,0.26317501068115234,0.17820000648498535,0.11990000307559967
-0.25995001196861267,5.16795015335083,7.297950267791748,0.25575000047683716,-0.010174999944865704,0.060224998742341995
-0.29100000858306885,5.27400016784668,7.282950401306152,0.055687498301267624,-0.24543750286102295,-0.004674999974668026
-0.037050001323223114,5.199000358581543,7.717050552368164,-0.22426250576972961,-0.2741749882698059,-0.006737499963492155
0.1960500031709671,5.143950462341309,8.392050743103027,-0.4465999901294708,-0.0952875018119812,0.011274999938905239
0.18900001049041748,5.00100040435791,9.237000465393066,-0.5083374977111816,-0.020899999886751175,0.009212499484419823
0.13199999928474426,4.903050422668457,9.559950828552246,-0.3679499924182892,0.05898749828338623,-0.0056374999694526196
0.024000000208616257,4.990950107574463,9.574950218200684,-0.17104999721050262,0.12072499841451645,-0.06311249732971191
-0.028050001710653305,5.119950294494629,9.56505012512207,-0.023099999874830246,0.10161250084638596,-0.12594999372959137
0.18195000290870667,5.338050365447998,9.90000057220459,0.055687498301267624,0.14300000667572021,-0.17710000276565552
0.1080000028014183,5.2230000495910645,10.219050407409668,0.1695374995470047,0.25478750467300415,-0.21642500162124634
-0.21705001592636108,4.804050445556641,9.663000106811523,0.3568125069141388,0.4431625008583069,-0.2685374915599823
-0.6289500594139099,4.5769500732421875,8.854050636291504,0.47286251187324524,0.6517499685287476,-0.2876499891281128
-0.781950056552887,4.450050354003906,7.966050148010254,0.526075005531311,0.8751875162124634,-0.2835249900817871
-1.075950026512146,4.551000118255615,7.099050521850586,0.44728749990463257,0.8592374920845032,-0.3484250009059906
-1.6609500646591187,4.591050148010254,6.3760504722595215,0.18438750505447388,0.6708624958992004,-0.39943748712539673
-1.90500009059906,4.311000347137451,6.1840500831604,-0.10821250081062317,0.44948750734329224,-0.31212499737739563
-2.0410501956939697,3.8010001182556152,6.289950370788574,-0.27211248874664307,0.22398750483989716,-0.16431249678134918
-2.2519500255584717,3.4039502143859863,6.424050331115723,-0.2572624981403351,-0.04001250118017197,0.04221250116825104
-1.711050033569336,4.230000019073486,6.301950454711914,-0.2689499855041504,-0.5508249998092651,0.20295000076293945
-1.3450500965118408,5.749950408935547,7.590000152587891,-0.644599974155426,-1.1967999935150146,0.19442500174045563
-0.1860000044107437,5.689950466156006,9.661050796508789,-0.9596124887466431,-1.0520124435424805,0.1751749962568283
0.7210500240325928,5.238000392913818,11.338950157165527,-0.8797249794006348,-0.6305750012397766,0.13901250064373016
1.0440000295639038,4.824000358581543,11.290950775146484,-0.4189625084400177,-0.012374999932944775,0.04331250116229057
0.5959500074386597,4.60605001449585,10.023000717163086,0.02474999986588955,0.34732499718666077,-0.11962500214576721
-0.41100001335144043,3.895050287246704,8.72504997253418,0.1769624948501587,0.3059374988079071,-0.24722500145435333
-1.102950096130371,4.114950180053711,8.794050216674805,-0.07315000146627426,0.6113250255584717,-0.09515000134706497
-1.4740500450134277,4.861950397491455,9.32805061340332,-0.23375000059604645,1.0316624641418457,-0.03657500073313713
-1.6440000534057617,4.528950214385986,9.766050338745117,-0.3242250084877014,1.1093499660491943,-0.14506250619888306
-1.6009501218795776,4.261050224304199,10.056000709533691,-0.08483749628067017,1.0177749395370483,-0.015262499451637268
-1.7179501056671143,4.383000373840332,9.880950927734375,0.30896249413490295,0.9827125072479248,0.07947500050067902
-1.8520500659942627,4.594050407409668,9.436050415039062,0.6547750234603882,0.7954375147819519,0.10821250081062317
-2.218950033187866,4.588950157165527,8.469000816345215,0.8346250057220459,0.6560124754905701,0.052799999713897705
-2.7360000610351562,4.564949989318848,7.735950469970703,0.7910374999046326,0.3910500109195709,0.04853750020265579
-2.6760001182556152,4.656000137329102,7.477050304412842,0.6356624960899353,0.1377750039100647,0.20707499980926514
-1.696950078010559,4.873950004577637,7.768950462341309,0.5101249814033508,0.016362499445676804,0.36781248450279236
-1.1359500885009766,5.110950469970703,7.867950439453125,0.4441249966621399,0.07177499681711197,0.30717501044273376
-1.9960501194000244,5.202000141143799,8.341950416564941,0.40892499685287476,0.14726249873638153,0.11137499660253525
-2.3959500789642334,5.365050315856934,8.325000762939453,0.4856500029563904,-0.04853750020265579,0.17201249301433563
-1.7560501098632812,5.451000213623047,8.119050025939941,0.5696625113487244,-0.1060125008225441,0.33701249957084656
-1.3210500478744507,5.716950416564941,8.026050567626953,0.6143500208854675,-0.17943750321865082,0.3390749990940094
-1.1530500650405884,5.773950099945068,8.080950736999512,0.7122499942779541,-0.31130000948905945,0.22522500157356262
-0.9949500560760498,5.580000400543213,7.570950508117676,0.7984625101089478,-0.24969999492168427,0.008112499490380287
-1.5600000619888306,5.278050422668457,6.547950267791748,0.630299985408783,0.05362499877810478,-0.20583750307559967
-2.2380001544952393,5.134950160980225,6.121950149536133,0.16637499630451202,0.31226250529289246,-0.14190000295639038
-2.4820501804351807,5.08905029296875,6.4860005378723145,-0.23058749735355377,0.44948750734329224,0.06778749823570251
-2.1349501609802246,5.178000450134277,7.137000560760498,-0.34347498416900635,0.34732499718666077,0.2508000135421753
-1.6630500555038452,5.154000282287598,7.470000267028809,-0.21889999508857727,0.27816250920295715,0.3583250045776367
-1.4070000648498535,5.049000263214111,7.468050479888916,0.0035749999806284904,0.255887508392334,0.4241875112056732
-1.5100500583648682,6.172050476074219,6.747000217437744,0.10779999941587448,0.10999999940395355,0.34443750977516174
-2.0460000038146973,7.0570502281188965,7.07295036315918,-0.23594999313354492,-0.3891249895095825,0.10175000131130219
-1.1080501079559326,6.552000522613525,8.545050621032715,-0.5478000044822693,-0.35612499713897705,0.054999999701976776
-0.6810000538825989,5.842950344085693,9.62700080871582,-0.5413374900817871,0.004674999974668026,-0.04193750023841858
-1.2220500707626343,5.431950092315674,9.466950416564941,-0.27101248502731323,0.38458749651908875,-0.16005000472068787
-1.9579501152038574,5.440950393676758,8.68695068359375,0.0034374999813735485,0.5559124946594238,-0.11852499842643738
-2.032050132751465,5.712000370025635,8.089950561523438,0.15138749778270721,0.46117499470710754,-0.002474999986588955
-1.864050030708313,5.7210001945495605,7.774050235748291,0.17586250603199005,0.3207874894142151,0.017737500369548798
-1.8469500541687012,5.488950252532959,7.420050144195557,0.13433749973773956,0.2952125072479248,-0.02488750033080578
-2.130000114440918,5.4340500831604,7.224000453948975,0.04496249929070473,0.2994749844074249,-0.05362499877810478
-2.311950206756592,5.475000381469727,7.342950344085693,-0.07947500050067902,0.28558748960494995,-0.01952499896287918
-2.3449501991271973,5.6449503898620605,8.053950309753418,-0.15716250240802765,0.23237499594688416,0.03478749841451645
-2.2980000972747803,5.617950439453125,8.641050338745117,-0.08373750001192093,0.210099995136261,0.0411125011742115
-2.3770501613616943,5.379000186920166,8.445000648498535,0.08442500233650208,0.2866874933242798,0.04221250116825104
-2.458050012588501,5.347950458526611,8.0110502243042,0.2153249979019165,0.3133625090122223,0.10395000129938126
-2.350050210952759,5.422050476074219,7.497000217437744,0.2535499930381775,0.2909500002861023,0.16885000467300415
-2.3050501346588135,5.652000427246094,7.293000221252441,0.21848750114440918,0.17393749952316284,0.19442500174045563
-2.0269501209259033,6.022950172424316,7.546950340270996,0.15991249680519104,0.013199999928474426,0.16238750517368317
-1.9309500455856323,6.028050422668457,7.674000263214111,0.12911249697208405,-0.03148749843239784,0.0752125009894371
-2.1130499839782715,5.832000255584717,7.4509501457214355,0.11412499845027924,0.06324999779462814,0.0038499999791383743
-2.1610500812530518,5.881950378417969,7.41795015335083,0.08332499861717224,0.05156249925494194,0.020899999886751175
-2.2300500869750977,6.172050476074219,7.73805046081543,0.082225002348423,-0.10284999758005142,0.054999999701976776
-2.0410501956939697,6.508950233459473,8.18595027923584,0.13433749973773956,-0.2699125111103058,0.05706249922513962
-1.8379501104354858,6.322050094604492,8.076000213623047,0.16637499630451202,-0.13474999368190765,-0.016362499445676804
-1.864050030708313,5.925000190734863,7.525050163269043,0.13227500021457672,0.10257499665021896,-0.1036750003695488
-2.2139999866485596,5.484000205993652,7.069950103759766,0.07273750007152557,0.20899999141693115,-0.11962500214576721
-2.7360000610351562,5.178000450134277,6.8359503746032715,0.06201250106096268,0.14726249873638153,-0.06104999780654907
-3.1120500564575195,4.960050106048584,6.547950267791748,0.08538749814033508,0.040837500244379044,0.07204999774694443
-2.7739500999450684,4.912050247192383,6.352050304412842,0.07369999587535858,-0.141075000166893,0.2433750033378601
-2.1949501037597656,5.098950386047363,6.490950107574463,0.03863750025629997,-0.31033748388290405,0.37097498774528503
-1.735050082206726,5.269050121307373,6.6250505447387695,0.01732499897480011,-0.34113749861717224,0.37097498774528503
-1.7299500703811646,5.341050148010254,6.490950107574463,-0.03478749841451645,-0.28696250915527344,0.29548749327659607
-1.9669500589370728,5.4559502601623535,6.658950328826904,-0.14767499268054962,-0.31033748388290405,0.2593249976634979
-2.4630000591278076,7.266000270843506,7.566000461578369,-0.34127500653266907,-0.635937511920929,0.20295000076293945
-1.8259501457214355,7.500000476837158,9.80505084991455,-0.6137999892234802,-0.9413250088691711,0.17627499997615814
-0.5260500311851501,6.2410502433776855,11.004000663757324,-0.4690124988555908,-0.44866248965263367,0.1742125004529953
-0.527999997138977,5.676000118255615,9.934050559997559,-0.014574999921023846,0.24089999496936798,0.10491249710321426
-1.1820000410079956,5.688000202178955,7.884000301361084,0.35048750042915344,0.47189998626708984,0.08043749630451202
-1.4329500198364258,5.937000274658203,6.663000106811523,0.4217124879360199,0.2441999912261963,0.08470000326633453
-1.5910500288009644,6.0610504150390625,6.340050220489502,0.24076250195503235,-0.011274999938905239,0.03148749843239784
-1.5169501304626465,6.028050422668457,6.892950534820557,-0.040150001645088196,-0.14217500388622284,-0.025987500324845314
-1.366050124168396,5.911050319671631,7.813050270080566,-0.22206249833106995,-0.09955000132322311,-0.055687498301267624
-1.4640001058578491,5.8720502853393555,8.394000053405762,-0.2125750035047531,0.03135000169277191,-0.07493750005960464
-1.8190500736236572,5.881950378417969,8.374950408935547,-0.07837499678134918,0.12278749793767929,-0.0471624992787838
-1.8259501457214355,5.877000331878662,8.169000625610352,0.057750001549720764,0.06531249731779099,0.018837500363588333
-1.4910000562667847,5.896050453186035,7.9710001945495605,0.1280124932527542,0.03987500071525574,0.04647500067949295
-1.311000108718872,5.920050144195557,7.843950271606445,0.12484999746084213,0.10147500038146973,-0.01209999993443489
-1.6440000534057617,5.781000137329102,7.645050525665283,0.09501250088214874,0.1845249980688095,-0.11110000312328339
-2.1160500049591064,5.7210001945495605,7.5199503898620605,0.05664999783039093,0.202674999833107,-0.12278749793767929
-2.1510000228881836,5.8120503425598145,7.8100504875183105,0.008799999952316284,0.142037495970726,-0.03341250121593475
-1.7130000591278076,5.982000350952148,8.019000053405762,0.01952499896287918,0.12498749792575836,0.047575000673532486
-1.6009501218795776,5.977950096130371,7.803000450134277,0.055687498301267624,0.2143625020980835,0.00494999997317791
-1.6750500202178955,5.913000106811523,7.485000133514404,0.04922499880194664,0.2644124925136566,-0.05362499877810478
-1.9309500455856323,5.767050266265869,7.381950378417969,0.010999999940395355,0.2536875009536743,-0.0695749968290329
-1.9720500707626343,5.578050136566162,7.777050495147705,-0.025299999862909317,0.27073749899864197,-0.04193750023841858
-2.0869500637054443,5.3959503173828125,8.155050277709961,-0.007149999961256981,0.46970000863075256,0.017737500369548798
-2.2069501876831055,5.310000419616699,7.618950366973877,0.055687498301267624,0.7229750156402588,0.13048750162124634
-2.2330501079559326,5.499000072479248,6.831000328063965,0.08868750184774399,0.7325999736785889,0.21986250579357147
-2.2300500869750977,5.776050090789795,5.818050384521484,0.06517499685287476,0.4824874997138977,0.25189998745918274
-2.6419501304626465,6.2820000648498535,5.622000217437744,0.03437500074505806,-0.0952875018119812,0.2124374955892563
-2.2330501079559326,5.944050312042236,6.20805025100708,-0.14767499268054962,-0.5252500176429749,0.11453749984502792
-1.990950107574463,5.902950286865234,6.754050254821777,-0.3381125032901764,-0.5561875104904175,0.012374999932944775
-1.735050082206726,5.57295036315918,7.104000568389893,-0.439175009727478,-0.6051374673843384,-0.08868750184774399
-1.633950114250183,5.881950378417969,7.555950164794922,-0.4828999936580658,-0.7519875168800354,-0.07699999958276749
-1.443000078201294,6.555000305175781,8.320050239562988,-0.5094375014305115,-0.8552500009536743,-0.02914999984204769
-1.1050500869750977,6.258000373840332,8.848950386047363,-0.5253875255584717,-0.7998374700546265,-0.06311249732971191
-0.7720500230789185,5.74500036239624,9.156000137329102,-0.45086249709129333,-0.6316750049591064,-0.0812624990940094
-0.4420500099658966,5.3620500564575195,9.067049980163574,-0.3114374876022339,-0.23801249265670776,-0.11962500214576721
-0.9949500560760498,5.503950119018555,8.806050300598145,-0.18700000643730164,0.040837500244379044,-0.21216249465942383
-1.8190500736236572,5.755050182342529,8.517000198364258,-0.07947500050067902,0.18136249482631683,-0.1919499933719635
-1.8760501146316528,5.616000175476074,8.268000602722168,-0.017737500369548798,0.035612501204013824,-0.1163249984383583
-1.6150500774383545,5.45805025100708,8.13794994354248,0.013062499463558197,-0.07507500052452087,-0.08442500233650208
-1.5310500860214233,5.367000102996826,8.290950775146484,0.020487500354647636,-0.06764999777078629,-0.12815000116825104
-1.6770000457763672,5.391000270843506,8.442000389099121,0.006737499963492155,0.0015124999918043613,-0.17916250228881836
-1.8349500894546509,5.44605016708374,8.45895004272461,-0.017737500369548798,0.07383749634027481,-0.17489999532699585
-1.8739501237869263,5.422050476074219,8.314949989318848,-0.062424998730421066,0.14836250245571136,-0.14506250619888306
-1.7400001287460327,5.389050483703613,8.16195011138916,-0.10615000128746033,0.17710000276565552,-0.10573749989271164
-1.5580500364303589,5.484000205993652,8.196000099182129,-0.09446249902248383,0.09404999762773514,-0.0695749968290329
-1.3639500141143799,5.511000156402588,8.338950157165527,-0.010312499478459358,0.01746249943971634,-0.08442500233650208
-1.396950125694275,5.422050476074219,8.256000518798828,0.089649997651577,0.048262499272823334,-0.15895000100135803
-1.7800500392913818,5.070000171661377,7.7500505447387695,0.14190000295639038,0.1845249980688095,-0.21848750114440918
-2.1750001907348633,4.797000408172607,7.204050540924072,0.12484999746084213,0.21119999885559082,-0.1568875014781952
-2.1060001850128174,4.840050220489502,6.9120001792907715,0.07590000331401825,0.10999999940395355,-0.022687500342726707
-1.6249500513076782,5.149050235748291,7.069950103759766,0.016224998980760574,-0.08153750002384186,0.05073750019073486
-1.579050064086914,5.098950386047363,7.045950412750244,-0.025162499397993088,-0.09322500228881836,-0.013199999928474426
-1.990950107574463,4.915050029754639,6.9940505027771,-0.09652499854564667,-0.13158750534057617,-0.08552499860525131
-2.3020501136779785,4.7059502601623535,7.003050327301025,-0.19442500174045563,-0.19538749754428864,-0.031212499365210533
-2.436000108718872,4.689000129699707,7.26900053024292,-0.2827000021934509,-0.30291250348091125,0.11343749612569809
-2.009999990463257,4.918950080871582,7.839000225067139,-0.2689499855041504,-0.4996750056743622,0.2901250123977661
-1.2940500974655151,5.331000328063965,8.533050537109375,-0.14121249318122864,-0.6700375080108643,0.370012491941452
-0.7920000553131104,5.403000354766846,8.992950439453125,-0.0017874999903142452,-0.5838249921798706,0.2741749882698059
-1.0120500326156616,5.467950344085693,9.043050765991211,0.06943749636411667,-0.3400374948978424,0.13158750534057617
-1.612950086593628,6.210000514984131,9.273000717163086,-0.03904999792575836,-0.24433749914169312,0.01979999989271164
-1.5070500373840332,5.946000099182129,9.400050163269043,-0.24763749539852142,-0.20074999332427979,0.06984999775886536
-0.8590500354766846,5.209050178527832,9.283050537109375,-0.2667500078678131,0.025987500324845314,0.14217500388622284
-0.7600500583648682,4.929000377655029,8.833050727844238,-0.07411249727010727,0.12925000488758087,0.14011250436306
-0.7410000562667847,5.0370001792907715,8.381999969482422,0.11948750168085098,0.196212500333786,0.13048750162124634
-1.0879501104354858,5.0370001792907715,8.145000457763672,0.271699994802475,0.2303124964237213,0.10078749805688858
-1.5670500993728638,5.235000133514404,7.618950366973877,0.3195500075817108,0.12815000116825104,0.047575000673532486
-1.6410000324249268,5.716950416564941,7.81695032119751,0.2525874972343445,-0.2358125001192093,0.03478749841451645
-0.8850000500679016,5.614050388336182,8.059050559997559,0.089649997651577,-0.28476250171661377,0.008112499490380287
-1.057050108909607,5.293050289154053,8.062050819396973,-0.03162499889731407,-0.05389999970793724,-0.05884999781847
-1.1790000200271606,5.215950012207031,8.124000549316406,-0.09542500227689743,-0.04743750020861626,-0.07590000331401825
-1.2370500564575195,5.182950019836426,8.208000183105469,-0.0826374962925911,-0.008112499490380287,-0.018424998968839645
-1.062000036239624,5.341050148010254,8.263050079345703,-0.052937500178813934,-0.0006874999962747097,0.018837500363588333
-0.9900000691413879,5.443950176239014,8.317950248718262,-0.03698749840259552,-0.029424998909235,0.01979999989271164
-1.002000093460083,5.491950035095215,8.3899507522583,-0.0006874999962747097,-0.07837499678134918,-0.015262499451637268
-1.0140000581741333,5.499000072479248,8.445000648498535,0.030112499371170998,-0.050599999725818634,-0.06311249732971191
-0.9810000658035278,5.443950176239014,8.42805004119873,0.030112499371170998,0.0015124999918043613,-0.09515000134706497
-1.0930500030517578,5.566050052642822,8.526000022888184,-0.003987499978393316,-0.0006874999962747097,-0.1344749927520752
-1.2559500932693481,5.748000144958496,8.63895034790039,-0.07095000147819519,0.03341250121593475,-0.18136249482631683
-1.2990000247955322,5.653950214385986,8.622000694274902,-0.16032500565052032,0.10477499663829803,-0.2079000025987625
-1.2439500093460083,5.238000392913818,8.301000595092773,-0.19236250221729279,0.2069374918937683,-0.18658749759197235
-1.270050048828125,4.849950313568115,7.827000141143799,-0.16032500565052032,0.23141250014305115,-0.1685750037431717
-1.4910000562667847,4.567049980163574,7.2360005378723145,-0.10711249709129333,0.16967499256134033,-0.1621125042438507
-1.7830500602722168,4.335000038146973,6.817050457000732,-0.08483749628067017,-0.012374999932944775,-0.10999999940395355
-1.6939500570297241,4.179000377655029,6.766050338745117,-0.08799999952316284,-0.23471249639987946,0.02199999988079071
-1.4599500894546509,4.246950149536133,6.97005033493042,-0.10078749805688858,-0.3815625011920929,0.14327499270439148
-1.1460000276565552,4.708950042724609,7.462950229644775,-0.1050499975681305,-0.4816625118255615,0.20391249656677246
-1.0290000438690186,5.082000255584717,7.951050281524658,-0.10284999758005142,-0.5326749682426453,0.17737500369548798
-1.0999500751495361,5.230950355529785,8.281949996948242,-0.13378749787807465,-0.6604124903678894,0.06984999775886536
-1.2370500564575195,5.391000270843506,8.599950790405273,-0.21147499978542328,-0.8402624726295471,-0.030112499371170998
-0.9139500260353088,5.881950378417969,9.486000061035156,-0.32848748564720154,-0.9913749694824219,-0.08236250281333923
-0.625950038433075,5.7430500984191895,10.063050270080566,-0.43174999952316284,-1.0670000314712524,-0.02914999984204769
0.1579500138759613,5.041050434112549,9.892950057983398,-0.3881624937057495,-0.7935125231742859,0.13791249692440033
0.690000057220459,4.510050296783447,9.232050895690918,-0.24873749911785126,-0.2793999910354614,0.14327499270439148
0.4759500324726105,4.443000316619873,8.742000579833984,-0.11357499659061432,0.10257499665021896,-0.023787500336766243
-0.19305001199245453,4.728000164031982,8.48805046081543,-0.0006874999962747097,0.12815000116825104,-0.13021250069141388
-0.6930000185966492,4.8949503898620605,8.421000480651855,0.07369999587535858,0.03231250122189522,-0.09088750183582306
-0.5190000534057617,4.888050079345703,8.454000473022461,0.089649997651577,-0.09858749806880951,-0.016362499445676804
-0.33195000886917114,4.849950313568115,8.575950622558594,0.050324998795986176,-0.1368124932050705,-0.0035749999806284904
-0.34905001521110535,4.819050312042236,8.563950538635254,-0.006049999967217445,-0.13997499644756317,-0.010999999940395355
-0.3960000276565552,4.720950126647949,8.482950210571289,-0.060362499207258224,-0.10064999759197235,0.016637500375509262
-0.39900001883506775,4.642050266265869,8.518950462341309,-0.10078749805688858,-0.11453749984502792,0.07204999774694443
-0.21405000984668732,4.591050148010254,8.509050369262695,-0.10395000129938126,-0.07411249727010727,0.1326874941587448
0.019050000235438347,4.680000305175781,8.545050621032715,-0.05926249921321869,-0.02722499892115593,0.13695000112056732
0.09300000220537186,5.08905029296875,9.409950256347656,0.03217500075697899,0.05362499877810478,0.062424998730421066
0.16305001080036163,5.3620500564575195,9.486000061035156,0.07699999958276749,-0.0719124972820282,-0.06104999780654907
0.325950026512146,4.938000202178955,9.04800033569336,0.11412499845027924,0.25052499771118164,-0.12484999746084213
0.07200000435113907,4.809000015258789,8.410950660705566,0.18658749759197235,0.3282124996185303,-0.14726249873638153
-0.43995001912117004,4.972050189971924,8.22195053100586,0.29301249980926514,0.20583750307559967,-0.12911249697208405
-0.45900002121925354,4.8670501708984375,8.083050727844238,0.36739999055862427,0.04193750023841858,-0.12484999746084213
-0.3679500222206116,4.773000240325928,8.13794994354248,0.3590124845504761,-0.0006874999962747097,-0.14300000667572021
-0.37995001673698425,4.921950340270996,8.347050666809082,0.27912500500679016,0.045099999755620956,-0.17173749208450317
-0.6240000128746033,5.082000255584717,8.554950714111328,0.1695374995470047,0.07383749634027481,-0.18658749759197235
-0.8470500111579895,5.046000003814697,8.634000778198242,0.07163749635219574,0.07383749634027481,-0.13557499647140503
-0.7510500550270081,5.197050094604492,8.842050552368164,0.031212499365210533,0.007837500423192978,-0.03341250121593475
-0.2770500183105469,5.460000038146973,9.180000305175781,0.04606249928474426,-0.03684999793767929,-0.02488750033080578
0.08400000631809235,5.551050186157227,9.355050086975098,0.06201250106096268,0.08882500231266022,-0.13983750343322754
-0.26205000281333923,5.520000457763672,9.426000595092773,0.07479999959468842,0.27073749899864197,-0.28022500872612
-0.6100500226020813,5.410050392150879,9.24000072479248,0.09927500039339066,0.38032498955726624,-0.3377000093460083
-0.47805002331733704,5.259000301361084,8.7610502243042,0.12911249697208405,0.5666375160217285,-0.32711249589920044
-0.583050012588501,5.104050159454346,8.039999961853027,0.14932499825954437,0.7528125047683716,-0.3441624939441681
-0.9780000448226929,4.89300012588501,7.281000137329102,0.1621125042438507,0.7709624767303467,-0.3675374984741211
-1.4089500904083252,4.498050212860107,6.559950351715088,0.17916250228881836,0.6187499761581421,-0.3111625015735626
-1.7299500703811646,3.9690001010894775,5.791950225830078,0.17489999532699585,0.4283125102519989,-0.1578499972820282
-1.9860000610351562,3.7129502296447754,5.290950298309326,0.1354375034570694,0.18672500550746918,0.05073750019073486
-2.187000036239624,3.6379501819610596,4.906050205230713,0.057750001549720764,-0.11879999935626984,0.26785001158714294
-2.197050094604492,3.7009501457214355,5.004000186920166,-0.08799999952316284,-0.46254998445510864,0.4796000123023987
-1.5430500507354736,3.8610002994537354,5.91195011138916,-0.32848748564720154,-0.8157874941825867,0.634975016117096
-0.5070000290870667,4.291950225830078,7.402950286865234,-0.5361124873161316,-0.8828874826431274,0.7126625180244446
-0.5329500436782837,9.172050476074219,10.030050277709961,-0.8989750146865845,-1.1510125398635864,0.37523749470710754
0.3520500063896179,8.482049942016602,12.891000747680664,-1.5299625396728516,-1.8183000087738037,0.02722499892115593
2.6770501136779785,4.558050155639648,13.018050193786621,-1.3150500059127808,-0.9913749694824219,-0.050462499260902405
1.755000114440918,3.325050115585327,11.671950340270996,-0.6551874876022339,0.2377374917268753,-0.22384999692440033
0.25095000863075256,3.7390501499176025,10.813050270080566,0.05884999781847,1.0592999458312988,-0.28558748960494995
-0.9259500503540039,4.560000419616699,9.679950714111328,0.6558749675750732,1.0114500522613525,-0.22384999692440033
-1.3420500755310059,4.824000358581543,8.302950859069824,0.861299991607666,0.5293750166893005,-0.12058749794960022
-1.1910001039505005,4.539000034332275,7.498950481414795,0.6920375227928162,0.14300000667572021,-0.10037499666213989
-1.075950026512146,4.318050384521484,7.482000350952148,0.3792249858379364,0.045099999755620956,-0.12278749793767929
-1.2559500932693481,4.34505033493042,7.743000507354736,0.10779999941587448,0.045099999755620956,-0.07163749635219574
-1.2109500169754028,4.600950241088867,8.263050079345703,-0.04221250116825104,0.006874999962747097,0.05596249923110008
-0.8509500622749329,4.843050003051758,8.718000411987305,-0.040150001645088196,-0.04743750020861626,0.14547500014305115
-0.5209500193595886,5.008050441741943,8.952000617980957,0.06091250106692314,-0.08249999582767487,0.12732499837875366
-0.31995001435279846,5.143950462341309,9.052950859069824,0.17806249856948853,-0.05486249923706055,0.06668750196695328
-0.33705002069473267,5.095950126647949,8.995050430297852,0.2770625054836273,-0.002749999985098839,0.029424998909235
-0.527999997138977,4.98900032043457,8.72504997253418,0.3451249897480011,0.1153625026345253,0.028324998915195465
-0.6430500149726868,4.938000202178955,8.23905086517334,0.3451249897480011,0.23883749544620514,0.05073750019073486
-0.7800000309944153,5.017050266265869,7.9200005531311035,0.25148749351501465,0.28132501244544983,0.07095000147819519
-0.7170000076293945,5.11305046081543,7.930050373077393,0.13859999179840088,0.20583750307559967,0.07301250100135803
-0.7990500330924988,5.2260003089904785,8.265000343322754,0.08332499861717224,0.0845625028014183,0.04853750020265579
-0.736050009727478,5.233050346374512,8.551950454711914,0.11838749796152115,0.01966249942779541,0.03904999792575836
-0.6810000538825989,5.182950019836426,8.560050010681152,0.1695374995470047,0.04729999974370003,-0.0004124999977648258
-0.8269500136375427,5.173050403594971,8.337000846862793,0.18438750505447388,0.13241249322891235,-0.022687500342726707
-1.0960500240325928,5.2069501876831055,8.251049995422363,0.17379999160766602,0.10683749616146088,0.0006874999962747097
-0.9469500184059143,5.2069501876831055,8.314949989318848,0.18658749759197235,0.028049999848008156,0.06778749823570251
-0.5710500478744507,5.263950347900391,8.335050582885742,0.22591249644756317,0.028049999848008156,0.11879999935626984
-0.4519500136375427,5.356950283050537,8.184000015258789,0.22591249644756317,0.15798750519752502,0.06778749823570251
-0.7870500087738037,5.377050399780273,7.954050540924072,0.15674999356269836,0.23567499220371246,-0.03341250121593475
-1.218000054359436,5.323950290679932,7.855950355529785,0.05678749829530716,0.22288750112056732,-0.05362499877810478
-1.1149500608444214,5.317050457000732,7.978050231933594,0.008799999952316284,0.15798750519752502,0.030524998903274536
-0.7699500322341919,5.404950141906738,8.236050605773926,0.030112499371170998,0.11646249890327454,0.09322500228881836
-0.625950038433075,5.424000263214111,8.257950782775879,0.089649997651577,0.19304999709129333,0.04331250116229057
-0.7960500121116638,5.491950035095215,8.133000373840332,0.1344749927520752,0.27719998359680176,-0.025987500324845314
-1.1359500885009766,5.439000129699707,7.999050617218018,0.1354375034570694,0.28462499380111694,-0.05252499878406525
-1.396950125694275,5.269050121307373,7.609050273895264,0.10353749990463257,0.27719998359680176,-0.00989999994635582
-1.5670500993728638,5.250000476837158,6.490950107574463,-0.009212499484419823,0.455949991941452,0.06984999775886536
-1.227000117301941,5.413050174713135,7.011000156402588,-0.29122498631477356,-0.13144999742507935,0.12622499465942383
-0.6570000052452087,5.740950107574463,8.710050582885742,-0.4380750060081482,-0.4338124990463257,0.024062499403953552
-0.5929500460624695,5.640000343322754,9.103050231933594,-0.37111249566078186,-0.09955000132322311,-0.08868750184774399
-1.0170000791549683,5.187000274658203,8.926050186157227,-0.2615250051021576,0.13983750343322754,-0.10889999568462372
-1.1869500875473022,4.986000061035156,8.473050117492676,-0.13378749787807465,0.25478750467300415,-0.01209999993443489
-1.201050043106079,4.888050079345703,8.145000457763672,-0.023099999874830246,0.28888750076293945,0.07204999774694443
-1.5169501304626465,5.094000339508057,8.107049942016602,0.02694999985396862,0.16321249306201935,0.06668750196695328
-1.3999500274658203,5.239950180053711,8.20995044708252,0.0056374999694526196,-0.015537500381469727,0.04221250116825104
-0.8749500513076782,5.448000431060791,8.539950370788574,-0.03162499889731407,0.01746249943971634,0.05926249921321869
-0.6379500031471252,5.5489501953125,8.992950439453125,-0.017737500369548798,0.14300000667572021,0.0411125011742115
-0.973050057888031,5.47005033493042,9.196050643920898,0.07479999959468842,0.33880001306533813,-0.0004124999977648258
-1.4160000085830688,5.00100040435791,8.890050888061523,0.2110625058412552,0.5581125020980835,-0.010999999940395355
-1.8160500526428223,4.804050445556641,8.148000717163086,0.32381248474121094,0.62933748960495,0.04853750020265579
-1.864050030708313,4.950000286102295,7.456050395965576,0.33550000190734863,0.4846875071525574,0.1443749964237213
-1.8430501222610474,5.341050148010254,7.000950336456299,0.23333749175071716,0.2983750104904175,0.21037499606609344
-1.5310500860214233,5.629950046539307,7.0819501876831055,0.06737499684095383,0.09308750182390213,0.18479999899864197
-1.3489500284194946,5.689950466156006,7.579950332641602,-0.0752125009894371,-0.02186249941587448,0.08153750002384186
-1.4310001134872437,5.575050354003906,7.990050315856934,-0.1284250020980835,-0.05912499874830246,0.01347499992698431
-1.4239500761032104,5.500950336456299,8.200050354003906,-0.09652499854564667,-0.06558749824762344,0.024062499403953552
-1.3590000867843628,5.48205041885376,8.260050773620605,-0.040150001645088196,-0.05706249922513962,0.03904999792575836
-1.4190000295639038,5.4720001220703125,8.157000541687012,-0.014574999921023846,-0.014437500387430191,0.05073750019073486
-1.300950050354004,5.467950344085693,7.999050617218018,-0.02199999988079071,0.025987500324845314,0.04001250118017197
-1.2250500917434692,5.499000072479248,8.035050392150879,-0.05389999970793724,0.048262499272823334,-0.01209999993443489
-1.4209500551223755,5.391000270843506,7.99500036239624,-0.08167500048875809,0.060087498277425766,-0.055687498301267624
-1.6320000886917114,5.298000335693359,8.028000831604004,-0.07741250097751617,0.037675000727176666,-0.04936249926686287
-1.7010000944137573,5.269050121307373,8.041950225830078,-0.06888750195503235,0.0004124999977648258,-0.018424998968839645
-1.5480000972747803,5.356950283050537,8.095050811767578,-0.05926249921321869,-0.04963750019669533,0.01347499992698431
-1.3999500274658203,5.443950176239014,8.289000511169434,-0.062424998730421066,-0.04633750021457672,0.0017874999903142452
-1.4449501037597656,5.407950401306152,8.277000427246094,-0.05609999969601631,0.0035749999806284904,-0.01952499896287918
-1.4929500818252563,5.377050399780273,8.22195053100586,-0.03162499889731407,0.0035749999806284904,-0.022687500342726707
-1.440000057220459,5.44605016708374,8.313000679016113,0.008799999952316284,-0.037812501192092896,-0.008937500417232513
-1.218000054359436,5.611050128936768,8.584050178527832,0.06517499685287476,-0.09102500230073929,0.002749999985098839
-0.8659500479698181,5.752950191497803,9.145950317382812,0.11412499845027924,-0.11659999936819077,-0.07493750005960464
-1.5070500373840332,5.3359503746032715,9.424050331115723,0.11522500216960907,-0.13158750534057617,-0.30153748393058777
-3.205050230026245,4.861950397491455,9.201000213623047,0.03437500074505806,-0.14959999918937683,-0.4643374979496002
-4.074000358581543,4.903050422668457,9.63705062866211,-0.12306249886751175,-0.3251875042915344,-0.2759625017642975
-2.5819501876831055,5.008050441741943,9.979050636291504,-0.052937500178813934,-0.19112500548362732,0.23375000059604645
-0.48705002665519714,5.4150004386901855,8.979000091552734,0.23663750290870667,0.28984999656677246,0.48496249318122864
0.4020000100135803,5.793000221252441,7.135050296783447,0.5058624744415283,0.5102624893188477,0.32958748936653137
-0.05595000088214874,5.491950035095215,5.803950309753418,0.6250749826431274,0.37716248631477356,-0.010999999940395355
-0.6720000505447388,4.773000240325928,5.241000175476074,0.5887749791145325,0.20157499611377716,-0.21848750114440918
-0.9619500637054443,4.335000038146973,5.038050174713135,0.4526500105857849,0.18988749384880066,-0.16431249678134918
-1.2580500841140747,4.4239501953125,4.975050449371338,0.3057999908924103,0.17710000276565552,0.00494999997317791
-1.3210500478744507,5.070000171661377,5.5600504875183105,0.19607499241828918,0.01746249943971634,0.17847499251365662
-0.9900000691413879,5.784000396728516,6.553050518035889,0.12484999746084213,-0.0943249985575676,0.26358750462532043
-0.8629500269889832,6.319950103759766,7.360050201416016,0.029012499377131462,-0.12086249887943268,0.1825999915599823
-1.4359500408172607,8.5420503616333,8.362950325012207,-0.27953749895095825,-0.3815625011920929,-0.10037499666213989
-2.5320000648498535,8.817000389099121,11.49000072479248,-1.0287749767303467,-0.7264124751091003,-0.5143874883651733
-1.735050082206726,5.326050281524658,13.06605052947998,-1.0287749767303467,0.44632500410079956,-0.38458749651908875
-2.0490000247955322,3.7480502128601074,11.088000297546387,-0.32958748936653137,1.2988250255584717,-0.055687498301267624
-2.725950241088867,3.925950288772583,8.706000328063965,0.3727625012397766,1.6511000394821167,0.37207499146461487
-2.4679501056671143,4.483950138092041,6.9940505027771,0.8357250094413757,1.4616249799728394,0.7616124749183655
-1.3300501108169556,5.647050380706787,5.350950241088867,0.8368250131607056,0.952875018119812,0.6870874762535095
-1.7640000581741333,6.670050144195557,5.3680500984191895,0.2919124960899353,0.47616249322891235,0.2274249941110611
-2.436000108718872,6.175950527191162,6.7420501708984375,-0.3796375095844269,0.730537474155426,-0.1685750037431717
-3.138000249862671,5.665950298309326,8.260050773620605,-0.720087468624115,1.239150047302246,-0.19304999709129333
-3.0520501136779785,5.518050193786621,9.223050117492676,-0.5275874733924866,1.463687539100647,0.07727500051259995
-2.91795015335083,5.365050315856934,8.683950424194336,0.0471624992787838,1.2317249774932861,0.20611250400543213
-3.175950050354004,5.629950046539307,7.228050231933594,0.39943748712539673,0.9274374842643738,0.21986250579357147
-2.8939502239227295,5.676000118255615,6.442950248718262,0.3110249936580658,0.8464499711990356,0.3114374876022339
-2.7360000610351562,6.090000152587891,6.520050525665283,0.03753750026226044,0.8964999914169312,0.26785001158714294
-2.8339500427246094,6.195000171661377,6.867000102996826,-0.13695000112056732,0.9784500002861023,0.05926249921321869
-3.4009501934051514,5.797950267791748,6.936000347137451,-0.11041250079870224,0.8677625060081482,-0.13227500021457672
-3.7579500675201416,5.407950401306152,6.939000129699707,-0.03368749842047691,0.6304374933242798,-0.1461624950170517
-4.026000022888184,5.104050159454346,7.261950492858887,-0.06888750195503235,0.6432250142097473,-0.06104999780654907
-4.33305025100708,5.431950092315674,7.578000545501709,-0.147537499666214,1.0327625274658203,0.03258749842643738
-3.934950113296509,5.5849504470825195,6.86400032043457,-0.09019999951124191,1.1881375312805176,0.08470000326633453
-4.147950172424316,5.869950294494629,4.815000057220459,-0.01993750035762787,0.8124874830245972,0.07204999774694443
-4.324950218200684,5.95395040512085,4.975050449371338,-0.052937500178813934,-0.24433749914169312,0.018837500363588333
-3.9810001850128174,5.677950382232666,6.442950248718262,-0.25189998745918274,-0.2708750069141388,0.016637500375509262
-4.3470001220703125,5.773950099945068,6.193950176239014,-0.2199999988079071,-0.35708749294281006,-0.0929500013589859
-4.378050327301025,6.013050079345703,5.725050449371338,-0.12209999561309814,-1.026437520980835,-0.059950001537799835
-3.556950092315674,5.836050510406494,5.65500020980835,-0.028462499380111694,-1.8427749872207642,-0.11426249891519547
-2.797950029373169,5.2260003089904785,5.658000469207764,0.016224998980760574,-2.494112491607666,-0.2909500002861023
-2.6610000133514404,5.07705020904541,6.253950119018555,-0.10711249709129333,-2.845287561416626,-0.4175874888896942
-2.428950071334839,5.334000110626221,7.695000171661377,-0.19648750126361847,-3.123037576675415,-0.41538751125335693
-1.6920000314712524,5.344950199127197,8.72700023651123,-0.147537499666214,-2.846250057220459,-0.45058751106262207
-1.4119501113891602,5.407950401306152,9.103050231933594,-0.19552500545978546,-2.4716999530792236,-0.4292750060558319
-1.1220000982284546,5.343000411987305,9.180000305175781,-0.3955875039100647,-1.5702500343322754,-0.26317501068115234
-0.7480500340461731,5.1060004234313965,9.490950584411621,-0.5754374861717224,-0.8828874826431274,-0.0695749968290329
-0.8590500354766846,5.233050346374512,9.76395034790039,-0.6158624887466431,-0.5944125056266785,-0.02694999985396862
-0.8440500497817993,5.218950271606445,9.529050827026367,-0.5435374975204468,-0.2741749882698059,0.01347499992698431
-0.7150500416755676,5.19195032119751,9.153000831604004,-0.415800005197525,-0.01979999989271164,0.05596249923110008
-1.1149500608444214,5.11305046081543,8.81100082397461,-0.28696250915527344,0.04729999974370003,0.01979999989271164
-1.5619500875473022,4.918950080871582,8.72504997253418,-0.17531250417232513,-0.005912499967962503,-0.07273750007152557
-1.5889500379562378,4.813950061798096,9.003000259399414,-0.09116250276565552,-0.12292499840259552,-0.1046374961733818
-1.3060500621795654,4.891050338745117,9.28695011138916,0.021587500348687172,-0.1942874938249588,-0.020624998956918716
-0.9570000171661377,4.966950416564941,9.213000297546387,0.1886499971151352,-0.1676124930381775,0.06668750196695328
-0.9810000658035278,4.929000377655029,8.914050102233887,0.3345375061035156,-0.07081250101327896,0.03684999793767929
-1.0720500946044922,4.873950004577637,8.506950378417969,0.3675374984741211,0.062150001525878906,-0.06531249731779099
-1.0380001068115234,5.11305046081543,8.365950584411621,0.3110249936580658,0.1611499935388565,-0.13337500393390656
-1.075950026512146,5.131950378417969,8.136000633239746,0.227012500166893,0.21546250581741333,-0.16101250052452087
-1.287000060081482,4.929000377655029,7.891950607299805,0.14506250619888306,0.24529999494552612,-0.14506250619888306
-1.651050090789795,4.831050395965576,7.837050437927246,0.06421250104904175,0.1676124930381775,-0.09611249715089798
-1.6819500923156738,4.740000247955322,7.798050403594971,0.020487500354647636,0.043037500232458115,-0.031212499365210533
-1.443000078201294,4.720950126647949,7.9009504318237305,-0.0006874999962747097,0.03671250119805336,0.015537500381469727
-1.2420001029968262,4.8349504470825195,8.032950401306152,-0.018837500363588333,0.10587500035762787,0.010312499478459358
-1.1530500650405884,4.89300012588501,7.990050315856934,-0.05816249921917915,0.22921249270439148,-0.05252499878406525
-1.5360000133514404,4.888050079345703,7.803000450134277,-0.1326874941587448,0.37290000915527344,-0.12388750165700912
-1.9620001316070557,4.776000022888184,7.755000591278076,-0.2040500044822693,0.2974124848842621,-0.10573749989271164
-1.9120501279830933,4.776000022888184,7.786050319671631,-0.23278750479221344,0.16967499256134033,-0.0004124999977648258
-1.5460500717163086,4.953000068664551,8.100000381469727,-0.2125750035047531,0.07809999585151672,0.09968750178813934
-1.4239500761032104,5.049000263214111,8.305950164794922,-0.14657500386238098,0.2952125072479248,0.11027500033378601
-1.555050015449524,4.777950286865234,9.043050765991211,-0.047575000673532486,-0.09418749809265137,0.0038499999791383743
-1.6819500923156738,4.828050136566162,9.043050765991211,0.05348749831318855,-0.11550000309944153,-0.13653749227523804
-1.7779500484466553,4.6180500984191895,7.780950546264648,0.09817499667406082,0.30799999833106995,-0.08236250281333923
-2.3050501346588135,4.468950271606445,7.164000511169434,0.008799999952316284,0.06641250103712082,0.03684999793767929
-2.2759501934051514,5.107950210571289,7.762050151824951,-0.11879999935626984,-0.5688375234603882,0.16568750143051147
-1.440000057220459,5.20395040512085,9.153000831604004,-0.16568750143051147,-0.8009374737739563,0.20391249656677246
-0.7270500063896179,4.797000408172607,9.667950630187988,-0.07095000147819519,-0.5422999858856201,0.10395000129938126
-0.8800500631332397,4.597949981689453,9.199050903320312,0.028049999848008156,0.14630000293254852,-0.03657500073313713
-1.7640000581741333,4.861950397491455,8.65095043182373,0.03437500074505806,0.3793624937534332,-0.03341250121593475
-1.977000117301941,5.295000076293945,8.377950668334961,0.015262499451637268,0.12498749792575836,0.10821250081062317
-1.4239500761032104,5.487000465393066,8.617050170898438,0.01952499896287918,-0.13144999742507935,0.20074999332427979
-0.6240000128746033,5.350050449371338,8.78700065612793,0.06201250106096268,-0.16664999723434448,0.13901250064373016
-0.6450000405311584,5.278050422668457,8.72700023651123,0.0929500013589859,-0.028187500312924385,-0.002474999986588955
-1.2079501152038574,5.209050178527832,8.581050872802734,0.08552499860525131,0.06544999778270721,-0.10573749989271164
-1.5100500583648682,5.2069501876831055,8.497050285339355,0.05252499878406525,0.010037500411272049,-0.09941250085830688
-1.3780500888824463,5.293050289154053,8.634000778198242,0.03231250122189522,-0.03671250119805336,-0.03657500073313713
-0.8389500379562378,5.317050457000732,8.551950454711914,-0.014574999921023846,0.13887499272823334,-0.07809999585151672
-0.8059500455856323,5.190000057220459,8.107049942016602,-0.15716250240802765,0.4357374906539917,-0.2961750030517578
-1.327950119972229,5.06505012512207,7.635000228881836,-0.35612499713897705,0.49004998803138733,-0.5271750092506409
-1.5940500497817993,4.795050144195557,7.378950119018555,-0.5402374863624573,0.4963749945163727,-0.6654999852180481
-1.6200001239776611,4.6369500160217285,7.063050270080566,-0.7243499755859375,0.5378999710083008,-0.7825124859809875
-1.6300500631332397,4.642050266265869,6.649050235748291,-0.9372000098228455,0.6039000153541565,-0.9378874897956848
-1.9290001392364502,4.438050270080566,6.097950458526611,-1.1617374420166016,0.4538874924182892,-1.1347874402999878
-1.9960501194000244,3.7600502967834473,5.670000076293945,-1.4150124788284302,0.16335000097751617,-1.3710124492645264
-2.2450501918792725,2.470050096511841,5.4210004806518555,-1.7672874927520752,-0.15070000290870667,-1.597749948501587
-3.6289501190185547,1.384950041770935,5.904000282287598,-2.216362476348877,-0.4188250005245209,-1.4412750005722046
-4.3470001220703125,0.9709500670433044,7.887000560760498,-2.382462501525879,-1.102062463760376,-0.8507124781608582
-3.676950216293335,2.998950242996216,11.667000770568848,-1.8471750020980835,-2.2236499786376953,-0.09941250085830688
-0.853950023651123,4.369050025939941,14.737051010131836,-0.45086249709129333,-2.369537591934204,0.11247500032186508
2.2480502128601074,0.24795001745224,14.268000602722168,0.8601999878883362,-1.3946624994277954,-0.25052499771118164
0.5959500074386597,1.2679500579833984,15.076951026916504,1.8999749422073364,-0.8061624765396118,-0.7537750005722046
-2.914950132369995,2.0050501823425293,13.003050804138184,1.6956499814987183,-1.3468124866485596,-0.647350013256073
-2.1630001068115234,2.6760001182556152,11.794050216674805,1.5349124670028687,-0.8274750113487244,0.20611250400543213
-0.4159500300884247,2.617950201034546,10.36305046081543,1.4423749446868896,-0.07507500052452087,0.37523749470710754
-0.1399500072002411,3.367950201034546,8.847000122070312,1.3454375267028809,0.39311251044273376,0.22206249833106995
-0.9970500469207764,3.43500018119812,7.303050518035889,1.288100004196167,0.877387523651123,0.2400749921798706
-1.2340500354766846,3.5689501762390137,7.225950241088867,1.2912625074386597,1.0604000091552734,0.45196250081062317
-1.1820000410079956,4.342050075531006,7.62600040435791,1.4902249574661255,0.3324750065803528,0.699874997138977
-0.043950002640485764,5.254050254821777,6.723000526428223,1.547700047492981,-0.043175000697374344,0.699874997138977
-0.35295000672340393,5.343000411987305,6.01200008392334,0.7537750005722046,-0.37193748354911804,-0.13337500393390656
-1.7830500602722168,4.957950115203857,8.4660005569458,-0.08483749628067017,-0.34966251254081726,-0.17173749208450317
-1.2750000953674316,5.008050441741943,10.1850004196167,-0.010312499478459358,-0.4017750024795532,0.24227499961853027
-0.48705002665519714,5.029050350189209,10.159050941467285,0.41538751125335693,-0.41346248984336853,0.34759998321533203
-0.04905000329017639,4.768050193786621,8.995050430297852,0.7591375112533569,-0.1069749966263771,0.13901250064373016
-0.4159500300884247,4.723050117492676,7.578000545501709,0.7932375073432922,0.08662500232458115,-0.021724998950958252
-0.8269500136375427,5.058000087738037,7.219050407409668,0.6176499724388123,0.035612501204013824,-0.023787500336766243
-0.9040500521659851,5.118000030517578,7.437000274658203,0.4355999827384949,-0.09212499856948853,0.007012499962002039
-0.7579500079154968,5.032050132751465,7.834050178527832,0.303600013256073,-0.1303499937057495,-0.0013749999925494194
-0.8779500126838684,4.800000190734863,7.783950328826904,0.21738749742507935,-0.020762499421834946,-0.04193750023841858
-1.158000111579895,4.603050231933594,7.486950397491455,0.11852499842643738,0.11329999566078186,-0.05678749829530716
-1.1890500783920288,4.776000022888184,7.585050582885742,-0.012374999932944775,0.10587500035762787,-0.007837500423192978
-1.0860000848770142,4.974000453948975,7.959000587463379,-0.13378749787807465,0.08030000329017639,0.0411125011742115
-1.117050051689148,5.161050319671631,8.602950096130371,-0.2316875010728836,0.10477499663829803,0.05706249922513962
-1.3129500150680542,5.175000190734863,9.02595043182373,-0.24227499961853027,0.21656249463558197,0.11027500033378601
-1.4160000085830688,5.194950103759766,9.51300048828125,-0.10078749805688858,0.18246249854564667,0.2050125002861023
-1.0930500030517578,5.344950199127197,9.535950660705566,0.18975000083446503,0.09941250085830688,0.29438748955726624
-0.5659500360488892,5.496000289916992,8.974050521850586,0.4419249892234802,0.15578749775886536,0.3040125072002411
-0.27195000648498535,5.761950492858887,8.335050582885742,0.5164499878883362,0.22288750112056732,0.24543750286102295
-0.37995001673698425,5.767050266265869,7.762050151824951,0.4760249853134155,0.27293750643730164,0.1751749962568283
-0.6409500241279602,5.653950214385986,7.3909502029418945,0.3749625086784363,0.28462499380111694,0.14011250436306
-0.6289500594139099,5.776050090789795,7.3909502029418945,0.2546499967575073,0.24626250565052032,0.13901250064373016
-0.7030500173568726,5.805000305175781,7.6210503578186035,0.15674999356269836,0.202674999833107,0.09006249904632568
-0.9499500393867493,5.725950241088867,7.743000507354736,0.1163249984383583,0.171875,0.07301250100135803
-1.078950047492981,5.829000473022461,7.623000144958496,0.09927500039339066,0.07603749632835388,0.10078749805688858
-0.7680000066757202,5.946000099182129,7.635000228881836,0.03231250122189522,0.007974999956786633,0.1358499974012375
-0.49695003032684326,6.12600040435791,7.819950580596924,-0.06778749823570251,0.002612499985843897,0.14121249318122864
-0.4710000157356262,6.195000171661377,7.837050437927246,-0.21353749930858612,0.17503750324249268,0.13048750162124634
-0.32895001769065857,5.74500036239624,7.942050457000732,-0.40933749079704285,0.35694998502731323,0.04427500069141388
-0.364950031042099,5.764050483703613,8.059050559997559,-0.5743374824523926,0.5517874956130981,-0.196212500333786
-0.9040500521659851,5.3359503746032715,7.645050525665283,-0.7478625178337097,0.7624375224113464,-0.48138749599456787
-1.3780500888824463,5.110950469970703,7.470000267028809,-0.8361374735832214,0.805062472820282,-0.5164499878883362
-0.3730500042438507,5.731050491333008,7.54395055770874,-0.6424000263214111,0.11866249889135361,-0.5143874883651733
0.6700500249862671,5.092050075531006,8.2339506149292,-0.3817000091075897,-0.5805249810218811,-0.8666625022888184
-0.6570000052452087,4.60605001449585,9.259050369262695,-0.3114374876022339,-0.18150000274181366,-1.1401499509811401
-1.990950107574463,3.8490002155303955,9.24000072479248,-0.2593249976634979,1.0848749876022339,-0.9124500155448914
-3.5209500789642334,4.570050239562988,8.23905086517334,-0.014574999921023846,1.3030874729156494,-0.5473874807357788
-3.7890002727508545,4.657950401306152,7.444050312042236,0.3195500075817108,0.6113250255584717,-0.1621125042438507
-3.7680001258850098,4.657950401306152,8.45895004272461,0.48028749227523804,-0.18576249480247498,0.08153750002384186
-3.1210501194000244,4.375950336456299,9.690000534057617,0.49197500944137573,0.013199999928474426,0.26881250739097595
-2.6610000133514404,4.966950416564941,9.658950805664062,0.4452250003814697,0.8540124893188477,0.45938751101493835
-2.4340500831604004,5.602050304412842,8.641050338745117,0.4100250005722046,1.2467124462127686,0.5370749831199646
-2.6569502353668213,5.664000034332275,7.389000415802002,0.3760625123977661,0.9624999761581421,0.47850000858306885
-2.3809502124786377,5.4720001220703125,6.466950416564941,0.06311249732971191,0.7592750191688538,0.4881249964237213
-2.416950225830078,5.283000469207764,6.631950378417969,-0.3114374876022339,0.7071624994277954,0.2815999984741211
-2.7430500984191895,5.1160502433776855,7.6020002365112305,-0.454025000333786,0.553849995136261,0.15289999544620514
-2.7619500160217285,4.852050304412842,8.116950035095215,-0.2274249941110611,0.2686749994754791,0.09116250276565552
-3.6000001430511475,2.2540500164031982,7.813050270080566,-0.3913249969482422,0.8912749886512756,0.3592875003814697
-4.6459503173828125,5.9659504890441895,7.846050262451172,-0.6158624887466431,0.9624999761581421,1.2414875030517578
-2.4649500846862793,5.214000225067139,7.79295015335083,-0.476437509059906,1.1169124841690063,1.5692875385284424
-2.182950019836426,5.776050090789795,7.659000396728516,-0.06984999775886536,0.432574987411499,1.2138500213623047
-2.2210500240325928,6.355950355529785,7.306950569152832,0.3377000093460083,-0.01223750039935112,0.681725025177002
-2.1040501594543457,5.884050369262695,7.0849504470825195,0.4589749872684479,-0.4390375018119812,0.24433749914169312
-2.218950033187866,5.47005033493042,7.2360005378723145,0.31542500853538513,-0.42625001072883606,0.07837499678134918
-2.3050501346588135,5.307000160217285,7.113000392913818,0.0812624990940094,-0.07081250101327896,0.09858749806880951
-2.170950174331665,5.4720001220703125,6.841050148010254,-0.11137499660253525,0.0728750005364418,0.16664999723434448
-2.1439499855041504,5.57295036315918,6.7420501708984375,-0.21037499606609344,-0.011274999938905239,0.1742125004529953
-2.2710001468658447,6.388950347900391,7.341000556945801,-0.2283875048160553,-0.4092000126838684,0.12416250258684158
-1.6320000886917114,6.484950542449951,8.554950714111328,-0.22948749363422394,-0.813587486743927,0.03258749842643738
-1.3300501108169556,5.788050174713135,9.28695011138916,-0.1625249981880188,-0.5124624967575073,-0.1845249980688095
-1.9579501152038574,5.343000411987305,8.800950050354004,-0.05816249921917915,0.045237500220537186,-0.3100624978542328
-2.5819501876831055,5.424000263214111,7.944000244140625,0.025849999859929085,0.15908749401569366,-0.17916250228881836
-2.6640000343322754,5.401050090789795,7.62600040435791,0.10779999941587448,-0.2527250051498413,-0.02914999984204769
-2.311950206756592,5.298000335693359,7.746000289916992,0.17916250228881836,-0.4890874922275543,-0.06641250103712082
-2.190000057220459,5.298000335693359,7.947000503540039,0.1313125044107437,-0.45608749985694885,-0.1802625060081482
-2.4910500049591064,5.391000270843506,8.143050193786621,-0.05816249921917915,-0.29961249232292175,-0.19827499985694885
-2.6520001888275146,5.431950092315674,8.358000755310059,-0.25712499022483826,-0.08470000326633453,-0.03657500073313713
-2.149049997329712,5.3620500564575195,8.143050193786621,-0.23691250383853912,-0.08676250278949738,0.10395000129938126
-2.3310000896453857,5.829000473022461,8.164950370788574,-0.07837499678134918,-0.4071374833583832,0.13695000112056732
-1.5600000619888306,5.578050136566162,8.157000541687012,0.01952499896287918,-0.3581874966621399,-0.006737499963492155
-1.596000075340271,5.050950050354004,8.038050651550293,0.059950001537799835,-0.2985124886035919,-0.18342499434947968
-2.139000177383423,4.801950454711914,7.8100504875183105,0.013062499463558197,-0.2410375028848648,-0.2303124964237213
-2.281050205230713,4.6870503425598145,7.537050247192383,-0.054999999701976776,-0.16664999723434448,-0.15358750522136688
-2.1349501609802246,4.450050354003906,6.95805025100708,-0.10711249709129333,-0.16981250047683716,-0.03231250122189522
-2.0149500370025635,4.582050323486328,6.610950469970703,-0.12622499465942383,-0.3081375062465668,0.09652499854564667
-1.9380000829696655,4.6870503425598145,6.615000247955322,-0.08799999952316284,-0.515625,0.15399999916553497
-1.7880001068115234,4.809000015258789,7.140000343322754,-0.03368749842047691,-0.775362491607666,0.15496249496936798
-1.5220500230789185,5.833950042724609,8.896950721740723,-0.008112499490380287,-0.9552124738693237,0.15606249868869781
-1.3180500268936157,6.816000461578369,10.711950302124023,-0.11563749611377716,-0.8690000176429749,0.11879999935626984
-0.8899500370025635,6.198000431060791,10.779000282287598,-0.11247500032186508,-0.28476250171661377,0.14863750338554382
-1.0380001068115234,5.1160502433776855,9.390000343322754,0.05362499877810478,0.32725000381469727,0.20391249656677246
-1.1989500522613525,4.708950042724609,8.062050819396973,0.29301249980926514,0.46873748302459717,0.2901250123977661
-1.1100000143051147,4.912050247192383,7.096950531005859,0.4441249966621399,0.3324750065803528,0.3455374836921692
-1.002000093460083,5.413050174713135,6.781050205230713,0.38458749651908875,0.12718750536441803,0.2997500002384186
-1.1149500608444214,5.845950126647949,6.988950252532959,0.10257499665021896,-0.050599999725818634,0.133650004863739
-1.1890500783920288,5.8909502029418945,7.6110005378723145,-0.24117499589920044,-0.11976250261068344,-0.023787500336766243
-1.2340500354766846,5.611050128936768,8.332050323486328,-0.4562250077724457,-0.10917499661445618,-0.08016250282526016
-1.3450500965118408,5.235000133514404,8.659950256347656,-0.43601250648498535,-0.0037124999798834324,-0.037675000727176666
-1.29705011844635,5.086950302124023,8.71500015258789,-0.25286251306533813,0.022824998944997787,0.05596249923110008
-1.1430000066757202,5.17995023727417,8.563950538635254,-0.040150001645088196,0.043037500232458115,0.170912504196167
-1.057050108909607,5.4150004386901855,8.47095012664795,0.09927500039339066,0.02928750030696392,0.1825999915599823
-1.0930500030517578,5.464950084686279,8.2339506149292,0.14396250247955322,0.0494999997317791,0.05816249921917915
-1.2679500579833984,5.398050308227539,8.133000373840332,0.1046374961733818,0.03341250121593475,-0.05884999781847
-1.5070500373840332,5.26200008392334,8.160000801086426,0.030112499371170998,0.03135000169277191,-0.057887498289346695
-1.4160000085830688,5.26200008392334,8.394000053405762,-0.0038499999791383743,0.0387750007212162,0.018837500363588333
-1.2850500345230103,5.263950347900391,8.248050689697266,0.016362499445676804,0.12388750165700912,0.06984999775886536
-1.300950050354004,5.271000385284424,7.9830002784729,0.06201250106096268,0.12182500213384628,0.08470000326633453
-1.0720500946044922,5.355000019073486,7.927950382232666,0.09611249715089798,0.045237500220537186,0.060224998742341995
-0.9760500192642212,5.580000400543213,8.113950729370117,0.08868750184774399,-0.09212499856948853,0.0006874999962747097
-0.934950053691864,5.620950222015381,8.251049995422363,0.048262499272823334,-0.11123749613761902,-0.06531249731779099
-1.371000051498413,5.436000347137451,7.999050617218018,0.002474999986588955,0.0005499999970197678,-0.10353749990463257
-1.7370001077651978,5.170950412750244,7.558950424194336,-0.05926249921321869,0.07067500054836273,-0.0695749968290329
-1.4359500408172607,5.257050037384033,7.579950332641602,-0.13901250064373016,-0.013337500393390656,0.023099999874830246
-0.8250000476837158,5.664000034332275,8.278950691223145,-0.21889999508857727,-0.20061250030994415,0.10711249709129333
-0.6049500107765198,5.728950500488281,8.976000785827637,-0.2433750033378601,-0.13997499644756317,0.06984999775886536
-1.01895010471344,5.266050338745117,8.884950637817383,-0.17627499997615814,0.2293500006198883,-0.08332499861717224
-1.7440500259399414,5.134950160980225,8.368050575256348,-0.08689999580383301,0.3559874892234802,-0.14409999549388885
-1.88100004196167,5.2860002517700195,8.244000434875488,-0.009212499484419823,0.18782499432563782,-0.020624998956918716
-1.4359500408172607,5.431950092315674,8.397000312805176,0.05362499877810478,-0.026124998927116394,0.11453749984502792
-1.1050500869750977,5.199000358581543,8.121000289916992,0.12484999746084213,0.011137500405311584,0.0943249985575676
-1.2460500001907349,4.861950397491455,7.470000267028809,0.15152500569820404,0.13144999742507935,-0.031212499365210533
-1.636950135231018,4.4760003089904785,6.69195032119751,0.09611249715089798,0.14630000293254852,-0.07699999958276749
-1.9500000476837158,4.359000205993652,6.1870503425598145,-0.03258749842643738,0.07493750005960464,0.009212499484419823
-2.0080502033233643,4.527000427246094,6.474000453948975,-0.1933249980211258,-0.15592500567436218,0.14327499270439148
-1.8349500894546509,5.070000171661377,7.128000259399414,-0.31790000200271606,-0.38266250491142273,0.2209624946117401
-1.6180500984191895,6.154950141906738,8.614950180053711,-0.5072374939918518,-0.7008374929428101,0.23691250383853912
-0.7720500230789185,5.809950351715088,9.76395034790039,-0.7786625027656555,-0.7199500203132629,0.18906250596046448
-0.07605000585317612,5.002950191497803,10.087050437927246,-0.8786249756813049,-0.2857249975204468,0.16568750143051147
0.08895000070333481,4.522050380706787,9.78795051574707,-0.7562500238418579,0.1153625026345253,0.10175000131130219
-0.05205000191926956,4.507050037384033,9.151050567626953,-0.48276248574256897,0.3984749913215637,0.07631249725818634
-0.5140500068664551,4.921950340270996,8.928000450134277,-0.16775000095367432,0.4591124951839447,0.07837499678134918
-0.8730000257492065,4.88100004196167,8.938050270080566,0.08236250281333923,0.3282124996185303,0.04331250116229057
-1.0429500341415405,4.708950042724609,9.160950660705566,0.23663750290870667,0.2441999912261963,-0.01746249943971634
-0.9900000691413879,4.723050117492676,9.366000175476074,0.3334375023841858,0.31872498989105225,-0.05458749830722809
-1.333050012588501,4.849950313568115,9.04800033569336,0.39201250672340393,0.5219500064849854,-0.05252499878406525
-1.8979500532150269,4.837950229644775,8.077950477600098,0.3493874967098236,0.5208500027656555,-0.050324998795986176
-2.182950019836426,4.777950286865234,7.546950340270996,0.2227499932050705,0.36451250314712524,-0.016362499445676804
-1.902000069618225,4.564949989318848,7.674000263214111,0.10779999941587448,0.255887508392334,0.060224998742341995
-1.4520000219345093,4.797000408172607,8.107049942016602,0.013062499463558197,0.24310000240802765,0.09226249903440475
-1.5100500583648682,4.972050189971924,8.572050094604492,-0.07095000147819519,0.36121249198913574,0.035750001668930054
-1.7560501098632812,5.025000095367432,8.677050590515137,-0.11563749611377716,0.5581125020980835,0.017737500369548798
-2.001000165939331,5.041050434112549,8.521050453186035,-0.09748750180006027,0.6422625184059143,0.07301250100135803
-1.9429501295089722,4.974000453948975,8.269950866699219,-0.030524998903274536,0.5410624742507935,0.116737499833107
-1.7800500392913818,4.900050163269043,7.963050365447998,0.04179999977350235,0.4049375057220459,0.09858749806880951
-1.7880001068115234,4.7470502853393555,7.82205057144165,0.02488750033080578,0.3484250009059906,0.0644875019788742
-2.1510000228881836,4.8259501457214355,8.160000801086426,-0.13695000112056732,0.5208500027656555,0.062424998730421066
-2.26200008392334,4.938000202178955,8.542950630187988,-0.24447499215602875,0.7092249989509583,0.09968750178813934
-2.3050501346588135,4.941000461578369,8.63895034790039,-0.16775000095367432,0.6975374817848206,0.10284999758005142
-2.359950065612793,4.948050022125244,8.301000595092773,-0.011412499472498894,0.5783249735832214,0.07947500050067902
-2.389050006866455,4.764000415802002,7.999050617218018,0.03657500073313713,0.478362500667572,0.0644875019788742
-2.4940500259399414,4.6459503173828125,8.006999969482422,-0.02736249938607216,0.5655375123023987,0.08153750002384186
-2.580000162124634,4.693950176239014,8.092950820922852,-0.12099999934434891,0.7561125159263611,0.11027500033378601
-2.5849502086639404,4.8070502281188965,8.041950225830078,-0.1933249980211258,0.9370625019073486,0.11769999563694
-2.4600000381469727,4.978950023651123,7.753050327301025,-0.20817500352859497,0.926337480545044,0.09652499854564667
-2.889000177383423,5.254050254821777,7.000950336456299,-0.07727500051259995,0.3324750065803528,0.01979999989271164
-2.937000036239624,5.092050075531006,7.456050395965576,0.013062499463558197,-0.3698749840259552,-0.09088750183582306
-2.9610002040863037,4.783050060272217,7.473000526428223,-0.06132499873638153,-0.4358749985694885,-0.1270499974489212
-3.106950044631958,4.761000156402588,7.939050197601318,-0.12196250259876251,-0.6699000000953674,-0.11852499842643738
-2.4820501804351807,4.621950149536133,8.509050369262695,-0.10711249709129333,-0.6859874725341797,-0.0695749968290329
-2.2210500240325928,4.717950344085693,8.785050392150879,-0.009212499484419823,-0.6285125017166138,-0.05884999781847
-2.1040501594543457,4.720950126647949,8.560050010681152,0.12484999746084213,-0.5890499949455261,-0.10999999940395355
-2.080049991607666,4.7059502601623535,8.125950813293457,0.17063750326633453,-0.5560500025749207,-0.15895000100135803
-1.8520500659942627,4.7059502601623535,8.059050559997559,0.042899999767541885,-0.3548874855041504,-0.20569999516010284
-2.1949501037597656,4.768050193786621,8.527950286865234,-0.16142499446868896,-0.005912499967962503,-0.2494249939918518
-2.5609500408172607,4.63200044631958,8.932950019836426,-0.19868749380111694,0.2293500006198883,-0.18768750131130219
-2.8510501384735107,4.3969502449035645,9.05505084991455,-0.02736249938607216,0.22288750112056732,-0.06641250103712082
-2.829000234603882,4.462050437927246,8.785050392150879,0.15468749403953552,0.19731250405311584,0.014574999921023846
-2.82705020904541,4.5360002517700195,8.350950241088867,0.1802625060081482,0.3315125107765198,0.026262499392032623
-2.9610002040863037,4.498050212860107,8.074049949645996,0.10889999568462372,0.4314749836921692,0.023099999874830246
-3.085050106048584,4.594050407409668,8.050050735473633,0.05884999781847,0.4283125102519989,0.05596249923110008
-2.908050060272217,4.711050033569336,8.268000602722168,0.05458749830722809,0.4081000089645386,0.12416250258684158
-2.884050130844116,4.639050006866455,8.377950668334961,0.1237500011920929,0.3708375096321106,0.15070000290870667
-2.68500018119812,4.809000015258789,8.064000129699707,0.20363749563694,0.3324750065803528,0.12306249886751175
-2.7499501705169678,4.801950454711914,7.803000450134277,0.17173749208450317,0.3634124994277954,0.10821250081062317
-2.668950080871582,4.954950332641602,7.954050540924072,0.10999999940395355,0.37290000915527344,0.09968750178813934
-2.5660500526428223,5.032050132751465,8.107049942016602,0.10353749990463257,0.4240500032901764,0.052799999713897705
-2.8309500217437744,5.013000011444092,7.884000301361084,0.1280124932527542,0.5113624930381775,-0.0013749999925494194
-3.5689501762390137,4.933950424194336,6.630000114440918,0.1270499974489212,0.3750999867916107,0.0038499999791383743
-3.255000114440918,5.020050048828125,6.526950359344482,0.08016250282526016,-0.25066250562667847,0.05596249923110008
-2.8980002403259277,4.864050388336182,7.386000156402588,-0.09226249903440475,-0.28792500495910645,0.017737500369548798
-3.0490500926971436,5.45805025100708,8.016000747680664,-0.18906250596046448,-0.2410375028848648,-0.05252499878406525
-2.6950502395629883,5.341050148010254,7.992000579833984,-0.0943249985575676,-0.5411999821662903,-0.14836250245571136
-2.9700000286102295,5.16795015335083,7.666950225830078,0.12278749793767929,-1.1126500368118286,-0.2451625019311905
-2.748000144958496,4.783050060272217,7.446000576019287,0.16321249306201935,-1.260599970817566,-0.26963749527931213
-2.3209500312805176,4.394999980926514,7.534950256347656,-0.00494999997317791,-1.0690624713897705,-0.2824249863624573
-1.9000500440597534,4.339950084686279,8.75100040435791,-0.23801249265670776,-0.8285750150680542,-0.28132501244544983
-1.6630500555038452,4.147950172424316,9.75195026397705,-0.36355000734329224,-0.2634499967098236,-0.31212499737739563
-1.752000093460083,4.402050018310547,9.795000076293945,-0.25616249442100525,0.1611499935388565,-0.33660000562667847
-2.515050172805786,4.812000274658203,9.796950340270996,0.02914999984204769,0.4676375091075897,-0.27816250920295715
-2.9200501441955566,4.504950046539307,9.31605052947998,0.31322500109672546,0.693274974822998,-0.14506250619888306
-2.9629502296447754,4.551000118255615,8.368050575256348,0.4345000088214874,0.8102874755859375,0.03148749843239784
-3.028050184249878,5.044050216674805,7.5610504150390625,0.34306249022483826,0.7911750078201294,0.17847499251365662
-2.956050157546997,5.239950180053711,7.398000240325928,0.17916250228881836,0.767799973487854,0.15606249868869781
-3.0799500942230225,4.966950416564941,7.7410502433776855,0.05362499877810478,0.7561125159263611,0.0518375001847744
-3.466050148010254,4.909950256347656,8.101950645446777,-0.02736249938607216,0.9561749696731567,0.03258749842643738
-3.5470502376556396,4.849950313568115,8.064000129699707,-0.0028874999843537807,1.1178749799728394,0.08043749630451202
-3.52305006980896,4.843050003051758,7.843950271606445,0.0705375000834465,1.1540374755859375,0.116737499833107
-3.9160501956939697,4.960050106048584,7.767000198364258,0.09927500039339066,1.062600016593933,0.133650004863739
-3.9060001373291016,4.990950107574463,7.540050506591797,0.12168750166893005,1.009387493133545,0.13474999368190765
-4.1170501708984375,5.199000358581543,7.53000020980835,0.1344749927520752,0.9465500116348267,0.11563749611377716
-4.207950115203857,5.08905029296875,7.260000228881836,0.14726249873638153,1.0008624792099,0.045375000685453415
-4.1770501136779785,5.0530500411987305,6.7759504318237305,0.1313125044107437,0.9849125146865845,0.014574999921023846
-4.282050132751465,4.876049995422363,6.3949503898620605,0.15358750522136688,0.7444249987602234,0.05073750019073486
-4.25100040435791,4.809000015258789,6.213000297546387,0.16747500002384186,0.4218499958515167,0.09968750178813934
-4.122000217437744,4.740000247955322,6.20805025100708,0.12058749794960022,0.26551249623298645,0.14121249318122864
-3.9780001640319824,4.885950088500977,5.317950248718262,0.11522500216960907,-0.0005499999970197678,0.18369999527931213
-3.6720001697540283,5.1060004234313965,5.275050163269043,0.09927500039339066,-0.4433000087738037,0.10078749805688858
-3.7099502086639404,4.972050189971924,5.253000259399414,-0.030524998903274536,-0.515625,0.016637500375509262
-5.025000095367432,6.655050277709961,5.314950466156006,-0.24021250009536743,-1.1605000495910645,-0.07699999958276749
-4.681950092315674,6.234000205993652,7.480050563812256,-0.40411248803138733,-2.3226499557495117,-0.025849999859929085
-2.8750500679016113,4.9360504150390625,9.622950553894043,-0.19868749380111694,-2.546225070953369,-0.03231250122189522
-2.070000171661377,4.633950233459473,9.62700080871582,0.06847500056028366,-1.6543999910354614,-0.20157499611377716
-2.6950502395629883,4.876049995422363,8.480999946594238,0.14822499454021454,-1.0126874446868896,-0.24626250565052032
-3.352950096130371,5.233050346374512,7.666950225830078,0.1280124932527542,-0.9956374764442444,-0.13763749599456787
-3.106950044631958,5.209050178527832,7.171050548553467,0.1237500011920929,-1.2765499353408813,-0.040837500244379044
-2.5440001487731934,5.16795015335083,6.900000095367432,0.1280124932527542,-1.6916625499725342,-0.03341250121593475
-1.960050106048584,4.926000118255615,7.70205020904541,0.013062499463558197,-1.8618874549865723,-0.17379999160766602
-1.5600000619888306,4.723050117492676,8.788949966430664,-0.19222499430179596,-1.2711875438690186,-0.33563750982284546
-1.5150001049041748,4.843050003051758,9.256050109863281,-0.3188624978065491,-0.4538874924182892,-0.30153748393058777
-2.013000011444092,5.287950038909912,9.003000259399414,-0.29768750071525574,-0.14959999918937683,-0.13337500393390656
-2.476950168609619,5.110950469970703,8.587950706481934,-0.20295000076293945,-0.23471249639987946,0.0635249987244606
-2.089050054550171,4.8259501457214355,8.335050582885742,-0.014574999921023846,-0.469837486743927,0.14643749594688416
-1.7710500955581665,4.833000183105469,8.20305061340332,0.1812250018119812,-0.5720000267028809,0.09858749806880951
-1.5600000619888306,4.903050422668457,8.039999961853027,0.31322500109672546,-0.6976749897003174,0.014574999921023846
-1.3399500846862793,5.008050441741943,8.019000053405762,0.33880001306533813,-0.8189499974250793,-0.05252499878406525
-1.287000060081482,5.1060004234313965,8.004000663757324,0.25148749351501465,-0.8625375032424927,-0.10889999568462372
-1.4380500316619873,5.046000003814697,8.095050811767578,0.10037499666213989,-0.8391624689102173,-0.1163249984383583
-1.1119500398635864,5.0370001792907715,8.196000099182129,-0.035887498408555984,-0.7859500050544739,-0.07383749634027481
-0.7960500121116638,4.926000118255615,8.409000396728516,-0.13695000112056732,-0.6635749936103821,-0.05252499878406525
-0.6240000128746033,4.9360504150390625,8.803950309753418,-0.17311249673366547,-0.5634750127792358,-0.037675000727176666
-0.5140500068664551,5.026950359344482,9.096000671386719,-0.13048750162124634,-0.38692501187324524,-0.018424998968839645
-0.492000013589859,5.16795015335083,9.172950744628906,-0.04963750019669533,-0.15166249871253967,-0.013199999928474426
-0.6220500469207764,5.164050102233887,8.968950271606445,0.01952499896287918,-0.015537500381469727,-0.048262499272823334
-1.01895010471344,5.008050441741943,8.619000434875488,0.082225002348423,-0.0016499999910593033,-0.08236250281333923
-1.0740000009536743,4.9960503578186035,8.341950416564941,0.13227500021457672,-0.058024998754262924,-0.04936249926686287
-0.8560500144958496,5.06505012512207,8.13794994354248,0.11522500216960907,-0.1069749966263771,0.007012499962002039
-0.6480000019073486,5.221050262451172,8.253000259399414,0.028049999848008156,-0.07933750003576279,0.00494999997317791
-0.7240500450134277,5.061000347137451,8.442000389099121,-0.06462500244379044,-0.03148749843239784,-0.042899999767541885
-0.909000039100647,4.965000152587891,8.614950180053711,-0.06558749824762344,-0.005912499967962503,-0.030112499371170998
-0.8560500144958496,4.954950332641602,8.646000862121582,0.0056374999694526196,0.04193750023841858,0.052799999713897705
-0.5400000214576721,5.2069501876831055,8.68695068359375,0.07699999958276749,0.0494999997317791,0.09652499854564667
-0.4159500300884247,5.322000026702881,8.560050010681152,0.09927500039339066,0.08346249908208847,0.035750001668930054
-0.6100500226020813,5.178000450134277,8.380050659179688,0.08648750185966492,0.1036750003695488,-0.06311249732971191
-1.0360500812530518,4.9960503578186035,8.241000175476074,0.03973750025033951,0.09735000133514404,-0.08758749812841415
-1.0500000715255737,5.070000171661377,8.505000114440918,-0.007149999961256981,0.06544999778270721,-0.010999999940395355
-0.7290000319480896,5.1469502449035645,8.77695083618164,-0.01347499992698431,0.08772499859333038,0.047575000673532486
-0.6910500526428223,5.085000038146973,8.827950477600098,0.03231250122189522,0.09735000133514404,-0.0004124999977648258
-1.0549499988555908,5.0530500411987305,8.667000770568848,0.10257499665021896,-0.010174999944865704,-0.09721250087022781
-1.4310001134872437,4.816050052642822,8.409000396728516,0.19085000455379486,-0.08249999582767487,-0.12278749793767929
-1.5460500717163086,4.540950298309326,8.047050476074219,0.2876499891281128,-0.14423750340938568,-0.013199999928474426
-1.3090500831604004,4.504950046539307,7.635000228881836,0.38554999232292175,-0.14533749222755432,0.17201249301433563
-0.8899500370025635,4.648950099945068,7.2210001945495605,0.40149998664855957,-0.060224998742341995,0.31033748388290405
-0.3730500042438507,5.194950103759766,6.868950366973877,0.2546499967575073,0.04193750023841858,0.32106250524520874
-0.06599999964237213,5.713950157165527,6.867000102996826,-0.08483749628067017,0.09624999761581421,0.18369999527931213
-0.322050005197525,6.198000431060791,7.9200005531311035,-0.45196250081062317,-0.09212499856948853,0.04963750019669533
-0.40095001459121704,6.174000263214111,9.26400089263916,-0.5882250070571899,-0.1825999915599823,0.03368749842047691
-0.22395001351833344,5.736000061035156,9.81705093383789,-0.3998500108718872,-0.011274999938905239,0.062424998730421066
-0.29805001616477966,5.317050457000732,9.283050537109375,-0.07095000147819519,0.2250874936580658,0.047575000673532486
-0.46605002880096436,5.068050384521484,8.45895004272461,0.17806249856948853,0.2644124925136566,0.010312499478459358
-0.6619500517845154,5.034000396728516,7.9009504318237305,0.2653749883174896,0.18039999902248383,-0.050324998795986176
-0.9280500411987305,5.143950462341309,7.633050441741943,0.1695374995470047,0.03135000169277191,-0.09404999762773514
-0.9880500435829163,5.259000301361084,7.942050457000732,-0.040150001645088196,-0.04427500069141388,-0.09404999762773514
-0.8989500403404236,5.152050018310547,8.536050796508789,-0.1859000027179718,0.018562499433755875,-0.08332499861717224
-1.1239500045776367,5.041050434112549,8.75100040435791,-0.15826250612735748,0.07713750004768372,-0.06847500056028366
-1.1119500398635864,5.214000225067139,8.794050216674805,-0.024062499403953552,0.008937500417232513,0.010312499478459358
-0.6220500469207764,5.431950092315674,8.998050689697266,0.10999999940395355,-0.0611874982714653,0.08373750001192093
-0.5929500460624695,5.494050025939941,9.016950607299805,0.196212500333786,-0.026124998927116394,0.028324998915195465
-0.8659500479698181,5.214000225067139,8.506950378417969,0.23980000615119934,0.0728750005364418,-0.05884999781847
-1.2220500707626343,4.950000286102295,8.041950225830078,0.23553749918937683,0.10271249711513519,-0.05252499878406525
-1.062000036239624,5.131950378417969,7.978050231933594,0.20473749935626984,0.02708750031888485,0.04853750020265579
-0.7129500508308411,5.365050315856934,8.076000213623047,0.19511249661445618,-0.02928750030696392,0.13158750534057617
-0.6810000538825989,5.379000186920166,8.004000663757324,0.22495000064373016,-0.06875000149011612,0.13048750162124634
-0.7579500079154968,5.10105037689209,7.657050132751465,0.27912500500679016,-0.05376249924302101,0.0644875019788742
-0.9540000557899475,4.88100004196167,7.2360005378723145,0.2919124960899353,-0.037812501192092896,0.014574999921023846
-1.0549499988555908,4.759050369262695,6.711000442504883,0.2153249979019165,-0.018699999898672104,0.03478749841451645
-0.973050057888031,4.89300012588501,6.454950332641602,0.013062499463558197,-0.0644875019788742,0.10175000131130219
-0.7270500063896179,5.298000335693359,6.702000141143799,-0.3273875117301941,-0.11976250261068344,0.13695000112056732
-0.38700002431869507,5.974950313568115,7.777050495147705,-0.7009750008583069,-0.16128750145435333,0.0826374962925911
-0.10005000233650208,6.274050235748291,9.144000053405762,-0.88714998960495,-0.27403751015663147,-0.006737499963492155
-0.10200000554323196,5.793000221252441,9.964950561523438,-0.7541875243186951,-0.2730749845504761,-0.10353749990463257
-0.4830000102519989,5.263950347900391,9.976950645446777,-0.4124999940395355,-0.15070000290870667,-0.16005000472068787
-0.7840500473976135,4.824000358581543,9.32295036315918,-0.037950001657009125,0.07919999957084656,-0.14409999549388885
-1.0549499988555908,4.699050426483154,8.434950828552246,0.1769624948501587,0.14739999175071716,-0.057887498289346695
-0.934950053691864,5.010000228881836,8.125950813293457,0.1270499974489212,0.08992499858140945,0.024062499403953552
-0.7770000100135803,5.245050430297852,8.080950736999512,-0.07631249725818634,0.057887498289346695,0.04001250118017197
-0.6720000505447388,5.221050262451172,8.1739501953125,-0.24227499961853027,0.04619999974966049,0.014574999921023846
-0.625950038433075,5.356950283050537,7.956000328063965,-0.3273875117301941,0.22605000436306,-0.05884999781847
-0.3340500295162201,5.5320000648498535,7.470000267028809,-0.5083374977111816,0.7081249952316284,-0.2750000059604645
0.040950000286102295,5.779050350189209,6.826050281524658,-0.9116249680519104,0.8486499786376953,-0.6313999891281128
0.10500000417232513,4.98900032043457,6.934050559997559,-1.5896375179290771,0.48042500019073486,-0.9964625239372253
-1.2610501050949097,4.7659502029418945,8.562000274658203,-2.2493624687194824,-0.06544999778270721,-1.2656874656677246
-1.672950029373169,4.085999965667725,9.832950592041016,-2.5048375129699707,0.12718750536441803,-1.482800006866455
-2.319000005722046,3.66195011138916,10.255050659179688,-2.393049955368042,0.18136249482631683,-1.3785749673843384
-2.299950122833252,2.6140501499176025,9.48900032043457,-2.041874885559082,-0.35282498598098755,-0.9560375213623047
-1.864050030708313,1.1599500179290771,9.106050491333008,-1.5991250276565552,-1.1530749797821045,-0.44948750734329224
-1.5390000343322754,0.31995001435279846,10.135050773620605,-1.015987515449524,-1.750100016593933,-0.018424998968839645
-1.6300500631332397,0.0,10.882050514221191,-0.26042500138282776,-1.9140000343322754,0.3199625015258789
-0.5760000348091125,-0.0019500000635161996,11.113950729370117,0.4877125024795532,-0.9967374801635742,0.46997499465942383
0.07395000010728836,0.9810000658035278,11.035050392150879,1.0602624416351318,-0.11343749612569809,0.42528748512268066
0.32100000977516174,2.070000171661377,10.224000930786133,1.3869625329971313,0.7731624841690063,0.3583250045776367
-0.22605000436306,2.7330000400543213,9.730050086975098,1.4412750005722046,1.2689875364303589,0.29864999651908875
-1.371000051498413,3.544950246810913,9.088950157165527,1.205049991607666,0.47079998254776,0.2241249978542328
-1.3570500612258911,3.6979501247406006,8.622000694274902,0.8314625024795532,-0.13997499644756317,0.15606249868869781
-0.8110500574111938,3.526050090789795,8.695950508117676,0.49101248383522034,-0.10381250083446503,0.1742125004529953
-0.492000013589859,3.454050064086914,8.822999954223633,0.21642500162124634,0.18039999902248383,0.21559999883174896
-0.45600003004074097,3.4990501403808594,8.755949974060059,0.022687500342726707,0.3441624939441681,0.23691250383853912
-0.7150500416755676,3.507000207901001,8.742000579833984,-0.02736249938607216,0.26977500319480896,0.2806375026702881
-0.7890000343322754,3.5590500831604004,9.108000755310059,0.08332499861717224,0.008937500417232513,0.32848748564720154
-0.42795002460479736,3.504000186920166,9.388050079345703,0.28022500872612,0.010037500411272049,0.2815999984741211
-0.31995001435279846,3.38700008392334,9.277950286865234,0.4142875075340271,0.23141250014305115,0.12952500581741333
-0.8080500364303589,3.504000186920166,9.034049987792969,0.4292750060558319,0.33041250705718994,0.01979999989271164
-1.1790000200271606,3.715050220489502,8.839950561523438,0.3866499960422516,0.21972499787807465,0.04001250118017197
-1.29705011844635,3.862950086593628,8.890050888061523,0.340862512588501,0.08992499858140945,0.11769999563694
-1.0879501104354858,3.9160501956939697,8.851950645446777,0.29081249237060547,0.08566249907016754,0.15289999544620514
-0.8509500622749329,3.892050266265869,9.141000747680664,0.219587504863739,0.1601874977350235,0.14217500388622284
-0.7080000042915344,3.724950075149536,9.120000839233398,0.18768750131130219,0.3102000057697296,0.12622499465942383
-1.1479500532150269,3.7080001831054688,8.433000564575195,0.2377374917268753,0.4123624861240387,0.15070000290870667
-1.2540000677108765,4.326000213623047,8.689050674438477,0.33880001306533813,0.04413750022649765,0.15496249496936798
-0.7129500508308411,4.426050186157227,8.62695026397705,0.2919124960899353,-0.08786249905824661,0.011274999938905239
-0.9520500302314758,4.294050216674805,8.113950729370117,0.1270499974489212,0.002612499985843897,-0.12168750166893005
-1.2250500917434692,3.982950210571289,8.370000839233398,-0.015675000846385956,-0.10917499661445618,-0.1802625060081482
-1.3090500831604004,4.048050403594971,9.193950653076172,-0.05389999970793724,-0.21559999883174896,-0.10889999568462372
-1.1119500398635864,3.925950288772583,9.63900089263916,0.040837500244379044,-0.18466250598430634,-0.010999999940395355
-0.8230500221252441,3.9499502182006836,9.45300006866455,0.1993750035762787,0.013199999928474426,0.06984999775886536
-1.0049999952316284,4.077000141143799,9.148950576782227,0.3345375061035156,0.16224999725818634,0.13791249692440033
-1.0500000715255737,4.170000076293945,8.72504997253418,0.4057624936103821,0.179299995303154,0.16885000467300415
-1.2390000820159912,4.3090500831604,8.317950248718262,0.39627498388290405,0.12925000488758087,0.1592250019311905
-1.1119500398635864,4.452000141143799,8.296050071716309,0.3026374876499176,-0.013337500393390656,0.12099999934434891
-0.7890000343322754,4.431000232696533,8.607000350952148,0.1802625060081482,-0.023924998939037323,0.04647500067949295
-0.906000018119812,4.360949993133545,8.794050216674805,0.09075000137090683,0.08992499858140945,-0.014162499457597733
-1.215000033378601,4.4160003662109375,8.822999954223633,0.02694999985396862,0.22288750112056732,-0.03437500074505806
-1.4500501155853271,4.323000431060791,8.670000076293945,-0.010312499478459358,0.2718375027179718,-0.018424998968839645
-1.5340501070022583,4.3279500007629395,8.602950096130371,-0.015675000846385956,0.195250004529953,0.04427500069141388
-1.2630000114440918,4.387950420379639,8.653050422668457,0.02694999985396862,0.08566249907016754,0.10491249710321426
-1.01895010471344,4.414050102233887,8.758049964904785,0.11096250265836716,0.04413750022649765,0.11990000307559967
-1.0380001068115234,4.2970499992370605,8.385000228881836,0.22384999692440033,0.04413750022649765,0.10917499661445618
-1.3230000734329224,4.567049980163574,8.518950462341309,0.30153748393058777,-0.0005499999970197678,0.10284999758005142
-1.024049997329712,4.759050369262695,8.590950012207031,0.26633748412132263,-0.16664999723434448,0.06875000149011612
-0.9520500302314758,4.651050090789795,8.133000373840332,0.17270000278949738,0.002612499985843897,0.0411125011742115
-1.171950101852417,4.699050426483154,7.801050186157227,0.01952499896287918,-0.07713750004768372,0.006049999967217445
-1.2030000686645508,4.926000118255615,8.314949989318848,-0.12196250259876251,-0.24860000610351562,0.04963750019669533
-0.7630500197410583,4.783050060272217,9.019050598144531,-0.1751749962568283,-0.27197501063346863,0.06778749823570251
-0.598050057888031,4.438050270080566,9.108000755310059,-0.12526249885559082,-0.04839999973773956,-0.013199999928474426
-1.024049997329712,4.427999973297119,8.812950134277344,-0.05706249922513962,0.07919999957084656,-0.07809999585151672
-1.290000081062317,4.528950214385986,8.634000778198242,-0.016637500375509262,0.06751249730587006,-0.030112499371170998
-1.2060000896453857,4.548000335693359,8.617050170898438,0.015262499451637268,-0.01759999990463257,0.030524998903274536
-1.1320500373840332,4.531050205230713,8.550000190734863,0.048262499272823334,-0.0728750005364418,0.03368749842047691
-1.0330500602722168,4.551000118255615,8.550000190734863,0.0695749968290329,-0.1260875016450882,0.028324998915195465
-0.8440500497817993,4.546050071716309,8.791950225830078,0.06311249732971191,-0.06544999778270721,0.006049999967217445
-0.9330000281333923,4.510050296783447,8.593050003051758,0.020624998956918716,0.052662499248981476,-0.03863750025629997
-1.311000108718872,4.656000137329102,8.545050621032715,-0.035887498408555984,0.043037500232458115,-0.01209999993443489
-1.171950101852417,4.570050239562988,8.670000076293945,-0.052799999713897705,-0.026124998927116394,0.0411125011742115
-0.9589500427246094,4.504950046539307,8.63895034790039,-0.03162499889731407,-0.03355000168085098,0.0518375001847744
-0.9900000691413879,4.5360002517700195,8.48805046081543,0.0004124999977648258,-0.06971249729394913,0.04331250116229057
-1.0049999952316284,4.52400016784668,8.348999977111816,0.0056374999694526196,-0.14533749222755432,0.045375000685453415
-1.0120500326156616,4.492950439453125,8.325000762939453,-0.010312499478459358,-0.20061250030994415,0.0644875019788742
-0.9400500655174255,4.41195011138916,8.338950157165527,-0.029424998909235,-0.2623499929904938,0.08896250277757645
-0.8610000610351562,4.52400016784668,8.584050178527832,-0.01979999989271164,-0.39544999599456787,0.11990000307559967
-0.6889500617980957,4.5960001945495605,8.904000282287598,0.030112499371170998,-0.47203749418258667,0.12196250259876251
-0.3150000274181366,4.657950401306152,9.156000137329102,0.07809999585151672,-0.4113999903202057,0.06558749824762344
-0.24105000495910645,4.756050109863281,9.040950775146484,0.09611249715089798,-0.2250874936580658,-0.01209999993443489
-0.5140500068664551,4.720950126647949,8.773050308227539,0.057887498289346695,-0.09638749808073044,-0.05884999781847
-0.595050036907196,4.800000190734863,8.797050476074219,-0.0038499999791383743,-0.06861250102519989,-0.062150001525878906
-0.6480000019073486,4.736999988555908,8.926050186157227,-0.030524998903274536,-0.02186249941587448,-0.03973750025033951
-0.556950032711029,4.5769500732421875,8.76300048828125,-0.016637500375509262,0.0387750007212162,-0.02694999985396862
-0.5620500445365906,4.4160003662109375,8.513999938964844,0.0035749999806284904,0.10793749988079071,-0.014162499457597733
-0.625950038433075,4.242000102996826,8.16195011138916,0.020624998956918716,0.15056249499320984,0.020899999886751175
-0.5740500092506409,4.036050319671631,7.903950214385986,0.04399999976158142,0.14093749225139618,0.0826374962925911
-0.5929500460624695,4.006950378417969,7.528050422668457,0.08978749811649323,0.10477499663829803,0.1742125004529953
-0.6049500107765198,3.933000087738037,7.1569504737854,0.12594999372959137,0.0387750007212162,0.2827000021934509
-0.8629500269889832,3.95205020904541,7.24500036239624,0.12168750166893005,-0.09844999760389328,0.3550249934196472
-0.697950005531311,3.8749501705169678,7.603950500488281,0.1280124932527542,-0.21133749186992645,0.37950000166893005
0.7090500593185425,5.029050350189209,7.633050441741943,-0.23375000059604645,0.02708750031888485,0.18369999527931213
0.7690500617027283,5.728950500488281,9.115050315856934,-1.1808500289916992,0.4016374945640564,-0.3601124882698059
-0.7680000066757202,5.527050495147705,11.086050987243652,-1.5268000364303589,0.31968748569488525,-0.5952374935150146
-1.4190000295639038,5.010000228881836,12.082050323486328,-0.9755625128746033,0.06435000151395798,-0.34306249022483826
-1.4070000648498535,4.3090500831604,11.770051002502441,-0.09226249903440475,0.07067500054836273,-0.05458749830722809
-1.0810500383377075,3.693000078201294,10.492050170898438,0.6313999891281128,0.17820000648498535,0.054999999701976776
-0.7960500121116638,3.7270500659942627,9.016950607299805,0.9464125037193298,0.19304999709129333,0.014574999921023846
-0.7129500508308411,4.123950004577637,8.263050079345703,0.8336625099182129,0.19304999709129333,-0.08442500233650208
-0.8509500622749329,4.303950309753418,8.124000549316406,0.5601750016212463,0.21656249463558197,-0.17806249856948853
-1.1650500297546387,4.254000186920166,8.241000175476074,0.3760625123977661,0.2293500006198883,-0.15468749403953552
-1.2610501050949097,4.34505033493042,8.44005012512207,0.303600013256073,0.23787499964237213,-0.031212499365210533
-1.0879501104354858,4.600950241088867,8.607000350952148,0.2866874933242798,0.32615000009536743,0.08470000326633453
-0.8470500111579895,4.888050079345703,8.72504997253418,0.28338751196861267,0.3856875002384186,0.11879999935626984
-0.7030500173568726,5.013000011444092,8.647950172424316,0.2824249863624573,0.46021249890327454,0.07947500050067902
-0.8730000257492065,5.0530500411987305,8.461050033569336,0.2653749883174896,0.5698000192642212,0.03684999793767929
-1.270050048828125,5.017050266265869,8.176950454711914,0.22165000438690186,0.6209499835968018,0.009212499484419823
-1.6680001020431519,4.740000247955322,8.0110502243042,0.15895000100135803,0.6337375044822693,0.002749999985098839
-1.7560501098632812,4.651050090789795,7.951050281524658,0.04179999977350235,0.6528499722480774,0.08799999952316284
-1.651050090789795,4.840050220489502,7.951050281524658,-0.13048750162124634,0.7550125122070312,0.20184999704360962
-1.7130000591278076,4.9960503578186035,8.121000289916992,-0.2784374952316284,0.8571749925613403,0.21133749186992645
-1.8469500541687012,5.032050132751465,8.437950134277344,-0.29122498631477356,0.8082249760627747,0.133650004863739
-2.1160500049591064,4.903050422668457,8.538000106811523,-0.15289999544620514,0.7231125235557556,0.0635249987244606
-2.326050043106079,4.773000240325928,8.47800064086914,0.022687500342726707,0.5464249849319458,0.06984999775886536
-2.416950225830078,4.701000213623047,8.232000350952148,0.1652749925851822,0.37400001287460327,0.12526249885559082
-2.1469500064849854,4.776000022888184,8.208000183105469,0.21422499418258667,0.2516250014305115,0.1592250019311905
-2.0250000953674316,4.921950340270996,8.157000541687012,0.17599999904632568,0.32615000009536743,0.11453749984502792
-2.1919500827789307,4.953000068664551,8.256000518798828,0.07809999585151672,0.4633750021457672,0.035750001668930054
-2.3910000324249268,4.857000350952148,8.338950157165527,0.03973750025033951,0.6028000116348267,0.008112499490380287
-2.5350000858306885,4.797000408172607,8.296050071716309,0.048262499272823334,0.7188500165939331,0.05596249923110008
-2.6520001888275146,4.831050395965576,8.229000091552734,0.05252499878406525,0.8167499899864197,0.14327499270439148
-2.587050199508667,4.984050273895264,8.019000053405762,0.05884999781847,0.8369625210762024,0.18479999899864197
-2.527050018310547,5.086950302124023,7.108950138092041,0.06531249731779099,0.7251750230789185,0.1443749964237213
-3.1399500370025635,5.214000225067139,5.181000232696533,-0.04427500069141388,0.24310000240802765,0.04427500069141388
-3.52305006980896,5.068050384521484,6.805050373077393,-0.3040125072002411,-0.5592125058174133,-0.031212499365210533
-3.5190000534057617,5.00100040435791,7.42995023727417,-0.37950000166893005,-0.6326375007629395,-0.05458749830722809
-2.7090001106262207,4.885950088500977,7.2330002784729,-0.3848625123500824,-0.9552124738693237,-0.0812624990940094
-2.53695011138916,5.025000095367432,7.513050556182861,-0.43271249532699585,-1.3766499757766724,-0.1344749927520752
-1.6939500570297241,4.945950031280518,8.181000709533691,-0.47327500581741333,-1.5915625095367432,-0.2611125111579895
-1.2130500078201294,4.5960001945495605,8.386950492858887,-0.56045001745224,-1.5884000062942505,-0.5123249888420105
-1.3369500637054443,4.783050060272217,9.208050727844238,-0.5817624926567078,-1.3914999961853027,-0.7346624732017517
-1.3210500478744507,4.675050258636475,9.706050872802734,-0.48922500014305115,-1.287137508392334,-0.7889750003814697
-1.3350000381469727,4.488000392913818,10.32705020904541,-0.36465001106262207,-1.1137499809265137,-0.785812497138977
-1.4689500331878662,4.254000186920166,10.683000564575195,-0.20295000076293945,-0.9572749733924866,-0.6771875023841858
-1.2919501066207886,3.8970000743865967,10.675950050354004,-0.0006874999962747097,-0.6103624701499939,-0.47712498903274536
-0.820050060749054,3.753000259399414,10.305000305175781,0.19085000455379486,-0.10917499661445618,-0.2750000059604645
-0.7270500063896179,3.9160501956939697,9.472050666809082,0.31212499737739563,0.3218874931335449,-0.1578499972820282
-1.2109500169754028,4.093050003051758,8.469000816345215,0.3558500111103058,0.48785001039505005,-0.08332499861717224
-1.4550000429153442,4.069050312042236,7.438950538635254,0.33137500286102295,0.4197874963283539,-0.01209999993443489
-1.4329500198364258,3.8710501194000244,6.562950134277344,0.2525874972343445,0.2250874936580658,0.04647500067949295
-1.5220500230789185,3.6979501247406006,5.928000450134277,0.1163249984383583,-0.0835999995470047,0.0635249987244606
-1.4359500408172607,3.544950246810913,5.533050060272217,-0.08799999952316284,-0.47093749046325684,0.06558749824762344
-1.2390000820159912,3.5089502334594727,6.070050239562988,-0.29438748955726624,-0.9231749773025513,0.09968750178813934
-0.9949500560760498,3.715050220489502,7.578000545501709,-0.39022499322891235,-1.2680250406265259,0.15496249496936798
-0.9810000658035278,3.844050168991089,9.03795051574707,-0.31679999828338623,-1.2765499353408813,0.20295000076293945
-0.38895002007484436,4.9170002937316895,10.906050682067871,-0.1816374957561493,-0.980650007724762,0.13695000112056732
-0.5539500117301941,5.797950267791748,12.028950691223145,-0.2667500078678131,-0.804099977016449,-0.22811250388622284
-0.5760000348091125,5.143950462341309,11.766000747680664,-0.41786250472068787,-0.7050999999046326,-0.3282124996185303
-0.23805001378059387,3.724950075149536,10.968000411987305,-0.34017500281333923,-0.2102375030517578,-0.1153625026345253
-0.1279500126838684,3.138000249862671,9.855000495910645,-0.060362499207258224,0.30057498812675476,0.11453749984502792
-0.2650500237941742,3.346050262451172,8.979000091552734,0.20899999141693115,0.5868499875068665,0.2326499968767166
-0.4729500114917755,3.970950126647949,8.406000137329102,0.3653374910354614,0.5645750164985657,0.24543750286102295
-0.6310500502586365,4.597949981689453,8.3899507522583,0.35791251063346863,0.3324750065803528,0.1592250019311905
-0.6409500241279602,4.744950294494629,8.701050758361816,0.22921249270439148,0.04729999974370003,-0.018424998968839645
-0.7030500173568726,4.3090500831604,9.0600004196167,0.10257499665021896,-0.06861250102519989,-0.1504250019788742
-0.7339500188827515,4.024050235748291,9.32805061340332,0.08236250281333923,0.013199999928474426,-0.10779999941587448
-0.527999997138977,4.302000045776367,9.598950386047363,0.15895000100135803,0.10161250084638596,0.018837500363588333
-0.2670000195503235,4.582050323486328,9.606000900268555,0.27390000224113464,0.26647499203681946,0.06132499873638153
-0.5620500445365906,4.564949989318848,9.31605052947998,0.35475000739097595,0.35062500834465027,-0.035475000739097595
-1.024049997329712,4.351950168609619,8.782050132751465,0.37070000171661377,0.35062500834465027,-0.1270499974489212
-1.01895010471344,4.255949974060059,8.245950698852539,0.3068999946117401,0.3282124996185303,-0.11852499842643738
-0.8800500631332397,4.575000286102295,8.068950653076172,0.17173749208450317,0.2644124925136566,-0.06737499684095383
-0.8560500144958496,4.563000202178955,7.753050327301025,0.035475000739097595,0.23361249268054962,-0.050324998795986176
-0.9420000314712524,4.213050365447998,7.336050510406494,-0.1050499975681305,0.16431249678134918,-0.13337500393390656
-1.1790000200271606,3.865950107574463,7.008000373840332,-0.2539624869823456,0.037675000727176666,-0.1695374995470047
-1.2580500841140747,3.586050271987915,6.8520002365112305,-0.37427499890327454,-0.12292499840259552,-0.07809999585151672
-1.1749500036239624,3.412950277328491,7.045950412750244,-0.445499986410141,-0.3007124960422516,0.06668750196695328
-0.9810000658035278,3.496950149536133,7.743000507354736,-0.4402749836444855,-0.507099986076355,0.19222499430179596
-0.5190000534057617,4.179000377655029,9.172950744628906,-0.33701249957084656,-0.6476249694824219,0.24543750286102295
-0.28395000100135803,5.4720001220703125,10.980000495910645,-0.2274249941110611,-0.6710000038146973,0.10491249710321426
-0.48705002665519714,5.640000343322754,11.778000831604004,-0.21889999508857727,-0.5933125019073486,-0.15578749775886536
-0.5710500478744507,4.378050327301025,11.241000175476074,-0.1816374957561493,-0.2677125036716461,-0.2494249939918518
-0.6360000371932983,3.3289501667022705,9.960000038146973,0.010999999940395355,0.2899875044822693,-0.10889999568462372
-0.7990500330924988,3.255000114440918,8.659950256347656,0.20473749935626984,0.544362485408783,0.12622499465942383
-0.6409500241279602,3.7270500659942627,8.019000053405762,0.3004375100135803,0.47189998626708984,0.3040125072002411
-0.46605002880096436,4.303950309753418,8.092950820922852,0.2887499928474426,0.2623499929904938,0.27527499198913574
-0.6289500594139099,4.597949981689453,8.430000305175781,0.18975000083446503,0.03451250120997429,0.08153750002384186
-0.8629500269889832,4.462050437927246,8.63895034790039,0.04606249928474426,-0.09418749809265137,-0.08236250281333923
-0.8730000257492065,4.242000102996826,8.952000617980957,-0.05706249922513962,-0.06338749825954437,-0.06531249731779099
-0.7099500298500061,4.179000377655029,9.337950706481934,-0.06668750196695328,0.015399999916553497,0.006049999967217445
-0.6330000162124634,4.123950004577637,9.301950454711914,0.0035749999806284904,0.1335124969482422,0.037950001657009125
-0.6910500526428223,4.146000385284424,8.880000114440918,0.08648750185966492,0.20157499611377716,0.06558749824762344
-0.6310500502586365,4.25100040435791,8.4660005569458,0.1163249984383583,0.21119999885559082,0.08799999952316284
-0.6649500131607056,4.504950046539307,8.3899507522583,0.11948750168085098,0.13571250438690186,0.06984999775886536
-0.5879999995231628,4.609950065612793,8.907000541687012,0.10353749990463257,-0.10807500034570694,-0.0056374999694526196
-0.6000000238418579,4.582050323486328,9.199050903320312,0.06847500056028366,0.01746249943971634,-0.0695749968290329
-0.8230500221252441,4.1770501136779785,9.28695011138916,0.06421250104904175,0.23883749544620514,-0.05458749830722809
-0.7510500550270081,4.219950199127197,9.100950241088867,0.10683749616146088,0.32298749685287476,0.016637500375509262
-0.6450000405311584,4.326000213623047,9.03600025177002,0.16747500002384186,0.4954124987125397,0.08799999952316284
-0.5809500217437744,4.282050132751465,8.908950805664062,0.21422499418258667,0.6571124792098999,0.08153750002384186
-1.102950096130371,4.261050224304199,8.812950134277344,0.23553749918937683,0.7316374778747559,0.060224998742341995
-1.443000078201294,4.291950225830078,9.031050682067871,0.2461249977350235,0.7273749709129333,0.09006249904632568
-1.609950065612793,4.194000244140625,9.131999969482422,0.2451625019311905,0.8540124893188477,0.14973749220371246
-1.6680001020431519,4.135950088500977,8.884950637817383,0.22811250388622284,1.0594375133514404,0.3156999945640564
-1.7539501190185547,4.44795036315918,8.800950050354004,0.15674999356269836,1.296762466430664,0.5103999972343445
-1.7760001420974731,4.744950294494629,8.641050338745117,0.0695749968290329,1.4499374628067017,0.49761250615119934
-1.90500009059906,4.843050003051758,8.20995044708252,0.022687500342726707,1.4658875465393066,0.31679999828338623
-2.259000062942505,4.855050086975098,7.683000564575195,0.006737499963492155,1.3552000522613525,0.19112500548362732
-2.6539502143859863,4.713000297546387,7.480050563812256,-0.015537500381469727,1.2179750204086304,0.18369999527931213
-2.638050079345703,4.654050350189209,7.600050449371338,-0.035887498408555984,1.1615999937057495,0.16142499446868896
-2.6449501514434814,4.785000324249268,7.71405029296875,-0.06132499873638153,1.1583000421524048,0.08153750002384186
-2.8789501190185547,5.190000057220459,8.143050193786621,-0.11027500033378601,1.103024959564209,0.008112499490380287
-3.1999502182006836,5.0560503005981445,8.275050163269043,-0.045375000685453415,0.9380249977111816,0.04001250118017197
-3.4300501346588135,4.666050434112549,8.068950653076172,0.06531249731779099,0.84232497215271,0.0518375001847744
-3.346050262451172,4.440000057220459,7.734000205993652,0.14506250619888306,0.8007999658584595,0.06132499873638153
-3.4300501346588135,4.419000148773193,7.4920501708984375,0.06627500057220459,0.9083250164985657,0.03684999793767929
-3.6979501247406006,4.5960001945495605,7.16895055770874,-0.07204999774694443,1.0306999683380127,0.0411125011742115
-3.9090001583099365,4.819050312042236,6.739950180053711,-0.15070000290870667,0.9124500155448914,0.05926249921321869
-4.555050373077393,5.142000198364258,5.791950225830078,-0.14231249690055847,0.20487499237060547,0.011274999938905239
-3.9090001583099365,4.788000106811523,7.25700044631958,-0.1592250019311905,-0.27403751015663147,-0.06104999780654907
-4.065000057220459,4.723050117492676,7.3309502601623535,-0.116737499833107,-0.3624500036239624,-0.11962500214576721
-4.33305025100708,4.663050174713135,7.027050495147705,-0.05073750019073486,-0.7551500201225281,-0.11426249891519547
-3.8230502605438232,4.711050033569336,7.249950408935547,0.010999999940395355,-1.2446500062942505,-0.050324998795986176
-3.0679502487182617,4.657950401306152,7.473000526428223,0.11096250265836716,-1.5872999429702759,-0.09941250085830688
-2.6710500717163086,4.491000175476074,7.735950469970703,0.1237500011920929,-1.7107750177383423,-0.2494249939918518
-2.5729501247406006,4.426050186157227,8.3899507522583,-0.015675000846385956,-1.4256000518798828,-0.31542500853538513
-2.2900500297546387,5.002950191497803,9.510000228881836,-0.17847499251365662,-0.9552124738693237,-0.2919124960899353
-2.9220001697540283,4.849950313568115,9.843000411987305,-0.1742125004529953,-0.4166249930858612,-0.2952125072479248
-3.046950101852417,4.692000389099121,9.438000679016113,0.04936249926686287,-0.3081375062465668,-0.2227499932050705
-2.7139501571655273,4.756050109863281,8.854050636291504,0.32065001130104065,-0.3507624864578247,-0.10889999568462372
-2.707050085067749,4.876049995422363,8.578950881958008,0.5079249739646912,-0.6965749859809875,-0.0471624992787838
-2.515050172805786,5.19195032119751,8.779950141906738,0.5590749979019165,-0.8977375030517578,-0.03973750025033951
-1.9699500799179077,5.098950386047363,8.847000122070312,0.49197500944137573,-0.6774625182151794,-0.08758749812841415
-1.7440500259399414,5.005050182342529,8.485050201416016,0.3601124882698059,-0.36024999618530273,-0.12278749793767929
-1.8499500751495361,4.870950222015381,7.9830002784729,0.20996250212192535,-0.07823749631643295,-0.12388750165700912
-2.0220000743865967,4.717950344085693,7.5199503898620605,0.08978749811649323,-0.023924998939037323,-0.09941250085830688
-2.182950019836426,4.584000110626221,7.255050182342529,0.042899999767541885,-0.12402500212192535,-0.03863750025629997
-2.2350001335144043,4.492950439453125,7.128000259399414,0.03753750026226044,-0.3209249973297119,0.05816249921917915
-1.8499500751495361,4.4160003662109375,6.9649505615234375,0.04179999977350235,-0.46777498722076416,0.13791249692440033
-1.4599500894546509,4.444950103759766,6.757050514221191,0.03973750025033951,-0.515625,0.12622499465942383
-1.4209500551223755,4.315950393676758,6.750000476837158,0.0035749999806284904,-0.5167250037193298,0.0038499999791383743
-1.7899501323699951,3.933000087738037,6.8550004959106445,-0.06984999775886536,-0.5389999747276306,-0.1280124932527542
-2.2740001678466797,3.8749501705169678,7.056000232696533,-0.19442500174045563,-0.6507874727249146,-0.10257499665021896
-2.3020501136779785,3.9900002479553223,7.474950313568115,-0.34443750977516174,-0.7242124676704407,0.052799999713897705
-1.672950029373169,4.6080002784729,8.586000442504883,-0.476437509059906,-0.7412624955177307,0.14547500014305115
-1.1389501094818115,6.274050235748291,10.147050857543945,-0.7519875168800354,-0.682687520980835,-0.08442500233650208
-1.1050500869750977,5.986950397491455,11.976000785827637,-1.1776875257492065,-0.4965125024318695,-0.5570124983787537
-1.6410000324249268,4.285050392150879,11.908950805664062,-0.8222500085830688,0.04193750023841858,-0.6857125163078308
-2.389050006866455,3.6190502643585205,10.879950523376465,-0.012374999932944775,0.19415000081062317,-0.4250124990940094
-2.416950225830078,3.7390501499176025,9.58905029296875,0.7101874947547913,0.1069749966263771,0.01347499992698431
-1.633950114250183,4.2370500564575195,8.605050086975098,1.055037498474121,0.1377750039100647,0.34443750977516174
-0.8629500269889832,4.800000190734863,7.846050262451172,0.9315624833106995,0.13983750343322754,0.34017500281333923
-0.8509500622749329,4.98900032043457,7.4920501708984375,0.5132874846458435,0.21119999885559082,0.12416250258684158
-1.3609501123428345,4.861950397491455,7.803000450134277,0.1163249984383583,0.3059374988079071,-0.030112499371170998
-1.749000072479248,4.717950344085693,8.47800064086914,-0.05073750019073486,0.3591499924659729,-0.01209999993443489
-1.7560501098632812,4.684950351715088,9.003000259399414,0.0013749999925494194,0.4240500032901764,0.07947500050067902
-1.503000020980835,4.845000267028809,8.998050689697266,0.1769624948501587,0.4954124987125397,0.1326874941587448
-1.4880000352859497,4.98900032043457,8.66295051574707,0.31542500853538513,0.5230500102043152,0.12306249886751175
-1.7920501232147217,5.022000312805176,8.45895004272461,0.35791251063346863,0.5612750053405762,0.06668750196695328
-2.080049991607666,4.9960503578186035,8.578950881958008,0.33137500286102295,0.6337375044822693,0.017737500369548798
-2.2900500297546387,4.740000247955322,8.314949989318848,0.31638750433921814,0.7550125122070312,0.029424998909235
-2.476950168609619,4.776000022888184,7.768950462341309,0.28132501244544983,0.8082249760627747,0.14121249318122864
-2.4559500217437744,4.98900032043457,7.516050338745117,0.20679999887943268,0.767799973487854,0.2433750033378601
-2.2980000972747803,5.16795015335083,7.678950309753418,0.12484999746084213,0.7231125235557556,0.24117499589920044
-2.367000102996826,5.131950378417969,7.798050403594971,0.09927500039339066,0.6676999926567078,0.2092749923467636
-2.6950502395629883,5.08905029296875,7.570950508117676,0.09184999763965607,0.6784250140190125,0.23375000059604645
-2.7049500942230225,5.1660003662109375,6.031050205230713,0.045099999755620956,0.6528499722480774,0.2773374915122986
-2.8189501762390137,5.568000316619873,6.079050064086914,-0.3156999945640564,0.27073749899864197,0.26358750462532043
-2.1010501384735107,5.760000228881836,7.888950347900391,-0.415800005197525,-0.23897500336170197,0.08579999953508377
