accX,accY,accZ,gyroX,gyroY,gyroZ
-2.892324447631836,2.8253252506256104,8.987442016601562,0.14202198386192322,-0.3279486298561096,0.08704573661088943
-2.7248268127441406,2.877967357635498,8.94676399230957,0.028938889503479004,-0.18798823654651642,0.13713520765304565
-2.729612350463867,2.9425735473632812,9.145368576049805,-0.07475243508815765,-0.18798823654651642,0.11209046840667725
-2.8803603649139404,3.0454649925231934,9.269794464111328,-0.1077381819486618,-0.30046048760414124,0.04856235533952713
-2.894717216491699,3.0239295959472656,9.485447883605957,-0.0847550556063652,-0.4501180648803711,0.026571854948997498
-2.6001009941101074,2.8636105060577393,9.585947036743164,-0.022601349279284477,-0.5551838278770447,0.03512371703982353
-2.4661028385162354,2.8013970851898193,9.569196701049805,0.023364907130599022,-0.5753417611122131,0.04489727318286896
-2.3081765174865723,2.8109683990478516,9.557232856750488,0.11781716346740723,-0.5728983879089355,0.08704573661088943
-2.3392832279205322,2.973680257797241,9.39452075958252,0.18989713490009308,-0.5961105823516846,0.14080029726028442
-2.3799612522125244,3.04307222366333,9.262616157531738,0.211582213640213,-0.593667209148407,0.16156910359859467
-2.233999013900757,3.07417893409729,9.07119083404541,0.20287764072418213,-0.5667899250984192,0.18050536513328552
-1.786242127418518,3.0239295959472656,9.193224906921387,0.12278030067682266,-0.565568208694458,0.1719534993171692
-1.470090389251709,2.885145902633667,9.339486122131348,0.07185091078281403,-0.44095537066459656,0.12430741637945175
-1.6067804098129272,2.9066812992095947,9.358628273010254,0.08055548369884491,-0.24426254630088806,0.06322269141674042
-1.8269200325012207,3.057429075241089,9.104690551757812,0.09544488787651062,-0.04504998400807381,0.04734066128730774
-1.7120646238327026,3.1100711822509766,8.920442581176758,0.042606595903635025,0.07956285774707794,0.06994201242923737
-1.5565310716629028,3.0717861652374268,8.920442581176758,-0.06795676052570343,0.1107160672545433,0.05467082932591438
-1.6067804098129272,3.0837502479553223,8.975478172302246,-0.16301986575126648,0.0594048947095871,-0.007024743594229221
-1.683350682258606,3.059821844100952,9.121439933776855,-0.1996707022190094,-0.021837789565324783,-0.04611896723508835
-1.786242127418518,3.057429075241089,9.238688468933105,-0.18913358449935913,-0.11529742181301117,-0.029626091942191124
-1.848455548286438,3.1148569583892822,9.404091835021973,-0.1543152928352356,-0.1916533261537552,0.00030542362947016954
-1.9728822708129883,3.2228329181671143,9.468698501586914,-0.16859383881092072,-0.3694862425327301,-0.10720369219779968
-2.032702922821045,3.11246395111084,9.468698501586914,-0.25747212767601013,-0.46600010991096497,-0.16340164840221405
-2.147857427597046,2.964108943939209,9.416056632995605,-0.3617742955684662,-0.5478536486625671,-0.22876229882240295
-1.9920248985290527,2.8085756301879883,9.59791088104248,-0.4524851143360138,-0.6235986948013306,-0.23242738842964172
-1.111167073249817,2.710469961166382,9.595518112182617,-0.5102865099906921,-0.7732563018798828,-0.21349111199378967
-0.4289134442806244,2.650649309158325,9.535696983337402,-0.5792359113693237,-0.9491803050041199,-0.30633988976478577
-0.5198407173156738,1.812563180923462,8.333902359008789,-0.6711684465408325,-0.977890133857727,-0.29595550894737244
-0.7184450030326843,1.9154545068740845,10.272985458374023,-0.8270871639251709,-0.930854856967926,-0.32161107659339905
-0.3568296730518341,2.1358933448791504,9.133403778076172,-0.8737406730651855,-1.0157626867294312,-0.31916770339012146
0.011665010824799538,2.0470597743988037,9.92124080657959,-0.8060129284858704,-0.861218273639679,-0.2733541429042816
0.3900300860404968,1.4724832773208618,9.834799766540527,-0.7184327244758606,-0.8496121764183044,-0.4181249439716339
0.28953152894973755,1.5302101373672485,9.475876808166504,-0.7109498381614685,-0.9424609541893005,-0.7076665759086609
0.18873389065265656,1.6235301494598389,9.375378608703613,-0.8209023475646973,-1.0304229259490967,-0.9239065051078796
-0.15583257377147675,1.872383713722229,9.734301567077637,-1.011028528213501,-1.371275782585144,-0.8921424150466919
-0.1821536272764206,1.6187444925308228,9.30329418182373,-1.134037971496582,-1.5447564125061035,-0.6972821354866028
-0.3089732229709625,1.7168502807617188,8.298009872436523,-1.2154333591461182,-1.3401225805282593,-0.5195255875587463
0.07866404205560684,1.7718851566314697,9.28893756866455,-1.4241139888763428,-0.8086854219436646,-0.3173351585865021
0.3517449200153351,1.755135416984558,9.983454704284668,-1.5254383087158203,-0.41835400462150574,-0.28251686692237854
-0.4695914387702942,2.0207388401031494,11.309676170349121,-1.3688323497772217,-0.05543438717722893,-0.1829487532377243
-0.6251249313354492,1.7024933099746704,12.669397354125977,-0.9706363081932068,0.012369656935334206,0.12797249853610992
-0.20608185231685638,1.0441679954528809,12.003893852233887,-0.49913856387138367,-0.13545538485050201,0.6368082761764526
1.1033903360366821,-0.3756731450557709,11.02014446258545,-0.003359660040587187,0.02764083817601204,1.2458993196487427
1.8550357818603516,-1.40279221534729,10.01456069946289,0.4352286756038666,0.4289674758911133,1.5965256690979004
2.2429721355438232,-1.934298038482666,10.217950820922852,0.8315922021865845,0.9707890152931213,1.5794219970703125
2.3961126804351807,-2.8151557445526123,10.603494644165039,1.1702306270599365,1.2102410793304443,1.3717339038848877
2.851048231124878,-2.750549554824829,10.426126480102539,1.327981948852539,0.9292513728141785,0.984991192817688
2.5663022994995117,-1.811964988708496,8.685647010803223,1.416172981262207,0.6885775923728943,0.4731011986732483
1.158425211906433,0.3858426511287689,8.66889762878418,1.4876421689987183,1.3996037244796753,-0.00030542362947016954
-0.8811569213867188,0.9026923179626465,9.851550102233887,1.534830093383789,2.1454482078552246,0.03390202298760414
-1.3384851217269897,1.3504493236541748,9.84676456451416,1.4590849876403809,2.2169175148010254,0.4468347728252411
-1.8436698913574219,1.3145569562911987,8.848658561706543,1.3472236394882202,2.6751291751861572,0.9318475127220154
-3.392723321914673,1.7479569911956787,9.186046600341797,1.073258638381958,2.7924118041992188,1.2123026847839355
-3.3352956771850586,2.2842483520507812,8.997013092041016,0.5644991993904114,2.181488275527954,1.2874369621276855
-1.3983057737350464,1.5134602785110474,8.223832130432129,0.26006820797920227,1.8858381509780884,1.2965996265411377
-1.1614162921905518,1.5541383028030396,8.542078018188477,-0.054899897426366806,2.3476388454437256,0.9538379907608032
-3.0215368270874023,2.370389938354492,10.272985458374023,-0.019470756873488426,2.6910111904144287,0.5494571328163147
-3.900300979614258,2.518744945526123,10.074381828308105,0.13270656764507294,2.1216251850128174,0.46516019105911255
-4.096512317657471,3.230011463165283,9.686445236206055,0.26999449729919434,1.1057862043380737,0.2593046724796295
-3.7782669067382812,2.3033909797668457,8.405686378479004,0.2731250822544098,0.6146650314331055,0.2990097403526306
-4.096512317657471,2.533101797103882,9.128618240356445,0.2121930718421936,0.8510629534721375,0.2898470163345337
-4.082155227661133,2.533101797103882,9.564411163330078,0.2588465213775635,0.8968765139579773,0.28129515051841736
-3.9792640209198,2.4661028385162354,9.049654960632324,0.4185067415237427,0.6836907863616943,0.23853585124015808
-4.060619831085205,2.720041036605835,7.761718273162842,0.3799470067024231,0.5725166201591492,0.20738264918327332
-4.223331928253174,2.892324447631836,8.405686378479004,0.1525591015815735,0.6830799579620361,0.12736165523529053
-4.151547431945801,3.035893678665161,8.355437278747559,0.12400199472904205,0.5767925381660461,0.033291175961494446
-4.551447868347168,2.971287488937378,8.465507507324219,0.0587940476834774,0.32573428750038147,-0.027182703837752342
-4.889134883880615,2.923431158065796,8.408080101013184,0.06253548711538315,0.28602921962738037,0.013133215717971325
-4.587339878082275,2.8013970851898193,8.240582466125488,0.07620319724082947,0.4778352677822113,0.05405998229980469
-4.362414836883545,2.8348965644836426,8.374580383300781,0.0358109213411808,0.649483323097229,-0.003359660040587187
-4.539483547210693,3.0622148513793945,8.898907661437988,0.04321744292974472,0.5890094637870789,-0.1426328420639038
-5.729314804077148,3.2108688354492188,8.53729248046875,0.12278030067682266,-0.009009997360408306,-0.17622943222522736
-5.870491027832031,3.090928554534912,7.8765740394592285,0.06123743951320648,-0.3145099878311157,0.02107422985136509
-5.044668197631836,2.729612350463867,8.587541580200195,0.04199574887752533,-0.2803025245666504,0.14141114056110382
-4.706981182098389,2.7942185401916504,8.903693199157715,0.15691138803958893,-0.27236151695251465,0.10964708030223846
-4.757230281829834,3.033500909805298,8.846264839172363,0.30603447556495667,-0.3468848764896393,0.027182703837752342
-5.061418056488037,3.502793312072754,8.52054214477539,0.388651579618454,-0.7121715545654297,-0.07360709458589554
-5.509174823760986,3.6511483192443848,7.874181270599365,0.32962843775749207,-1.23200261592865,-0.09009996801614761
-4.886742115020752,3.4214372634887695,7.948358535766602,0.18424680829048157,-1.522765874862671,-0.007024743594229221
-3.615255832672119,2.5761725902557373,8.146963119506836,0.03145863488316536,-1.5258201360702515,0.016798298805952072
-2.8731818199157715,2.3799612522125244,8.735896110534668,-0.010155336000025272,-1.1159416437149048,-0.12736165523529053
-3.3975090980529785,2.767897605895996,9.262616157531738,0.06253548711538315,-0.7286643981933594,-0.28496024012565613
-4.470091819763184,3.4621152877807617,9.76062297821045,0.16004198789596558,-0.7445464730262756,-0.22998400032520294
-4.297808647155762,3.3592238426208496,9.126225471496582,0.348259299993515,-1.2057361602783203,-0.038788799196481705
-3.4046874046325684,3.145963668823242,8.863015174865723,0.3668901324272156,-1.3230187892913818,0.12125317752361298
-2.681756019592285,3.002394199371338,8.170890808105469,0.31534990668296814,-1.0273687839508057,0.09620844572782516
-2.8803603649139404,3.1507492065429688,8.95394229888916,0.1277434378862381,0.04718795046210289,0.06261184066534042
-2.940180778503418,3.481257915496826,9.37059211730957,0.1525591015815735,0.10888352245092392,0.028404397889971733
-3.0933215618133545,3.5721850395202637,9.571589469909668,0.21349111199378967,-0.03649812191724777,0.024128466844558716
-3.11246395111084,3.4549367427825928,9.36341381072998,0.32283276319503784,-0.21555273234844208,0.06810946762561798
-2.995215654373169,3.457329511642456,8.901300430297852,0.3725404739379883,-0.25953373312950134,0.13896775245666504
-2.6913273334503174,3.457329511642456,8.522934913635254,0.3488701283931732,-0.13362284004688263,0.18111620843410492
-2.4110679626464844,3.519542932510376,8.312366485595703,0.26251161098480225,0.10888352245092392,0.13530266284942627
-2.425424814224243,3.6320056915283203,8.44157886505127,0.1525591015815735,0.21211670339107513,0.03390202298760414
-2.8037898540496826,3.708575963973999,8.503792762756348,0.06933116167783737,0.12232216447591782,-0.02107422985136509
-3.040679454803467,3.6798620223999023,8.63061237335205,0.02832804247736931,0.1656923145055771,0.030847785994410515
-2.8564319610595703,3.78544545173645,8.951549530029297,0.033291175961494446,0.2536543309688568,0.09498675167560577
-2.703291416168213,3.81655216217041,9.030512809753418,0.06933116167783737,0.2017323076725006,0.07666133344173431
-2.7870402336120605,3.715754508972168,9.042476654052734,0.10224056243896484,0.14736689627170563,0.03145863488316536
-2.9521448612213135,3.7109687328338623,9.037691116333008,0.13766969740390778,0.14858859777450562,0.015576604753732681
-3.3568310737609863,4.039084434509277,9.111868858337402,0.18615570664405823,-0.08353336155414581,0.010689826682209969
-3.2419755458831787,3.964907169342041,8.410472869873047,0.15446799993515015,-0.3450523316860199,0.047951508313417435
-2.820539712905884,3.6894333362579346,8.518149375915527,0.09048175066709518,-0.2247154414653778,0.0650552362203598
-2.533101797103882,3.6583266258239746,8.740681648254395,0.0811663269996643,-0.01572931744158268,0.00519220158457756
-2.633899450302124,3.8189449310302734,8.927620887756348,0.08735115826129913,0.008704573847353458,-0.10842538625001907
-3.392723321914673,4.108476638793945,8.484649658203125,0.06810946762561798,-0.1751604527235031,-0.14080029726028442
-3.330509901046753,3.950550079345703,8.52054214477539,-0.0021379655227065086,-0.18493400514125824,-0.005803049076348543
-2.7774689197540283,3.6822550296783447,8.63061237335205,-0.01885990984737873,-0.10552386194467545,0.08643488585948944
-2.533101797103882,3.6726837158203125,8.525327682495117,-0.03504735976457596,-0.021226942539215088,0.06810946762561798
-2.7080769538879395,3.708575963973999,8.599505424499512,-0.0778830274939537,0.08383878320455551,0.015576604753732681
-2.9760732650756836,3.7734813690185547,8.841479301452637,-0.10712733864784241,0.14248012006282806,0.022906772792339325
-2.9904301166534424,3.9146578311920166,9.061619758605957,-0.08780929446220398,0.1388150453567505,0.0522274412214756
-2.971287488937378,3.972085475921631,9.119047164916992,-0.04184303805232048,0.05329642444849014,0.05650337040424347
-2.861217737197876,3.814159393310547,8.982656478881836,-0.0008399150101467967,-0.04932591691613197,0.04306473210453987
-2.7870402336120605,3.6798620223999023,8.812766075134277,-0.003970507066696882,-0.016340164467692375,0.04550812020897865
-2.720041036605835,3.636791229248047,8.93240737915039,-0.007101099472492933,0.072843536734581,0.05528167635202408
-2.7870402336120605,3.85483717918396,9.257830619812012,0.035200074315071106,0.17241163551807404,0.04367557913064957
-3.0789644718170166,4.0797624588012695,9.121439933776855,0.09544488787651062,0.05635065957903862,0.027182703837752342
-3.1483564376831055,4.058227062225342,8.965906143188477,0.10720369219779968,0.001985253533348441,0.0393996499478817
-2.9114668369293213,3.809373617172241,8.750253677368164,0.10224056243896484,0.0844496339559555,0.08154810965061188
-2.954537868499756,3.9194436073303223,9.243474006652832,0.1283542811870575,0.1253764033317566,0.08887827396392822
-2.9066812992095947,4.168296813964844,8.561220169067383,0.1438545286655426,-0.29923880100250244,0.07482878863811493
-2.6024937629699707,3.895515203475952,8.601898193359375,0.1289651244878769,-0.334057092666626,0.07116370648145676
-2.415853500366211,3.8356947898864746,8.55882740020752,0.1519482582807541,-0.10857810080051422,-0.025961007922887802
-3.0143582820892334,3.9936211109161377,8.640183448791504,0.13644801080226898,0.09177979826927185,-0.13591352105140686
-3.416651725769043,4.132404804229736,8.534899711608887,0.11407572776079178,0.04352286830544472,-0.13591352105140686
-3.533900022506714,4.242474555969238,8.479864120483398,0.0165692325681448,-0.18676654994487762,-0.033291175961494446
-3.009572744369507,3.902693748474121,9.073583602905273,-0.031916771084070206,-0.4653892517089844,0.025961007922887802
-2.6051857471466064,3.759124279022217,9.205188751220703,0.03023693896830082,-0.7659261226654053,0.00030542362947016954
-2.509173631668091,3.8189449310302734,8.884550094604492,0.06749862432479858,-0.8532772660255432,-0.06810946762561798
-2.688934564590454,4.115654945373535,8.958727836608887,0.0755159929394722,-0.6516976952552795,-0.16095824539661407
-2.7631118297576904,4.256831645965576,9.298508644104004,0.07742489129304886,-0.5851153135299683,-0.19394400715827942
-2.6602206230163574,4.2592244148254395,10.076774597167969,0.13705885410308838,-0.8117396235466003,-0.1817270666360855
-2.2316062450408936,4.113262176513672,9.933204650878906,0.2967190444469452,-1.3663889169692993,-0.11270131915807724
-2.095215320587158,4.1491546630859375,9.61226749420166,0.37620556354522705,-1.4671787023544312,-0.13774605095386505
-1.5158531665802002,3.799802303314209,9.416056632995605,0.49180838465690613,-1.443355679512024,-0.18905723094940186
-1.6067804098129272,4.0558342933654785,8.913264274597168,0.5302917957305908,-1.235056757926941,-0.2104368805885315
-1.5158531665802002,4.295116424560547,8.67607593536377,0.5290700793266296,-0.8722135424613953,-0.14629791676998138
-1.0609177350997925,4.338486671447754,8.5731840133667,0.4656946659088135,-0.671855628490448,-0.09437590092420578
-1.0226325988769531,4.482056140899658,8.534899711608887,0.3898732662200928,-0.7329403758049011,-0.13774605095386505
-1.0609177350997925,4.324129581451416,8.549256324768066,0.36070531606674194,-0.7763105034828186,-0.15240639448165894
-1.4967105388641357,3.9864425659179688,8.355437278747559,0.3315373361110687,-0.7848623991012573,-0.1707318127155304
-2.0398812294006348,4.980062007904053,8.915657043457031,0.3327590525150299,-0.7530983090400696,-0.07971556484699249
-0.11994023621082306,4.465306282043457,7.871788501739502,0.32779592275619507,-0.7873057723045349,0.1695101112127304
0.6675975322723389,3.7444684505462646,8.01775074005127,0.16691401600837708,-0.30046048760414124,-0.08215895295143127
-0.3810569941997528,5.336592674255371,9.013762474060059,0.07246175408363342,-0.3817031681537628,-0.3649812340736389
-0.5078766345977783,4.800301551818848,8.793622970581055,0.17684027552604675,-0.7915816903114319,-0.37353309988975525
-0.45523449778556824,4.587339878082275,7.4862446784973145,0.06001574173569679,-0.8312867879867554,-0.2238755226135254
-0.3568296730518341,4.410271167755127,7.890930652618408,-0.04680617153644562,-0.3187859058380127,-0.03451287001371384
-0.49591249227523804,4.659124851226807,8.262117385864258,-0.11705360561609268,0.11804623156785965,0.12613995373249054
-0.28504499793052673,4.651946544647217,8.546863555908203,-0.2208212912082672,0.5590779781341553,0.19883078336715698
-0.30179476737976074,4.628017902374268,8.874979019165039,-0.2531198263168335,0.47417017817497253,0.15240639448165894
-0.4097708761692047,4.59930419921875,9.461520195007324,-0.20898611843585968,0.25060009956359863,0.07055285573005676
-0.7256234884262085,4.639982223510742,9.59791088104248,-0.07291989028453827,0.072232685983181,0.006413896102458239
-0.9987043738365173,4.570590496063232,9.255437850952148,0.06497887521982193,0.09177979826927185,0.011911521665751934
-0.92691969871521,4.496412754058838,8.863015174865723,0.12155860662460327,0.13514995574951172,0.09620844572782516
-0.5222335457801819,4.371985912322998,8.779266357421875,0.10659284889698029,0.1779092699289322,0.13774605095386505
-0.4097708761692047,4.422235488891602,8.714361190795898,0.07742489129304886,0.2939702570438385,0.12430741637945175
-0.7423732280731201,4.596911430358887,8.733503341674805,0.053830914199352264,0.36971530318260193,0.09926267713308334
-1.072881817817688,4.78594446182251,8.731110572814941,0.01779092662036419,0.31473904848098755,0.09071081876754761
-1.013061285018921,4.704588413238525,8.858229637145996,-0.007711946498602629,0.2414373755455017,0.11636640131473541
-0.7112665176391602,4.534698009490967,9.097511291503906,0.018401773646473885,0.1754658818244934,0.1298050433397293
-0.617946445941925,4.477270126342773,8.9850492477417,0.0525328628718853,0.15347537398338318,0.12125317752361298
-0.9122636318206787,4.5562334060668945,8.86062240600586,0.1265217363834381,0.19379130005836487,0.08582404255867004
-1.1542378664016724,4.726123809814453,8.424829483032227,0.08796200156211853,0.001374406274408102,0.10598199814558029
-1.0250253677368164,4.671088695526123,8.55882740020752,0.0587940476834774,-0.03894151374697685,0.11514470726251602
-0.6251249313354492,4.589733123779297,8.443971633911133,-0.01763821393251419,-0.023059483617544174,0.08093725889921188
-0.5533402562141418,4.568197727203369,8.621041297912598,-0.06734590977430344,0.26342788338661194,0.027793550863862038
-0.7184450030326843,4.525126934051514,8.625826835632324,-0.0784938707947731,0.538919985294342,0.00030542362947016954
-1.1303095817565918,4.8314080238342285,9.006584167480469,-0.08842013776302338,0.5413633584976196,-0.005803049076348543
-1.013061285018921,4.644767761230469,8.944371223449707,-0.0623827762901783,0.3849864900112152,0.02107422985136509
-0.9771689176559448,4.637589454650879,8.906085968017578,-0.038101598620414734,0.3446705639362335,0.011911521665751934
-1.0944172143936157,4.625625133514404,8.436793327331543,-0.004581354558467865,0.42163732647895813,0.002748812548816204
-1.2116655111312866,4.3983073234558105,8.432007789611816,-0.03130592033267021,0.6763606071472168,0.10598199814558029
-1.1590235233306885,4.297509670257568,8.542078018188477,-0.03443651273846626,0.7765395641326904,0.17745113372802734
-1.0082756280899048,4.470091819763184,8.894122123718262,0.01901262067258358,0.8021951913833618,0.20127417147159576
-1.2499507665634155,4.709373950958252,8.52054214477539,0.07055285573005676,0.6946860551834106,0.05405998229980469
-1.7288143634796143,4.632803916931152,7.835896015167236,-0.0021379655227065086,0.9506310224533081,-0.01252236869186163
-2.4110679626464844,4.525126934051514,8.52772045135498,-0.47050508856773376,1.0740221738815308,0.06261184066534042
-2.4972095489501953,4.54426908493042,8.827122688293457,-0.4748573899269104,0.9671239256858826,0.03512371703982353
-2.566601276397705,4.4844489097595215,8.743074417114258,-0.38910970091819763,0.7160657048225403,-0.04367557913064957
-2.9042885303497314,4.098905086517334,8.654540061950684,-0.4127800464630127,0.7081246972084045,-0.040010496973991394
-4.077369689941406,4.671088695526123,8.522934913635254,-0.4201865494251251,1.1625950336456299,0.10353861004114151
-3.402294635772705,3.996013879776001,9.159725189208984,-0.46432027220726013,1.3281346559524536,0.2208212912082672
-3.0837502479553223,3.864408493041992,9.72233772277832,-0.4065188467502594,1.398992896080017,0.21654535830020905
-2.7559335231781006,3.8763725757598877,9.471091270446777,-0.24006296694278717,1.1680927276611328,0.10903623700141907
-3.4597225189208984,4.302295207977295,9.29611587524414,-0.11453386396169662,1.019656777381897,-0.08399149775505066
-3.814159393310547,4.345664978027344,8.872586250305176,-0.08910734206438065,1.0844066143035889,0.07666133344173431
-3.670290946960449,4.036691665649414,8.834300994873047,0.015271181240677834,1.2487244606018066,0.10353861004114151
-4.106083869934082,4.59930419921875,8.00100040435791,0.007177455350756645,1.2859861850738525,0.12064233422279358
-3.8572301864624023,4.410271167755127,8.779266357421875,-0.10277505218982697,1.0642486810684204,0.1579040139913559
-3.895515203475952,4.07258415222168,8.910871505737305,-0.027564482763409615,0.6024481058120728,0.12858334183692932
-4.47487735748291,4.271188259124756,8.393722534179688,0.0749051421880722,0.333064466714859,0.19027891755104065
-4.146761417388916,4.175475597381592,8.262117385864258,0.11651911586523056,0.31168481707572937,0.28007346391677856
-3.735196113586426,4.374378681182861,8.594719886779785,0.16378341615200043,0.19440214335918427,0.2489202618598938
-3.715754508972168,4.503591537475586,8.204689979553223,0.23273280262947083,-0.021837789565324783,0.11209046840667725
-4.029513359069824,4.584947109222412,7.479066371917725,0.19295138120651245,-0.11468657106161118,-0.008857285603880882
-4.254438877105713,4.393521308898926,7.184749126434326,0.010308047756552696,0.001374406274408102,-0.03390202298760414
-4.077369689941406,4.1347975730896,7.895716667175293,-0.14186927676200867,0.3239017724990845,-0.002748812548816204
-3.9696927070617676,4.170690059661865,8.740681648254395,-0.11018157750368118,0.4796678125858307,-0.03451287001371384
-4.659124851226807,4.611268520355225,8.640183448791504,0.030847785994410515,0.06123743951320648,-0.0656660795211792
-4.604089736938477,4.489234447479248,7.5101728439331055,0.008475505746901035,-0.3310028612613678,0.022906772792339325
-3.7782669067382812,4.101297855377197,7.8382887840271,-0.07169819623231888,-0.09025268256664276,0.032069481909275055
-3.7782669067382812,4.074976921081543,8.178069114685059,-0.06482616811990738,0.2279987335205078,-0.10292776674032211
-4.565804481506348,4.472484588623047,8.40329360961914,-0.062993623316288,0.28908345103263855,-0.15484978258609772
-4.840979099273682,4.5562334060668945,8.439186096191406,-0.01885990984737873,0.024586603045463562,-0.10170606523752213
-4.422235488891602,4.314558506011963,7.981858253479004,-0.003359660040587187,-0.1763821393251419,-0.016798298805952072
-4.039084434509277,4.098905086517334,7.881359577178955,-0.03130592033267021,-0.10063708573579788,-0.003970507066696882
-4.077369689941406,4.074976921081543,8.398508071899414,-0.013285927474498749,0.13026317954063416,-0.03268032893538475
-4.453341960906982,4.321736812591553,8.242975234985352,0.05757235363125801,0.05757235363125801,-0.038788799196481705
-4.407878398895264,4.268795490264893,7.740182876586914,0.03023693896830082,0.049020491540431976,0.018019994720816612
-4.125226020812988,4.304687976837158,7.771289825439453,-0.03443651273846626,0.18768282234668732,-0.00030542362947016954
-4.1347975730896,4.275974273681641,7.953144073486328,-0.05803048983216286,0.2652604281902313,-0.03634541109204292
-4.400700092315674,4.338486671447754,8.477471351623535,-0.04558447748422623,0.26037365198135376,-0.10170606523752213
-4.60648250579834,4.328915119171143,8.518149375915527,0.03145863488316536,0.02764083817601204,-0.09865183383226395
-4.628017902374268,4.232903480529785,8.166105270385742,0.06184828653931618,-0.08903098851442337,-0.07971556484699249
-4.53709077835083,4.12761926651001,7.7832536697387695,0.05566345527768135,-0.07314895838499069,-0.019241688773036003
-4.582554340362549,4.235296249389648,7.9244303703308105,-0.004581354558467865,0.014202198944985867,0.027793550863862038
-4.687838554382324,4.304687976837158,7.871788501739502,-0.01511846948415041,-0.21738526225090027,0.0528382882475853
-4.237689018249512,4.089334011077881,7.843074321746826,-0.0325276181101799,-0.24426254630088806,0.07971556484699249
-3.8213376998901367,3.972085475921631,8.146963119506836,0.012216945178806782,-0.004123218823224306,-0.003359660040587187
-4.3193440437316895,4.232903480529785,7.857431411743164,0.030847785994410515,0.03924693539738655,-0.08826743066310883
-4.623232364654541,4.393521308898926,7.953144073486328,-0.013896775431931019,0.07406523078680038,-0.0656660795211792
-4.525126934051514,4.395914077758789,8.29561710357666,-0.029473381116986275,-0.09147437661886215,-0.03268032893538475
-4.395914077758789,4.4605207443237305,8.319544792175293,-0.007101099472492933,-0.48066043853759766,-0.03634541109204292
-4.333701133728027,4.213760852813721,8.235795974731445,0.007177455350756645,-0.7818081378936768,-0.04367557913064957
-4.144368648529053,4.118047714233398,8.127820014953613,0.014049487188458443,-0.8044095039367676,-0.0015271181473508477
-3.9792640209198,4.163511276245117,8.158926963806152,0.011529741808772087,-0.7866948843002319,0.010689826682209969
-3.84765887260437,4.182653903961182,8.170890808105469,0.0022143214009702206,-0.8673267364501953,0.0021379655227065086
-3.8500516414642334,4.324129581451416,7.800003528594971,-0.04810422286391258,-0.9687274098396301,-0.06872031837701797
-3.715754508972168,4.094119548797607,7.780860900878906,-0.09590301662683487,-0.9332982301712036,-0.09009996801614761
-3.7495529651641846,3.9744784832000732,7.9244303703308105,-0.2002815455198288,-0.6877376437187195,-0.07727217674255371
-3.615255832672119,3.9672999382019043,8.776873588562012,-0.22700610756874084,-0.4843255281448364,-0.04367557913064957
-3.553042411804199,4.130012035369873,9.279366493225098,-0.14186927676200867,-0.6028298735618591,-0.05528167635202408
-3.6415770053863525,4.29033088684082,9.231510162353516,-0.03749075159430504,-0.8978691101074219,-0.09559759497642517
-3.4453654289245605,4.333701133728027,9.478269577026367,0.0358109213411808,-1.1495381593704224,-0.12064233422279358
-3.0311081409454346,4.360022068023682,9.93559741973877,0.16813570261001587,-1.7139610052108765,-0.1695101112127304
-2.681756019592285,4.41266393661499,9.746265411376953,0.3339807391166687,-2.62839937210083,-0.25441789627075195
-2.597707986831665,4.285545349121094,6.698707103729248,0.26755109429359436,-2.7682833671569824,-0.36131614446640015
-1.6929219961166382,3.761517286300659,7.371389389038086,-0.04932591691613197,-1.6553196907043457,-0.20616094768047333
-0.9771689176559448,2.6192433834075928,7.938787460327148,-0.2208212912082672,-0.3334462344646454,-0.051616594195365906
-2.29142689704895,3.783052682876587,9.926026344299316,-0.20280128717422485,0.5584670901298523,0.20310671627521515
-2.525923490524292,4.546662330627441,10.68245792388916,0.0364217683672905,0.4039227366447449,0.6600204706192017
-1.5589239597320557,4.596911430358887,10.787741661071777,0.3333698809146881,-0.4116346836090088,0.6765133142471313
-0.6107679605484009,4.3070807456970215,9.83719253540039,0.5998520255088806,-1.065852165222168,0.4969242513179779
-0.08883354067802429,4.039084434509277,8.575576782226562,0.6875085830688477,-1.026757836341858,0.197609081864357
-1.6354942321777344,4.7931227684021,8.30997371673584,0.05757235363125801,0.34161633253097534,0.08826743066310883
-1.0657033920288086,4.59212589263916,8.671290397644043,-0.014507622458040714,0.305576354265213,0.22876229882240295
-0.7471588850021362,4.498805522918701,8.525327682495117,-0.0164165198802948,0.22005772590637207,0.1823379099369049
-0.7902296781539917,4.570590496063232,8.604290962219238,-0.07169819623231888,0.15958385169506073,0.046729814261198044
-1.1255239248275757,4.59930419921875,8.759824752807617,-0.09529217332601547,0.15347537398338318,-0.0662769302725792
-1.3504493236541748,4.561018943786621,8.731110572814941,-0.08284615725278854,0.21028417348861694,-0.10659284889698029
-1.2236297130584717,4.494019985198975,8.63061237335205,-0.09468132257461548,0.20722992718219757,-0.08521319180727005
-1.0633105039596558,4.340879440307617,8.649754524230957,-0.11147962510585785,0.17424418032169342,-0.07727217674255371
-1.0513464212417603,4.3432722091674805,8.800801277160645,-0.1083490327000618,0.11621369421482086,-0.08460234850645065
-1.2762718200683594,4.477270126342773,8.915657043457031,-0.0561215914785862,0.06368082761764526,-0.11331216990947723
-1.5996019840240479,4.611268520355225,8.726325035095215,-0.010766183026134968,-0.009009997360408306,-0.1291942000389099
-1.5708880424499512,4.553840637207031,8.381758689880371,-0.038101598620414734,-0.07559234648942947,-0.10659284889698029
-1.1997014284133911,4.379164695739746,8.499007225036621,-0.14309096336364746,-0.1104106456041336,-0.091932512819767
-1.0657033920288086,4.170690059661865,8.613862037658691,-0.18226155638694763,-0.06581879407167435,-0.14141114056110382
-1.511067509651184,4.3911285400390625,8.817551612854004,-0.14125843346118927,-0.05604523420333862,-0.21349111199378967
-1.7647067308425903,4.522733688354492,8.846264839172363,-0.1325538605451584,-0.10430216789245605,-0.197609081864357
-1.719243049621582,4.362414836883545,9.018548965454102,-0.14996300637722015,-0.12018419802188873,-0.15912571549415588
-1.5804593563079834,4.1419758796691895,9.255437850952148,-0.12323843687772751,-0.16172181069850922,-0.08887827396392822
-1.4413765668869019,4.1491546630859375,9.238688468933105,-0.0561215914785862,-0.13362284004688263,-0.042453885078430176
-1.3911272287368774,4.1419758796691895,8.994620323181152,0.0022143214009702206,0.04963133856654167,-0.06383354216814041
-1.5086746215820312,4.429413795471191,8.858229637145996,-0.023212196305394173,0.15591876208782196,-0.09926267713308334
-1.4653047323226929,4.304687976837158,9.09990406036377,-0.08162446320056915,0.15714046359062195,-0.11636640131473541
-1.4991034269332886,4.192225456237793,9.183652877807617,-0.06543701142072678,0.14186927676200867,-0.14141114056110382
-1.6809579133987427,4.146761417388916,8.999405860900879,-0.028786176815629005,0.1901262104511261,-0.1310267299413681
-1.8149559497833252,4.170690059661865,8.930013656616211,-0.038788799196481705,0.2041756957769394,-0.07666133344173431
-1.7766708135604858,4.06540584564209,8.96829891204834,-0.04810422286391258,0.2279987335205078,-0.04856235533952713
-1.95852530002594,4.108476638793945,8.944371223449707,-0.027564482763409615,0.3080197274684906,-0.01252236869186163
-2.0976080894470215,4.204189300537109,8.982656478881836,-0.023823043331503868,0.2701472043991089,0.06749862432479858
-1.9489539861679077,4.139583110809326,9.068798065185547,-0.003970507066696882,0.1375933438539505,0.11209046840667725
-1.6618152856826782,4.0797624588012695,8.980263710021973,0.03451287001371384,0.03130592033267021,0.08399149775505066
-1.9154545068740845,4.156332969665527,8.695218086242676,-0.007101099472492933,0.18401773273944855,-0.011911521665751934
-2.157428741455078,4.280759811401367,8.95394229888916,-0.018249060958623886,0.10582929104566574,0.013744063675403595
-2.0665013790130615,4.472484588623047,8.817551612854004,-0.038788799196481705,-0.0590994730591774,0.042453885078430176
-1.4246268272399902,4.125226020812988,8.915657043457031,-0.0393996499478817,-0.19226416945457458,0.03145863488316536
-1.482353687286377,4.1347975730896,8.82233715057373,-0.002748812548816204,-0.04077405482530594,-0.06261184066534042
-1.8843477964401245,4.314558506011963,8.82951545715332,-0.008322793990373611,0.10949437320232391,-0.06383354216814041
-1.7910277843475342,4.168296813964844,8.949156761169434,-0.028786176815629005,0.11315945535898209,-0.02351761981844902
-1.7288143634796143,4.2281174659729,9.037691116333008,-0.021379653364419937,0.02764083817601204,-0.022906772792339325
-1.7120646238327026,4.161118507385254,9.073583602905273,-0.007101099472492933,-0.004123218823224306,-0.051616594195365906
-1.9369899034500122,4.1970109939575195,9.011369705200195,0.014049487188458443,0.01725643500685692,-0.08399149775505066
-2.1430718898773193,4.1970109939575195,8.941978454589844,0.023975754156708717,0.056961506605148315,-0.04978405311703682
-2.155035972595215,4.125226020812988,9.011369705200195,0.02832804247736931,0.08383878320455551,0.02229592576622963
-1.963310956954956,4.0797624588012695,9.066405296325684,0.05444176122546196,0.09422318637371063,0.07482878863811493
-1.755135416984558,4.077369689941406,9.078369140625,0.09666658192873001,0.06245913356542587,0.09009996801614761
-1.7910277843475342,4.249652862548828,9.109476089477539,0.14202198386192322,-0.01817270554602146,0.07299624383449554
-1.8269200325012207,4.223331928253174,9.190832138061523,0.21288026869297028,-0.08903098851442337,0.057114217430353165
-1.664208173751831,4.192225456237793,8.877371788024902,0.2812187969684601,-0.12201674282550812,0.006413896102458239
-1.573280930519104,4.225724697113037,8.455936431884766,0.2898470163345337,-0.10552386194467545,-0.055892523378133774
-1.8149559497833252,4.410271167755127,8.058428764343262,0.20287764072418213,-0.018783552572131157,-0.09437590092420578
-2.511566400527954,4.446163654327393,7.862216949462891,0.0364217683672905,0.2976353168487549,-0.0009162708884105086
-2.4278175830841064,4.175475597381592,8.443971633911133,-0.1319430023431778,0.7313368916511536,0.21349111199378967
-2.461317300796509,4.515555381774902,9.042476654052734,-0.11453386396169662,0.6629219651222229,0.1695101112127304
-2.1598215103149414,4.326522350311279,9.430413246154785,-0.010155336000025272,0.25121092796325684,0.1304158866405487
-2.0135602951049805,3.9744784832000732,9.032905578613281,0.06620056927204132,0.02214321307837963,0.1310267299413681
-2.133500576019287,4.369593143463135,8.606683731079102,0.14820681512355804,0.14125843346118927,0.13408097624778748
-1.9896320104599,4.386343002319336,8.415258407592773,0.13087402284145355,0.35444411635398865,0.1181989461183548
-2.1311075687408447,4.568197727203369,8.472685813903809,0.0594048947095871,0.4014793634414673,0.091321662068367
-2.1981067657470703,4.539483547210693,8.436793327331543,0.019623467698693275,0.27808821201324463,0.041232191026210785
-2.2866411209106445,4.46769905090332,8.321938514709473,-0.010766183026134968,0.1656923145055771,0.029626091942191124
-2.336890459060669,4.443770885467529,8.259724617004395,-0.041232191026210785,0.17913095653057098,0.038788799196481705
-2.1741783618927,4.348057746887207,8.489435195922852,-0.07475243508815765,0.2958027720451355,0.03390202298760414
-2.1526429653167725,4.4844489097595215,8.810373306274414,-0.0784938707947731,0.36666107177734375,-0.03512371703982353
-2.736790895462036,4.678267478942871,8.891729354858398,-0.04871506989002228,0.33917292952537537,-0.11392301321029663
-3.203690528869629,4.59930419921875,8.731110572814941,-0.03008422814309597,0.2927485406398773,-0.0778830274939537
-3.0693931579589844,4.446163654327393,8.884550094604492,-0.028786176815629005,0.13514995574951172,0.007635590620338917
-2.588136672973633,4.295116424560547,8.774480819702148,0.0022143214009702206,-0.06276455521583557,0.007024743594229221
-2.511566400527954,4.237689018249512,8.41286563873291,0.007177455350756645,-0.11590826511383057,-0.07543963938951492
-2.648256540298462,4.348057746887207,8.436793327331543,-0.028786176815629005,-0.08658760040998459,-0.1188097894191742
-2.679363250732422,4.453341960906982,8.499007225036621,-0.06543701142072678,-0.12629267573356628,-0.11270131915807724
-2.6362924575805664,4.3672003746032715,8.532505989074707,-0.07475243508815765,-0.1495048701763153,-0.08338065445423126
-2.7008986473083496,4.29033088684082,8.666504859924316,-0.07108735293149948,-0.07009471952915192,-0.02351761981844902
-2.650649309158325,4.256831645965576,8.906085968017578,-0.040010496973991394,-0.018783552572131157,0.025350160896778107
-2.4589242935180664,4.3070807456970215,8.728717803955078,-0.008933641016483307,-0.03649812191724777,0.013744063675403595
-2.418246269226074,4.333701133728027,8.585148811340332,-0.04558447748422623,0.02214321307837963,-0.05405998229980469
-2.8085756301879883,4.364807605743408,8.784051895141602,-0.09216158092021942,0.18585027754306793,-0.09071081876754761
-3.4190444946289062,4.594518661499023,9.193224906921387,-0.05741964280605316,0.10155335813760757,-0.022906772792339325
-3.3281171321868896,4.7141594886779785,9.042476654052734,-0.03443651273846626,-0.04504998400807381,0.03573456406593323
-2.8755745887756348,4.3193440437316895,9.016156196594238,-0.01885990984737873,-0.12629267573356628,0.08826743066310883
-2.2794625759124756,4.027120590209961,8.841479301452637,0.05008947476744652,-0.10613471269607544,0.06688777357339859
-2.1119651794433594,4.163511276245117,8.64496898651123,0.07986827939748764,-0.03527642786502838,-0.03145863488316536
-2.573779821395874,4.436592102050781,8.625826835632324,0.08055548369884491,-0.034665580838918686,-0.14018943905830383
-3.0622148513793945,4.692624092102051,8.415258407592773,0.06001574173569679,-0.15866757929325104,-0.14018943905830383
-2.6937201023101807,4.355236530303955,8.400900840759277,-0.00519220158457756,-0.2118876427412033,-0.09559759497642517
-2.439781904220581,4.132404804229736,8.80798053741455,-0.03443651273846626,-0.16111096739768982,-0.11514470726251602
-2.5785655975341797,4.067798614501953,9.21715259552002,0.014660334214568138,-0.17943638563156128,-0.11209046840667725
-2.899502754211426,4.348057746887207,9.198010444641113,0.1265217363834381,-0.3456631898880005,-0.06688777357339859
-2.8875386714935303,4.496412754058838,8.508578300476074,0.1743205338716507,-0.5539621114730835,0.007635590620338917
-2.3799612522125244,4.448556423187256,7.9316086769104,0.0823880210518837,-0.5154787302017212,0.07116370648145676
-1.7958134412765503,4.213760852813721,8.226224899291992,-0.052456509321928024,-0.1244601309299469,0.047951508313417435
-1.867598056793213,4.106083869934082,9.133403778076172,-0.07979192584753036,0.18707197904586792,-0.02901524491608143
-2.4996023178100586,4.2831525802612305,9.243474006652832,0.03955236077308655,0.13026317954063416,-0.07360709458589554
-2.861217737197876,4.52991247177124,8.719146728515625,0.10040801763534546,-0.059710320085287094,0.002748812548816204
-2.5594229698181152,4.395914077758789,8.503792762756348,0.07620319724082947,-0.10552386194467545,0.08460234850645065
-2.212463617324829,4.299902439117432,8.654540061950684,0.04321744292974472,-0.019394399598240852,0.09009996801614761
-2.171785593032837,4.29033088684082,8.731110572814941,0.030847785994410515,-0.004123218823224306,0.042453885078430176
-2.29860520362854,4.379164695739746,8.628219604492188,0.0295497365295887,-0.009620844386518002,0.010689826682209969
-2.401496648788452,4.400700092315674,8.575576782226562,0.00908635277301073,0.012980503961443901,0.03145863488316536
-2.3416759967803955,4.429413795471191,8.68325424194336,-0.013896775431931019,0.06184828653931618,0.06994201242923737
-2.212463617324829,4.446163654327393,8.796015739440918,-0.011453386396169662,0.04291202127933502,0.07605048269033432
-2.155035972595215,4.403092861175537,8.642576217651367,0.0016034740256145597,-0.05726693198084831,0.04550812020897865
-2.1693928241729736,4.400700092315674,8.372187614440918,-0.0164165198802948,-0.09330692142248154,0.008246437646448612
-2.2172493934631348,4.534698009490967,8.463114738464355,-0.08223531395196915,-0.07620319724082947,-0.007024743594229221
-2.1119651794433594,4.417449474334717,8.767302513122559,-0.11331216990947723,-0.018783552572131157,-0.025350160896778107
-2.2555344104766846,4.403092861175537,8.95394229888916,-0.08162446320056915,-0.0853659063577652,-0.04550812020897865
-2.2531416416168213,4.417449474334717,8.788837432861328,-0.02695363573729992,-0.19715094566345215,-0.040010496973991394
-2.2387847900390625,4.381557464599609,8.623434066772461,-0.021379653364419937,-0.2644205093383789,-0.038788799196481705
-2.3632113933563232,4.434199333190918,8.597112655639648,-0.04497363045811653,-0.19226416945457458,-0.03268032893538475
-2.367997169494629,4.3672003746032715,8.8438720703125,-0.07291989028453827,-0.14278554916381836,-0.005803049076348543
-2.2962124347686768,4.324129581451416,8.951549530029297,-0.07291989028453827,-0.15561333298683167,0.007024743594229221
-2.1071794033050537,4.264009952545166,8.96829891204834,-0.042453885078430176,-0.22899135947227478,0.00519220158457756
-2.0497517585754395,4.252045631408691,8.846264839172363,-0.028786176815629005,-0.2631988227367401,-0.009468132629990578
-2.1526429653167725,4.324129581451416,8.752646446228027,-0.03443651273846626,-0.2613662779331207,-0.037567105144262314
-2.1287147998809814,4.304687976837158,8.714361190795898,-0.07108735293149948,-0.13056860864162445,-0.01435491070151329
-2.2698912620544434,4.237689018249512,9.439984321594238,-0.08910734206438065,-0.11896250396966934,0.041232191026210785
-2.0063817501068115,4.374378681182861,9.37298583984375,0.03764346241950989,-0.23387815058231354,0.08154810965061188
-1.903490424156189,4.333701133728027,8.97787094116211,0.09918632358312607,-0.40491536259651184,0.10109522193670273
-1.9010975360870361,4.299902439117432,8.709575653076172,0.1047603040933609,-0.3963635265827179,0.12613995373249054
-1.7742780447006226,4.158725738525391,8.52772045135498,0.06436803191900253,-0.22166119515895844,0.1572931706905365
-1.7934205532073975,4.256831645965576,8.700003623962402,0.013438640162348747,-0.05787777900695801,0.16706672310829163
-1.7838492393493652,4.340879440307617,8.908478736877441,0.007177455350756645,-0.05238015204668045,0.1719534993171692
-1.7048860788345337,4.295116424560547,8.913264274597168,0.0295497365295887,-0.09269607067108154,0.1701209545135498
-1.5804593563079834,4.254438877105713,8.788837432861328,0.05688514932990074,-0.037108972668647766,0.16462333500385284
-1.511067509651184,4.3672003746032715,8.731110572814941,0.04947862774133682,0.03558185324072838,0.144465371966362
-1.415055513381958,4.455734729766846,8.874979019165039,0.032069481909275055,0.025808297097682953,0.10903623700141907
-1.3983057737350464,4.448556423187256,8.848658561706543,0.03825430944561958,-0.02244863659143448,0.050394900143146515
-1.4967105388641357,4.47487735748291,8.781659126281738,0.03764346241950989,-0.03405473381280899,0.011911521665751934
-1.5948163270950317,4.491627216339111,8.709575653076172,0.022754060104489326,-0.026724567636847496,0.010689826682209969
-1.568495273590088,4.498805522918701,8.716753959655762,0.0029015245381742716,-0.020005248486995697,0.033291175961494446
-1.407876968383789,4.458127498626709,8.7478609085083,-0.010155336000025272,-0.013285927474498749,0.03817795217037201
-1.3695918321609497,4.441378116607666,8.776873588562012,-0.013896775431931019,-0.02244863659143448,0.010078979656100273
-1.383948802947998,4.427021026611328,8.774480819702148,-0.025731941685080528,-0.028557108715176582,-0.022906772792339325
-1.4796617031097412,4.441378116607666,8.803194046020508,-0.03008422814309597,-0.0022906772792339325,-0.0522274412214756
-1.5828521251678467,4.450949192047119,8.86062240600586,-0.030695075169205666,0.03436015918850899,-0.05650337040424347
-1.5565310716629028,4.403092861175537,8.96112060546875,-0.02695363573729992,0.02764083817601204,-0.046729814261198044
-1.6211373805999756,4.3911285400390625,8.958727836608887,0.0035123717971146107,-0.0065666078589856625,-0.051616594195365906
-1.7359927892684937,4.395914077758789,8.788837432861328,0.017180079594254494,-0.04810422286391258,-0.046729814261198044
-1.5565310716629028,4.287938117980957,8.83669376373291,-0.05741964280605316,0.0844496339559555,-0.05528167635202408
-1.7766708135604858,4.355236530303955,8.76221752166748,-0.05741964280605316,0.07467607408761978,-0.060779303312301636
-2.018345832824707,4.541876316070557,8.872586250305176,-0.056808795779943466,-0.04321744292974472,-0.03268032893538475
-1.7718851566314697,4.362414836883545,8.858229637145996,-0.043141089379787445,-0.10796725004911423,0.00519220158457756
-1.470090389251709,4.314558506011963,8.772088050842285,-0.030695075169205666,-0.15561333298683167,0.010689826682209969
-1.2523435354232788,4.240081787109375,8.700003623962402,-0.03008422814309597,-0.1519482582807541,-0.029626091942191124
-1.474876046180725,4.5323052406311035,8.671290397644043,-0.038101598620414734,-0.14828316867351532,-0.1041494607925415
-1.470090389251709,4.496412754058838,8.621041297912598,-0.08719844371080399,-0.14583978056907654,-0.1707318127155304
-1.297807216644287,4.431806564331055,8.769695281982422,-0.15057384967803955,-0.1776038408279419,-0.23792500793933868
-1.2667005062103271,4.314558506011963,9.09272575378418,-0.15866757929325104,-0.188599094748497,-0.3277195692062378
-1.0274182558059692,4.0797624588012695,8.422436714172363,0.014660334214568138,-0.8349518179893494,-0.45233240723609924
0.28953152894973755,2.408675193786621,7.610671520233154,-0.32512345910072327,-0.981555163860321,-0.7149966955184937
-0.8045865893363953,4.122833251953125,6.760920524597168,-1.0694408416748047,-0.9662840366363525,-1.0204203128814697
-1.1063814163208008,3.588934898376465,8.113463401794434,-1.420448899269104,-0.4519506096839905,-0.8915315866470337
-0.5916253924369812,2.480459690093994,8.688039779663086,-1.5887373685836792,-0.30656898021698,-1.0222529172897339
-0.1462612897157669,2.0736799240112305,9.573982238769531,-1.6552433967590332,-0.3975852131843567,-1.2171131372451782
-0.7519445419311523,1.8867406845092773,10.26341438293457,-1.5887373685836792,-0.7634826898574829,-1.3576080799102783
-1.5589239597320557,2.212463617324829,10.804491996765137,-1.3414969444274902,-1.1867998838424683,-1.21650230884552
-1.7647067308425903,3.5075788497924805,10.232307434082031,0.36757734417915344,0.5822901725769043,-0.2880144715309143
-2.0497517585754395,3.0143582820892334,11.422139167785645,0.9838458895683289,1.194969892501831,0.06139015033841133
-1.4198411703109741,2.36081862449646,11.268998146057129,1.5311650037765503,1.2572764158248901,0.328330397605896
-0.984347403049469,2.5283162593841553,10.445268630981445,1.9436396360397339,1.4356437921524048,0.4040754735469818
-1.163809061050415,2.94975209236145,11.582756996154785,2.254255533218384,1.71846604347229,0.3662029206752777
-1.6259230375289917,3.3735809326171875,11.36949634552002,2.140561580657959,0.5774033665657043,0.2367033064365387
-1.1757732629776,3.6248271465301514,7.649255752563477,1.442286729812622,-0.5838935971260071,0.013133215717971325
-2.45413875579834,5.379663467407227,7.337889671325684,0.8719844818115234,-0.436068594455719,-0.04306473210453987
-2.5283162593841553,4.9154558181762695,7.024130821228027,0.4246915578842163,-0.0010689827613532543,0.1572931706905365
-1.836491346359253,4.237689018249512,7.737790107727051,0.035200074315071106,0.5774033665657043,0.23792500793933868
-1.7168502807617188,4.35045051574707,8.298009872436523,-0.24998924136161804,0.8748859763145447,0.23242738842964172
-1.8532410860061646,4.144368648529053,9.119047164916992,-0.34940463304519653,0.834570050239563,0.22570806741714478
-2.061715841293335,4.1730828285217285,9.538089752197266,-0.21707984805107117,0.4778352677822113,0.20249587297439575
-2.0398812294006348,4.280759811401367,9.286544799804688,0.0165692325681448,0.08933641016483307,0.1829487532377243
-1.939382791519165,4.247260093688965,8.937192916870117,0.12155860662460327,-0.0022906772792339325,0.1682884246110916
-2.1382861137390137,4.400700092315674,8.784051895141602,0.19356222450733185,0.004428642801940441,0.1322484314441681
-1.9680966138839722,4.515555381774902,8.307580947875977,0.04756972938776016,-0.0016798300202935934,0.10598199814558029
-1.7216359376907349,4.333701133728027,8.20947551727295,-0.044362783432006836,0.04107947647571564,0.05344913527369499
-1.7383856773376465,4.254438877105713,8.173283576965332,-0.14935214817523956,0.04413371533155441,0.0015271181473508477
-1.8197416067123413,4.340879440307617,8.336295127868652,-0.2761029601097107,-0.111021488904953,-0.02901524491608143
-1.7934205532073975,4.3121657371521,8.506185531616211,-0.36490488052368164,-0.2271588295698166,-0.04978405311703682
-1.4991034269332886,4.1036906242370605,8.810373306274414,-0.44568943977355957,-0.21921780705451965,-0.11575555801391602
-1.6211373805999756,3.9840497970581055,9.121439933776855,-0.42392799258232117,-0.227769672870636,-0.197609081864357
-1.7479569911956787,3.8668015003204346,8.700003623962402,-0.40468630194664,-0.18004722893238068,-0.26785650849342346
-1.8843477964401245,3.7734813690185547,8.767302513122559,-0.547548234462738,-0.11468657106161118,-0.3142809271812439
-1.95852530002594,3.7444684505462646,9.078369140625,-0.6507050395011902,-0.0456608310341835,-0.30817243456840515
-1.6977076530456543,3.481257915496826,9.39452075958252,-0.6817818880081177,-0.03527642786502838,-0.3148917555809021
-1.6737794876098633,3.375973701477051,9.315258979797363,-0.6749098896980286,-0.04871506989002228,-0.37536564469337463
-1.7742780447006226,3.282653570175171,9.279366493225098,-0.6810947060585022,-0.13240113854408264,-0.42484426498413086
-1.8077775239944458,3.2563323974609375,9.423234939575195,-0.7159129977226257,-0.23571068048477173,-0.43706122040748596
-1.781456470489502,3.1555347442626953,9.60508918762207,-0.794788658618927,-0.42996010184288025,-0.4169032573699951
-1.690529227256775,2.901895761489868,9.688838005065918,-0.7830298542976379,-0.5496861934661865,-0.4193466305732727
-1.5565310716629028,2.8181469440460205,9.533304214477539,-0.6842252612113953,-0.565568208694458,-0.46638187766075134
-1.683350682258606,2.8875386714935303,9.559625625610352,-0.4897467792034149,-0.463556706905365,-0.4627167880535126
-1.3935201168060303,2.463710069656372,9.882657051086426,-0.2692309319972992,-0.26197710633277893,-0.4456130862236023
-1.2762718200683594,2.2220349311828613,10.160523414611816,-0.16676130890846252,-0.43057096004486084,-0.4169032573699951
-1.3073785305023193,2.3512473106384277,10.01456069946289,-0.19409671425819397,-0.7628718614578247,-0.33260634541511536
-1.4270195960998535,2.42303204536438,9.595518112182617,-0.27419406175613403,-0.888706386089325,-0.2086043357849121
-1.4318052530288696,2.2794625759124756,9.763015747070312,-0.32512345910072327,-0.7573742270469666,-0.10598199814558029
-1.750349760055542,2.0446670055389404,9.755837440490723,-0.33199548721313477,-0.611992597579956,-0.07238540053367615
-1.348056435585022,2.157428741455078,9.746265411376953,-0.34192174673080444,-0.30046048760414124,-0.08460234850645065
-2.0665013790130615,3.5171501636505127,9.7366943359375,-0.3512371778488159,0.001374406274408102,0.019241688773036003
-1.5517455339431763,2.401496648788452,10.538887977600098,-0.2984752357006073,0.12354385852813721,0.26602399349212646
-1.1470593214035034,1.7982062101364136,10.833205223083496,-0.22700610756874084,-0.16050012409687042,0.40285375714302063
-1.0369895696640015,1.8771693706512451,10.244272232055664,-0.10712733864784241,-0.37315133213996887,0.5030327439308167
-0.8452646136283875,2.0135602951049805,9.74387264251709,0.03825430944561958,-0.30412557721138,0.5665608048439026
-0.23958136141300201,1.7407784461975098,9.423234939575195,0.14080029726028442,-0.032222192734479904,0.540905237197876
0.17676977813243866,1.511067509651184,10.2418794631958,0.12522368133068085,-0.041384901851415634,0.37536564469337463
-0.30658039450645447,2.446960210800171,9.684052467346191,0.0587940476834774,-0.2906869351863861,0.20310671627521515
-0.6275177597999573,2.9138598442077637,9.09990406036377,0.025884652510285378,-0.06826218217611313,0.19455485045909882
-0.4049852192401886,2.3416759967803955,9.21715259552002,-0.025121092796325684,0.2958027720451355,0.24281178414821625
-0.1821536272764206,1.604387640953064,9.499805450439453,-0.1301104724407196,0.43202173709869385,0.19821994006633759
0.00687936507165432,0.986740231513977,9.52612590789795,-0.26243525743484497,0.2921377122402191,0.0925433561205864
0.03320041298866272,0.7447660565376282,9.226723670959473,-0.3953709006309509,0.22433365881443024,0.055892523378133774
-0.36670008301734924,1.542174220085144,9.142974853515625,-0.3375694751739502,0.4912739098072052,0.11331216990947723
-0.39541393518447876,1.8293129205703735,9.248259544372559,-0.2214321345090866,0.783869743347168,0.168899267911911
-0.48873403668403625,1.477268934249878,10.000204086303711,0.08360971510410309,1.400214672088623,0.17806197702884674
-0.8476574420928955,1.5780665874481201,10.663314819335938,0.416597843170166,1.55170476436615,0.08521319180727005
-1.2092727422714233,2.20528507232666,11.278569221496582,0.6092438101768494,1.3947169780731201,0.10720369219779968
-1.6115660667419434,1.9872392416000366,10.979167938232422,0.9397121667861938,1.1748119592666626,0.2593046724796295
-2.9617161750793457,2.9138598442077637,9.509376525878906,0.7576796412467957,0.6580352187156677,0.10353861004114151
-2.7631118297576904,2.657827854156494,8.975478172302246,0.6620057225227356,0.4124746024608612,0.21776704490184784
-2.8803603649139404,2.3344976902008057,7.378567695617676,0.38368842005729675,0.4955498278141022,0.377198189496994
-3.385545015335083,2.9210381507873535,8.170890808105469,0.00908635277301073,0.44668206572532654,0.6850652098655701
-2.765504837036133,2.925823926925659,9.013762474060059,-0.22822780907154083,0.4155288338661194,0.8823688626289368
-1.7718851566314697,2.703291416168213,8.721539497375488,-0.2077644169330597,0.42224815487861633,0.8139539957046509
-1.3456636667251587,2.758326292037964,8.613862037658691,-0.21952323615550995,0.4130854606628418,0.5335750579833984
-1.7479569911956787,2.8013970851898193,8.910871505737305,-0.2381540685892105,0.3978142738342285,0.25747212767601013
-2.480459690093994,3.040679454803467,9.660123825073242,-0.2077644169330597,0.2157817929983139,0.12797249853610992
-2.8109683990478516,3.090928554534912,9.707980155944824,-0.06612421572208405,-0.062153708189725876,0.06261184066534042
-2.6386852264404297,3.04307222366333,9.416056632995605,0.09727742522954941,-0.2760266065597534,0.008857285603880882
-2.367997169494629,2.870789051055908,9.138189315795898,0.14202198386192322,-0.4342360496520996,-0.04367557913064957
-2.195713996887207,2.7224340438842773,9.061619758605957,0.11964970827102661,-0.4226299524307251,-0.07238540053367615
-2.394318103790283,2.7535407543182373,9.047262191772461,0.10598199814558029,-0.226547971367836,-0.04184303805232048
-2.758326292037964,2.9617161750793457,9.052047729492188,0.08299887180328369,0.014813045971095562,0.03145863488316536
-2.8803603649139404,3.009572744369507,9.142974853515625,0.0009926267666742206,0.10216420143842697,0.11575555801391602
-2.5785655975341797,2.837289333343506,9.28893756866455,-0.07414158433675766,0.11377029865980148,0.17989452183246613
-2.3273191452026367,2.6841487884521484,9.430413246154785,-0.0847550556063652,0.1241547018289566,0.19027891755104065
-2.401496648788452,2.743969440460205,9.509376525878906,-0.03687990456819534,0.16935740411281586,0.18600298464298248
-2.5689942836761475,2.9282166957855225,9.399306297302246,0.0016034740256145597,0.1882936656475067,0.20188501477241516
-2.5283162593841553,2.9282166957855225,9.291330337524414,-0.008933641016483307,0.22738789021968842,0.2348707765340805
-2.5474588871002197,2.8899314403533936,9.236295700073242,-0.013285927474498749,0.30435463786125183,0.26846736669540405
-2.7415764331817627,3.004786968231201,10.107880592346191,0.09292513877153397,0.10582929104566574,0.29473379254341125
-2.1119651794433594,2.9976086616516113,9.588339805603027,0.1892099380493164,-0.26930728554725647,0.24464432895183563
-1.8317056894302368,2.916252613067627,9.22433090209961,0.2812187969684601,-0.253425270318985,0.145687073469162
-2.018345832824707,3.088535785675049,8.635397911071777,0.37002071738243103,0.09177979826927185,0.08399149775505066
-2.6195425987243652,3.478864908218384,8.975478172302246,0.3967452943325043,0.37948885560035706,0.08643488585948944
-2.3321046829223633,3.581756353378296,8.503792762756348,0.2880144715309143,0.2970244884490967,0.1047603040933609
-2.054537296295166,3.2659037113189697,8.958727836608887,0.14141114056110382,0.14736689627170563,0.01252236869186163
-2.5929224491119385,3.2778680324554443,8.951549530029297,0.1289651244878769,0.2011214643716812,-0.1426328420639038
-2.2387847900390625,3.1722846031188965,9.74387264251709,0.39735615253448486,0.3715478479862213,-0.08276980370283127
-2.39192533493042,3.1746773719787598,8.616254806518555,0.5768688917160034,0.3721587061882019,0.04367557913064957
-2.696112871170044,3.550649642944336,8.479864120483398,0.39178216457366943,0.4411844313144684,0.07482878863811493
-3.275475025177002,3.8979079723358154,8.269295692443848,0.10789089649915695,0.22005772590637207,0.14080029726028442
-2.844467878341675,3.7061831951141357,7.965108394622803,-0.056808795779943466,0.15530791878700256,0.1053711548447609
-2.657827854156494,3.3975090980529785,7.5101728439331055,-0.3456631898880005,0.4900522232055664,0.09009996801614761
-3.1004998683929443,3.1268210411071777,8.515756607055664,-0.6755207180976868,0.752105712890625,0.145687073469162
-3.25872540473938,3.3185458183288574,9.265008926391602,-0.7376744151115417,0.543195903301239,0.13408097624778748
-3.4621152877807617,3.323331594467163,8.788837432861328,-0.6158867478370667,0.5780141949653625,0.0393996499478817
-3.1917262077331543,2.7463622093200684,9.284152030944824,-0.5978667736053467,0.8907679915428162,0.08093725889921188
-3.253939628601074,2.8899314403533936,9.83958625793457,-0.5748836398124695,0.9915578365325928,0.07421794533729553
-3.536292791366577,3.002394199371338,10.500602722167969,-0.37238776683807373,0.8186880350112915,-0.005803049076348543
-4.022335052490234,3.009572744369507,9.803693771362305,-0.056808795779943466,0.6525375843048096,-0.029626091942191124
-3.957728624343872,2.909074068069458,8.489435195922852,-0.18661384284496307,0.6617003083229065,0.13896775245666504
-4.163511276245117,2.9617161750793457,9.947562217712402,-0.15675868093967438,0.7087355256080627,0.09376505762338638
-4.525126934051514,3.064607620239258,9.47348403930664,0.0823880210518837,0.23166382312774658,0.08154810965061188
-4.244867324829102,2.909074068069458,8.53729248046875,0.1438545286655426,0.008093725889921188,0.1291942000389099
-4.268795490264893,2.8803603649139404,8.30997371673584,0.12461283802986145,0.024586603045463562,0.13652436435222626
-4.539483547210693,2.956930637359619,8.613862037658691,0.05322006717324257,0.11987877637147903,0.18905723094940186
-4.355236530303955,2.98085880279541,9.255437850952148,0.08360971510410309,0.04840964451432228,0.2648022770881653
-3.9912281036376953,2.9665019512176514,9.221938133239746,0.1426328420639038,-0.03649812191724777,0.28007346391677856
-3.6559338569641113,2.8875386714935303,8.489435195922852,0.23151111602783203,-0.017561858519911766,0.1823379099369049
-3.9625144004821777,3.481257915496826,8.391329765319824,0.1892099380493164,0.014813045971095562,0.10598199814558029
-3.8261234760284424,3.478864908218384,8.465507507324219,0.09727742522954941,-0.3181750774383545,0.003970507066696882
-3.8572301864624023,3.1004998683929443,7.800003528594971,0.02832804247736931,-0.39086589217185974,-0.09620844572782516
-3.691826343536377,2.9760732650756836,8.173283576965332,-0.09093988686800003,-0.24487338960170746,-0.047951508313417435
-3.4980075359344482,3.08135724067688,8.336295127868652,-0.130721315741539,-0.20700086653232574,-0.0393996499478817
-3.2252259254455566,3.1100711822509766,8.839086532592773,-0.18661384284496307,-0.31328830122947693,-0.0784938707947731
-3.557828187942505,3.2252259254455566,9.428020477294922,-0.10957072675228119,-0.4598916172981262,-0.16645587980747223
-3.715754508972168,3.230011463165283,9.609874725341797,-0.023823043331503868,-0.565568208694458,-0.18905723094940186
-3.9840497970581055,3.189333438873291,9.662516593933105,0.18737739324569702,-0.7616502046585083,-0.1713426560163498
-3.9912281036376953,3.2635109424591064,9.004191398620605,0.3501681983470917,-0.90336674451828,-0.10231691598892212
-3.5554354190826416,3.189333438873291,8.494221687316895,0.28427302837371826,-0.9565104246139526,-0.09315420687198639
-3.3113675117492676,3.090928554534912,8.439186096191406,0.08299887180328369,-1.0322555303573608,-0.15912571549415588
-3.251546859741211,3.064607620239258,8.283653259277344,-0.09216158092021942,-1.013930082321167,-0.24525517225265503
-2.8325037956237793,2.782254457473755,8.67607593536377,-0.1692046970129013,-0.6523085236549377,-0.32222193479537964
-3.3041889667510986,2.8755745887756348,9.032905578613281,-0.16676130890846252,-0.3810923397541046,-0.3820849657058716
-2.2938196659088135,2.7966115474700928,9.31047248840332,-0.270452618598938,-0.4605024755001068,-0.16523417830467224
-2.2483558654785156,2.923431158065796,9.016156196594238,-0.2611372172832489,-0.5154787302017212,-0.2739650011062622
-2.470888376235962,2.973680257797241,9.621838569641113,-0.1468324065208435,-0.28580015897750854,-0.4572191834449768
-2.6602206230163574,2.8085756301879883,9.887741088867188,-0.07414158433675766,-0.06337540596723557,-0.46393850445747375
-2.590529680252075,2.8037898540496826,10.246665000915527,0.013438640162348747,-0.010231691412627697,-0.35765108466148376
-2.5546371936798096,2.7152554988861084,9.566803932189941,0.13392825424671173,-0.3279486298561096,-0.2226538211107254
-2.418246269226074,2.813361167907715,9.19561767578125,0.16935740411281586,-0.5386909246444702,-0.18050536513328552
-2.1670000553131104,2.8085756301879883,8.851051330566406,0.10972344130277634,-0.5582380294799805,-0.1823379099369049
-1.8077775239944458,2.6913273334503174,8.865407943725586,0.08490777015686035,-0.30656898021698,-0.20188501477241516
-1.5637096166610718,2.7702903747558594,9.035298347473145,0.04390464723110199,-0.09025268256664276,-0.24647687375545502
-2.2483558654785156,2.901895761489868,8.851051330566406,-0.06612421572208405,0.047798797488212585,-0.33566057682037354
-2.609971284866333,3.1387851238250732,9.186046600341797,-0.1847812980413437,0.15591876208782196,-0.1817270666360855
-2.6530420780181885,2.8325037956237793,9.21715259552002,-0.23196925222873688,0.04291202127933502,-0.013744063675403595
-2.5474588871002197,2.7870402336120605,9.293723106384277,-0.16676130890846252,0.06978929787874222,0.11392301321029663
-2.2603201866149902,2.6673989295959473,9.37059211730957,-0.08101361989974976,0.19379130005836487,0.1432436853647232
-2.3297119140625,2.590529680252075,9.545269012451172,-0.04993676394224167,0.24815669655799866,0.07421794533729553
-2.5378875732421875,2.580958366394043,9.48784065246582,-0.04062134400010109,0.1253764033317566,0.0198525357991457
-2.679363250732422,2.6362924575805664,9.428020477294922,-0.0164165198802948,0.01175880990922451,-0.003359660040587187
-2.5785655975341797,2.650649309158325,9.231510162353516,0.01588202826678753,-0.04810422286391258,0.03695625811815262
-2.418246269226074,2.4684956073760986,9.267401695251465,0.026495499536395073,0.006261184345930815,0.058335911482572556
-2.6434707641601562,2.7008986473083496,9.815657615661621,0.18485765159130096,-0.012064233422279358,0.04062134400010109
-2.42303204536438,2.7463622093200684,9.739087104797363,0.3339807391166687,-0.15927842259407043,0.0393996499478817
-2.0976080894470215,2.7702903747558594,8.970691680908203,0.3470376133918762,-0.2821350693702698,-0.005803049076348543
-2.0976080894470215,2.892324447631836,8.475078582763672,0.17187714576721191,-0.12751436233520508,-0.05772506445646286
-2.370389938354492,2.9306094646453857,8.54447078704834,-0.06734590977430344,0.06551336497068405,-0.04489727318286896
-2.6001009941101074,2.854039192199707,8.609076499938965,-0.2916032075881958,0.16874656081199646,0.04611896723508835
-2.557030200958252,2.8420751094818115,9.308079719543457,-0.37299859523773193,0.28847262263298035,0.13469181954860687
-2.3512473106384277,2.7463622093200684,9.698409080505371,-0.3282540440559387,0.2695363461971283,0.11147962510585785
-2.312962293624878,2.5689942836761475,9.85394287109375,-0.2151709496974945,0.2658712565898895,0.046729814261198044
-2.5689942836761475,2.501995086669922,9.942776679992676,-0.07291989028453827,0.21150586009025574,-0.016798298805952072
-2.877967357635498,2.6434707641601562,9.74387264251709,0.0755159929394722,0.11438114941120148,-0.02229592576622963
-2.775076150894165,2.650649309158325,9.38016414642334,0.16065283119678497,0.017867282032966614,0.016798298805952072
-2.5522444248199463,2.6096723079681396,9.164510726928711,0.15446799993515015,0.0038177953101694584,0.03145863488316536
-2.6554348468780518,2.6264219284057617,9.226723670959473,0.09979717433452606,0.03374931216239929,0.0198525357991457
-2.7798616886138916,2.7152554988861084,9.21715259552002,0.06620056927204132,0.0032069480512291193,0.02229592576622963
-2.6051857471466064,2.705684185028076,9.152546882629395,0.05688514932990074,-0.04810422286391258,0.03023693896830082
-2.4206392765045166,2.6841487884521484,9.166903495788574,0.04886778071522713,-0.032222192734479904,0.02351761981844902
-2.5929224491119385,2.641077995300293,9.38734245300293,0.05566345527768135,-0.0065666078589856625,0.008857285603880882
-2.8348965644836426,2.901895761489868,9.746265411376953,0.1973036676645279,-0.15683503448963165,0.007024743594229221
-2.346461772918701,2.815753936767578,9.193224906921387,0.2501419484615326,-0.1366770714521408,0.015576604753732681
-2.054537296295166,2.815753936767578,8.743074417114258,0.16439427435398102,0.22189027070999146,-0.016798298805952072
-2.4421746730804443,2.9688947200775146,9.257830619812012,0.0587940476834774,0.5059342384338379,-0.057114217430353165
-3.2730822563171387,3.040679454803467,10.040882110595703,0.09605573117733002,0.24021568894386292,-0.018630841746926308
-3.009572744369507,3.088535785675049,9.624231338500977,0.25510507822036743,-0.059710320085287094,0.1169772520661354
-2.4852454662323,2.9066812992095947,9.439984321594238,0.35322242975234985,-0.02244863659143448,0.1695101112127304
-2.0159530639648438,2.892324447631836,9.138189315795898,0.5147915482521057,0.22494450211524963,0.1450762301683426
-2.5067808628082275,3.2324042320251465,9.05444049835205,0.5402180552482605,0.4100312292575836,0.09681928902864456
-2.894717216491699,3.340081214904785,9.250652313232422,0.51914381980896,0.4008685052394867,0.10781454294919968
-3.3017961978912354,3.361616611480713,9.353842735290527,0.5092175602912903,0.14492350816726685,0.17867282032966614
-3.361616611480713,3.5554354190826416,8.381758689880371,0.5402180552482605,0.06429167091846466,0.2739650011062622
-2.3009979724884033,3.059821844100952,7.991429328918457,0.4414898455142975,0.3605526089668274,0.34848836064338684
-2.4445674419403076,3.3352956771850586,7.953144073486328,0.16500511765480042,0.6378772258758545,0.20555010437965393
-3.2635109424591064,3.670290946960449,8.589934349060059,-0.07979192584753036,0.6109999418258667,0.0650552362203598
-3.550649642944336,3.5386855602264404,8.587541580200195,-0.18661384284496307,0.32878854870796204,0.06200099736452103
-2.9904301166534424,3.213261604309082,8.570791244506836,-0.22578442096710205,0.3214583694934845,0.09437590092420578
-3.1100711822509766,3.3568310737609863,8.707182884216309,-0.2698417901992798,0.5248705148696899,0.055892523378133774
-3.5697922706604004,3.426223039627075,9.200403213500977,-0.2617480456829071,0.5364766120910645,0.05405998229980469
-3.684647798538208,3.4621152877807617,9.298508644104004,-0.19409671425819397,0.45828816294670105,0.11514470726251602
-3.1148569583892822,3.1866414546966553,9.190832138061523,-0.11575555801391602,0.3953709006309509,0.13408097624778748
-3.2228329181671143,3.033500909805298,9.056833267211914,-0.09842276573181152,0.31534990668296814,0.1169772520661354
-3.751945972442627,3.5075788497924805,9.131011009216309,-0.019470756873488426,0.15469707548618317,0.0778830274939537
-3.526721477508545,3.3879377841949463,8.994620323181152,0.005344913341104984,-0.005955760832875967,0.046729814261198044
-3.433401346206665,3.2180473804473877,9.207581520080566,0.010918894782662392,-0.02733541466295719,0.04978405311703682
-3.4669008255004883,3.3185458183288574,9.08554744720459,0.06933116167783737,-0.10063708573579788,0.020463382825255394
-3.715754508972168,3.4764721393585205,9.169296264648438,0.08796200156211853,-0.16783028841018677,-0.05650337040424347
-4.158725738525391,3.612863063812256,9.09990406036377,0.1513374149799347,-0.3316137194633484,-0.10353861004114151
-3.8117663860321045,3.347259759902954,8.8438720703125,0.16004198789596558,-0.40430453419685364,-0.08582404255867004
-3.182155132293701,3.050250768661499,8.781659126281738,0.13331741094589233,-0.38903334736824036,-0.06810946762561798
-3.536292791366577,3.565006732940674,8.231010437011719,0.07246175408363342,-0.565568208694458,-0.08887827396392822
-3.344866991043091,3.488436222076416,7.886145114898682,-0.0853659063577652,-0.35360419750213623,0.0021379655227065086
-2.672184705734253,3.1941192150115967,8.381758689880371,-0.27976804971694946,-0.014507622458040714,0.1579040139913559
-2.648256540298462,3.3592238426208496,9.152546882629395,-0.37238776683807373,0.125987246632576,0.2079934924840927
-2.9306094646453857,3.526721477508545,9.461520195007324,-0.290381520986557,0.08689302206039429,0.14018943905830383
-3.1244282722473145,3.543471336364746,9.497411727905273,-0.13942588865756989,0.038636088371276855,0.0791047215461731
-2.7415764331817627,3.253939628601074,9.21715259552002,-0.025731941685080528,-0.09452861547470093,0.11147962510585785
-2.4038894176483154,3.206083297729492,8.8438720703125,0.012827792204916477,-0.22410458326339722,0.09498675167560577
-2.535494804382324,3.3640096187591553,8.606683731079102,0.011529741808772087,-0.18615570664405823,0.02351761981844902
-2.8660032749176025,3.447758436203003,8.510971069335938,-0.03008422814309597,-0.03955236077308655,-0.0009162708884105086
-2.9665019512176514,3.423830032348633,8.592327117919922,-0.13316470384597778,0.04291202127933502,0.03573456406593323
-2.696112871170044,3.282653570175171,8.918049812316895,-0.2238755226135254,0.012980503961443901,0.06444438546895981
-2.518744945526123,3.184248685836792,9.159725189208984,-0.22761696577072144,-0.014507622458040714,0.02229592576622963
-2.6291139125823975,3.203690528869629,9.35623550415039,-0.1785201132297516,0.005650337319821119,-0.05344913527369499
-2.8181469440460205,3.2706894874572754,9.329915046691895,-0.14935214817523956,0.021532366052269936,-0.0778830274939537
-2.9976086616516113,3.330509901046753,9.281759262084961,-0.12514732778072357,0.047798797488212585,-0.0784938707947731
-2.9976086616516113,3.206083297729492,9.262616157531738,-0.11453386396169662,0.09483403712511063,-0.03390202298760414
-2.995215654373169,3.1268210411071777,9.257830619812012,-0.12881241738796234,0.11621369421482086,-0.008246437646448612
-3.1028928756713867,3.07417893409729,9.276973724365234,-0.11766445636749268,0.046577103435993195,0.019241688773036003
-3.07417893409729,3.119642496109009,9.523733139038086,0.008475505746901035,-0.16172181069850922,0.03023693896830082
-2.463710069656372,3.0000014305114746,8.793622970581055,0.03268032893538475,-0.26014456152915955,0.00030542362947016954
-2.5929224491119385,3.0000014305114746,8.834300994873047,-0.012064233422279358,-0.0590994730591774,-0.091321662068367
-3.2419755458831787,3.2395827770233154,8.965906143188477,-0.03687990456819534,0.0068720318377017975,-0.11575555801391602
-3.285046339035034,3.22761869430542,8.94676399230957,-0.042453885078430176,-0.021226942539215088,-0.07666133344173431
-2.8085756301879883,3.01196551322937,8.941978454589844,-0.07230904698371887,-0.1360662281513214,-0.025961007922887802
-2.566601276397705,3.0622148513793945,8.623434066772461,-0.12942326068878174,-0.1525591015815735,-0.06994201242923737
-2.573779821395874,3.1244282722473145,8.656932830810547,-0.16301986575126648,-0.11590826511383057,-0.09804098308086395
-2.6985056400299072,3.0789644718170166,9.013762474060059,-0.21891239285469055,-0.03894151374697685,-0.12736165523529053
-2.894717216491699,2.9138598442077637,9.404091835021973,-0.19531841576099396,-0.029167955741286278,-0.11453386396169662
-2.8827531337738037,2.899502754211426,9.52612590789795,-0.10712733864784241,-0.08047912269830704,-0.08093725889921188
-2.8396823406219482,2.901895761489868,9.51894760131836,-0.02817532978951931,-0.11896250396966934,-0.05100574716925621
-2.782254457473755,2.877967357635498,9.29611587524414,-0.003970507066696882,-0.15378080308437347,-0.03512371703982353
-2.846860647201538,2.8277182579040527,9.48784065246582,0.024586603045463562,-0.04993676394224167,-0.04734066128730774
-2.870789051055908,2.933002471923828,9.274580955505371,0.02710634656250477,-0.1244601309299469,-0.060779303312301636
-2.7320053577423096,2.837289333343506,9.35623550415039,0.0295497365295887,-0.227769672870636,-0.08032641559839249
-2.6602206230163574,2.8660032749176025,9.09990406036377,0.005344913341104984,-0.23204560577869415,-0.10781454294919968
-2.854039192199707,2.9521448612213135,9.183652877807617,-0.018249060958623886,-0.17454960942268372,-0.08460234850645065
-2.8899314403533936,3.0454649925231934,9.31047248840332,-0.014507622458040714,-0.22227205336093903,-0.009468132629990578
-2.250748872756958,2.9760732650756836,8.999405860900879,0.010918894782662392,-0.23571068048477173,-0.00519220158457756
-1.9872392416000366,2.8755745887756348,9.293723106384277,0.005344913341104984,-0.18676654994487762,-0.11025793105363846
-2.171785593032837,2.9377880096435547,9.162117958068848,-0.04497363045811653,-0.24426254630088806,-0.2513636350631714
-2.432603359222412,2.9521448612213135,9.219545364379883,-0.0853659063577652,-0.2937411665916443,-0.33504971861839294
-2.5211377143859863,2.9066812992095947,9.128618240356445,-0.12262758612632751,-0.2900761067867279,-0.32283276319503784
-2.4996023178100586,2.789433002471924,9.087940216064453,-0.14003673195838928,-0.07742489129304886,-0.24220094084739685
-2.5474588871002197,2.7846474647521973,9.265008926391602,-0.18226155638694763,0.03374931216239929,-0.16095824539661407
-2.439781904220581,2.657827854156494,9.4088773727417,-0.2226538211107254,-0.0035123717971146107,-0.1175880953669548
-2.4852454662323,2.5283162593841553,9.516554832458496,-0.18661384284496307,-0.013285927474498749,-0.12858334183692932
-2.7152554988861084,2.6362924575805664,9.499805450439453,-0.09345962852239609,-0.0016798300202935934,-0.13347013294696808
-2.7463622093200684,2.604886531829834,9.444769859313965,-0.03008422814309597,-0.028557108715176582,-0.07971556484699249
-2.6001009941101074,2.5522444248199463,9.322735786437988,-0.026342788711190224,-0.052990999072790146,-0.03145863488316536
-2.4924237728118896,2.5067808628082275,9.332307815551758,-0.038788799196481705,0.00015271181473508477,-0.01435491070151329
-2.5689942836761475,2.5618157386779785,9.28893756866455,-0.061771929264068604,0.03924693539738655,-0.026571854948997498
-2.6985056400299072,2.590529680252075,9.545269012451172,-0.030695075169205666,0.07528692483901978,-0.022906772792339325
-2.5689942836761475,2.710469961166382,9.454340934753418,0.00786465872079134,-0.07498150318861008,0.010689826682209969
-2.250748872756958,2.5713870525360107,9.293723106384277,0.008475505746901035,-0.08047912269830704,0.015576604753732681
-2.3297119140625,2.6865415573120117,9.430413246154785,0.028938889503479004,0.00015271181473508477,-0.0009162708884105086
-2.3249263763427734,2.758326292037964,9.361021041870117,0.022754060104489326,-0.05665608495473862,-0.008246437646448612
-2.241177558898926,2.674577474594116,9.346664428710938,0.009697199799120426,-0.032222192734479904,-0.047951508313417435
-2.3967108726501465,2.815753936767578,9.6433744430542,0.06933116167783737,-0.005344913341104984,-0.04978405311703682
-2.3727827072143555,2.6673989295959473,9.7366943359375,0.1662268042564392,-0.07375980913639069,-0.016798298805952072
-2.573779821395874,2.7224340438842773,9.6433744430542,0.2855710983276367,-0.15316994488239288,0.041232191026210785
-2.4732813835144043,2.6697919368743896,9.49501895904541,0.3569638729095459,-0.17149536311626434,0.10659284889698029
-2.401496648788452,2.7391836643218994,9.341878890991211,0.38552096486091614,-0.042606595903635025,0.13957859575748444
-2.449352979660034,2.8013970851898193,9.28893756866455,0.37620556354522705,0.08872556686401367,0.1560714691877365
-2.5594229698181152,2.8588249683380127,9.38016414642334,0.36009445786476135,0.1107160672545433,0.17745113372802734
-2.626721143722534,2.9377880096435547,9.32004451751709,0.35261157155036926,0.10582929104566574,0.21715620160102844
-2.4421746730804443,2.877967357635498,9.317651748657227,0.3880407214164734,0.18585027754306793,0.3155026137828827
-2.274677038192749,2.971287488937378,9.37298583984375,0.41972842812538147,0.29091599583625793,0.33566057682037354
-2.6001009941101074,3.1989047527313232,9.284152030944824,0.4395809471607208,0.4136963188648224,0.3167243003845215
-2.7798616886138916,3.3113675117492676,9.145368576049805,0.4408790171146393,0.5022691488265991,0.34665581583976746
-2.533101797103882,3.19651198387146,8.910871505737305,0.4315635859966278,0.5413633584976196,0.430341899394989
-2.6602206230163574,3.5243287086486816,8.779266357421875,0.3495573401451111,0.5144860744476318,0.4352286756038666
-2.6147570610046387,3.560220956802368,8.487042427062988,0.24640052020549774,0.5077667832374573,0.41140562295913696
-2.470888376235962,3.6080775260925293,8.28843879699707,0.13453911244869232,0.7301151752471924,0.3381039500236511
-2.384746789932251,3.598506212234497,8.391329765319824,-0.003970507066696882,0.8675557971000671,0.24708771705627441
-2.9353952407836914,3.7902309894561768,8.894122123718262,-0.07291989028453827,0.7960866689682007,0.13347013294696808
-3.182155132293701,3.7663028240203857,9.135796546936035,-0.025731941685080528,0.6006155610084534,0.0778830274939537
-3.0239295959472656,3.622434377670288,9.090332984924316,0.025884652510285378,0.3245126008987427,0.07116370648145676
-2.885145902633667,3.557828187942505,8.839086532592773,0.058183200657367706,0.1626380831003189,0.018019994720816612
-3.122035264968872,3.6511483192443848,8.67607593536377,0.06749862432479858,0.14614520967006683,-0.06933116167783737
-3.5793635845184326,3.7277185916900635,8.882157325744629,0.058183200657367706,0.10155335813760757,-0.09376505762338638
-3.7878382205963135,4.000799655914307,8.499007225036621,0.0755159929394722,-0.17882554233074188,-0.08338065445423126
-3.1555347442626953,3.505186080932617,8.204689979553223,-0.021379653364419937,-0.17088451981544495,-0.07605048269033432
-3.2563323974609375,3.4525439739227295,8.743074417114258,-0.11575555801391602,-0.10002623498439789,-0.15546062588691711
-3.8739798069000244,3.5937204360961914,9.138189315795898,-0.0847550556063652,-0.22043950855731964,-0.22631891071796417
-4.108476638793945,3.5626137256622314,9.145368576049805,-0.004581354558467865,-0.4653892517089844,-0.1316375881433487
-3.7061831951141357,3.392723321914673,8.982656478881836,-0.07727217674255371,-1.1562575101852417,-0.03573456406593323
-3.1701908111572266,3.409473180770874,8.52054214477539,-0.12079504877328873,-1.374329924583435,-0.011911521665751934
-2.1765713691711426,3.13639235496521,8.52772045135498,-0.1020878478884697,-0.9192487597465515,0.03145863488316536
-2.0832512378692627,3.2706894874572754,8.66889762878418,-0.08658760040998459,-0.28641101717948914,0.059557609260082245
-2.617149829864502,3.7372899055480957,9.22433090209961,-0.1543152928352356,-0.12751436233520508,0.06994201242923737
-2.617149829864502,3.814159393310547,9.368199348449707,-0.25678491592407227,-0.5686224699020386,0.05894676223397255
-1.7312071323394775,3.3209388256073,9.650552749633789,-0.18103985488414764,-0.7408813834190369,0.005803049076348543
-1.3767703771591187,3.2228329181671143,9.63619613647461,0.032069481909275055,-0.5808393955230713,-0.08521319180727005
-1.6761722564697266,3.4286158084869385,9.233902931213379,0.17057909071445465,-0.5081485509872437,-0.13652436435222626
-1.9728822708129883,3.7495529651641846,9.083154678344727,0.135226309299469,-0.6590278148651123,-0.15912571549415588
-1.355234980583191,3.347259759902954,8.685647010803223,-0.17111359536647797,0.02886253222823143,-0.17439688742160797
-1.812563180923462,3.5219359397888184,9.133403778076172,-0.26548948884010315,0.2677038013935089,-0.09620844572782516
-1.8508483171463013,3.4357941150665283,9.406484603881836,-0.31954947113990784,0.24571330845355988,-0.010078979656100273
-1.7670994997024536,3.2706894874572754,9.573982238769531,-0.2698417901992798,0.18768282234668732,0.022906772792339325
-1.6666009426116943,3.206083297729492,9.600303649902344,-0.15927842259407043,0.10644013434648514,0.016187451779842377
-1.657029628753662,3.16749906539917,9.621838569641113,-0.0784938707947731,0.05635065957903862,-0.02351761981844902
-1.8819550275802612,3.230011463165283,9.621838569641113,-0.019470756873488426,0.008704573847353458,-0.05894676223397255
-2.061715841293335,3.282653570175171,9.37298583984375,0.020845163613557816,-0.02733541466295719,-0.057114217430353165
-1.9178473949432373,3.177070379257202,9.140582084655762,0.01779092662036419,-0.03161134570837021,-0.03573456406593323
-1.8388842344284058,3.13639235496521,8.97787094116211,-0.019470756873488426,0.04413371533155441,-0.024128466844558716
-1.8340985774993896,3.0143582820892334,9.040083885192871,-0.06612421572208405,0.13576079905033112,-0.009468132629990578
-2.186142683029175,3.2347970008850098,9.774979591369629,0.018401773646473885,0.039857782423496246,-0.025961007922887802
-1.9968105554580688,3.230011463165283,9.339486122131348,0.08360971510410309,-0.22227205336093903,-0.029626091942191124
-1.6713865995407104,3.098107099533081,8.63061237335205,0.02710634656250477,-0.22166119515895844,-0.05772506445646286
-1.8628123998641968,3.145963668823242,8.810373306274414,-0.09590301662683487,0.04474456235766411,-0.07360709458589554
-2.150250196456909,3.057429075241089,9.233902931213379,-0.20211409032344818,0.08689302206039429,-0.02351761981844902
-2.312962293624878,3.2730822563171387,9.691230773925781,-0.18913358449935913,0.08139539510011673,0.04306473210453987
-1.9226330518722534,2.9760732650756836,9.83719253540039,-0.07414158433675766,-0.004123218823224306,0.0791047215461731
-1.6546368598937988,2.954537868499756,9.652945518493652,0.030847785994410515,-0.03771981969475746,0.04550812020897865
-1.786242127418518,3.0382864475250244,9.461520195007324,0.08796200156211853,0.014813045971095562,-0.004581354558467865
-2.0736799240112305,3.2228329181671143,9.162117958068848,0.07803573459386826,0.04413371533155441,-0.003970507066696882
-1.9537396430969238,3.2108688354492188,9.150154113769531,0.0065666078589856625,0.07406523078680038,0.03817795217037201
-1.664208173751831,3.090928554534912,9.10229778289795,-0.0623827762901783,0.10460758954286575,0.042453885078430176
-1.657029628753662,3.090928554534912,9.28893756866455,-0.07666133344173431,0.18035265803337097,0.007635590620338917
-1.8580267429351807,3.1989047527313232,9.339486122131348,-0.051769305020570755,0.1638597846031189,-0.032069481909275055
-2.008774518966675,3.2419755458831787,9.260223388671875,-0.028786176815629005,0.14858859777450562,-0.03695625811815262
-1.9992033243179321,3.16749906539917,9.279366493225098,-0.03443651273846626,0.13087402284145355,-0.021685076877474785
-2.035095691680908,2.9856443405151367,9.61944580078125,-0.002748812548816204,0.08078455179929733,0.008246437646448612
-2.0398812294006348,3.244368314743042,9.471091270446777,0.1041494607925415,-0.13301199674606323,-0.008857285603880882
-1.695314884185791,3.08135724067688,9.135796546936035,0.09544488787651062,-0.11835165321826935,-0.05100574716925621
-2.0231316089630127,3.1244282722473145,9.274580955505371,0.06620056927204132,-0.03161134570837021,-0.07971556484699249
-2.2722842693328857,3.0000014305114746,9.377771377563477,0.1053711548447609,-0.11529742181301117,0.013744063675403595
-2.305783748626709,3.1172497272491455,9.39452075958252,0.14576342701911926,-0.14828316867351532,0.0650552362203598
-2.20528507232666,3.316153049468994,9.212367057800293,0.18798823654651642,-0.14583978056907654,0.1175880953669548
-2.0665013790130615,3.2491540908813477,9.152546882629395,0.1811925619840622,-0.07314895838499069,0.11392301321029663
-1.9441684484481812,3.2802608013153076,9.068798065185547,0.16317257285118103,-0.05421269312500954,0.1175880953669548
-1.6785650253295898,3.1339993476867676,9.140582084655762,0.09918632358312607,-0.009009997360408306,0.1053711548447609
-1.8005990982055664,3.206083297729492,9.339486122131348,0.06436803191900253,0.004428642801940441,0.04856235533952713
-1.9800606966018677,3.2946176528930664,9.39452075958252,0.09048175066709518,0.00259610079228878,0.008246437646448612
-1.9992033243179321,3.308974504470825,9.162117958068848,0.09544488787651062,-0.021837789565324783,0.004581354558467865
-1.9752750396728516,3.3041889667510986,9.080761909484863,0.04390464723110199,-0.01511846948415041,0.01435491070151329
-1.9728822708129883,3.2874391078948975,9.116654396057129,-0.010766183026134968,-0.004123218823224306,0.028404397889971733
-1.908276081085205,3.2730822563171387,9.286544799804688,-0.0393996499478817,-0.012064233422279358,0.025350160896778107
-1.8460626602172852,3.292224884033203,9.392127990722656,-0.03626905754208565,-0.06826218217611313,0.005803049076348543
-1.8580267429351807,3.282653570175171,9.361021041870117,0.0016034740256145597,-0.1250709742307663,-0.011911521665751934
-2.0303099155426025,3.3807592391967773,9.325128555297852,0.044515494257211685,-0.16721943020820618,0.003970507066696882
-2.008774518966675,3.392723321914673,9.39452075958252,0.09048175066709518,-0.2137201875448227,0.05894676223397255
-1.848455548286438,3.2635109424591064,9.425627708435059,0.15385715663433075,-0.33772218227386475,0.09315420687198639
-1.5804593563079834,3.292224884033203,9.123832702636719,0.21723255515098572,-0.359712690114975,0.11331216990947723
-1.4485549926757812,3.3113675117492676,8.870193481445312,0.23090025782585144,-0.2522035539150238,0.11453386396169662
-1.5541383028030396,3.4429726600646973,8.769695281982422,0.18424680829048157,-0.16172181069850922,0.08032641559839249
-1.7479569911956787,3.6080775260925293,9.080761909484863,0.09353598952293396,-0.11896250396966934,0.09804098308086395
-1.714457392692566,3.478864908218384,9.152546882629395,0.03390202298760414,-0.12629267573356628,0.16340164840221405
-1.5086746215820312,3.3664023876190186,9.384949684143066,0.04886778071522713,-0.1378987729549408,0.2623589038848877
-1.1422736644744873,3.316153049468994,9.437591552734375,0.11155597865581512,-0.0719272643327713,0.3252761662006378
-1.1614162921905518,3.5243287086486816,9.672088623046875,0.19172967970371246,0.09116895496845245,0.31122666597366333
-1.2643076181411743,3.629612922668457,9.674481391906738,0.29114508628845215,0.23716144263744354,0.29412296414375305
-1.1614162921905518,3.4669008255004883,9.279366493225098,0.3439069986343384,0.34405970573425293,0.25441789627075195
-0.373878538608551,2.4828526973724365,9.514162063598633,0.3116084635257721,0.3709369897842407,0.0791047215461731
-2.0665013790130615,4.90827751159668,9.375378608703613,0.3252761662006378,0.388651579618454,0.00030542362947016954
-2.1837496757507324,4.381557464599609,9.341878890991211,0.34520506858825684,0.4381301999092102,0.1566823273897171
-2.1311075687408447,4.352843284606934,9.008976936340332,0.3035147190093994,0.27320143580436707,0.12003148347139359
-1.7910277843475342,4.225724697113037,8.817551612854004,0.19982340931892395,0.16019469499588013,0.12369657307863235
-1.4222339391708374,3.88594388961792,8.824729919433594,0.11346487700939178,0.13576079905033112,0.06444438546895981
-1.4991034269332886,3.8428730964660645,8.896514892578125,0.1053711548447609,0.17118994891643524,-0.003359660040587187
-1.7024933099746704,4.024727821350098,8.75503921508789,0.10659284889698029,0.15469707548618317,-0.019241688773036003
-1.7982062101364136,4.1036906242370605,8.613862037658691,0.06688777357339859,0.13392825424671173,-0.018630841746926308
-1.92741858959198,4.125226020812988,8.635397911071777,0.014660334214568138,0.10582929104566574,-0.013744063675403595
-1.8867406845092773,4.027120590209961,8.745467185974121,-0.01511846948415041,0.10888352245092392,-0.0015271181473508477
-1.8293129205703735,3.950550079345703,8.937192916870117,-0.018249060958623886,0.14370182156562805,0.005803049076348543
-1.9010975360870361,3.9864425659179688,9.042476654052734,0.0065666078589856625,0.12781979143619537,0.00519220158457756
-1.9561325311660767,4.005585193634033,9.049654960632324,0.030847785994410515,0.10521844029426575,0.011300674639642239
-1.9824535846710205,4.067798614501953,9.09990406036377,0.03703261539340019,0.09300149232149124,0.009468132629990578
-2.1358933448791504,4.005585193634033,9.164510726928711,0.16187451779842377,0.16141638159751892,0.03512371703982353
-2.399103879928589,4.225724697113037,9.162117958068848,0.1960819661617279,0.11865708231925964,0.08521319180727005
-2.054537296295166,4.256831645965576,8.63061237335205,0.11529742181301117,-0.3059581220149994,0.09804098308086395
-2.0976080894470215,4.271188259124756,8.362615585327148,0.03390202298760414,-0.04443913698196411,-0.008246437646448612
