accX,accY,accZ,gyroX,gyroY,gyroZ
-1.1051849126815796,5.509773254394531,7.6528449058532715,-0.16910573840141296,-0.045671865344047546,0.0829550251364708
-1.191625714302063,5.565107345581055,7.846962928771973,-0.16377957165241241,-0.013714875094592571,0.12436595559120178
-1.0812567472457886,5.406881809234619,8.086244583129883,-0.12436595559120178,0.004394086077809334,0.16164910793304443
-0.9305089116096497,5.3470611572265625,8.071887969970703,-0.0583215095102787,0.018242115154862404,0.17336668074131012
-0.8608179688453674,5.279763221740723,7.80837869644165,-0.017842652276158333,0.026763979345560074,0.17230144143104553
-0.8057830333709717,5.236692428588867,7.750950813293457,-0.10199606418609619,0.022503048181533813,0.17336668074131012
-0.7746763229370117,5.272584915161133,7.518548011779785,-0.2500634491443634,-0.13834713399410248,0.18934516608715057
-0.46331027150154114,5.073980331420898,7.640881061553955,-0.3553883731365204,-0.12236864119768143,0.16164910793304443
-0.7339983582496643,5.004289627075195,8.481658935546875,-0.2404763549566269,-0.038215234875679016,0.10412652790546417
-0.4824528694152832,4.865505695343018,8.44576644897461,-0.18934516608715057,-0.043541401624679565,0.10945269465446472
-0.5422734022140503,4.7626142501831055,8.730812072753906,-0.08601756393909454,0.061916667968034744,0.031823836266994476
-0.6143572330474854,4.822434902191162,8.804988861083984,-0.04553871229290962,0.058720968663692474,0.024367205798625946
-0.5829514265060425,4.872684001922607,8.586943626403809,0.024766668677330017,0.029959678649902344,0.035019535571336746
-0.5446662306785583,4.858327388763428,8.460124015808105,0.07057169079780579,0.053394805639982224,0.019041040912270546
-0.6047859191894531,4.846363067626953,8.280363082885742,0.08761541545391083,0.025698747485876083,-0.004394086077809334
-0.5877370834350586,4.870291233062744,8.175078392028809,0.07589785009622574,0.0001331541279796511,-0.022503048181533813
-0.7435696125030518,4.9755754470825195,8.148757934570312,0.04713656008243561,-0.014780107885599136,-0.053394805639982224
-0.786640465259552,5.078765869140625,8.141578674316406,0.0482017956674099,-0.017975807189941406,-0.03954677656292915
-0.6957131624221802,4.997110843658447,8.04796028137207,0.04500609636306763,-0.026497671380639076,-0.022503048181533813
-0.594915509223938,4.944468975067139,8.102994918823242,0.018375270068645477,-0.030758604407310486,-0.03848154470324516
-0.5805585980415344,4.920540809631348,8.2157564163208,0.022636201232671738,-0.021171506494283676,-0.058720968663692474
-0.753140926361084,5.02133846282959,8.172685623168945,0.03541899845004082,-0.020106272771954536,-0.06298190355300903
-0.8464609980583191,5.0811591148376465,7.686344623565674,0.0375494658946991,-0.022236740216612816,-0.057655736804008484
-1.095613718032837,5.4403815269470215,6.771389007568359,0.016244804486632347,0.10545806586742401,-0.00226362026296556
-0.5327021479606628,4.908576488494873,8.448159217834473,-0.11903978884220123,0.13528458774089813,0.044606633484363556
-0.5327021479606628,4.848755836486816,8.74756145477295,-0.14673584699630737,0.067242830991745,0.010519175790250301
-0.8994022011756897,5.093122959136963,8.632407188415527,-0.1328878253698349,-0.001997311832383275,-0.040612008422613144
-0.9209375977516174,5.02133846282959,8.661419868469238,-0.026364516466856003,0.07137060910463333,0.020106272771954536
-0.7483552694320679,4.96839714050293,8.40748119354248,0.08441971987485886,0.14380645751953125,0.05312849581241608
-0.5925226807594299,4.949254512786865,8.167900085449219,0.12702903151512146,0.19600287079811096,0.052063263952732086
-0.8656035661697388,4.982754230499268,8.074280738830566,0.10785484313964844,0.23009033501148224,0.0009320789249613881
-1.0357930660247803,5.047659397125244,8.189435958862305,0.08974587917327881,0.22689463198184967,-0.0011983871227130294
-1.0166505575180054,5.052444934844971,8.199007034301758,0.07696308940649033,0.1395455300807953,0.031823836266994476
-0.8754739761352539,5.02851676940918,8.102994918823242,0.08761541545391083,0.11824086308479309,0.03928046673536301
-0.6167500615119934,4.937290191650391,7.911569118499756,0.12489857524633408,0.17576344311237335,0.043541401624679565
-0.8201399445533752,4.920540809631348,7.983353614807129,0.15792079269886017,0.30572187900543213,0.004127778112888336
-0.8826524615287781,4.946861743927002,7.918747425079346,0.14620323479175568,0.30572187900543213,0.0009320789249613881
-0.7962117195129395,4.9516472816467285,8.040781021118164,0.06418029218912125,0.2034595012664795,-0.03528584539890289
-0.8368897438049316,4.944468975067139,8.163114547729492,0.025831900537014008,0.1288931965827942,-0.066177599132061
-1.2275179624557495,5.148158073425293,8.282755851745605,0.019440501928329468,0.057655736804008484,-0.11730878800153732
-1.4192429780960083,5.267798900604248,8.151150703430176,0.04713656008243561,0.053394805639982224,-0.07469946891069412
-1.368694543838501,5.236692428588867,8.009675025939941,0.03967992961406708,0.028894444927573204,-0.034220609813928604
-1.026221752166748,5.1840500831604,7.976175308227539,0.05033225938677788,0.022503048181533813,-0.017176883295178413
-1.1485549211502075,5.277370452880859,7.449155807495117,0.07696308940649033,0.09161003679037094,-0.05232957378029823
-1.3423734903335571,5.2630133628845215,8.35453987121582,0.021570969372987747,0.1906767040491104,-0.051264338195323944
-1.6755740642547607,5.48584508895874,8.23011302947998,0.0077229393646121025,0.037416309118270874,-0.040612008422613144
-1.4312070608139038,5.349453926086426,8.052745819091797,-0.022103585302829742,-0.023301972076296806,0.038215234875679016
-1.215553879737854,5.210371494293213,8.08385181427002,-0.024234050884842873,-0.009453942999243736,0.048867564648389816
-0.9951151013374329,5.088337421417236,8.1224365234375,0.018375270068645477,0.010785484686493874,0.030758604407310486
-1.1389836072921753,5.119443893432617,8.012067794799805,0.04500609636306763,0.012915950268507004,-0.015046416781842709
-1.3232308626174927,5.2630133628845215,7.935497283935547,0.03435376659035683,-0.006258244160562754,-0.025698747485876083
-1.2849457263946533,5.251049518585205,7.9713897705078125,-0.009320789016783237,-0.006258244160562754,0.033954303711652756
-1.428814172744751,5.203192710876465,7.190432071685791,0.0482017956674099,-0.22356578707695007,0.037150003015995026
-0.841675341129303,5.30638313293457,6.732804775238037,-0.13714875280857086,0.08202294260263443,0.052063263952732086
-0.9400802254676819,4.8798627853393555,9.140283584594727,-0.2511286735534668,0.2226337045431137,-0.00226362026296556
-1.7617156505584717,5.207978248596191,9.186046600341797,-0.15632294118404388,-0.08188978582620621,-0.036351077258586884
-1.0597213506698608,5.033302307128906,8.778668403625488,-0.04553871229290962,-0.10212921351194382,0.0712374597787857
-0.9281160831451416,4.973182678222656,8.630014419555664,0.07270215451717377,-0.011584409512579441,0.028628136962652206
-1.0549356937408447,5.08355188369751,8.301898002624512,0.14833369851112366,-0.026497671380639076,-0.0011983871227130294
-1.3304094076156616,5.210371494293213,7.961818218231201,0.1430075317621231,-0.06271559745073318,-0.017176883295178413
-1.2873386144638062,5.292026519775391,7.6528449058532715,0.1227681040763855,-0.09467258304357529,0.013714875094592571
-1.2442678213119507,5.282155990600586,7.525726318359375,0.09933298081159592,-0.09893351793289185,0.025432437658309937
-1.1892328262329102,5.255835056304932,7.406085014343262,0.03541899845004082,-0.08402025699615479,0.029693370684981346
-1.2346965074539185,5.260620594024658,7.583453178405762,-0.04021254554390907,-0.05632419511675835,0.05312849581241608
-1.1219347715377808,5.2151570320129395,7.810771465301514,-0.10199606418609619,-0.09573781490325928,0.058454662561416626
-1.0597213506698608,5.207978248596191,7.952247142791748,-0.12969212234020233,-0.11917294561862946,0.05312849581241608
-1.0190433263778687,5.143372058868408,8.043173789978027,-0.12969212234020233,-0.10958584398031235,0.052063263952732086
-0.7818548083305359,4.925326347351074,8.34736156463623,-0.05299534276127815,-0.11704248189926147,0.041410934180021286
-0.6263213157653809,4.90618371963501,8.201399803161621,0.05246272683143616,-0.1255643367767334,0.007323476951569319
-0.6717849373817444,4.963611602783203,8.151150703430176,0.05033225938677788,-0.12023817747831345,-0.028894444927573204
-0.7986045479774475,5.040481090545654,7.949853897094727,0.014114337973296642,-0.12023817747831345,-0.028894444927573204
-0.8850452899932861,5.119443893432617,8.163114547729492,-0.016777420416474342,-0.11704248189926147,-0.033155377954244614
-0.7674978375434875,5.162514686584473,7.942675590515137,-0.029560215771198273,-0.18202169239521027,0.0009320789249613881
-0.633499801158905,5.052444934844971,7.846962928771973,-0.07643046975135803,-0.17349982261657715,0.0030625448562204838
-0.6382854580879211,4.9995036125183105,7.945068359375,-0.10625699162483215,-0.1575213372707367,-0.009720250964164734
-0.6885347366333008,5.047659397125244,8.2157564163208,-0.13075734674930573,-0.15965180099010468,-0.024633513763546944
-0.6502495408058167,5.0356950759887695,8.285148620605469,-0.11690932512283325,-0.16178226470947266,-0.015046416781842709
-0.6167500615119934,5.026124000549316,8.285148620605469,-0.07643046975135803,-0.1138467788696289,-0.005459319334477186
-0.633499801158905,5.042873859405518,8.361719131469727,-0.009320789016783237,-0.033954303711652756,0.027562905102968216
-0.5877370834350586,5.001896858215332,8.395517349243164,0.03967992961406708,-0.007323476951569319,0.052063263952732086
-0.45134615898132324,4.908576488494873,8.321041107177734,0.03861469775438309,-0.05312849581241608,0.044606633484363556
-0.3819543123245239,4.932504653930664,8.258827209472656,0.025831900537014008,-0.07443315535783768,0.026497671380639076
-0.37477585673332214,4.901398181915283,8.196614265441895,0.005592473316937685,-0.0829550251364708,-0.007589785382151604
-0.489631325006485,4.944468975067139,8.172685623168945,0.00133154122158885,-0.07336792349815369,-0.021437814459204674
-0.784247636795044,5.126622676849365,8.23250675201416,0.0023967742454260588,-0.042476166039705276,-0.026763979345560074
-0.7004988193511963,5.131408214569092,8.256434440612793,0.017310036346316338,-0.038215234875679016,0.037150003015995026
-0.45134615898132324,4.989932537078857,8.179863929748535,0.0375494658946991,-0.03288906812667847,0.054193731397390366
-0.4298107624053955,4.966004371643066,8.14636516571045,0.03541899845004082,-0.033954303711652756,0.030758604407310486
-0.48723849654197693,4.985146999359131,8.098209381103516,0.021570969372987747,-0.048867564648389816,0.009453942999243736
-0.537487804889679,5.011467933654785,8.134400367736816,0.018375270068645477,-0.042476166039705276,0.0030625448562204838
-0.5303093194961548,5.057230472564697,8.196614265441895,0.017310036346316338,-0.042476166039705276,0.016910573467612267
-0.4992026388645172,5.0356950759887695,8.033602714538574,0.017310036346316338,-0.029693370684981346,0.021171506494283676
-0.4250251352787018,5.013860702514648,8.079066276550293,-0.0007989247678779066,-0.017975807189941406,0.031823836266994476
-0.35084763169288635,4.944468975067139,8.124829292297363,-0.021038351580500603,-0.022236740216612816,0.016910573467612267
-0.506381094455719,5.040481090545654,8.321041107177734,-0.00399462366476655,0.004394086077809334,0.014780107885599136
-0.43220359086990356,4.994718074798584,8.285148620605469,0.00452724052593112,-0.009453942999243736,0.023301972076296806
-0.3290131092071533,4.977968215942383,8.170292854309082,0.0034620072692632675,-0.019041040912270546,0.010519175790250301
-0.33379876613616943,4.994718074798584,8.184649467468262,0.00133154122158885,-0.006258244160562754,-0.0011983871227130294
-0.5470590591430664,5.001896858215332,8.258827209472656,0.0023967742454260588,0.0033288532868027687,-0.009720250964164734
-0.5159524083137512,5.054837703704834,8.23011302947998,0.00452724052593112,-0.020106272771954536,0.004127778112888336
-0.4489533603191376,5.047659397125244,8.208578109741211,0.023701434955000877,0.007589785382151604,0.005193010903894901
-0.4250251352787018,5.018945693969727,8.086244583129883,0.018375270068645477,-0.017975807189941406,0.0009320789249613881
-0.4944169819355011,5.047659397125244,8.033602714538574,0.005592473316937685,-0.009453942999243736,0.0009320789249613881
-0.4537389874458313,5.0356950759887695,8.028817176818848,0.0002663082559593022,-0.006258244160562754,0.005193010903894901
-0.4417748749256134,5.045266628265381,8.110472679138184,-0.008255556225776672,0.015046416781842709,0.007323476951569319
-0.42741793394088745,5.030909538269043,8.095816612243652,-0.010386021807789803,0.011850717477500439,0.007323476951569319
-0.4130610227584839,5.016253471374512,8.23250675201416,-0.022103585302829742,0.011850717477500439,0.001997311832383275
-0.506381094455719,5.0356950759887695,8.309076309204102,-0.019973119720816612,0.00226362026296556,0.0009320789249613881
-0.4226323068141937,5.042873859405518,8.321041107177734,0.0002663082559593022,0.004394086077809334,0.010519175790250301
-0.3484548032283783,4.958825588226318,8.256434440612793,0.020505735650658607,0.0033288532868027687,0.008388710208237171
-0.3170489966869354,4.954040050506592,8.23968505859375,0.023701434955000877,0.0011983871227130294,-0.0001331541279796511
-0.4058825373649597,5.02851676940918,8.208578109741211,0.020505735650658607,0.004394086077809334,-0.023568280041217804
-0.508773922920227,5.045266628265381,8.23011302947998,0.020505735650658607,0.0011983871227130294,-0.020372580736875534
-0.47288158535957336,5.073980331420898,8.151150703430176,0.024766668677330017,-0.007323476951569319,-0.008655018173158169
-0.4537389874458313,5.057230472564697,8.134400367736816,0.023701434955000877,0.0033288532868027687,-0.008655018173158169
-0.35802608728408813,5.016253471374512,8.189435958862305,0.014114337973296642,-0.019041040912270546,-0.00226362026296556
-0.4489533603191376,5.047659397125244,8.199007034301758,0.008788172155618668,-0.013714875094592571,-0.019307348877191544
-0.5207380056381226,5.088337421417236,8.23250675201416,0.00133154122158885,-0.03288906812667847,-0.013981183059513569
-0.4537389874458313,5.085944652557373,8.210970878601074,0.0023967742454260588,-0.04673709720373154,-0.00226362026296556
-0.42741793394088745,5.088337421417236,7.707880020141602,0.020505735650658607,-0.010519175790250301,-0.0033288532868027687
-0.6358926296234131,5.279763221740723,7.384549617767334,0.10678961127996445,0.27056917548179626,0.03608476743102074
-0.5901299118995667,5.076373100280762,8.079066276550293,0.08335448056459427,0.18428531289100647,0.05632419511675835
-0.1782652884721756,4.822434902191162,8.14397144317627,-0.1552577167749405,-0.2001306563615799,-0.009720250964164734
-0.2548356056213379,5.1290154457092285,8.503194808959961,-0.2595174014568329,-0.09786828607320786,-0.08322133123874664
-0.7100701332092285,4.956432819366455,9.257830619812012,-0.03808208182454109,0.060851436108350754,-0.010785484686493874
-0.3170489966869354,4.798506736755371,8.74038314819336,0.1536598652601242,0.029959678649902344,0.029693370684981346
-0.3723830282688141,5.0356950759887695,8.04796028137207,0.13448566198349,0.022503048181533813,-0.08002562820911407
-0.45613181591033936,4.963611602783203,8.016853332519531,0.0695064514875412,-0.03288906812667847,-0.08215609937906265
-0.3963112533092499,4.9516472816467285,7.916354656219482,0.06311506032943726,-0.016910573467612267,-0.0874822586774826
-0.353240430355072,4.987539768218994,7.906783103942871,0.09613727778196335,0.053394805639982224,-0.0991998240351677
-0.5590232014656067,5.100301265716553,7.9713897705078125,0.13768136501312256,0.1384802907705307,-0.10452599078416824
-0.6358926296234131,5.1529436111450195,8.052745819091797,0.13874660432338715,0.1480673849582672,-0.0981345921754837
-0.5733801126480103,5.172086238861084,8.050353050231934,0.11318100988864899,0.10013190656900406,-0.08854749798774719
-0.5207380056381226,5.172086238861084,8.105387687683105,0.09613727778196335,0.09267527610063553,-0.09067796170711517
-0.5111667513847351,5.174479007720947,8.177471160888672,0.08122401684522629,0.09161003679037094,-0.1087869256734848
-0.6837490797042847,5.234299659729004,8.098209381103516,0.0801587849855423,0.061916667968034744,-0.11517832428216934
-0.7674978375434875,5.243870735168457,8.14636516571045,0.03222329914569855,0.044872939586639404,-0.10985215753316879
-0.6933203339576721,5.2630133628845215,8.208578109741211,0.04500609636306763,0.054460037499666214,-0.10772168636322021
-0.7268198728561401,5.234299659729004,8.460124015808105,0.15152940154075623,0.1395455300807953,-0.0991998240351677
-0.7052844762802124,5.234299659729004,8.306683540344238,0.26763978600502014,0.17576344311237335,-0.0874822586774826
-0.7124629616737366,5.274977684020996,7.990531921386719,0.30811864137649536,0.17895914614200592,-0.09067796170711517
-0.7579265832901001,5.289633750915527,7.748558044433594,0.24740037322044373,0.11611039936542511,-0.10239552706480026
-0.8033902049064636,5.332704544067383,7.640881061553955,0.15898603200912476,0.06924014538526535,-0.1087869256734848
-0.9161519408226013,5.414060115814209,7.789236068725586,0.09720251709222794,0.057655736804008484,-0.11517832428216934
-1.6226328611373901,5.828616619110107,6.411867141723633,0.07802832126617432,0.040612008422613144,-0.08002562820911407
-1.1389836072921753,5.730212211608887,6.936493873596191,-0.19467133283615112,0.013981183059513569,0.040345702320337296
-0.8922237157821655,5.318347454071045,8.773882865905762,-0.24154159426689148,-0.015845341607928276,0.021171506494283676
-1.1509476900100708,5.565107345581055,8.622835159301758,-0.09453943371772766,-0.040345702320337296,0.008388710208237171
-0.9759725332260132,5.459524154663086,8.390731811523438,0.022636201232671738,-0.0009320789249613881,0.0723026916384697
-0.8706883192062378,5.351847171783447,8.187042236328125,0.019440501928329468,-0.022236740216612816,0.07017222791910172
-0.9496514797210693,5.452345371246338,8.105387687683105,-0.014646953903138638,-0.04993279650807381,0.057389430701732635
-0.8225327730178833,5.387739181518555,7.571189880371094,0.018375270068645477,-0.054193731397390366,0.09240896254777908
-0.7890332937240601,5.351847171783447,7.612166881561279,-0.025299284607172012,-0.048867564648389816,0.1009308323264122
-0.7244270443916321,5.339882850646973,7.511369228363037,-0.10625699162483215,-0.1138467788696289,0.10519175976514816
-0.6861419081687927,5.337490081787109,7.566404342651367,-0.21064983308315277,-0.16178226470947266,0.09453943371772766
-0.719641387462616,5.287240505218506,7.765307903289795,-0.27549588680267334,-0.15326039493083954,0.09347419440746307
-0.7603194117546082,5.260620594024658,7.978568077087402,-0.27230018377304077,-0.11917294561862946,0.10838746279478073
-0.6789634227752686,5.210371494293213,8.177471160888672,-0.24367205798625946,-0.09041165560483932,0.1339530497789383
-0.5111667513847351,5.162514686584473,8.342576026916504,-0.21384553611278534,-0.061650361865758896,0.1328878253698349
-0.5709872841835022,5.160121917724609,8.558229446411133,-0.15951864421367645,-0.044606633484363556,0.12117026001214981
-0.5111667513847351,5.107480049133301,8.44576644897461,-0.11051792651414871,-0.07549838721752167,0.12649641931056976
-0.4657030999660492,4.994718074798584,8.383553504943848,-0.0902784988284111,-0.09467258304357529,0.11690932512283325
-0.42023947834968567,5.006682395935059,8.301898002624512,-0.07430000603199005,-0.08188978582620621,0.11051792651414871
-0.3819543123245239,4.920540809631348,8.464909553527832,-0.028494983911514282,-0.031823836266994476,0.09880036115646362
-0.3412763178348541,5.011467933654785,8.426624298095703,0.03861469775438309,-0.028628136962652206,0.1009308323264122
-0.1543370634317398,4.9516472816467285,8.153543472290039,0.06311506032943726,-0.048867564648389816,0.08508548885583878
-0.137587308883667,4.918148040771484,7.976175308227539,0.031158065423369408,-0.048867564648389816,0.03928046673536301
-0.3122633695602417,4.9133620262146,8.210970878601074,-0.0007989247678779066,-0.03288906812667847,-0.007589785382151604
-0.3484548032283783,5.042873859405518,8.270791053771973,0.031158065423369408,-0.061650361865758896,0.009453942999243736
-0.1902294009923935,5.026124000549316,8.086244583129883,0.0790935531258583,-0.009453942999243736,0.019041040912270546
-0.32662028074264526,5.040481090545654,8.021638870239258,0.06631075590848923,0.010785484686493874,-0.0001331541279796511
-0.367597371339798,5.078765869140625,8.012067794799805,0.03861469775438309,-0.013714875094592571,-0.007589785382151604
-0.45613181591033936,5.1290154457092285,8.08385181427002,-0.011451254598796368,-0.03928046673536301,-0.016111649572849274
-0.44416770339012146,5.169693470001221,8.182256698608398,-0.011451254598796368,-0.03928046673536301,-0.011850717477500439
-0.384347140789032,5.155336380004883,8.2157564163208,0.00452724052593112,-0.042476166039705276,-0.00226362026296556
-0.3939184248447418,5.138586521148682,8.249256134033203,0.029027599841356277,-0.027562905102968216,0.0009320789249613881
-0.4489533603191376,5.193621635437012,8.244470596313477,0.07696308940649033,0.016111649572849274,0.0030625448562204838
-0.4657030999660492,5.222335338592529,8.139185905456543,0.08548495173454285,0.007589785382151604,0.014780107885599136
-0.4489533603191376,5.203192710876465,8.098209381103516,0.06737598776817322,-0.007323476951569319,0.019041040912270546
-0.384347140789032,5.186442852020264,8.035995483398438,0.024766668677330017,-0.028628136962652206,0.015845341607928276
-0.3939184248447418,5.196014404296875,8.155936241149902,0.009853405877947807,-0.016910573467612267,0.019041040912270546
-0.3364906907081604,5.157729148864746,8.163114547729492,0.016244804486632347,-0.013714875094592571,0.024367205798625946
-0.26919254660606384,5.131408214569092,8.158329010009766,0.030092833563685417,-0.004127778112888336,0.023301972076296806
-0.3652045428752899,5.157729148864746,8.189435958862305,0.05246272683143616,0.007589785382151604,0.013714875094592571
-0.39152559638023376,5.207978248596191,8.120043754577637,0.05672365799546242,-0.021171506494283676,0.010519175790250301
-0.2883351147174835,5.181657314300537,7.973782539367676,0.06524552404880524,-0.011584409512579441,0.015845341607928276
-0.2907279431819916,5.1290154457092285,7.961818218231201,0.04394086077809334,0.013981183059513569,-0.00226362026296556
-0.3771686553955078,5.210371494293213,8.033602714538574,0.022636201232671738,0.008655018173158169,-0.009720250964164734
-0.33379876613616943,5.179264545440674,8.079066276550293,0.03435376659035683,0.007589785382151604,0.001997311832383275
-0.35802608728408813,5.196014404296875,8.07667350769043,0.04926702752709389,0.012915950268507004,-0.004394086077809334
-0.35084763169288635,5.222335338592529,8.0383882522583,0.04074516147375107,0.0011983871227130294,-0.007589785382151604
-0.3436691462993622,5.231906890869141,8.079066276550293,0.020505735650658607,0.0011983871227130294,-0.010785484686493874
-0.31465616822242737,5.188836097717285,8.091031074523926,0.030092833563685417,-0.006258244160562754,-0.013981183059513569
-0.30987054109573364,5.229514122009277,8.028817176818848,0.027962366119027138,-0.0009320789249613881,-0.033155377954244614
-0.47527438402175903,5.318347454071045,8.000102996826172,0.023701434955000877,0.00226362026296556,-0.03848154470324516
-0.49680981040000916,5.335097312927246,7.997710704803467,0.020505735650658607,0.006524552125483751,-0.008655018173158169
-0.3364906907081604,5.241477966308594,7.947461128234863,0.010918638668954372,-0.005193010903894901,0.010519175790250301
-0.3891327679157257,5.243870735168457,8.004889488220215,-0.016777420416474342,0.00226362026296556,-0.024633513763546944
-0.4537389874458313,5.311169147491455,8.071887969970703,-0.03382114693522453,-0.019041040912270546,-0.007589785382151604
-0.43220359086990356,5.279763221740723,8.124829292297363,-0.021038351580500603,-0.006258244160562754,0.009453942999243736
-0.37956148386001587,5.308775901794434,8.165507316589355,-0.012516488321125507,-0.0009320789249613881,0.015845341607928276
-0.367597371339798,5.258227825164795,8.148757934570312,-0.002929390873759985,-0.001997311832383275,0.017975807189941406
-0.3074777126312256,5.207978248596191,8.093423843383789,0.0002663082559593022,-0.008388710208237171,0.009453942999243736
-0.3122633695602417,5.212764263153076,8.04796028137207,-0.015712186694145203,-0.017975807189941406,-0.007589785382151604
-0.4298107624053955,5.234299659729004,8.093423843383789,-0.024234050884842873,-0.019041040912270546,-0.015046416781842709
-0.4250251352787018,5.229514122009277,8.091031074523926,-0.00719032296910882,-0.009453942999243736,-0.0001331541279796511
-0.31465616822242737,5.205585479736328,8.059924125671387,0.013049104250967503,-0.0009320789249613881,0.009453942999243736
-0.3170489966869354,5.212764263153076,8.06231689453125,-0.0007989247678779066,-0.012649642303586006,-0.0001331541279796511
-0.2667997181415558,5.193621635437012,7.976175308227539,-0.029560215771198273,-0.042476166039705276,-0.012915950268507004
-0.35802608728408813,5.224728107452393,8.110472679138184,-0.03595161437988281,-0.030758604407310486,-0.022503048181533813
-0.34606197476387024,5.203192710876465,8.14397144317627,-0.013581721112132072,-0.026497671380639076,-0.018242115154862404
-0.3604189157485962,5.212764263153076,8.177471160888672,-0.0018641578499227762,-0.022236740216612816,-0.018242115154862404
-0.41066819429397583,5.248656272888184,8.163114547729492,0.00452724052593112,-0.035019535571336746,-0.018242115154862404
-0.4250251352787018,5.267798900604248,8.263612747192383,-0.00719032296910882,-0.06591129302978516,-0.006524552125483751
-0.2787638306617737,5.138586521148682,8.390731811523438,0.0077229393646121025,-0.11917294561862946,-0.011850717477500439
-0.4298107624053955,5.567500114440918,5.880062580108643,0.05565842613577843,0.1906767040491104,-0.034220609813928604
-0.7172485589981079,5.313561916351318,8.050353050231934,0.10465914756059647,0.31211328506469727,0.08188978582620621
-0.26201409101486206,4.942076206207275,8.160721778869629,-0.20425842702388763,-0.25765323638916016,0.03288906812667847
0.07567301392555237,5.203192710876465,8.56301498413086,-0.39373674988746643,-0.3066539466381073,-0.0768299326300621
-0.3436691462993622,5.140979290008545,9.346364974975586,-0.14140968024730682,0.0033288532868027687,-0.044872939586639404
-0.3412763178348541,4.963611602783203,9.094820022583008,0.15152940154075623,0.058720968663692474,0.038215234875679016
0.054137613624334335,5.062016487121582,8.251648902893066,0.24633513391017914,0.022503048181533813,0.0009320789249613881
-0.1543370634317398,5.217549800872803,7.966603755950928,0.16963836550712585,0.0001331541279796511,-0.050199106335639954
-0.401096910238266,5.231906890869141,7.844570159912109,0.09294158220291138,-0.044606633484363556,-0.06511236727237701
-0.38673996925354004,5.231906890869141,7.724629878997803,0.08335448056459427,-0.031823836266994476,-0.04913387447595596
-0.2763710021972656,5.207978248596191,7.640881061553955,0.09400681406259537,0.008655018173158169,-0.037416309118270874
-0.33379876613616943,5.272584915161133,7.6839518547058105,0.06204982474446297,0.027829213067889214,-0.044872939586639404
-0.2548356056213379,5.248656272888184,7.803592681884766,0.024766668677330017,0.027829213067889214,-0.037416309118270874
-0.25004997849464417,5.200799942016602,7.890033721923828,-0.009320789016783237,0.022503048181533813,-0.05232957378029823
-0.5470590591430664,5.335097312927246,8.153543472290039,-0.04340824484825134,0.009720250964164734,-0.060851436108350754
-0.33379876613616943,5.267798900604248,8.299505233764648,0.021570969372987747,0.017176883295178413,-0.010785484686493874
-0.41066819429397583,5.320740222930908,8.263612747192383,0.030092833563685417,-0.007323476951569319,-0.03954677656292915
-0.5446662306785583,5.418846130371094,8.160721778869629,0.05033225938677788,-0.020106272771954536,-0.036351077258586884
-0.5015954375267029,5.378168106079102,8.004889488220215,0.06844121962785721,-0.010519175790250301,-0.00226362026296556
-0.45613181591033936,5.320740222930908,7.93789005279541,0.06737598776817322,-0.007323476951569319,0.008388710208237171
-0.41066819429397583,5.30638313293457,7.885247707366943,0.05033225938677788,0.008655018173158169,0.008388710208237171
-0.4130610227584839,5.327918529510498,7.997710704803467,0.031158065423369408,-0.0030625448562204838,0.012649642303586006
-0.3074777126312256,5.292026519775391,7.863712310791016,0.010918638668954372,-0.035019535571336746,0.007323476951569319
-0.3412763178348541,5.301597595214844,7.863712310791016,0.009853405877947807,0.0011983871227130294,-0.00226362026296556
-0.4417748749256134,5.30638313293457,7.93789005279541,0.006657706573605537,0.016111649572849274,0.009453942999243736
-0.37956148386001587,5.282155990600586,8.019246101379395,-0.014646953903138638,-0.001997311832383275,0.015845341607928276
-0.3122633695602417,5.30638313293457,8.05513858795166,-0.022103585302829742,-0.016910573467612267,0.013714875094592571
-0.3723830282688141,5.2992048263549805,8.100602149963379,-0.021038351580500603,-0.016910573467612267,0.001997311832383275
-0.42023947834968567,5.313561916351318,8.04796028137207,-0.00719032296910882,-0.014780107885599136,0.001997311832383275
-0.4345964193344116,5.392524719238281,8.004889488220215,0.011983871459960938,0.0033288532868027687,0.020106272771954536
-0.4130610227584839,5.337490081787109,7.9642109870910645,0.005592473316937685,0.0033288532868027687,0.035019535571336746
-0.37477585673332214,5.342275619506836,7.990531921386719,-0.024234050884842873,-0.015845341607928276,0.026497671380639076
-0.3556332588195801,5.325525760650635,8.035995483398438,-0.028494983911514282,-0.016910573467612267,0.022236740216612816
-0.3290131092071533,5.318347454071045,8.002495765686035,-0.0018641578499227762,0.0011983871227130294,0.028628136962652206
-0.33379876613616943,5.274977684020996,8.000102996826172,0.0077229393646121025,0.011850717477500439,0.030758604407310486
-0.384347140789032,5.277370452880859,8.012067794799805,0.0034620072692632675,0.0033288532868027687,0.027562905102968216
-0.26440688967704773,5.260620594024658,7.980960845947266,-0.008255556225776672,-0.004127778112888336,0.033954303711652756
-0.17108681797981262,5.198407173156738,8.016853332519531,-0.00719032296910882,0.012915950268507004,0.025432437658309937
-0.2356930375099182,5.198407173156738,8.11525821685791,0.0002663082559593022,0.020372580736875534,0.001997311832383275
-0.29790642857551575,5.241477966308594,8.102994918823242,0.0034620072692632675,0.007589785382151604,-0.010785484686493874
-0.3194418251514435,5.272584915161133,8.141578674316406,0.006657706573605537,0.008655018173158169,-0.009720250964164734
-0.2763710021972656,5.272584915161133,8.175078392028809,0.016244804486632347,-0.005193010903894901,-0.005459319334477186
-0.2715853750705719,5.243870735168457,8.112865447998047,0.029027599841356277,-0.0009320789249613881,-0.008655018173158169
-0.2787638306617737,5.217549800872803,8.028817176818848,0.04394086077809334,0.004394086077809334,-0.012915950268507004
-0.27397820353507996,5.274977684020996,7.916354656219482,0.05565842613577843,0.023568280041217804,-0.021437814459204674
-0.35084763169288635,5.289633750915527,7.885247707366943,0.04500609636306763,0.022503048181533813,-0.025698747485876083
-0.39870408177375793,5.320740222930908,7.87567663192749,0.006657706573605537,0.00226362026296556,-0.027829213067889214
-0.39152559638023376,5.344668388366699,8.033602714538574,-0.025299284607172012,-0.005193010903894901,-0.017176883295178413
-0.3242274820804596,5.320740222930908,8.074280738830566,-0.00399462366476655,0.00226362026296556,-0.019307348877191544
-0.35802608728408813,5.3303117752075195,8.0383882522583,0.030092833563685417,0.024633513763546944,-0.023568280041217804
-0.4704887568950653,5.363811016082764,8.040781021118164,0.031158065423369408,0.025698747485876083,-0.020372580736875534
-0.4298107624053955,5.359025478363037,8.074280738830566,0.022636201232671738,0.009720250964164734,-0.007589785382151604
-0.2955136001110077,5.311169147491455,8.05513858795166,0.024766668677330017,0.004394086077809334,-0.0001331541279796511
-0.38673996925354004,5.339882850646973,8.091031074523926,0.021570969372987747,0.0011983871227130294,-0.020372580736875534
-0.46331027150154114,5.359025478363037,8.024031639099121,0.019440501928329468,-0.013714875094592571,-0.017176883295178413
-0.4585246443748474,5.363811016082764,8.014460563659668,0.018375270068645477,-0.011584409512579441,-0.006524552125483751
-0.37956148386001587,5.349453926086426,8.007282257080078,0.020505735650658607,-0.007323476951569319,0.006258244160562754
-0.2667997181415558,5.301597595214844,7.983353614807129,0.021570969372987747,-0.010519175790250301,0.004127778112888336
-0.2955136001110077,5.301597595214844,7.973782539367676,0.021570969372987747,-0.010519175790250301,-0.007589785382151604
-0.40348970890045166,5.335097312927246,7.9881391525268555,0.020505735650658607,-0.006258244160562754,-0.020372580736875534
-0.33888351917266846,5.3231329917907715,7.959425449371338,0.030092833563685417,-0.001997311832383275,-0.010785484686493874
-0.3963112533092499,5.344668388366699,7.885247707366943,0.026897134259343147,0.004394086077809334,-0.018242115154862404
-0.4226323068141937,5.3542399406433105,8.095816612243652,0.00133154122158885,0.019307348877191544,-0.013981183059513569
-0.34606197476387024,5.3614182472229,7.9259257316589355,0.017310036346316338,-0.035019535571336746,-0.00226362026296556
-0.28594231605529785,5.325525760650635,8.0383882522583,0.016244804486632347,0.012915950268507004,-0.012915950268507004
-0.34606197476387024,5.342275619506836,8.031209945678711,0.025831900537014008,0.008655018173158169,-0.022503048181533813
-0.4345964193344116,5.421238899230957,8.002495765686035,0.026897134259343147,-0.008388710208237171,-0.026763979345560074
-0.4585246443748474,5.437988758087158,7.892426490783691,0.020505735650658607,-0.017975807189941406,-0.023568280041217804
-0.46091747283935547,5.418846130371094,7.8780694007873535,0.018375270068645477,-0.004127778112888336,-0.016111649572849274
-0.42023947834968567,5.4164533615112305,7.9881391525268555,0.011983871459960938,0.004394086077809334,-0.006524552125483751
-0.3122633695602417,5.3614182472229,7.954639911651611,0.016244804486632347,-0.0030625448562204838,-0.007589785382151604
-0.3819543123245239,5.36859655380249,7.923532962799072,0.020505735650658607,-0.004127778112888336,-0.024633513763546944
-0.38673996925354004,5.3470611572265625,7.9019975662231445,-0.0018641578499227762,0.004394086077809334,-0.013981183059513569
-0.4250251352787018,5.3709893226623535,7.916354656219482,-0.008255556225776672,-0.009453942999243736,-0.015046416781842709
-0.3412763178348541,5.344668388366699,8.007282257080078,-0.017842652276158333,0.0011983871227130294,-0.004394086077809334
-0.4082753658294678,5.43080997467041,8.0383882522583,-0.0018641578499227762,-0.005193010903894901,-0.03209014609456062
-0.47288158535957336,5.404489040374756,8.06949520111084,0.00133154122158885,0.0001331541279796511,-0.029959678649902344
-0.47527438402175903,5.435595512390137,8.04796028137207,0.021570969372987747,-0.004127778112888336,-0.017176883295178413
-0.42741793394088745,5.394917964935303,7.9642109870910645,0.029027599841356277,-0.0009320789249613881,-0.005459319334477186
-0.4082753658294678,5.385346412658691,7.9259257316589355,0.013049104250967503,-0.008388710208237171,-0.004394086077809334
-0.39152559638023376,5.390131950378418,7.8780694007873535,-0.0018641578499227762,-0.007323476951569319,-0.008655018173158169
-0.39870408177375793,5.351847171783447,8.007282257080078,-0.00399462366476655,-0.004127778112888336,-0.011850717477500439
-0.4250251352787018,5.397310733795166,7.983353614807129,0.013049104250967503,-0.008388710208237171,-0.010785484686493874
-0.3771686553955078,5.382953643798828,7.9019975662231445,0.022636201232671738,0.006524552125483751,0.001997311832383275
-0.29312077164649963,5.344668388366699,7.842176914215088,0.018375270068645477,0.016111649572849274,-0.0011983871227130294
-0.36999019980430603,5.320740222930908,7.952247142791748,-0.009320789016783237,0.011850717477500439,-0.021437814459204674
-0.38673996925354004,5.332704544067383,8.002495765686035,-0.014646953903138638,-0.001997311832383275,-0.029959678649902344
-0.4082753658294678,5.351847171783447,8.035995483398438,-0.018907885998487473,-0.010519175790250301,-0.031024912372231483
-0.3939184248447418,5.402096271514893,8.067102432250977,-0.015712186694145203,-0.009453942999243736,-0.026763979345560074
-0.32183465361595154,5.349453926086426,8.134400367736816,0.00133154122158885,-0.013714875094592571,-0.024633513763546944
-0.35084763169288635,5.3542399406433105,8.10807991027832,0.023701434955000877,-0.016910573467612267,-0.03848154470324516
-0.4537389874458313,5.409274578094482,8.093423843383789,0.03648423030972481,-0.025432437658309937,-0.04593817517161369
-0.6047859191894531,5.538486957550049,6.3376898765563965,0.04287562891840935,0.033155377954244614,-0.036351077258586884
-0.9233304262161255,5.763711452484131,6.51745080947876,-0.11051792651414871,0.25032976269721985,0.045671865344047546
-0.2309073805809021,5.076373100280762,8.409873962402344,-0.2605826258659363,0.005459319334477186,0.054193731397390366
-0.18783657252788544,5.191228866577148,9.087641716003418,-0.20532366633415222,-0.09680305421352386,-0.04593817517161369
-0.6598208546638489,5.531308650970459,9.106783866882324,0.010918638668954372,0.0555252730846405,-0.020372580736875534
-0.6263213157653809,5.406881809234619,8.845666885375977,0.17070358991622925,0.11078423261642456,0.07443315535783768
-0.18544375896453857,5.3231329917907715,7.844570159912109,0.04713656008243561,0.05232957378029823,-0.021437814459204674
-0.7411768436431885,5.406881809234619,7.93071174621582,0.008788172155618668,0.005459319334477186,-0.05232957378029823
-0.7986045479774475,5.545665740966797,7.75334358215332,0.04287562891840935,-0.010519175790250301,-0.006524552125483751
-0.506381094455719,5.452345371246338,7.47547721862793,0.0801587849855423,0.044872939586639404,0.04993279650807381
-0.3412763178348541,5.3231329917907715,7.4108710289001465,0.029027599841356277,0.07669677585363388,0.028628136962652206
-0.4082753658294678,5.318347454071045,7.679165840148926,-0.06151720881462097,0.07030537724494934,-0.007589785382151604
-0.42023947834968567,5.303990364074707,7.846962928771973,-0.0902784988284111,0.07350108027458191,-0.020372580736875534
-0.5997011661529541,5.373382568359375,8.330612182617188,-0.09666989743709564,0.12356702983379364,-0.00226362026296556
-0.537487804889679,5.255835056304932,8.342576026916504,-0.06471290439367294,0.005459319334477186,0.008388710208237171
-0.3026920557022095,5.272584915161133,8.321041107177734,-0.018907885998487473,0.018242115154862404,-0.009720250964164734
-0.4082753658294678,5.255835056304932,8.167900085449219,0.04500609636306763,0.051264338195323944,-0.03954677656292915
-0.5470590591430664,5.265406131744385,8.0383882522583,0.05459319427609444,0.0555252730846405,-0.04913387447595596
-0.5805585980415344,5.284548759460449,8.059924125671387,0.03861469775438309,0.051264338195323944,-0.054460037499666214
-0.5422734022140503,5.351847171783447,8.309076309204102,0.08761541545391083,0.08734910935163498,-0.05232957378029823
-0.49202415347099304,5.279763221740723,8.016853332519531,0.1440727710723877,0.08415340632200241,-0.04593817517161369
-0.539880633354187,5.332704544067383,7.942675590515137,0.14833369851112366,0.10439283400774002,-0.066177599132061
-0.6813562512397766,5.437988758087158,8.026424407958984,0.14726845920085907,0.10226237028837204,-0.07896039634943008
-0.7962117195129395,5.560321807861328,7.7700934410095215,0.12915951013565063,0.021437814459204674,-0.066177599132061
-0.755533754825592,5.550451278686523,7.612166881561279,0.10465914756059647,0.015046416781842709,-0.054460037499666214
-1.43599271774292,6.0487565994262695,5.31475830078125,0.08335448056459427,-0.05312849581241608,-0.037416309118270874
-0.537487804889679,5.538486957550049,7.616952896118164,-0.20212796330451965,0.19493764638900757,0.08615072071552277
-0.5303093194961548,5.117051124572754,9.068498611450195,-0.3106485903263092,0.012915950268507004,-0.017176883295178413
-0.999900758266449,5.663212776184082,9.054141998291016,-0.2074541300535202,-0.11810771375894547,-0.07256899774074554
-0.7938188910484314,5.418846130371094,8.886344909667969,-0.00399462366476655,-0.043541401624679565,0.050998032093048096
-0.6406782865524292,5.24626350402832,8.668598175048828,0.0801587849855423,-0.011584409512579441,0.061650361865758896
-0.5614160299301147,5.342275619506836,8.285148620605469,0.13448566198349,0.0011983871227130294,0.029693370684981346
-0.6478567123413086,5.385346412658691,8.170292854309082,0.12063764035701752,-0.024367205798625946,0.013714875094592571
-0.8033902049064636,5.504987716674805,7.945068359375,0.07483261823654175,-0.08082455396652222,0.0030625448562204838
-0.7986045479774475,5.526523113250732,7.873283863067627,0.06844121962785721,-0.0925421193242073,0.015845341607928276
-0.6215356588363647,5.4643096923828125,7.69830846786499,0.08974587917327881,-0.07656362652778625,0.040345702320337296
-0.5350949764251709,5.385346412658691,7.5978102684021,0.0801587849855423,-0.050998032093048096,0.013714875094592571
-0.539880633354187,5.42363166809082,7.612166881561279,0.04500609636306763,-0.04673709720373154,0.012649642303586006
-0.5303093194961548,5.42363166809082,7.93071174621582,-0.026364516466856003,-0.03288906812667847,-0.012915950268507004
-0.48006004095077515,5.387739181518555,8.208578109741211,-0.022103585302829742,-0.057389430701732635,-0.015046416781842709
-0.4585246443748474,5.342275619506836,8.160721778869629,0.020505735650658607,-0.07762885838747025,-0.024633513763546944
-0.7770691514015198,5.593821048736572,5.659623622894287,0.05672365799546242,-0.021171506494283676,-0.037416309118270874
-0.6957131624221802,5.47866678237915,8.134400367736816,-0.12649641931056976,0.16511112451553345,0.047802332788705826
-0.4537389874458313,5.490630626678467,7.748558044433594,0.11424624174833298,-0.027562905102968216,-0.024633513763546944
-0.6933203339576721,5.644070625305176,7.5978102684021,0.07270215451717377,-0.028628136962652206,-0.023568280041217804
-0.6478567123413086,5.471487998962402,7.581060409545898,0.03861469775438309,-0.033954303711652756,0.014780107885599136
-0.3556332588195801,5.382953643798828,7.451549053192139,0.03648423030972481,0.025698747485876083,-0.008655018173158169
-0.5303093194961548,5.4571309089660645,7.590631484985352,-0.014646953903138638,0.027829213067889214,-0.026763979345560074
-0.5853442549705505,5.497808933258057,7.80837869644165,-0.07749570161104202,0.0001331541279796511,-0.017176883295178413
-0.4465605318546295,5.382953643798828,8.026424407958984,-0.0902784988284111,-0.004127778112888336,-0.007589785382151604
-0.5518447160720825,5.414060115814209,8.311469078063965,0.0034620072692632675,0.020372580736875534,-0.044872939586639404
-0.5350949764251709,5.426024436950684,7.899604797363281,0.0482017956674099,-0.008388710208237171,-0.07896039634943008
-0.6454638838768005,5.49302339553833,7.805985450744629,0.03648423030972481,-0.027562905102968216,-0.07896039634943008
-0.7292127013206482,5.577071189880371,7.796414375305176,0.03967992961406708,-0.011584409512579441,-0.06830807030200958
-0.6909275650978088,5.557928562164307,7.789236068725586,0.0482017956674099,-0.005193010903894901,-0.054460037499666214
-0.5901299118995667,5.521737575531006,7.650452136993408,0.06311506032943726,0.006524552125483751,-0.044872939586639404
-0.6693921089172363,5.509773254394531,7.6767730712890625,0.03222329914569855,0.018242115154862404,-0.061916667968034744
-0.7148557901382446,5.579464435577393,7.7940216064453125,-0.008255556225776672,0.004394086077809334,-0.05659050494432449
-0.5279164910316467,5.442774295806885,7.913961887359619,0.0375494658946991,0.017176883295178413,-0.066177599132061
-0.5446662306785583,5.397310733795166,7.945068359375,0.03861469775438309,0.019307348877191544,-0.0874822586774826
-0.6598208546638489,5.461916923522949,7.983353614807129,0.03861469775438309,0.0011983871227130294,-0.10985215753316879
-0.7100701332092285,5.504987716674805,7.9642109870910645,0.05459319427609444,0.015046416781842709,-0.11091738939285278
-0.7052844762802124,5.555535793304443,8.182256698608398,0.14833369851112366,0.08202294260263443,-0.0981345921754837
-0.5494518876075745,5.43080997467041,7.99292516708374,0.2505960762500763,0.12143656611442566,-0.08854749798774719
-0.597308337688446,5.507380485534668,7.731808185577393,0.2495308369398117,0.09267527610063553,-0.12796111404895782
-0.7052844762802124,5.586642742156982,7.616952896118164,0.20266057550907135,0.037416309118270874,-0.14500483870506287
-1.026221752166748,5.727818965911865,7.377371311187744,0.07376738637685776,-0.07975932210683823,-0.151396244764328
-0.8632107973098755,5.768496990203857,7.674380302429199,-0.029560215771198273,-0.04993279650807381,-0.12796111404895782
-0.8656035661697388,5.6823554039001465,7.93789005279541,-0.016777420416474342,-0.033954303711652756,-0.11517832428216934
-0.8129615187644958,5.627320766448975,7.851748466491699,0.06524552404880524,-0.027562905102968216,-0.10772168636322021
-0.9448658227920532,5.749354839324951,7.765307903289795,0.10465914756059647,-0.033954303711652756,-0.1205044835805893
-0.9472586512565613,5.828616619110107,7.585845947265625,0.09826774895191193,-0.054193731397390366,-0.11198262125253677
-1.069292664527893,5.881258964538574,7.556832790374756,0.05246272683143616,-0.05312849581241608,-0.09280842542648315
-1.1147562265396118,5.847759246826172,7.664809226989746,0.03222329914569855,-0.047802332788705826,-0.0555252730846405
-1.0668997764587402,5.821438312530518,7.643273830413818,0.030092833563685417,-0.047802332788705826,-0.033155377954244614
-1.5747764110565186,6.254838466644287,5.00578498840332,-0.08708280324935913,0.00226362026296556,0.009453942999243736
-0.722034215927124,5.5360941886901855,7.906783103942871,-0.39160630106925964,-0.042476166039705276,0.059519894421100616
-0.7651050686836243,5.363811016082764,8.81934642791748,-0.33621418476104736,-0.08402025699615479,0.03288906812667847
-0.9281160831451416,5.821438312530518,8.675776481628418,-0.06471290439367294,-0.022236740216612816,0.037150003015995026
