accX,accY,accZ,gyroX,gyroY,gyroZ
-4.803009033203125,3.486663818359375,8.820602416992188,-1.9457244873046875,0.3986968994140625,1.4838714599609375
-4.76708984375,3.2711944580078125,9.534072875976562,-1.8796844482421875,0.3677978515625,1.5083770751953125
-4.623443603515625,3.1826019287109375,9.92193603515625,-1.6762237548828125,0.3017578125,1.52435302734375
-4.508514404296875,3.1179656982421875,9.761520385742188,-1.5377349853515625,0.3017578125,1.51263427734375
-4.60906982421875,2.8641815185546875,9.514923095703125,-1.316162109375,0.3262481689453125,1.5296783447265625
-4.34332275390625,2.6750335693359375,9.569992065429688,-1.118011474609375,0.3518218994140625,1.628753662109375
-3.514923095703125,2.6582794189453125,9.7327880859375,-0.90496826171875,0.368865966796875,1.7352752685546875
-3.019317626953125,2.68939208984375,9.615478515625,-0.6833953857421875,0.434906005859375,1.8023834228515625
-2.81341552734375,2.799530029296875,9.210861206054688,-0.436248779296875,0.561676025390625,1.8641815185546875
-2.7104644775390625,2.9814910888671875,8.765533447265625,-0.2210693359375,0.6618194580078125,1.92596435546875
-2.6194915771484375,3.254425048828125,8.492599487304688,-0.1017608642578125,0.7267913818359375,1.969635009765625
-2.51654052734375,3.3932952880859375,8.289093017578125,-0.074066162109375,0.758758544921875,1.9738922119140625
-2.4925994873046875,3.50103759765625,8.085586547851562,-0.062347412109375,0.7630157470703125,1.9643096923828125
-2.4949951171875,3.7117156982421875,8.047271728515625,-0.0783233642578125,0.6681976318359375,1.94940185546875
-2.4399261474609375,3.7524261474609375,8.162200927734375,-0.0804443359375,0.59576416015625,1.946197509765625
-2.27471923828125,3.8098907470703125,8.365707397460938,-0.02825927734375,0.4881744384765625,1.927032470703125
-1.9179840087890625,3.9798736572265625,8.27471923828125,0.078277587890625,0.4445037841796875,1.878021240234375
-1.8844757080078125,4.1498565673828125,7.7527923583984375,0.1645660400390625,0.437042236328125,1.7938690185546875
-1.78631591796875,4.47308349609375,7.6546173095703125,0.1752166748046875,0.3081512451171875,1.720367431640625
-1.707305908203125,4.5879974365234375,7.728851318359375,0.1624298095703125,0.2463531494140625,1.675628662109375
-1.6474456787109375,4.6717987060546875,8.092758178710938,0.144317626953125,0.2154693603515625,1.5872039794921875
-1.5325164794921875,4.69573974609375,7.8796844482421875,0.1858673095703125,0.2250518798828125,1.492401123046875
-1.7001190185546875,4.7627716064453125,7.89404296875,0.2093048095703125,0.357147216796875,1.4188995361328125
-1.613922119140625,5.12908935546875,7.9227752685546875,0.2849273681640625,0.4423675537109375,1.37841796875
-1.2404327392578125,5.452301025390625,7.0943756103515625,0.3350067138671875,0.472198486328125,1.32196044921875
-0.8669281005859375,5.74200439453125,7.19732666015625,0.0143585205078125,0.4753875732421875,1.12701416015625
-1.0584716796875,6.1250762939453125,8.16937255859375,0.020751953125,0.56488037109375,1.079071044921875
-1.053680419921875,6.201690673828125,7.994598388671875,0.0985107421875,0.5702056884765625,1.071624755859375
-0.926788330078125,5.99578857421875,5.7416534423828125,0.153900146484375,0.4423675537109375,1.05670166015625
-0.4766845703125,6.1226806640625,6.5604705810546875,-0.1560821533203125,0.3060150146484375,1.02581787109375
-0.493438720703125,5.7707366943359375,8.45428466796875,-0.37872314453125,0.6032257080078125,0.9501800537109375
-0.313873291015625,5.7874908447265625,8.257965087890625,-0.25408935546875,0.5776519775390625,0.864959716796875
0.0739898681640625,5.947906494140625,8.234024047851562,-0.2029571533203125,0.596832275390625,0.7658843994140625
0.25115966796875,5.9886016845703125,8.799057006835938,-0.14862060546875,0.562744140625,0.7200775146484375
0.643798828125,5.777923583984375,6.0265655517578125,0.181610107421875,0.335845947265625,0.7328643798828125
0.9837799072265625,5.6653900146484375,7.90362548828125,-0.220001220703125,0.5318450927734375,0.443115234375
0.9287109375,5.6438446044921875,7.657012939453125,-0.24237060546875,0.491363525390625,0.3312530517578125
0.8616790771484375,5.6270904541015625,8.080795288085938,-0.309478759765625,0.343292236328125,0.3067626953125
1.2160186767578125,5.5744171142578125,8.650619506835938,-0.262603759765625,0.2261199951171875,0.317413330078125
1.333343505859375,5.435546875,8.028121948242188,-0.140106201171875,0.230377197265625,0.2747955322265625
1.213623046875,5.4331512451171875,7.2883148193359375,-0.18377685546875,0.2282562255859375,0.2087554931640625
1.1896820068359375,5.3756866455078125,7.1207122802734375,-0.264739990234375,0.21759033203125,0.17999267578125
1.017303466796875,5.2200775146484375,7.1207122802734375,-0.4543609619140625,0.2133331298828125,0.1086273193359375
0.643798828125,5.08599853515625,7.403228759765625,-0.6152191162109375,0.171783447265625,0.0500335693359375
0.3708648681640625,4.8896636962890625,8.267547607421875,-0.6450347900390625,0.0673980712890625,0.0500335693359375
0.382843017578125,4.892059326171875,8.751174926757812,-0.4745941162109375,-0.0476531982421875,0.075592041015625
0.57916259765625,5.0692291259765625,8.281906127929688,-0.263671875,-0.1158294677734375,0.0937042236328125
0.6629638671875,5.260772705078125,7.5899810791015625,-0.2008209228515625,-0.131805419921875,0.0937042236328125
0.605499267578125,5.3756866455078125,7.2954864501953125,-0.2849884033203125,-0.0700225830078125,0.075592041015625
0.4379119873046875,5.3900604248046875,7.561248779296875,-0.3883056640625,-0.0337982177734375,0.0724029541015625
0.320587158203125,5.3325958251953125,8.102340698242188,-0.3957672119140625,-0.0348663330078125,0.0691986083984375
0.172149658203125,5.3278045654296875,8.301055908203125,-0.3638153076171875,-0.0135650634765625,0.0596160888671875
-0.0409393310546875,5.3325958251953125,8.394439697265625,-0.321197509765625,0.0013427734375,0.056427001953125
-0.3904876708984375,4.6287078857421875,8.272323608398438,-0.24237060546875,0.0439605712890625,0.075592041015625
-0.536529541015625,5.63665771484375,8.104736328125,-0.287109375,0.0002899169921875,0.1160736083984375
-0.6011810302734375,5.0692291259765625,8.313034057617188,-0.30096435546875,0.1654052734375,0.23431396484375
-0.39288330078125,5.2535858154296875,8.365707397460938,-0.240234375,0.072723388671875,0.2630767822265625
-0.3809051513671875,5.287109375,8.698501586914062,-0.153961181640625,0.00347900390625,0.29290771484375
-0.2540130615234375,5.2942962646484375,8.937911987304688,-0.0218658447265625,-0.005035400390625,0.319549560546875
-0.17022705078125,5.2751312255859375,8.849334716796875,0.04205322265625,0.0066680908203125,0.3312530517578125
-0.0050201416015625,5.1051483154296875,8.672164916992188,0.123016357421875,0.0876312255859375,0.349365234375
-0.038543701171875,5.0620574951171875,8.7296142578125,0.144317626953125,0.1355743408203125,0.348297119140625
-0.155853271484375,5.2679595947265625,9.021713256835938,0.1847991943359375,0.2165374755859375,0.3461761474609375
-0.222900390625,5.536102294921875,8.858901977539062,0.2444610595703125,0.321990966796875,0.3536376953125
-0.5006256103515625,5.361328125,8.839752197265625,0.2902679443359375,0.3486175537109375,0.3919830322265625
-0.8717193603515625,5.2272491455078125,9.289871215820312,0.3808135986328125,0.3305206298828125,0.4569549560546875
-1.400848388671875,4.8848876953125,8.892425537109375,0.4681549072265625,0.4402313232421875,0.463348388671875
-2.3752899169921875,4.8154449462890625,8.339370727539062,0.3435211181640625,0.6117401123046875,0.420745849609375
-2.9163665771484375,4.8609466552734375,8.250778198242188,0.1070404052734375,0.7928466796875,0.399444580078125
-3.007354736328125,4.585601806640625,8.327392578125,-0.0420989990234375,0.8194732666015625,0.37493896484375
-3.2898712158203125,4.722076416015625,8.715255737304688,-0.108154296875,0.6000213623046875,0.360015869140625
-3.651397705078125,4.2216949462890625,8.966644287109375,-0.1102752685546875,0.4647369384765625,0.376007080078125
-3.8022308349609375,3.5225830078125,8.9283447265625,-0.085784912109375,0.3646087646484375,0.430328369140625
-3.1533966064453125,4.564056396484375,8.94989013671875,-0.0570220947265625,0.2942962646484375,0.5294036865234375
-3.09832763671875,4.4299774169921875,8.150222778320312,0.0921173095703125,0.31134033203125,0.6668243408203125
-3.019317626953125,4.489837646484375,7.5899810791015625,0.0686798095703125,0.5797882080078125,0.8106231689453125
-2.8565216064453125,4.4036407470703125,7.54449462890625,-0.083648681640625,0.6128082275390625,0.829803466796875
-2.897216796875,4.214508056640625,7.422393798828125,-0.151824951171875,0.6000213623046875,0.8244781494140625
-2.7894744873046875,4.3270263671875,7.5732269287109375,-0.264739990234375,0.4775238037109375,0.83087158203125
-2.4351348876953125,4.121124267578125,7.8868560791015625,-0.2253265380859375,0.4540863037109375,0.85430908203125
-1.9443206787109375,4.32464599609375,7.7767333984375,-0.1113433837890625,0.5819244384765625,0.83087158203125
-1.7264556884765625,4.427581787109375,7.096771240234375,-0.046356201171875,0.721466064453125,0.7200775146484375
-1.762359619140625,4.499420166015625,6.9459381103515625,-0.0687255859375,0.70123291015625,0.6423187255859375
-2.04010009765625,4.6119384765625,7.3792877197265625,-0.16033935546875,0.5116119384765625,0.5048980712890625
-2.1861419677734375,4.712493896484375,7.9227752685546875,-0.1582183837890625,0.3049468994140625,0.420745849609375
-2.29388427734375,4.774749755859375,7.7767333984375,-0.0761871337890625,0.2431640625,0.396240234375
-2.401611328125,4.8561553955078125,7.697723388671875,-0.062347412109375,0.2548828125,0.407958984375
-2.4399261474609375,4.966278076171875,7.4990081787109375,-0.069793701171875,0.3092041015625,0.4697418212890625
-2.468658447265625,5.0093841552734375,7.5660400390625,-0.116668701171875,0.3198699951171875,0.5272674560546875
-2.5811767578125,5.081207275390625,7.82940673828125,-0.14862060546875,0.27618408203125,0.578399658203125
-2.48541259765625,5.0955657958984375,8.3704833984375,-0.12945556640625,0.1654052734375,0.6146240234375
-1.9850311279296875,5.0740203857421875,8.593154907226562,0.0047760009765625,0.06951904296875,0.6295318603515625
-1.94671630859375,5.3302001953125,6.969879150390625,0.2220916748046875,0.1962890625,0.57733154296875
-1.8174285888671875,5.6917266845703125,7.1255035400390625,0.0122222900390625,-0.1946563720703125,0.5443115234375
-1.5947723388671875,5.610321044921875,7.882080078125,-0.12945556640625,-0.3565826416015625,0.5283355712890625
-1.592376708984375,5.5025787353515625,9.048049926757812,-0.0879058837890625,-0.4119720458984375,0.4612274169921875
-1.79827880859375,5.5289154052734375,9.093536376953125,0.0399169921875,-0.3118438720703125,0.4250030517578125
-1.7025146484375,5.3804779052734375,8.846939086914062,0.1805419921875,-0.199981689453125,0.3887786865234375
-1.5253448486328125,5.567230224609375,8.087982177734375,0.31475830078125,-0.096649169921875,0.3110198974609375
-1.7958831787109375,5.7013092041015625,8.068817138671875,0.2902679443359375,-0.2287445068359375,0.2662811279296875
-1.75518798828125,5.9550933837890625,8.24359130859375,0.26788330078125,-0.3011932373046875,0.2716064453125
-1.54449462890625,5.799468994140625,8.365707397460938,0.28387451171875,-0.326751708984375,0.296112060546875
-1.2978973388671875,5.8234100341796875,8.480621337890625,0.3009185791015625,-0.328887939453125,0.30462646484375
-0.9770660400390625,6.201690673828125,8.155014038085938,0.3339385986328125,-0.293731689453125,0.27374267578125
-0.270782470703125,6.0939483642578125,7.66180419921875,0.271087646484375,-0.2884063720703125,0.2417755126953125
0.198486328125,5.6438446044921875,7.6115264892578125,0.1059722900390625,-0.315032958984375,0.112884521484375
-0.31866455078125,5.1841583251953125,8.406402587890625,-0.153961181640625,-0.1850738525390625,-0.0437164306640625
-0.4647064208984375,4.9207916259765625,8.88763427734375,-0.2509002685546875,-0.145660400390625,-0.082061767578125
-0.5796356201171875,4.5377197265625,9.759124755859375,-0.302032470703125,-0.111572265625,-0.103363037109375
-0.5868072509765625,4.1115570068359375,9.955459594726562,-0.17205810546875,-0.1073150634765625,-0.0628814697265625
-0.2037353515625,4.4443511962890625,9.56280517578125,0.0377960205078125,-0.1030426025390625,-0.0309295654296875
-0.1175537109375,4.6143341064453125,9.32098388671875,0.189056396484375,0.138763427734375,0.05322265625
-0.2731781005859375,4.786712646484375,8.925949096679688,0.2966461181640625,0.38165283203125,0.1277923583984375
-0.3114776611328125,4.7555999755859375,8.384857177734375,0.29559326171875,0.378448486328125,0.1853179931640625
-0.0624847412109375,4.6813812255859375,7.8318023681640625,0.261505126953125,0.2729949951171875,0.235382080078125
0.1960906982421875,4.6837615966796875,7.29071044921875,0.1762847900390625,0.1941680908203125,0.26202392578125
0.3014373779296875,4.7340545654296875,7.1925506591796875,0.10809326171875,0.173919677734375,0.2652130126953125
0.3493194580078125,4.753204345703125,7.4295654296875,-0.048492431640625,0.2005462646484375,0.2481689453125
0.035675048828125,4.72686767578125,7.982635498046875,-0.1550140380859375,0.255950927734375,0.2108917236328125
-0.3473968505859375,4.6933441162109375,8.660186767578125,-0.126251220703125,0.3369140625,0.2172698974609375
-0.5963897705078125,4.765167236328125,8.475830078125,0.0260772705078125,0.366729736328125,0.270538330078125
-0.593994140625,5.08599853515625,7.264373779296875,0.1155548095703125,0.411468505859375,0.444183349609375
-0.3066864013671875,5.4163970947265625,7.3936614990234375,0.05377197265625,0.4146728515625,0.4729461669921875
-0.1582489013671875,5.536102294921875,7.5157623291015625,0.0345916748046875,0.40081787109375,0.4590911865234375
0.0476531982421875,5.5169525146484375,7.5899810791015625,0.019683837890625,0.35821533203125,0.39410400390625
0.0596160888671875,5.4666748046875,7.5253448486328125,0.0154266357421875,0.3294525146484375,0.3589630126953125
0.0524444580078125,5.313446044921875,7.40802001953125,-0.002685546875,0.3092041015625,0.307830810546875
0.004547119140625,5.29669189453125,7.4056243896484375,-0.01654052734375,0.3209228515625,0.2950439453125
-0.0624847412109375,5.313446044921875,7.5995635986328125,-0.038909912109375,0.3731231689453125,0.293975830078125
-0.0888214111328125,5.3182373046875,7.58758544921875,-0.03570556640625,0.4061431884765625,0.2993011474609375
-0.18218994140625,5.4044189453125,7.3936614990234375,-0.03570556640625,0.445556640625,0.31634521484375
-0.2659912109375,5.42596435546875,7.350555419921875,-0.050628662109375,0.4551544189453125,0.32806396484375
-0.2851409912109375,5.4044189453125,7.47027587890625,-0.1092071533203125,0.4317169189453125,0.3451080322265625
-0.17022705078125,5.4427337646484375,7.7001190185546875,-0.1699371337890625,0.32305908203125,0.3664093017578125
-0.06488037109375,5.45709228515625,7.70489501953125,-0.1656646728515625,0.2942962646484375,0.3674774169921875
0.035675048828125,5.598358154296875,7.6546173095703125,-0.1699371337890625,0.2729949951171875,0.349365234375
0.224822998046875,5.658203125,7.8509521484375,-0.1688690185546875,0.279388427734375,0.303558349609375
0.1003265380859375,5.715667724609375,7.7120819091796875,-0.1464996337890625,0.2847137451171875,0.2897186279296875
0.2128448486328125,5.9933929443359375,7.233245849609375,-0.1124114990234375,0.2847137451171875,0.260955810546875
0.2056732177734375,6.017333984375,7.3888702392578125,-0.186981201171875,0.263397216796875,0.214080810546875
0.054840087890625,6.0676116943359375,8.028121948242188,-0.2263946533203125,0.263397216796875,0.169342041015625
-0.00262451171875,6.0412750244140625,8.2412109375,-0.1507568359375,0.25701904296875,0.1373748779296875
0.035675048828125,6.0556488037109375,8.054458618164062,-0.058074951171875,0.2239837646484375,0.1192779541015625
0.1003265380859375,6.096343994140625,7.9706573486328125,-0.0293121337890625,0.206939697265625,0.1086273193359375
0.0859527587890625,6.1394500732421875,7.96826171875,0.007965087890625,0.1941680908203125,0.08837890625
0.0332794189453125,6.137054443359375,8.035308837890625,0.029266357421875,0.187774658203125,0.0809173583984375
-0.0146026611328125,6.201690673828125,8.119094848632812,0.097442626953125,0.2037506103515625,0.068145751953125
0.0308837890625,6.2519683837890625,8.004180908203125,0.1954498291015625,0.17498779296875,0.0585479736328125
-0.13909912109375,6.2136688232421875,7.93475341796875,0.2764129638671875,0.105743408203125,0.0500335693359375
-0.148681640625,6.23760986328125,7.877288818359375,0.31475830078125,0.0567474365234375,0.052154541015625
-0.3521881103515625,6.32379150390625,7.7384185791015625,0.362701416015625,-0.044464111328125,0.066009521484375
-0.2659912109375,6.3142242431640625,7.81024169921875,0.3594970703125,-0.0923919677734375,0.12353515625
-0.742431640625,6.4482879638671875,7.8964385986328125,0.329681396484375,0.06207275390625,0.04150390625
-1.06805419921875,6.091552734375,8.111923217773438,0.2093048095703125,0.2122650146484375,0.0468292236328125
-1.43914794921875,5.8545379638671875,8.087982177734375,0.13580322265625,0.211212158203125,0.0511016845703125
-1.60675048828125,5.44512939453125,7.5660400390625,0.052703857421875,0.03863525390625,0.06494140625
-1.4990081787109375,5.2272491455078125,7.7791290283203125,-0.096435546875,-0.158447265625,0.0468292236328125
-1.4367523193359375,4.8992462158203125,8.396820068359375,-0.2136077880859375,-0.2766876220703125,0.0127410888671875
-1.22845458984375,4.76995849609375,8.794265747070312,-0.1667327880859375,-0.2830810546875,-0.0479736328125
-1.2308502197265625,4.659820556640625,8.787078857421875,-0.037841796875,-0.188262939453125,-0.1097564697265625
-1.3050689697265625,4.911224365234375,8.427947998046875,0.1059722900390625,-0.100921630859375,-0.128936767578125
-1.400848388671875,5.0620574951171875,7.910797119140625,0.2082366943359375,-0.044464111328125,-0.09271240234375
-1.51336669921875,5.435546875,7.350555419921875,0.22528076171875,-0.0231475830078125,-0.013885498046875
-1.5253448486328125,5.567230224609375,7.0560760498046875,0.1379241943359375,-0.06683349609375,0.040435791015625
-1.676177978515625,5.5552520751953125,6.9339752197265625,0.020751953125,-0.100921630859375,0.0819854736328125
-1.740814208984375,5.471466064453125,6.9148101806640625,-0.1028289794921875,-0.1179656982421875,0.1192779541015625
-1.43914794921875,5.2631683349609375,7.18536376953125,-0.2263946533203125,-0.135009765625,0.124603271484375
-1.273956298828125,5.186553955078125,7.3744964599609375,-0.286041259765625,-0.145660400390625,0.1086273193359375
-1.0919952392578125,5.0572662353515625,7.9395294189453125,-0.3638153076171875,-0.1893310546875,0.0691986083984375
-0.8765106201171875,4.9471282958984375,8.27471923828125,-0.335052490234375,-0.2415313720703125,0.0372467041015625
-0.567657470703125,5.0093841552734375,8.30584716796875,-0.24237060546875,-0.2127685546875,-0.0064239501953125
-0.43597412109375,5.217681884765625,7.9275665283203125,-0.14117431640625,-0.1392669677734375,-0.0767364501953125
-0.4431610107421875,5.3373870849609375,7.7264556884765625,-0.1092071533203125,-0.110504150390625,-0.114013671875
-0.51019287109375,5.440338134765625,7.59716796875,-0.0900421142578125,-0.0955963134765625,-0.1534423828125
-0.6658172607421875,5.567230224609375,7.3792877197265625,-0.071929931640625,-0.06683349609375,-0.2152252197265625
-0.6586456298828125,5.646240234375,6.9938201904296875,-0.108154296875,-0.0348663330078125,-0.263153076171875
-0.8645477294921875,5.629486083984375,7.0943756103515625,-0.206146240234375,-0.0689544677734375,-0.28765869140625
-1.02734375,5.6270904541015625,7.4630889892578125,-0.27752685546875,-0.1637725830078125,-0.2812652587890625
-1.14227294921875,5.6270904541015625,7.52294921875,-0.2956390380859375,-0.2628326416015625,-0.2493133544921875
-1.12310791015625,5.5959625244140625,7.496612548828125,-0.3030853271484375,-0.2894744873046875,-0.2354583740234375
-0.917205810546875,5.6031494140625,7.7527923583984375,-0.3169403076171875,-0.2873382568359375,-0.2248077392578125
-0.8334197998046875,5.5744171142578125,7.898834228515625,-0.3030853271484375,-0.2415313720703125,-0.230133056640625
-0.831024169921875,5.576812744140625,8.044876098632812,-0.220001220703125,-0.1733551025390625,-0.2588958740234375
-0.81427001953125,5.59356689453125,8.054458618164062,-0.17205810546875,-0.15631103515625,-0.27593994140625
-0.941162109375,5.619903564453125,7.8389739990234375,-0.0868377685546875,-0.1488494873046875,-0.312164306640625
-0.9986114501953125,5.694122314453125,7.6737823486328125,-0.036773681640625,-0.17974853515625,-0.333465576171875
-1.137481689453125,5.7539825439453125,7.623504638671875,-0.02825927734375,-0.2095794677734375,-0.3526458740234375
-1.30267333984375,5.8593292236328125,7.740814208984375,-0.0218658447265625,-0.199981689453125,-0.34197998046875
-1.285919189453125,5.8712921142578125,7.728851318359375,0.017547607421875,-0.1861419677734375,-0.32281494140625
-1.30267333984375,5.89044189453125,7.740814208984375,0.0345916748046875,-0.20318603515625,-0.307891845703125
-1.307464599609375,5.8712921142578125,7.8222198486328125,0.0580291748046875,-0.2170257568359375,-0.289794921875
-1.329010009765625,5.8377685546875,7.9850311279296875,0.0953216552734375,-0.2511138916015625,-0.2706146240234375
-1.3792877197265625,5.799468994140625,8.111923217773438,0.12408447265625,-0.2649688720703125,-0.2610321044921875
-1.4894256591796875,5.7180633544921875,8.18853759765625,0.2156982421875,-0.293731689453125,-0.231201171875
-1.338592529296875,5.746795654296875,8.15740966796875,0.259368896484375,-0.284149169921875,-0.2109527587890625
-1.0728302001953125,5.84735107421875,8.092758178710938,0.3009185791015625,-0.2425994873046875,-0.197113037109375
-1.17578125,6.0245208740234375,8.032913208007812,0.3115692138671875,-0.2319488525390625,-0.207763671875
-1.24761962890625,5.9119873046875,8.272323608398438,0.29345703125,-0.2532501220703125,-0.2162933349609375
-1.21649169921875,5.9191741943359375,8.574005126953125,0.280670166015625,-0.260711669921875,-0.21734619140625
-1.211700439453125,6.117889404296875,8.983413696289062,0.30303955078125,-0.24578857421875,-0.20989990234375
-1.11114501953125,6.137054443359375,8.60272216796875,0.3648223876953125,-0.2202301025390625,-0.18646240234375
-0.816650390625,5.979034423828125,8.152618408203125,0.3360748291015625,-0.235137939453125,-0.2013702392578125
-0.6131439208984375,5.821014404296875,8.19091796875,0.2199554443359375,-0.2639007568359375,-0.255706787109375
-0.3402099609375,5.3900604248046875,8.523712158203125,0.1294097900390625,-0.25006103515625,-0.288726806640625
-0.28753662109375,5.17218017578125,8.564422607421875,0.144317626953125,-0.223419189453125,-0.2961883544921875
-0.4048614501953125,5.1410675048828125,8.377670288085938,0.169891357421875,-0.215972900390625,-0.2801971435546875
-0.4958343505859375,5.050079345703125,7.941925048828125,0.18798828125,-0.2202301025390625,-0.2130889892578125
-0.323455810546875,5.081207275390625,7.8868560791015625,0.134735107421875,-0.2085113525390625,-0.173675537109375
-0.175018310546875,5.0788116455078125,7.9802398681640625,0.1059722900390625,-0.1850738525390625,-0.1672821044921875
-0.134307861328125,5.05487060546875,8.047271728515625,0.0825347900390625,-0.1190338134765625,-0.17474365234375
-0.34979248046875,5.0476837158203125,7.97784423828125,0.0825347900390625,-0.021026611328125,-0.164093017578125
-0.3330230712890625,5.05487060546875,7.9395294189453125,0.0825347900390625,0.0194549560546875,-0.1534423828125
-0.2205047607421875,5.076416015625,7.8748931884765625,0.07720947265625,0.027984619140625,-0.150238037109375
-0.08642578125,5.2320404052734375,7.7886962890625,0.054840087890625,0.037567138671875,-0.1576995849609375
0.1673583984375,5.2009124755859375,7.5732269287109375,0.01861572265625,0.0333099365234375,-0.1779327392578125
0.193695068359375,5.1745758056640625,7.5157623291015625,-0.049560546875,0.03863525390625,-0.20562744140625
0.0165252685546875,5.093170166015625,7.66180419921875,-0.104949951171875,0.1110687255859375,-0.20989990234375
-0.2659912109375,5.0357208251953125,7.7144775390625,-0.119873046875,0.2165374755859375,-0.18646240234375
-0.5317535400390625,5.050079345703125,7.601959228515625,-0.11773681640625,0.220794677734375,-0.119354248046875
-0.68975830078125,5.1626129150390625,7.4942169189453125,-0.1390380859375,0.1185302734375,-0.0479736328125
-0.6993408203125,5.3158416748046875,7.4295654296875,-0.175262451171875,0.0077362060546875,0.0042266845703125
-0.567657470703125,5.3182373046875,7.676177978515625,-0.2040252685546875,-0.030609130859375,0.0223388671875
-0.4527435302734375,5.3493499755859375,7.9610748291015625,-0.17205810546875,0.0364990234375,0.0244598388671875
-0.2803497314453125,5.399627685546875,7.90362548828125,-0.1017608642578125,0.1302490234375,0.03192138671875
-0.0433349609375,5.4954071044921875,7.561248779296875,-0.0559539794921875,0.1728515625,0.0276641845703125
0.172149658203125,5.576812744140625,7.2093048095703125,-0.0634002685546875,0.232513427734375,-3.0517578125e-05
-0.222900390625,5.8186187744140625,6.6251220703125,-0.0889739990234375,0.2154693603515625,-0.06927490234375
-0.1941680908203125,5.6869354248046875,7.39605712890625,-0.2817840576171875,-0.0370025634765625,-0.079925537109375
-0.2061309814453125,5.56243896484375,7.8748931884765625,-0.3254547119140625,-0.0934600830078125,-0.079925537109375
-0.28753662109375,5.4642791748046875,8.186141967773438,-0.2594146728515625,0.029052734375,-0.058624267578125
-0.3641510009765625,5.509765625,7.9275665283203125,-0.18804931640625,0.1323699951171875,-0.039459228515625
-0.366546630859375,5.7276458740234375,7.51336669921875,-0.1432952880859375,0.1536865234375,0.0244598388671875
-0.4024658203125,5.8353729248046875,7.4319610595703125,-0.16461181640625,0.094024658203125,0.068145751953125
-0.4958343505859375,5.9072113037109375,7.4942169189453125,-0.1699371337890625,0.0535430908203125,0.077728271484375
-0.5054168701171875,5.9407196044921875,7.58758544921875,-0.161407470703125,0.0301055908203125,0.0969085693359375
-0.514984130859375,5.9981842041015625,7.740814208984375,-0.153961181640625,0.0524749755859375,0.0937042236328125
-0.5844268798828125,5.9622650146484375,7.963470458984375,-0.1326446533203125,0.107879638671875,0.09051513671875
-0.610748291015625,5.9239654541015625,8.018539428710938,-0.107086181640625,0.140899658203125,0.09051513671875
-0.6706085205078125,5.904815673828125,7.941925048828125,-0.048492431640625,0.1813812255859375,0.09796142578125
-0.73046875,5.883270263671875,7.88446044921875,-0.00054931640625,0.176055908203125,0.12567138671875
-0.7615966796875,5.895233154296875,7.8341827392578125,0.033538818359375,0.1558074951171875,0.1650848388671875
-0.7184906005859375,5.92156982421875,7.7791290283203125,0.052703857421875,0.10894775390625,0.19171142578125
-0.589202880859375,6.02691650390625,7.929962158203125,0.0718841552734375,0.0343780517578125,0.1970367431640625
-0.445556640625,6.0484619140625,8.040084838867188,0.11236572265625,0.0301055908203125,0.192779541015625
-0.36175537109375,5.935943603515625,8.092758178710938,0.1368560791015625,0.05035400390625,0.1650848388671875
-1.0464935302734375,5.926361083984375,9.2994384765625,0.235931396484375,0.1238555908203125,0.1650848388671875
-1.18536376953125,6.0364990234375,9.100723266601562,0.407440185546875,0.11639404296875,0.21514892578125
-1.25,6.1298675537109375,8.396820068359375,0.5406036376953125,0.0876312255859375,0.284393310546875
-1.2978973388671875,6.1250762939453125,8.037689208984375,0.557647705078125,0.0791168212890625,0.3227386474609375
-1.3721160888671875,6.0939483642578125,7.709686279296875,0.534210205078125,0.0780487060546875,0.360015869140625
-1.5373077392578125,5.916778564453125,7.08001708984375,0.3776092529296875,0.1014862060546875,0.4260711669921875
-1.47027587890625,5.567230224609375,7.1685943603515625,0.1049041748046875,0.1121368408203125,0.4697418212890625
-1.0441131591796875,5.1578216552734375,8.33697509765625,-0.07086181640625,0.0439605712890625,0.4122161865234375
-1.0728302001953125,4.79150390625,9.093536376953125,-0.01654052734375,-0.0465850830078125,0.2769317626953125
-1.0728302001953125,4.7244720458984375,8.672164916992188,0.268951416015625,-0.1541748046875,0.1725311279296875
-0.9196014404296875,4.9040374755859375,8.15740966796875,0.4415283203125,-0.044464111328125,0.19171142578125
-0.93157958984375,5.2847137451171875,7.3936614990234375,0.531005859375,0.0450286865234375,0.188507080078125
-1.0560760498046875,5.5863800048828125,6.7711639404296875,0.46710205078125,0.0673980712890625,0.1618804931640625
-1.242828369140625,5.662994384765625,6.3737335205078125,0.2753448486328125,0.0801849365234375,0.1405792236328125
-1.4176025390625,5.557647705078125,6.29949951171875,0.031402587890625,0.0460968017578125,0.1544189453125
-1.4630889892578125,5.430755615234375,6.6969451904296875,-0.1688690185546875,-0.0157012939453125,0.2087554931640625
-1.2523956298828125,5.366119384765625,7.1398773193359375,-0.266876220703125,-0.0678863525390625,0.25030517578125
-1.0776214599609375,5.3924560546875,7.3050689697265625,-0.2796630859375,-0.076416015625,0.25775146484375
-0.5269622802734375,5.7180633544921875,7.487030029296875,-0.074066162109375,-0.0806732177734375,0.1288604736328125
-0.4024658203125,5.864105224609375,7.2691650390625,0.0495147705078125,-0.108367919921875,0.00634765625
-0.4599151611328125,5.969451904296875,7.096771240234375,0.08892822265625,-0.1264801025390625,-0.049041748046875
-0.661041259765625,6.13226318359375,6.8884735107421875,0.1070404052734375,-0.190399169921875,-0.1097564697265625
-0.7975006103515625,6.2040863037109375,7.0034027099609375,0.097442626953125,-0.2244873046875,-0.115081787109375
-0.9507293701171875,6.2735137939453125,7.3888702392578125,0.11981201171875,-0.2436676025390625,-0.0852508544921875
-1.0249481201171875,6.2998504638671875,7.5157623291015625,0.233795166015625,-0.2212982177734375,-0.027740478515625
-1.3553466796875,6.35491943359375,6.2779541015625,0.2849273681640625,-0.2404632568359375,0.0159454345703125
-1.2404327392578125,6.4363250732421875,5.765594482421875,0.097442626953125,-0.3192901611328125,0.08624267578125
-1.02734375,6.477020263671875,6.9459381103515625,-0.140106201171875,-0.3065185546875,0.1501617431640625
-0.8860931396484375,6.6158905029296875,8.076004028320312,-0.1688690185546875,-0.215972900390625,0.1490936279296875
-0.905242919921875,6.8050384521484375,7.7863006591796875,-0.00482177734375,-0.1136932373046875,0.1384429931640625
-0.4958343505859375,6.7978515625,6.759185791015625,0.045257568359375,0.0641937255859375,0.13525390625
-0.4264068603515625,6.8960113525390625,6.3856964111328125,0.0005035400390625,0.1611328125,0.0947723388671875
-0.514984130859375,7.1019134521484375,6.388092041015625,-0.18804931640625,0.253814697265625,0.0170135498046875
-0.5963897705078125,7.1713409423828125,7.37689208984375,-0.2849884033203125,0.1824493408203125,-0.0565032958984375
-0.6538543701171875,7.1067047119140625,7.82940673828125,-0.2391815185546875,0.0769805908203125,-0.0969696044921875
-0.7759552001953125,6.9223480224609375,8.159805297851562,-0.08258056640625,-0.06256103515625,-0.1459808349609375
-1.12310791015625,6.7427825927734375,7.4104156494140625,0.1049041748046875,-0.260711669921875,-0.1108245849609375
-0.75201416015625,6.845733642578125,8.119094848632812,0.1059722900390625,-0.3203582763671875,-0.08099365234375
-0.4599151611328125,6.9223480224609375,8.70806884765625,0.23486328125,-0.293731689453125,-0.0948486328125
-0.555694580078125,7.025299072265625,8.186141967773438,0.4372711181640625,-0.2979888916015625,-0.1438446044921875
-0.5006256103515625,6.88165283203125,7.2931060791015625,0.5043792724609375,-0.3129119873046875,-0.1555633544921875
0.1051177978515625,6.7379913330078125,7.27154541015625,0.4479217529296875,-0.2671051025390625,-0.1683502197265625
-0.17022705078125,6.783477783203125,7.01776123046875,0.350982666015625,-0.1637725830078125,-0.2386627197265625
-0.15106201171875,6.512939453125,6.948333740234375,0.2423248291015625,-0.0796051025390625,-0.2503814697265625
-0.0840301513671875,5.6438446044921875,8.155014038085938,-0.0985565185546875,-0.0945281982421875,-0.29937744140625
0.1553955078125,5.2416229248046875,8.550048828125,-0.0911102294921875,-0.0955963134765625,-0.2801971435546875
-0.00262451171875,5.1051483154296875,8.38006591796875,-0.048492431640625,-0.04339599609375,-0.2684783935546875
-0.06488037109375,5.2368316650390625,7.6785736083984375,0.029266357421875,0.10467529296875,-0.22161865234375
-0.0840301513671875,5.3230133056640625,7.338592529296875,0.044189453125,0.17498779296875,-0.19818115234375
0.1314544677734375,5.4331512451171875,7.089599609375,0.0143585205078125,0.2463531494140625,-0.1587677001953125
0.2870635986328125,5.6558074951171875,7.18536376953125,-0.0453033447265625,0.2250518798828125,-0.1470489501953125
0.5552215576171875,5.6558074951171875,6.7663726806640625,-0.3169403076171875,0.0641937255859375,-0.149169921875
0.394805908203125,5.4331512451171875,6.9459381103515625,-0.47247314453125,0.0428924560546875,-0.1694183349609375
0.2008819580078125,5.325408935546875,7.19732666015625,-0.5331878662109375,0.0333099365234375,-0.1800689697265625
-0.1295166015625,5.2009124755859375,7.877288818359375,-0.5800628662109375,0.05035400390625,-0.1704864501953125
-0.3162689208984375,5.150634765625,8.564422607421875,-0.502288818359375,0.1355743408203125,-0.1225433349609375
-0.641876220703125,5.2679595947265625,8.329788208007812,-0.290313720703125,0.2708587646484375,-0.0543670654296875
-0.8453826904296875,5.45709228515625,7.69293212890625,-0.116668701171875,0.267669677734375,0.0383148193359375
-0.883697509765625,5.5911712646484375,7.3888702392578125,-0.0644683837890625,0.17498779296875,0.1086273193359375
-0.7975006103515625,5.66778564453125,7.422393798828125,-0.071929931640625,0.1376953125,0.134185791015625
-0.6179351806640625,5.794677734375,7.54449462890625,-0.0921630859375,0.15155029296875,0.1714630126953125
-0.31866455078125,5.8617095947265625,7.6426544189453125,-0.0548858642578125,0.1728515625,0.190643310546875
0.00933837890625,5.926361083984375,7.5660400390625,0.0154266357421875,0.218658447265625,0.1735992431640625
0.0907440185546875,5.9287567138671875,7.412811279296875,0.0356597900390625,0.2548828125,0.1533660888671875
0.0596160888671875,5.8880462646484375,7.2045135498046875,0.0260772705078125,0.3262481689453125,0.110748291015625
0.045257568359375,5.87847900390625,7.1470489501953125,0.007965087890625,0.343292236328125,0.09796142578125
-0.1917724609375,5.8018646240234375,7.3673248291015625,-0.036773681640625,0.333709716796875,0.087310791015625
-0.36175537109375,5.799468994140625,7.3888702392578125,-0.046356201171875,0.312408447265625,0.0926361083984375
-0.6849822998046875,5.8353729248046875,7.381683349609375,-0.0644683837890625,0.2708587646484375,0.13525390625
-0.546112060546875,5.92156982421875,7.683349609375,-0.036773681640625,0.2783203125,0.200225830078125
-0.4383697509765625,5.9503021240234375,7.5803985595703125,0.007965087890625,0.3379669189453125,0.2183380126953125
-0.450347900390625,6.017333984375,7.4104156494140625,0.054840087890625,0.3859100341796875,0.225799560546875
-0.428802490234375,6.22802734375,6.991424560546875,0.1144866943359375,0.4434356689453125,0.2364501953125
-0.4790802001953125,6.316619873046875,7.106353759765625,0.10064697265625,0.458343505859375,0.2321929931640625
-0.3521881103515625,6.3740692138671875,7.4798431396484375,0.1379241943359375,0.492431640625,0.223663330078125
-0.3114776611328125,6.5057525634765625,7.360137939453125,0.202911376953125,0.514801025390625,0.17999267578125
-0.208526611328125,6.603912353515625,7.1614227294921875,0.2188873291015625,0.530792236328125,0.1522979736328125
-0.7328643798828125,6.6589813232421875,6.452728271484375,0.19970703125,0.667144775390625,0.0734710693359375
-1.4942169189453125,6.919952392578125,6.7807464599609375,0.109161376953125,0.5116119384765625,0.0596160888671875
-0.8501739501953125,6.8002471923828125,7.55645751953125,0.04205322265625,0.450897216796875,0.12353515625
-1.1350860595703125,6.7068634033203125,7.7695465087890625,0.0963897705078125,0.5201263427734375,0.136322021484375
-1.2667694091796875,6.6925048828125,8.071212768554688,0.22314453125,0.5094757080078125,0.2130126953125
-1.0656585693359375,6.77630615234375,7.7886962890625,0.3925323486328125,0.6032257080078125,0.2758636474609375
-0.9339752197265625,6.9175567626953125,7.2811279296875,0.4702911376953125,0.686309814453125,0.2993011474609375
-0.661041259765625,7.03009033203125,7.2093048095703125,0.46282958984375,0.72039794921875,0.2886505126953125
-1.1662139892578125,7.343719482421875,6.050506591796875,0.3914642333984375,1.0580902099609375,0.1842498779296875
-2.892425537109375,7.702850341796875,6.9962158203125,0.1954498291015625,0.6948394775390625,0.1778564453125
-2.3561248779296875,7.6094818115234375,7.8006744384765625,0.1485748291015625,0.472198486328125,0.25775146484375
-1.929962158203125,7.19049072265625,7.8916473388671875,0.238067626953125,0.251678466796875,0.2993011474609375
-2.0065765380859375,7.0923309326171875,7.5373077392578125,0.28387451171875,0.2602081298828125,0.3120880126953125
-1.9251708984375,6.867279052734375,6.965087890625,0.2977142333984375,0.286834716796875,0.350433349609375
-2.025726318359375,6.730804443359375,6.67779541015625,0.2327423095703125,0.2708587646484375,0.3472442626953125
-2.6769561767578125,6.3261871337890625,6.7352447509765625,-0.0314483642578125,0.1025543212890625,0.325927734375
-3.0480499267578125,5.8329925537109375,7.7384185791015625,-0.2689971923828125,-0.1275482177734375,0.30462646484375
-3.019317626953125,5.514556884765625,8.660186767578125,-0.2924346923828125,-0.3470001220703125,0.2758636474609375
-2.7463836669921875,5.3158416748046875,8.868484497070312,-0.107086181640625,-0.37042236328125,0.2790679931640625
-2.3465576171875,5.16021728515625,8.365707397460938,0.17840576171875,-0.2521820068359375,0.337646484375
-1.8054656982421875,5.4379425048828125,7.994598388671875,0.397857666015625,-0.076416015625,0.4004974365234375
-1.750396728515625,5.78509521484375,7.37689208984375,0.5171661376953125,0.0716552734375,0.3930511474609375
-2.1861419677734375,6.031707763671875,6.6275177001953125,0.4457855224609375,0.08551025390625,0.352569580078125
-2.2866973876953125,5.957489013671875,6.4599151611328125,0.238067626953125,0.01519775390625,0.3429718017578125
-2.140655517578125,5.947906494140625,6.4814605712890625,0.14324951171875,-0.0359344482421875,0.3365936279296875
-2.04010009765625,5.895233154296875,6.4814605712890625,0.0590972900390625,-0.0817413330078125,0.32806396484375
-1.7432098388671875,5.7970733642578125,6.4910430908203125,-0.0879058837890625,-0.099853515625,0.3248748779296875
-1.4678802490234375,5.66778564453125,6.8932647705078125,-0.10601806640625,-0.0838775634765625,0.303558349609375
-1.1302947998046875,5.947906494140625,7.0417022705078125,0.03033447265625,-0.03167724609375,0.282257080078125
-1.1877593994140625,6.263946533203125,6.641876220703125,0.2103729248046875,-0.088134765625,0.2598876953125
-1.0584716796875,6.5799713134765625,6.134307861328125,0.3456573486328125,-0.3693695068359375,0.2513580322265625
-0.8358154296875,6.8696746826171875,6.1534576416015625,0.374420166015625,-0.4833526611328125,0.2449798583984375
-1.02734375,7.0635986328125,6.30908203125,0.3808135986328125,-0.4929351806640625,0.2098236083984375
-1.22845458984375,7.034881591796875,6.024169921875,0.3594970703125,-0.3352813720703125,0.2226104736328125
-1.221282958984375,7.0324859619140625,6.0744476318359375,0.3456573486328125,-0.256439208984375,0.23858642578125
-1.4463348388671875,7.24078369140625,6.4551239013671875,0.386138916015625,-0.2244873046875,0.28118896484375
-1.759979248046875,7.2000732421875,6.15106201171875,0.43194580078125,-0.3075714111328125,0.315277099609375
-1.654632568359375,7.1234588623046875,5.2556304931640625,0.43194580078125,-0.62396240234375,0.4250030517578125
-1.43914794921875,7.231201171875,4.934814453125,0.3658905029296875,-0.7560577392578125,0.4739990234375
-1.022552490234375,7.65496826171875,4.2093658447265625,0.259368896484375,-0.8455352783203125,0.5187530517578125
-0.3521881103515625,7.3293609619140625,6.3162689208984375,-0.118804931640625,-0.578155517578125,0.5400543212890625
-0.218109130859375,7.5592041015625,6.9842529296875,-0.1358489990234375,-0.420501708984375,0.4953155517578125
-0.1726226806640625,7.690887451171875,6.6131439208984375,0.009033203125,-0.14459228515625,0.399444580078125
0.0189208984375,7.7531280517578125,6.1965484619140625,0.085723876953125,-0.1062469482421875,0.348297119140625
0.1865081787109375,7.8249664306640625,5.7081451416015625,0.12408447265625,-0.056182861328125,0.2833251953125
-0.0672760009765625,7.8201751708984375,4.72412109375,-0.0101470947265625,0.1419677734375,0.1416473388671875
0.44268798828125,7.88720703125,5.4830780029296875,-0.2093505859375,0.267669677734375,0.03192138671875
0.22003173828125,7.9949493408203125,5.94036865234375,-0.198699951171875,0.2708587646484375,-0.0202789306640625
-0.028961181640625,8.050018310546875,6.3545684814453125,-0.1241302490234375,0.2719268798828125,-0.0479736328125
-0.01220703125,7.8776397705078125,6.143890380859375,0.1176910400390625,0.3369140625,-0.0660858154296875
-0.629913330078125,7.7052459716796875,5.4735107421875,0.1720123291015625,0.3954925537109375,-0.1236114501953125
-0.7376556396484375,7.7507476806640625,5.796722412109375,0.0590972900390625,0.3560791015625,-0.117218017578125
-0.6179351806640625,7.681304931640625,6.2683868408203125,-0.0335845947265625,0.4210662841796875,-0.1129608154296875
-0.42401123046875,7.4394989013671875,6.6825714111328125,-0.03997802734375,0.5819244384765625,-0.128936767578125
-0.6993408203125,7.4777984619140625,7.137481689453125,0.0484466552734375,0.8737945556640625,-0.2035064697265625
-1.360137939453125,7.4131622314453125,6.579620361328125,0.177337646484375,0.904693603515625,-0.1907196044921875
-1.8844757080078125,7.690887451171875,6.028961181640625,0.1262054443359375,0.6831207275390625,-0.107635498046875
-1.51336669921875,7.7076416015625,6.42401123046875,-0.093231201171875,0.4263916015625,-3.0517578125e-05
-1.1829681396484375,7.5520172119140625,6.9818572998046875,-0.1933746337890625,0.371002197265625,0.0233917236328125
-0.917205810546875,7.17852783203125,7.7910919189453125,-0.2391815185546875,0.425323486328125,0.0138092041015625
-0.8765106201171875,6.876861572265625,7.8533477783203125,-0.19549560546875,0.5105438232421875,0.0127410888671875
-1.0776214599609375,6.560821533203125,7.561248779296875,-0.104949951171875,0.618133544921875,0.0127410888671875
-1.15423583984375,6.359710693359375,7.5109710693359375,-0.095367431640625,0.6501007080078125,0.011688232421875
-1.238037109375,6.1131134033203125,8.1358642578125,-0.071929931640625,0.688446044921875,0.0127410888671875
-1.285919189453125,6.0293121337890625,8.691314697265625,0.009033203125,0.756622314453125,0.021270751953125
-0.989044189453125,5.85693359375,8.954681396484375,0.3712158203125,1.029327392578125,0.054290771484375
-0.4647064208984375,6.02691650390625,7.4295654296875,0.740875244140625,1.3670196533203125,0.04150390625
-0.6586456298828125,6.2400054931640625,6.61553955078125,0.7983856201171875,1.39471435546875,0.0031585693359375
-1.0297393798828125,6.350128173828125,5.42083740234375,0.773895263671875,1.3222808837890625,-0.0287933349609375
-2.0736083984375,7.14739990234375,4.094451904296875,0.350982666015625,0.8216094970703125,0.0010223388671875
-2.248382568359375,7.343719482421875,6.54132080078125,-0.1209259033203125,0.1206512451171875,0.06707763671875
-1.5157623291015625,7.5185089111328125,7.508575439453125,-0.1688690185546875,-0.0103759765625,0.11395263671875
