accX,accY,accZ,gyroX,gyroY,gyroZ
1.3729884624481201,1.1680351495742798,9.174792289733887,-0.01129228062927723,0.02457423508167267,0.011239920742809772
1.4030213356018066,1.0989481210708618,9.293926239013672,0.01104793418198824,-0.003089232835918665,0.012304571457207203
1.368046760559082,1.149475336074829,9.043024063110352,-0.003752457909286022,-0.0077841682359576225,-0.0025307273026555777
1.3528484106063843,1.1637160778045654,9.178373336791992,-0.011693705804646015,0.017174039036035538,-0.0049916417337954044
1.319003939628601,1.1653633117675781,9.170453071594238,0.0010122909443452954,0.0036128314677625895,-0.0041015236638486385
1.371590256690979,1.1428865194320679,9.035209655761719,-0.0033859387040138245,-0.007365289609879255,0.0024085543118417263
1.3674434423446655,1.1514768600463867,9.217035293579102,-0.019722219556570053,0.009250245057046413,0.0032463124953210354
1.3105285167694092,1.1498680114746094,9.408206939697266,-0.0005235987482592463,0.003944444004446268,0.0
1.2297098636627197,1.1115224361419678,9.134818077087402,0.017837265506386757,-0.019163714721798897,0.0004886921960860491
1.2634872198104858,1.0552682876586914,8.907426834106445,-0.002234021434560418,0.0006457717972807586,0.012095131911337376
1.323859453201294,1.0638587474822998,9.153932571411133,-0.004712388850748539,0.02511528693139553,0.016493361443281174
1.3424384593963623,1.0943033695220947,9.221372604370117,0.013823007233440876,-0.003752457909286022,0.01802925020456314
1.3878995180130005,1.2336841821670532,8.997017860412598,-0.012967796064913273,-0.026720991358160973,-6.981316983001307e-05
1.335313320159912,1.1798624992370605,8.989788055419922,-0.03249803185462952,-0.021013764664530754,-0.0003490658418741077
1.2595990896224976,1.183233618736267,9.239348411560059,-0.04691445082426071,0.005270894151180983,-0.0028972465079277754
1.262290120124817,1.1275444030761719,9.473416328430176,-0.03551745042204857,-0.00205948855727911,-0.005358160939067602
1.2525888681411743,1.113763451576233,9.342873573303223,-0.009075712412595749,-0.038868483155965805,-0.004468042869120836
1.359609603881836,1.1006048917770386,9.12175464630127,-0.012374384328722954,-0.039758600294589996,-0.0005410520825535059
1.3663420677185059,1.0961517095565796,9.241743087768555,-0.018849555402994156,0.007487462367862463,0.0071907564997673035
1.3234093189239502,1.1405593156814575,9.379514694213867,0.004660028964281082,0.005497787147760391,0.00017453292093705386
1.253163456916809,1.1658995151519775,9.09537124633789,0.012164944782853127,-0.016231561079621315,0.001972222002223134
1.302742600440979,1.1388068199157715,9.036540031433105,-0.0019198621157556772,-0.001343903481028974,0.00769690191373229
1.3720020055770874,1.1101242303848267,9.190879821777344,0.005044001620262861,0.004136430099606514,0.009756390936672688
1.4097442626953125,1.064184308052063,9.046845436096191,0.008621926419436932,-0.016022123396396637,0.013439035043120384
1.3701153993606567,1.0053731203079224,8.942668914794922,0.005288347601890564,-0.007749261800199747,0.00930260494351387
1.404860019683838,0.927360475063324,8.99677848815918,-0.007871435023844242,0.010646508075296879,0.0012740903766825795
1.3573687076568604,1.049493432044983,9.19767951965332,0.00031415926059708,0.011344640515744686,-0.0015358896926045418
1.3177303075790405,1.1066573858261108,9.25124454498291,0.014905111864209175,-0.0015882495790719986,-0.006300638429820538
1.2941521406173706,1.1410861015319824,9.093169212341309,0.020751964300870895,-0.007155850064009428,-0.004625122528523207
1.4085949659347534,1.076825737953186,9.14087963104248,-0.004886921960860491,0.008377579972147942,-0.005375613924115896
1.4320677518844604,1.0983830690383911,9.261116981506348,0.003804817795753479,-0.00830776710063219,-0.0014137167017906904
1.4295873641967773,1.136039137840271,9.179713249206543,0.011571533046662807,0.0018500490114092827,0.0013264502631500363
1.3890870809555054,1.0989481210708618,9.222589492797852,0.014817845076322556,0.02330014482140541,-0.005916666239500046
1.3132004737854004,1.1327542066574097,9.238974571228027,0.016755159944295883,0.005270894151180983,-0.012095131911337376
1.3772884607315063,1.1288660764694214,9.38843059539795,-0.002600540639832616,0.01129228062927723,-0.004345869645476341
1.3496785163879395,1.135866641998291,9.149048805236816,0.021991148591041565,-0.0013264502631500363,-0.00038397242315113544
1.41588294506073,1.0697963237762451,9.01469612121582,0.015428710728883743,0.020367993041872978,0.0022165682166814804
1.3913376331329346,1.0950311422348022,9.219246864318848,0.008168140426278114,0.042010076344013214,0.00143117003608495
1.3426873683929443,1.113543152809143,9.203703880310059,0.013753194361925125,0.01647590845823288,0.0024260077625513077
1.3519481420516968,1.0709264278411865,9.085209846496582,0.009686577133834362,0.02241002768278122,-0.003944444004446268
1.2976572513580322,1.101667881011963,9.170769691467285,0.02364921197295189,0.037367500364780426,-0.011414453387260437
1.2768373489379883,1.18659508228302,9.202296257019043,0.037367500364780426,0.03344050794839859,-0.015044738538563251
1.371283769607544,1.2903980016708374,8.747062683105469,-0.03207915276288986,0.06157521530985832,-0.0050090947188436985
1.2870749235153198,1.2090142965316772,9.93428897857666,-0.06260495632886887,0.010105456225574017,0.0012915435945615172
1.2462776899337769,1.055105447769165,9.714654922485352,0.05958554148674011,-0.13814280927181244,0.00251327408477664
1.44729483127594,1.1297662258148193,8.917682647705078,0.07283259183168411,-0.11576768755912781,0.003944444004446268
1.4225101470947266,1.1745187044143677,8.7860107421875,-0.030857421457767487,0.02733185514807701,0.008028514683246613
1.2933956384658813,1.0354729890823364,9.4909029006958,-0.024382250383496284,-0.012531463988125324,0.002914699725806713
1.2771724462509155,1.108659029006958,9.225262641906738,0.025080380961298943,-0.05045747011899948,-0.0034382985904812813
1.2845370769500732,1.154771327972412,8.958584785461426,0.005759586580097675,0.013596114702522755,-0.0029321531765162945
1.355596899986267,1.0717499256134033,9.135976791381836,-0.008482299745082855,0.002251474652439356,0.01160643994808197
1.3570717573165894,1.0664061307907104,9.351675033569336,0.0015707963611930609,0.010681414976716042,-5.2359879191499203e-05
1.2790687084197998,1.1461905241012573,9.046003341674805,0.019320795312523842,-0.009180432185530663,0.001029744278639555
1.3831493854522705,1.162691354751587,9.005501747131348,-0.006963863503187895,-0.014294246211647987,0.006457718089222908
1.3552138805389404,1.1375330686569214,9.060233116149902,-0.01771509274840355,-0.013473941944539547,0.0003316125657875091
1.3369508981704712,1.1491975784301758,9.199356079101562,-0.019058994948863983,-0.006928957067430019,-0.002460914198309183
1.3431662321090698,1.1733695268630981,9.307536125183105,-0.003228859044611454,-0.006684611085802317,-0.002775073517113924
1.4163713455200195,1.1477515697479248,9.357344627380371,-0.003543018363416195,0.0071907564997673035,0.0029845130629837513
1.320383071899414,1.1003655195236206,9.371546745300293,-0.0005061454721726477,0.0008726646192371845,0.008168140426278114
1.2993714809417725,1.1130164861679077,9.213271141052246,0.024329889565706253,-0.020647244527935982,0.013247049413621426
1.3604427576065063,1.0976552963256836,9.039472579956055,0.0007330382941290736,-0.01492256484925747,0.023369958624243736
1.3668593168258667,1.1346217393875122,9.149508476257324,-0.007103490177541971,-0.0385892279446125,0.024521876126527786
1.3542753458023071,1.1452711820602417,9.179963111877441,-0.009023352526128292,-0.03356268256902695,0.024923302233219147
1.4319815635681152,1.0450019836425781,9.269142150878906,-0.004712388850748539,-0.03375466912984848,0.028675759211182594
1.4999289512634277,1.040175199508667,9.321432113647461,0.015603243373334408,-0.022165682166814804,0.014556045643985271
1.3533750772476196,1.1303887367248535,9.180891990661621,0.023544492200016975,-0.0062831854447722435,-0.004782202187925577
1.3684394359588623,1.1023765802383423,9.264200210571289,0.013997540809214115,0.008831365965306759,-0.008604473434388638
1.401374101638794,1.139295220375061,9.136445999145508,0.017610372975468636,-0.006702064536511898,-0.002914699725806713
1.4198189973831177,1.167144536972046,9.143888473510742,0.0033335788175463676,0.01912880875170231,-0.00041887903353199363
1.3746260404586792,1.1753039360046387,9.223614692687988,0.0010821041651070118,0.03464478626847267,-0.006981316953897476
1.3364912271499634,1.2220100164413452,9.166191101074219,0.013439035043120384,-0.03405137360095978,-0.00027925267932005227
1.3719828128814697,1.1265867948532104,8.998435974121094,-0.0011868239380419254,-0.025394540280103683,-0.0025830871891230345
1.5161904096603394,1.18532133102417,9.165693283081055,-0.016598081216216087,-0.01780235767364502,-0.0028972465079277754
1.3638616800308228,1.1607855558395386,9.185555458068848,0.018971728160977364,-0.01342158205807209,0.002914699725806713
1.3564397096633911,1.1366328001022339,8.984864234924316,-6.981316983001307e-05,-0.03150319308042526,0.004904375411570072
1.3603183031082153,1.21585214138031,9.215320587158203,-0.018046705052256584,0.01096066739410162,5.2359879191499203e-05
1.3813585042953491,1.1803892850875854,9.2764310836792,-0.0021293016616255045,-0.013456488028168678,0.004014257341623306
1.4297980070114136,1.0619337558746338,9.378107070922852,0.013159782625734806,-0.11444123834371567,0.004886921960860491
1.4595818519592285,1.1178526878356934,9.42862606048584,0.07480481266975403,-0.28553587198257446,0.006195918656885624
1.549057960510254,1.1527506113052368,9.301884651184082,0.12231267243623734,-0.3756123185157776,-0.00047123889089562
1.6037989854812622,1.1586307287216187,8.955875396728516,0.14529865980148315,-0.3830823302268982,-0.0024085543118417263
1.7068837881088257,1.1717318296432495,8.29340934753418,0.016406094655394554,0.022427480667829514,-0.0012740903766825795
1.4674731492996216,1.2240307331085205,8.979022026062012,-0.0786445364356041,0.2654820382595062,-0.0015009831404313445
1.6254521608352661,1.2390280961990356,8.676789283752441,-0.13379694521427155,0.5038416385650635,-0.0009599310578778386
1.4321444034576416,1.0420427322387695,9.829193115234375,-0.09749408811330795,0.10014699399471283,0.0037873645778745413
1.5901424884796143,1.286433219909668,9.389925003051758,0.03234095126390457,-0.1938886195421219,-0.00043633230961859226
1.5682212114334106,1.1730533838272095,8.899754524230957,-0.029967302456498146,0.0852593332529068,-0.018901916220784187
1.274510145187378,1.0565420389175415,9.525955200195312,0.0042236968874931335,0.04879940673708916,-0.008918632753193378
1.4843475818634033,1.1253705024719238,9.003913879394531,0.040997784584760666,-0.06728244572877884,0.007888888008892536
1.5218024253845215,1.1693758964538574,8.884594917297363,-0.02361430414021015,0.025586526840925217,0.0013788101496174932
1.4092941284179688,1.1702569723129272,9.456732749938965,-0.01710422709584236,0.023858651518821716,-0.0071907564997673035
1.432680606842041,1.1925134658813477,9.330635070800781,0.034697145223617554,-0.026145031675696373,-0.0024085543118417263
1.5518832206726074,1.1465257406234741,8.859906196594238,0.019896753132343292,-0.006248278543353081,0.0019896754529327154
1.5270122289657593,1.1850723028182983,9.010252952575684,-0.016755159944295883,0.02869321219623089,0.002600540639832616
1.5000630617141724,1.206332802772522,9.282405853271484,-0.005427973810583353,0.0035953782498836517,0.003804817795753479
1.4641883373260498,1.1679202318191528,9.127195358276367,0.007278022821992636,-0.01523672416806221,0.002373647876083851
1.467281699180603,1.2065913677215576,9.061795234680176,0.0050090947188436985,-0.006544984877109528,-0.0006457717972807586
1.4318091869354248,1.2077789306640625,9.155609130859375,-0.006859143730252981,0.0091455252841115,-0.00143117003608495
1.387717604637146,1.183271884918213,9.22065544128418,-0.00022689280740451068,0.007923794910311699,-0.0015882495790719986
1.4131247997283936,1.1363359689712524,9.128870010375977,0.006527531426399946,-0.0031939526088535786,0.0011693706037476659
1.479128122329712,1.1144624948501587,9.131427764892578,-0.0032463124953210354,-0.004398229531943798,0.006248278543353081
1.4920663833618164,1.1975317001342773,9.241177558898926,-0.00012217304902151227,-0.004066617228090763,0.0007679448463022709
1.4123778343200684,1.2208225727081299,9.09402084350586,0.0008203047327697277,-0.010786134749650955,-0.0005759586347267032
1.441759467124939,1.1542445421218872,9.027175903320312,-0.013124875724315643,-0.00031415926059708,0.0003665191470645368
1.4804306030273438,1.0975881814956665,9.22924518585205,-0.012775810435414314,0.0016406094655394554,0.0024958208668977022
1.49273681640625,1.097090244293213,9.327733039855957,0.006859143730252981,0.012828170321881771,0.002687806962057948
1.4384362697601318,1.132495641708374,9.268327713012695,0.01740093342959881,-0.005218534264713526,0.002600540639832616
1.4066317081451416,1.1628350019454956,9.06066608428955,0.007557275705039501,-0.007225662935525179,-0.0009948377264663577
1.4143315553665161,1.1613984107971191,9.047995567321777,-0.005759586580097675,0.0013962633674964309,-0.003455751808360219
1.4312633275985718,1.1629786491394043,9.127837181091309,-0.0045378562062978745,0.011082841083407402,-0.002478367416188121
1.478237509727478,1.1677957773208618,9.122903823852539,-0.005654866807162762,-0.00427605677396059,0.0030717793852090836
1.485688328742981,1.1900427341461182,9.110876083374023,-0.009616764262318611,-0.008796459063887596,0.001029744278639555
1.457963466644287,1.154148817062378,9.22696590423584,-0.006684611085802317,5.2359879191499203e-05,-0.0010471974965184927
1.486473560333252,1.160967469215393,9.169159889221191,0.004852015525102615,-0.0009599310578778386,0.003909537568688393
1.5172725915908813,1.146985411643982,9.131342887878418,0.012164944782853127,0.0021118484437465668,0.007679448463022709
1.5025339126586914,1.1734939813613892,9.145045280456543,0.0062831854447722435,0.024469515308737755,0.005619960371404886
1.4558278322219849,1.1503181457519531,9.184617042541504,0.010541788302361965,0.03394665569067001,-0.0031415927223861217
1.4248181581497192,1.1998684406280518,9.158817291259766,0.02591813914477825,-0.042987458407878876,0.007906341925263405
1.4727404117584229,1.1431546211242676,8.8742036819458,-0.0062831854447722435,-0.01771509274840355,0.00808087456971407
1.442918300628662,1.0404242277145386,9.082174301147461,-0.03747221827507019,0.029164452105760574,0.00331612559966743
1.4268196821212769,1.1525877714157104,9.185057640075684,0.006021386012434959,0.011414453387260437,-0.005427973810583353
1.3580677509307861,1.1617815494537354,9.137740135192871,0.00799360778182745,-0.018727382645010948,0.0003665191470645368
1.5386288166046143,1.1583818197250366,9.173919677734375,-0.00617846567183733,-0.020472712814807892,0.011588986031711102
1.4406198263168335,1.3091111183166504,9.176275253295898,0.006475171539932489,-0.0057246801443398,0.0050090947188436985
1.5051484107971191,1.2011996507644653,9.220147132873535,0.016458455473184586,-0.00815068744122982,0.0038222710136324167
1.448989987373352,1.2170301675796509,9.047812461853027,-0.0007853981805965304,-0.036250486969947815,0.009005898609757423
1.5064125061035156,1.173829197883606,9.104095458984375,-0.022619467228651047,-0.01979203335940838,0.007749261800199747
1.495016098022461,1.1694908142089844,9.29542064666748,-0.011222466826438904,-0.016580628231167793,0.004258603323251009
1.4714571237564087,1.2052218914031982,9.251970291137695,0.006859143730252981,-0.009808750823140144,0.0005759586347267032
1.509218454360962,1.1959420442581177,9.172741889953613,0.005602506920695305,-0.024521876126527786,0.004485496319830418
1.5401898622512817,1.1218079328536987,9.115424156188965,-0.0073129297234117985,-0.006928957067430019,0.004066617228090763
1.5100517272949219,1.13899827003479,9.158376693725586,-0.008377579972147942,0.00062831852119416,0.006544984877109528
1.5995373725891113,1.1742792129516602,9.20376205444336,0.0016406094655394554,-0.037716563791036606,0.00989601667970419
1.511038064956665,1.1769990921020508,9.116086959838867,0.0018151424592360854,-0.03082251362502575,0.0036651913542300463
1.469580054283142,1.148852825164795,9.1124849319458,-0.008045967668294907,0.00954695139080286,-0.004974188283085823
1.4628571271896362,1.1300535202026367,9.175318717956543,-0.0038222710136324167,0.009843656793236732,-0.0015882495790719986
1.529760718345642,1.1218653917312622,9.23190689086914,-0.009040805511176586,0.03635520860552788,-0.0033684854861348867
1.5166692733764648,1.0956153869628906,9.190449714660645,0.005881759338080883,-0.012287117540836334,-0.006475171539932489
1.5146485567092896,1.1614845991134644,8.962512016296387,0.012496557086706161,0.004904375411570072,-0.004153883550316095
1.4983201026916504,1.1803892850875854,9.142900466918945,0.0011519172694534063,0.05368632823228836,-0.008621926419436932
1.644519567489624,1.1562269926071167,9.047170639038086,0.04934045672416687,-0.21404717862606049,0.03890338912606239
1.7866010665893555,1.1024819612503052,8.705747604370117,0.016283921897411346,-0.17737780511379242,0.04171336814761162
1.7324825525283813,0.9838923811912537,8.85731029510498,-0.05117305368185043,-0.0003316125657875091,0.02595304511487484
1.4093515872955322,1.0902140140533447,9.429611206054688,-0.016406094655394554,0.0010122909443452954,0.003455751808360219
1.3740514516830444,1.2041493654251099,9.32829761505127,0.02497566118836403,-0.06391395628452301,0.010768681764602661
1.5444611310958862,1.1723830699920654,9.05451774597168,0.020088739693164825,-0.04588470607995987,0.011746065691113472
1.5050334930419922,1.1917473077774048,8.975517272949219,-0.004188789986073971,-0.00830776710063219,-0.0019373154500499368
1.4424107074737549,1.1674702167510986,9.037153244018555,-0.020612338557839394,0.025010569021105766,-0.008866272866725922
1.4249905347824097,1.1154489517211914,9.160109519958496,-0.00830776710063219,0.02785545401275158,-0.0036651913542300463
1.5148017406463623,1.1384141445159912,9.152976036071777,-0.0002617993741296232,0.02068215236067772,-0.00010471975838299841
1.5353727340698242,1.1129590272903442,9.27426528930664,0.00823795422911644,0.008203047327697277,0.006073745898902416
1.5644670724868774,1.110947847366333,9.084108352661133,0.013281955383718014,-0.005218534264713526,0.009651671163737774
1.5753942728042603,1.1397931575775146,9.073784828186035,0.005096361506730318,-0.004782202187925577,0.00205948855727911
1.5448633432388306,1.1751412153244019,9.122760772705078,0.001483529806137085,0.011815878562629223,-0.0023038345389068127
1.4636424779891968,1.1775928735733032,9.160770416259766,0.00043633230961859226,0.01096066739410162,0.0023038345389068127
1.4923250675201416,1.1522239446640015,9.113231658935547,-0.0009250245057046413,0.012479104101657867,0.0031939526088535786
1.6369826793670654,1.0440729856491089,9.197623252868652,-0.0014137167017906904,0.01855284906923771,0.005881759338080883
1.632165551185608,1.0884519815444946,9.319334030151367,0.00251327408477664,0.0039618974551558495,-0.0024260077625513077
1.5438482761383057,1.1664742231369019,9.258559226989746,0.008429939858615398,-0.0016755161341279745,-0.009913469664752483
1.504420518875122,1.2069745063781738,9.129234313964844,0.006824237294495106,-0.004345869645476341,-0.007888888008892536
1.5138249397277832,1.1706209182739258,9.068958282470703,-0.0008203047327697277,0.00043633230961859226,-0.005969026125967503
1.488637924194336,1.1924751996994019,9.102352142333984,-0.005881759338080883,0.02157226949930191,-0.008936085738241673
1.4964430332183838,1.184133768081665,9.180048942565918,-5.2359879191499203e-05,0.008464846760034561,-0.0010471974965184927
1.5601000785827637,1.151323676109314,9.130172729492188,-0.024836035445332527,0.004502949304878712,-0.005567600484937429
1.436884880065918,1.1512470245361328,9.283334732055664,-0.011501720175147057,0.026389379054307938,-0.009773843921720982
1.460357666015625,1.0899076461791992,9.250495910644531,0.008482299745082855,0.007400196045637131,-0.0063355453312397
1.5418083667755127,1.054866075515747,9.106623649597168,0.004049163777381182,-0.0010995573829859495,-0.004660028964281082
1.388809323310852,1.1115224361419678,9.464787483215332,0.005899212788790464,-0.062343161553144455,0.0021816615480929613
1.7829140424728394,1.216694951057434,8.79677677154541,0.032532937824726105,-0.15676547586917877,0.00799360778182745
1.6255096197128296,1.072621464729309,9.121975898742676,-0.060702551156282425,0.0757647454738617,0.00041887903353199363
1.5573227405548096,0.9376459717750549,9.640952110290527,-0.012444197200238705,0.14149384200572968,-0.0063355453312397
1.3419978618621826,1.1657367944717407,9.25527572631836,0.06586872786283493,-0.07068583369255066,-0.005445427261292934
1.5954864025115967,1.2406752109527588,8.448860168457031,0.016859879717230797,-0.01310742273926735,-0.006649704650044441
1.5206340551376343,1.240397572517395,9.191523551940918,-0.040735986083745956,0.09491100162267685,-0.018151424825191498
1.4507137537002563,1.2101635932922363,9.462900161743164,0.008813912980258465,0.0035604715812951326,-0.010402162559330463
1.456373691558838,1.2116384506225586,9.01927375793457,0.013159782625734806,-0.030892327427864075,0.004153883550316095
1.5876333713531494,1.1966602802276611,9.029722213745117,-0.02206096239387989,-0.003926991019397974,0.00799360778182745
1.5359952449798584,1.1074140071868896,9.509366989135742,-0.01171115878969431,0.029286624863743782,0.0007504915702156723
1.4708155393600464,1.1028554439544678,9.519584655761719,0.03701843321323395,0.005759586580097675,-0.00125663704238832
1.450072169303894,1.1228231191635132,8.972463607788086,0.03932226821780205,-0.009477137587964535,-0.003909537568688393
1.4602140188217163,1.1818832159042358,9.011697769165039,-0.011972958222031593,0.004660028964281082,-0.004764748737215996
1.5627241134643555,1.1635724306106567,9.200284957885742,-0.005358160939067602,-0.0032463124953210354,-0.006527531426399946
1.616047739982605,1.1744517087936401,9.128775596618652,0.0008552113431505859,-0.0012042771559208632,-0.0025307273026555777
1.563394546508789,1.2242414951324463,9.244318962097168,0.007888888008892536,0.01186823844909668,0.001658062799833715
1.5140643119812012,1.2367488145828247,9.179014205932617,0.007155850064009428,-0.00125663704238832,0.0017278759041801095
1.5136525630950928,1.224921464920044,9.114045143127441,0.0011868239380419254,0.0037000980228185654,-0.004136430099606514
1.4986456632614136,1.1737812757492065,9.080431938171387,-0.00411897711455822,-0.006300638429820538,-0.005148721393197775
1.5671964883804321,1.121970772743225,9.119963645935059,-0.004764748737215996,-0.00799360778182745,-0.0003490658418741077
1.5177992582321167,1.1597895622253418,9.284436225891113,0.003944444004446268,0.01492256484925747,-0.001972222002223134
1.4222419261932373,1.2268750667572021,9.253168106079102,0.018709929659962654,0.01754055917263031,-0.0015009831404313445
1.4062774181365967,1.2050687074661255,9.049545288085938,0.013945180922746658,-0.01673770695924759,0.0005410520825535059
1.492631435394287,1.1563514471054077,8.939720153808594,-0.010733774863183498,-0.02206096239387989,0.004171337001025677
1.5803837776184082,1.1620113849639893,9.13705062866211,-0.032794736325740814,0.009354964829981327,0.005288347601890564
1.5827205181121826,1.153488039970398,9.473520278930664,-0.011414453387260437,0.004712388850748539,0.002740166848525405
1.4755655527114868,1.1703623533248901,9.290603637695312,0.02019345946609974,-0.006143558770418167,0.002687806962057948
1.4489516019821167,1.1611111164093018,9.14278507232666,0.017331119626760483,0.002827433403581381,0.00013962633966002613
1.500015139579773,1.138213038444519,9.09744930267334,0.003543018363416195,-0.002234021434560418,-0.0023911010939627886
1.5348843336105347,1.1716361045837402,9.082528114318848,-0.0005934119690209627,-0.005061454605311155,0.00010471975838299841
1.4713709354400635,1.160957932472229,9.085268020629883,-0.006649704650044441,-0.014137166552245617,0.0020420351065695286
1.4570727348327637,1.1570985317230225,8.989872932434082,-0.0019373154500499368,-0.010262535884976387,-0.00839503388851881
1.504841923713684,1.1671732664108276,9.168002128601074,-0.009843656793236732,0.01719149388372898,-0.005811946466565132
1.5344629287719727,1.2023967504501343,9.337817192077637,0.0036651913542300463,-0.0034208453726023436,0.0019547687843441963
1.5601767301559448,1.1961239576339722,9.226324081420898,0.010105456225574017,-0.01160643994808197,0.0057246801443398
1.5161616802215576,1.2246819734573364,9.151118278503418,0.002722713630646467,0.0028972465079277754,-0.0006806784076616168
1.4731043577194214,1.2032395601272583,9.129753112792969,-0.005864306353032589,0.0028797932900488377,-0.002740166848525405
1.5066040754318237,1.1763957738876343,9.182941436767578,-0.0016231562476605177,-0.009494591504335403,0.00027925267932005227
1.5897115468978882,1.1375138759613037,9.125490188598633,0.003001966280862689,-0.00945968460291624,0.0021642083302140236
1.5711708068847656,1.2040631771087646,9.183420181274414,0.0015009831404313445,0.010908307507634163,-0.0005759586347267032
1.483648419380188,1.1382609605789185,9.246809959411621,0.005864306353032589,0.005899212788790464,-0.00045378561480902135
1.4972283840179443,1.1867003440856934,9.123143196105957,0.014503685757517815,0.01061160210520029,0.00040142572834156454
1.467942476272583,1.1890370845794678,9.25203800201416,-0.001483529806137085,0.0031066860537976027,-0.002199114765971899
1.477931022644043,1.170822024345398,9.135613441467285,0.007487462367862463,-0.007435102481395006,0.0015533430268988013
1.5467116832733154,1.104138731956482,9.135334968566895,0.003717551240697503,0.002286381321027875,0.002199114765971899
1.550992488861084,1.0936713218688965,9.215656280517578,0.0010471974965184927,-0.0007504915702156723,0.0016231562476605177
1.515366792678833,1.1607376337051392,9.186715126037598,-0.003263765713199973,-0.0047996556386351585,0.0005235987482592463
1.4891934394836426,1.1373894214630127,9.197785377502441,-0.0016929693520069122,-0.0017104226863011718,-0.00040142572834156454
1.570012092590332,1.1379544734954834,9.204700469970703,0.00143117003608495,-0.004049163777381182,0.001518436474725604
1.5515096187591553,1.1655356884002686,9.173393249511719,0.0008901178953237832,-0.0015707963611930609,-0.00015707963029854
1.4899883270263672,1.1764532327651978,9.214889526367188,0.002251474652439356,0.010733774863183498,-0.0013264502631500363
1.4720509052276611,1.1975029706954956,9.12465763092041,0.006405358202755451,-0.009110618382692337,-0.0018151424592360854
1.5558000802993774,1.1860013008117676,9.016448020935059,-0.005096361506730318,0.0007679448463022709,0.0016406094655394554
1.549910306930542,1.1732258796691895,9.134654998779297,-0.008726646192371845,0.004450589418411255,0.004328416660428047
1.4924877882003784,1.1654877662658691,9.335001945495605,0.01186823844909668,0.009477137587964535,-0.007225662935525179
1.4247127771377563,1.2045131921768188,9.11168098449707,0.024923302233219147,0.00031415926059708,-0.0060388389974832535
1.4614111185073853,1.250386118888855,8.996625900268555,0.007661995477974415,0.009424777701497078,-0.0005410520825535059
1.412205457687378,1.2996013164520264,9.143206596374512,-0.011833332479000092,0.014974924735724926,0.010332348756492138
1.3616015911102295,1.2390950918197632,9.233019828796387,-0.014538592658936977,0.019111355766654015,0.013561207801103592
1.5104634761810303,1.1255238056182861,9.263673782348633,-0.0051312679424881935,-0.010716321878135204,0.02595304511487484
1.6138546466827393,1.020561933517456,9.229111671447754,0.011693705804646015,0.004363323096185923,0.010873401537537575
1.5763136148452759,1.0898118019104004,9.201520919799805,0.010768681764602661,0.013002702966332436,0.00996582955121994
1.4323742389678955,1.1853595972061157,9.117972373962402,0.00593411922454834,0.0002617993741296232,0.008464846760034561
1.4940009117126465,1.184114694595337,9.042421340942383,0.004921828396618366,0.022689281031489372,0.01096066739410162
1.4671475887298584,1.13446843624115,9.041998863220215,-0.002199114765971899,0.013491394929587841,0.005113814491778612
1.4735735654830933,1.1374086141586304,9.17452335357666,-0.017208946868777275,0.01665044017136097,-0.0004886921960860491
1.4813499450683594,1.1444188356399536,9.440299034118652,-0.005916666239500046,0.00022689280740451068,0.001972222002223134
1.4863970279693604,1.1807340383529663,9.212285995483398,0.02537708729505539,-0.00855211354792118,0.002460914198309183
1.5118234157562256,1.1971774101257324,8.95157527923584,0.009634217247366905,0.005061454605311155,0.0022165682166814804
1.56484055519104,1.1690982580184937,9.145553588867188,-0.007627088576555252,-0.011850785464048386,0.00205948855727911
1.5164202451705933,1.1305420398712158,9.254183769226074,-0.008953538723289967,0.002321287989616394,0.0006806784076616168
1.499967336654663,1.1379832029342651,9.213702201843262,-0.002321287989616394,-0.0075747291557490826,6.981316983001307e-05
1.5498337745666504,1.1394484043121338,9.075355529785156,-0.006527531426399946,-0.020298179239034653,0.0011519172694534063
1.5864075422286987,1.082897424697876,9.104248046875,-0.01970476657152176,-0.012967796064913273,0.004328416660428047
1.6138355731964111,1.0810394287109375,9.355286598205566,-0.015428710728883743,0.001658062799833715,0.00094247778179124
1.5712474584579468,1.1162055730819702,9.388545989990234,0.014538592658936977,0.008360126987099648,-0.004433136433362961
1.4951980113983154,1.1560258865356445,9.048186302185059,0.03335324302315712,0.0037350046914070845,-0.006894050631672144
1.512781023979187,1.203392744064331,8.878340721130371,0.004433136433362961,0.014590952545404434,-0.006544984877109528
1.5219556093215942,1.2175568342208862,8.783598899841309,-0.10910052806138992,0.25218263268470764,-0.009494591504335403
1.208813190460205,1.231433629989624,9.824828147888184,-0.12693779170513153,0.18394024670124054,-0.007487462367862463
1.2215982675552368,1.100652813911438,10.645463943481445,0.04084070399403572,-0.23724260926246643,0.015865042805671692
1.6555808782577515,1.0517536401748657,8.388879776000977,0.09985028952360153,-0.20655971765518188,0.027000242844223976
1.6030042171478271,1.0958164930343628,8.333805084228516,-0.04483750835061073,0.10220648348331451,0.011466813273727894
1.4470841884613037,1.11713445186615,9.693307876586914,-0.033370696008205414,0.02675589732825756,0.017331119626760483
1.544020652770996,1.1242883205413818,9.257429122924805,0.018011797219514847,-0.09026842564344406,0.018744835630059242
1.5176843404769897,1.0852724313735962,9.215042114257812,-0.028466319665312767,0.020786872133612633,0.00548033369705081
1.482460856437683,1.1124992370605469,9.219677925109863,-0.002548180753365159,-0.014870204962790012,-0.0011344640515744686
1.5451219081878662,1.1085631847381592,9.255352973937988,0.004380776546895504,-0.0015707963611930609,0.004206243436783552
1.4844720363616943,1.1409519910812378,9.238889694213867,0.006911503616720438,0.002199114765971899,0.0017278759041801095
1.539184331893921,1.1722873449325562,9.09477710723877,0.00502654816955328,-0.008639379404485226,0.00205948855727911
1.5404868125915527,1.1296417713165283,9.059812545776367,-0.01310742273926735,-0.01616174913942814,0.0037000980228185654
1.4544391632080078,1.1168471574783325,9.060540199279785,-0.021502455696463585,-0.00890117883682251,0.002199114765971899
1.5564513206481934,1.0462757349014282,9.233285903930664,-0.027262043207883835,-0.005201081279665232,0.003351032268255949
1.5710463523864746,1.0386717319488525,9.417975425720215,-0.0016057029133662581,0.0023911010939627886,0.0009773843921720982
1.468612790107727,1.179010272026062,9.311788558959961,0.0240506362169981,-0.01218239776790142,0.00019198621157556772
1.7296478748321533,0.8989748358726501,9.114821434020996,-0.014137166552245617,-0.0114493602886796,-0.0022165682166814804
1.5822416543960571,1.0252066850662231,9.30675983428955,-0.01516691129654646,0.003351032268255949,-0.007295476272702217
1.5166021585464478,1.0583232641220093,9.333699226379395,0.00013962633966002613,0.00020943951676599681,-0.008656833320856094
1.5929676294326782,1.1210227012634277,9.21901798248291,0.021327923983335495,-0.010890854522585869,-0.00563741335645318
1.6236422061920166,1.1679394245147705,9.056201934814453,0.01713913306593895,-0.011187560856342316,-0.0008377580670639873
1.6002556085586548,1.1718946695327759,9.038887023925781,0.00043633230961859226,-0.0006981316837482154,-0.0010995573829859495
1.5468361377716064,1.1273529529571533,9.105445861816406,-0.010349802672863007,0.0044156829826533794,-0.001745329238474369
1.536665678024292,1.0766246318817139,9.120396614074707,-0.0033335788175463676,-0.005811946466565132,-0.001745329238474369
1.5223674774169922,1.1053550243377686,8.831080436706543,-0.011501720175147057,-0.0026529005263000727,-0.009354964829981327
1.5392992496490479,1.081748127937317,9.12451457977295,-0.029740409925580025,0.019984019920229912,-0.005270894151180983
1.5826438665390015,1.05497145652771,9.37932300567627,-0.005654866807162762,0.0038920841179788113,0.00296705961227417
1.5962812900543213,1.0480761528015137,9.328815460205078,0.020804325118660927,-0.00548033369705081,0.005899212788790464
1.5278358459472656,1.0615123510360718,9.123575210571289,0.0024958208668977022,0.004886921960860491,-0.0023561944253742695
1.5669761896133423,1.0480186939239502,9.18025016784668,0.0020420351065695286,0.019111355766654015,-0.006248278543353081
1.5866373777389526,1.089170217514038,9.215569496154785,0.0159872155636549,0.012636183761060238,-0.005672320257872343
1.5831897258758545,1.1467363834381104,9.13060474395752,0.02281145378947258,0.0017104226863011718,-0.004520402755588293
1.5378243923187256,1.179019808769226,9.056499481201172,0.009948376566171646,0.002687806962057948,-0.00548033369705081
1.5459742546081543,1.1400039196014404,9.071554183959961,0.008621926419436932,0.021537363529205322,-0.009477137587964535
1.5577728748321533,1.069671869277954,8.845215797424316,0.0240506362169981,0.044313911348581314,-0.008185594342648983
1.512541651725769,1.1596651077270508,9.086320877075195,0.004485496319830418,0.033719759434461594,-0.004328416660428047
1.4532995223999023,1.1910865306854248,9.575150489807129,-0.028588492423295975,0.024521876126527786,0.003926991019397974
1.4825087785720825,1.1384236812591553,9.697178840637207,-0.0004886921960860491,-0.025167647749185562,0.006073745898902416
1.55683434009552,1.2156989574432373,8.929299354553223,0.03982841223478317,-0.05984733998775482,0.004293509759008884
1.5243594646453857,1.1827452182769775,8.782975196838379,-0.03228859230875969,0.013543754816055298,0.008464846760034561
1.5630401372909546,1.0936521291732788,9.296771049499512,-0.041346848011016846,0.001117010717280209,0.016632987186312675
1.6418955326080322,1.001054048538208,9.319037437438965,-0.00938987173140049,-0.015603243373334408,0.015149458311498165
1.6166510581970215,1.0545692443847656,9.301971435546875,0.005777040030807257,0.0044156829826533794,0.00411897711455822
1.4592658281326294,1.1318061351776123,9.23367977142334,0.022828906774520874,0.003996803890913725,0.00019198621157556772
1.4404569864273071,1.1587169170379639,9.090266227722168,0.023579398170113564,0.00855211354792118,0.00047123889089562
1.4621293544769287,1.207529902458191,9.129158020019531,0.016266468912363052,0.0022165682166814804,0.0027925267349928617
1.4832653999328613,1.230159878730774,9.117799758911133,0.0029845130629837513,-0.005550147034227848,0.003508111694827676
1.5588167905807495,1.1053740978240967,9.065855026245117,-0.004660028964281082,0.006318091880530119,0.00678933085873723
1.5948638916015625,1.033672571182251,9.150016784667969,-0.005427973810583353,0.016022123396396637,0.007103490177541971
1.440370798110962,1.1810979843139648,9.283143997192383,-0.014311700128018856,0.018657568842172623,-0.0005585053586401045
1.5106741189956665,1.1780046224594116,9.23639965057373,0.017418386414647102,-0.005113814491778612,0.001483529806137085
1.615147590637207,1.1182070970535278,9.074426651000977,0.010314895771443844,0.01621410809457302,0.006702064536511898
1.5453039407730103,1.1407029628753662,9.198073387145996,0.004310963209718466,0.032271139323711395,1.7453292457503267e-05
1.5323272943496704,1.203383207321167,9.212082862854004,0.008203047327697277,0.00855211354792118,-0.001117010717280209
1.4390779733657837,1.2149327993392944,9.112053871154785,0.001745329238474369,0.009110618382692337,-0.00047123889089562
1.4471416473388672,1.1155351400375366,9.098770141601562,-0.006859143730252981,0.003944444004446268,0.002548180753365159
1.493043303489685,1.1778130531311035,9.060846328735352,0.0740368664264679,-0.2610139846801758,0.012042772024869919
1.7295807600021362,1.2591967582702637,8.831616401672363,-0.010279988870024681,0.037803832441568375,-0.002478367416188121
1.4201254844665527,1.1217025518417358,9.507883071899414,-0.024260075762867928,0.10550515353679657,-0.0021642083302140236
1.5120819807052612,1.083998680114746,9.188026428222656,0.002321287989616394,0.09819222241640091,0.003263765713199973
1.6211426258087158,1.0299663543701172,8.985190391540527,0.008761553093791008,-0.002827433403581381,0.0008203047327697277
1.4173578023910522,1.102510690689087,9.621137619018555,-0.003525565145537257,0.029129544273018837,-0.0028623400721699
1.479003667831421,1.0851479768753052,9.135248184204102,0.042638394981622696,-0.08075638115406036,0.008604473434388638
1.5954480171203613,1.1203140020370483,8.74962043762207,-0.0025656339712440968,-0.0023561944253742695,0.0015533430268988013
1.5658749341964722,1.1260409355163574,9.207457542419434,-0.028413960710167885,0.06201154738664627,-0.008779006078839302
1.4880441427230835,1.1105743646621704,9.497673988342285,0.018500490114092827,0.0103672556579113,-0.009512044489383698
1.4550999402999878,1.0977318286895752,9.316699981689453,0.042673300951719284,-0.01797689124941826,-0.009913469664752483
1.5220897197723389,1.1686385869979858,8.905366897583008,0.025621432811021805,-0.014590952545404434,-0.004258603323251009
1.5781522989273071,1.23269784450531,8.97010612487793,-0.015777776017785072,0.00518362782895565,-0.0010122909443452954
1.5634040832519531,1.1440931558609009,9.25656795501709,-0.004939281847327948,-0.0015009831404313445,-0.004206243436783552
1.5447676181793213,1.1831952333450317,9.264266967773438,0.004869468510150909,0.0012042771559208632,-0.0012391837080940604
1.4831792116165161,1.1988438367843628,9.222502708435059,0.014660765416920185,-0.0031241392716765404,-0.0009599310578778386
1.491769552230835,1.1778993606567383,9.071218490600586,0.005427973810583353,-0.00769690191373229,-0.00427605677396059
1.48600435256958,1.18466055393219,9.079300880432129,-0.010175269097089767,0.008011061698198318,-0.007522369269281626
1.4964430332183838,1.1351388692855835,9.152515411376953,-0.010751227848231792,-0.0032463124953210354,-0.0040317103266716
1.475881576538086,1.1432791948318481,9.147191047668457,-0.01572541706264019,0.010471975430846214,0.0
1.4512118101119995,1.1652292013168335,9.338871002197266,0.0016755161341279745,0.007295476272702217,-0.002024581888690591
1.5116605758666992,1.170515537261963,9.209976196289062,0.027139870449900627,-0.008499753661453724,-0.002914699725806713
1.591483235359192,1.1800827980041504,8.990514755249023,0.012147491797804832,-0.01310742273926735,-0.000715585018042475
1.5706346035003662,1.2031437158584595,9.074790954589844,-0.014206980355083942,0.00874409917742014,-0.0016057029133662581
1.4840219020843506,1.2093974351882935,9.270118713378906,-0.01342158205807209,-0.0060388389974832535,-8.726646046852693e-05
1.4984254837036133,1.1338363885879517,9.162907600402832,-0.002827433403581381,-0.009337511844933033,0.0017976891249418259
1.5405058860778809,1.108228087425232,9.159698486328125,-0.005497787147760391,8.726646046852693e-05,-0.0005061454721726477
1.5420669317245483,1.0988714694976807,9.252076148986816,0.0019198621157556772,-0.0015533430268988013,-0.002600540639832616
1.5440781116485596,1.18510103225708,9.2080717086792,0.010332348756492138,-0.008482299745082855,0.00022689280740451068
1.4804210662841797,1.22016179561615,9.043235778808594,0.003455751808360219,-0.013491394929587841,0.0017976891249418259
1.4674636125564575,1.1841434240341187,8.976005554199219,-0.011972958222031593,-0.00017453292093705386,0.0014660765882581472
1.4949873685836792,1.161733627319336,9.104248046875,-0.021781709045171738,0.0006981316837482154,0.0011693706037476659
1.5761220455169678,1.063753366470337,9.23155403137207,0.017732545733451843,-0.003909537568688393,-0.002722713630646467
1.567962646484375,1.1588702201843262,9.121698379516602,0.02019345946609974,0.004485496319830418,-0.004904375411570072
1.5304502248764038,1.2289437055587769,9.10446834564209,0.01219985168427229,-0.0005410520825535059,-0.0036477381363511086
1.5086055994033813,1.2048101425170898,9.007609367370605,-0.0009948377264663577,0.002827433403581381,-0.003926991019397974
1.5113445520401,1.1814810037612915,9.114131927490234,-0.011920598335564137,0.014765485189855099,-0.0032114058267325163
1.5590370893478394,1.1479909420013428,9.238611221313477,-0.00376991112716496,-0.0008901178953237832,0.000715585018042475
1.4668985605239868,1.1744517087936401,9.066620826721191,0.00663225119933486,-0.013840461149811745,0.00047123889089562
1.5028786659240723,1.095548391342163,9.100935935974121,-0.0037873645778745413,0.01993165910243988,3.490658491500653e-05
1.5186995267868042,1.1190402507781982,9.276171684265137,0.0013613568153232336,0.014887658879160881,-0.004974188283085823
1.5310249328613281,1.1514768600463867,9.186761856079102,0.021013764664530754,-0.006143558770418167,-0.00663225119933486
1.543953537940979,1.1422640085220337,9.21900749206543,0.012636183761060238,0.005497787147760391,-0.003228859044611454
1.52410089969635,1.1809446811676025,9.156499862670898,0.011623892933130264,0.0021118484437465668,-0.008447393774986267
1.544796347618103,1.1965166330337524,9.052400588989258,0.002809980185702443,-0.006300638429820538,-0.004712388850748539
1.5691789388656616,1.1845072507858276,9.071974754333496,-0.010437068529427052,-0.010262535884976387,0.001518436474725604
1.5518927574157715,1.1427428722381592,9.211402893066406,-0.014643312431871891,0.006859143730252981,0.00041887903353199363
1.5256427526474,1.1292108297348022,9.28615951538086,-0.0003665191470645368,0.012950343079864979,-0.004660028964281082
1.502246618270874,1.1147785186767578,9.184329986572266,0.014364060014486313,-0.0017802357906475663,-0.005340707488358021
1.5799431800842285,1.1718275547027588,9.028620719909668,0.007295476272702217,-0.005951572675257921,0.0007853981805965304
1.5816478729248047,1.2321327924728394,9.121076583862305,-0.007819075137376785,0.003281218931078911,0.003036872949451208
1.51200532913208,1.2141475677490234,9.252747535705566,-0.013543754816055298,0.0070685832761228085,0.0051312679424881935
1.483772873878479,1.1067627668380737,9.21821403503418,-0.00678933085873723,-0.010489428415894508,0.007801621686667204
1.484969973564148,1.0882604122161865,9.1748685836792,0.00094247778179124,-0.012740903533995152,0.004258603323251009
1.5011547803878784,1.129900336265564,9.171746253967285,0.0007853981805965304,0.010314895771443844,3.490658491500653e-05
1.4925165176391602,1.1659187078475952,9.179464340209961,0.0034382985904812813,0.004520402755588293,-0.002548180753365159
1.464504361152649,1.0464959144592285,7.843567371368408,0.011676252819597721,0.09939649701118469,-0.008621926419436932
1.3546009063720703,1.1841624975204468,9.39835262298584,-0.08419468253850937,0.15144221484661102,-0.0063355453312397
1.3785333633422852,1.241728663444519,10.373893737792969,-0.013072515837848186,-0.031031953170895576,0.007557275705039501
1.5160084962844849,1.1063510179519653,9.393285751342773,0.10382963716983795,-0.20292943716049194,0.013299409300088882
1.5017869472503662,1.1138783693313599,9.215407371520996,-0.018709929659962654,0.0020420351065695286,0.0008377580670639873
1.5495655536651611,1.1678149700164795,9.181869506835938,-0.01286307629197836,-0.0006806784076616168,0.004468042869120836
1.5439248085021973,1.14242684841156,9.228124618530273,-0.003281218931078911,-0.0030717793852090836,0.00830776710063219
1.5719656944274902,1.1351771354675293,9.167303085327148,0.0008028514566831291,-0.02085668407380581,0.01424188632518053
1.6239964962005615,1.137475609779358,9.116899490356445,-0.010384708642959595,-0.020804325118660927,0.01333431527018547
1.5687862634658813,1.1440261602401733,9.12459945678711,-0.021554816514253616,-0.009285151958465576,0.009843656793236732
1.5498241186141968,1.0336534976959229,9.110483169555664,-0.022340213879942894,-0.007295476272702217,0.009773843921720982
1.576399803161621,0.9993492960929871,9.205743789672852,-0.011815878562629223,0.0027925267349928617,0.007661995477974415
1.4798942804336548,1.1387971639633179,9.365618705749512,-0.017121680080890656,0.012479104101657867,0.00125663704238832
1.5002928972244263,1.1091378927230835,9.343793869018555,0.014521139673888683,-0.01333431527018547,0.009250245057046413
1.6368869543075562,1.0763851404190063,9.14100456237793,0.013002702966332436,-0.016772614791989326,0.012130037881433964
1.6769083738327026,1.0754178762435913,9.14536190032959,0.0012217304902151227,-0.0023038345389068127,0.0038920841179788113
1.601423978805542,1.1612931489944458,9.109180450439453,6.981316983001307e-05,-0.0076445420272648335,-0.0007679448463022709
1.5699162483215332,1.1607376337051392,9.013326644897461,-0.01507964450865984,-0.0213104709982872,0.004694935865700245
1.5882271528244019,1.0714243650436401,9.125824928283691,-0.0337023064494133,-0.002007128670811653,0.003263765713199973
1.6019315719604492,1.042760968208313,9.3561372756958,-0.014713125303387642,0.018081611022353172,-0.002146754879504442
1.6061931848526,1.0598938465118408,9.270914077758789,0.018238689750432968,0.004904375411570072,-0.0038397242315113544
1.5816478729248047,1.0907599925994873,9.062627792358398,0.01953023485839367,-0.006998770404607058,0.0009075712296180427
1.5726553201675415,1.1600768566131592,9.132576942443848,-0.0004886921960860491,0.005777040030807257,0.0028972465079277754
1.4972858428955078,1.0395431518554688,9.163375854492188,0.0009773843921720982,-0.00502654816955328,0.0016406094655394554
1.5780757665634155,0.9727736711502075,9.206308364868164,0.009407324716448784,0.019076447933912277,-0.005742133129388094
1.5612971782684326,0.984840452671051,9.162686347961426,0.021118484437465668,0.02206096239387989,-0.01326450239866972
1.518498420715332,1.123953104019165,9.355027198791504,-0.06890559941530228,0.09175195544958115,0.0028448866214603186
1.4871630668640137,1.0745177268981934,9.572612762451172,-0.0036128314677625895,-0.05400048568844795,0.01218239776790142
1.6567013263702393,1.034084439277649,9.124876976013184,0.02799508161842823,-0.019460421055555344,0.008272860199213028
1.6145730018615723,1.101744532585144,9.113604545593262,0.015358896926045418,0.020926497876644135,-0.002722713630646467
1.57693612575531,1.1295268535614014,9.123296737670898,0.0062831854447722435,-0.0014486232539638877,-0.003577925032004714
1.5262365341186523,1.165411114692688,9.005827903747559,-0.006859143730252981,0.0037350046914070845,-0.0041015236638486385
1.5279028415679932,1.0960463285446167,9.188936233520508,-0.007609635591506958,0.009791296906769276,-0.008412486873567104
1.5368667840957642,1.0575858354568481,9.257343292236328,0.009529497474431992,0.0013962633674964309,-0.007661995477974415
1.581379771232605,1.0586202144622803,9.156576156616211,0.01993165910243988,-0.0005934119690209627,-0.0020420351065695286
1.5193125009536743,1.1030948162078857,9.129465103149414,0.016196655109524727,0.00040142572834156454,-0.00043633230961859226
1.6178098917007446,1.0988906621932983,9.114227294921875,0.013037609867751598,0.0035604715812951326,0.00043633230961859226
1.6440024375915527,1.1256003379821777,9.197920799255371,0.0022689281031489372,0.0005410520825535059,-0.0016057029133662581
1.6314663887023926,1.0769981145858765,9.198005676269531,-0.0026703537441790104,-0.003089232835918665,-0.007138396613299847
1.393674373626709,1.0505181550979614,9.113298416137695,-0.024836035445332527,0.00094247778179124,-0.019861847162246704
1.4937520027160645,1.042952537536621,9.277091026306152,-0.006981316953897476,0.013055062852799892,-0.011536626145243645
1.5100420713424683,1.1282340288162231,9.176850318908691,0.012304571457207203,-0.02321287989616394,-0.006510077975690365
1.5058953762054443,1.1618390083312988,8.933256149291992,0.011833332479000092,0.00040142572834156454,-0.008726646192371845
1.6071988344192505,1.0790858268737793,9.139376640319824,-0.003909537568688393,0.004764748737215996,-0.002548180753365159
1.5489622354507446,1.0657453536987305,9.218404769897461,-3.490658491500653e-05,0.0010122909443452954,-0.0021816615480929613
1.586905598640442,1.1948024034500122,8.866005897521973,-0.002722713630646467,0.012583823874592781,-0.0012217304902151227
1.6807774305343628,1.0976169109344482,9.14487361907959,-0.020804325118660927,0.00020943951676599681,0.004590216092765331
1.6150422096252441,1.0431536436080933,9.337568283081055,-0.017470745369791985,0.0154810706153512,-0.0005934119690209627
1.5720902681350708,1.025120496749878,9.361337661743164,0.005375613924115896,0.004153883550316095,-0.009442231617867947
1.5961471796035767,1.0198436975479126,9.253417015075684,0.026511551812291145,0.00047123889089562,-0.014398965984582901
1.5330743789672852,1.1074044704437256,9.068459510803223,0.03640756756067276,0.020961403846740723,-0.023684117943048477
1.4580974578857422,1.207711935043335,9.011152267456055,0.030595621094107628,0.035063665360212326,-0.02099631167948246
1.487555742263794,1.1385769844055176,9.003098487854004,0.008726646192371845,0.027715828269720078,-0.01473057921975851
1.482978105545044,1.1358953714370728,8.770535469055176,0.016179202124476433,0.056007616221904755,-0.008220500312745571
1.4473044872283936,1.308287501335144,9.616837501525879,-0.0757647454738617,0.048293258994817734,0.006667157635092735
1.422912359237671,1.038863182067871,9.837469100952148,0.008796459063887596,-0.08599237352609634,0.015865042805671692
1.5688819885253906,1.0285106897354126,9.226736068725586,0.05625196173787117,-0.06487388908863068,0.020717058330774307
1.5150699615478516,1.1667423248291016,9.00687313079834,-0.0024085543118417263,0.0002617993741296232,-0.012234757654368877
1.449459195137024,1.1581519842147827,9.182367324829102,-0.017592918127775192,0.03537782281637192,-0.021275563165545464
1.4382448196411133,1.099024772644043,9.299452781677246,-0.00411897711455822,-0.003508111694827676,-0.011344640515744686
1.5611056089401245,1.052931547164917,9.155531883239746,-0.0024085543118417263,-0.0022165682166814804,0.00040142572834156454
1.4204702377319336,1.186058759689331,8.970977783203125,-0.014119713567197323,-0.005532693583518267,-0.0006981316837482154
1.52023184299469,1.129134178161621,9.119772911071777,-0.023090705275535583,-0.0026179938577115536,0.002827433403581381
1.6201658248901367,1.0907695293426514,9.311519622802734,-0.013735741376876831,0.00799360778182745,0.010437068529427052
1.5759114027023315,1.0500776767730713,9.360983848571777,-0.0007679448463022709,0.013910274021327496,0.007853982038795948
1.6397311687469482,1.0173728466033936,9.341351509094238,0.024242622777819633,0.01523672416806221,0.0021642083302140236
1.6127054691314697,1.1179006099700928,9.226448059082031,0.026110125705599785,-0.009738937020301819,-0.004817108623683453
1.5034053325653076,1.2344790697097778,9.022184371948242,0.008970992639660835,0.00027925267932005227,-0.007278022821992636
1.4529165029525757,1.191938877105713,9.095189094543457,-0.007679448463022709,-0.010349802672863007,-0.0024085543118417263
1.5089503526687622,1.0478079319000244,9.187021255493164,-0.017418386414647102,0.02701769582927227,0.003351032268255949
1.5193125009536743,1.074891209602356,9.465784072875977,0.00808087456971407,0.011222466826438904,0.003857177682220936
1.479970932006836,1.0595300197601318,9.361586570739746,-0.00041887903353199363,0.022532200440764427,0.005654866807162762
1.499344825744629,1.0523377656936646,9.254355430603027,0.01523672416806221,-0.005602506920695305,0.0017104226863011718
1.5871928930282593,1.1354166269302368,9.043301582336426,0.014521139673888683,-0.02068215236067772,-0.0027925267349928617
1.5020263195037842,1.1897457838058472,9.259766578674316,0.009023352526128292,0.0006981316837482154,0.00045378561480902135
1.5048514604568481,1.1135048866271973,9.105799674987793,0.00678933085873723,0.004066617228090763,-0.00188495556358248
1.4656344652175903,1.100968837738037,9.105140686035156,0.00019198621157556772,0.021135937422513962,-0.0027925267349928617
1.6015868186950684,1.1243362426757812,9.184925079345703,0.002251474652439356,0.02241002768278122,-0.002373647876083851
1.5489143133163452,1.115267038345337,9.15626049041748,-0.0005759586347267032,0.018133969977498055,-0.003281218931078911
1.4391546249389648,1.1443709135055542,9.112025260925293,-0.0036477381363511086,0.005375613924115896,-0.012705996632575989
1.4162946939468384,1.1440261602401733,9.152352333068848,-0.009197885170578957,-0.013805554248392582,-0.010332348756492138
1.5273761749267578,1.0301196575164795,9.215473175048828,-0.00143117003608495,0.030455995351076126,-0.00017453292093705386
1.469139575958252,0.9552098512649536,9.401330947875977,0.022130774334073067,0.02206096239387989,-0.0019547687843441963
1.7184717655181885,1.1531528234481812,8.940178871154785,-0.01005309633910656,0.005689773242920637,0.0017104226863011718
1.41196608543396,1.1052113771438599,9.738663673400879,-0.04328416660428047,0.15732397139072418,-0.016685348004102707
1.3553192615509033,0.9241330623626709,9.309165000915527,0.0030194194987416267,0.09604547172784805,0.0036826448049396276
1.343434453010559,1.2782355546951294,8.860384941101074,0.02019345946609974,-0.05398303270339966,0.015795229002833366
1.789359211921692,1.3095420598983765,8.837028503417969,-0.039793506264686584,-0.03661700710654259,0.008115780539810658
1.5889453887939453,1.2154691219329834,9.606879234313965,-0.05138249322772026,0.0696909949183464,-0.010541788302361965
1.396815538406372,1.1493412256240845,9.530990600585938,0.040683623403310776,-0.020612338557839394,-0.006021386012434959
1.410883903503418,1.1480101346969604,8.782764434814453,0.035639625042676926,-0.06845181435346603,0.010663961991667747
1.5651757717132568,1.114749789237976,8.880247116088867,-0.0018151424592360854,-0.04054399952292442,0.011170106939971447
1.491424798965454,1.092953085899353,9.462900161743164,-0.02768092229962349,0.017749998718500137,-0.0033684854861348867
1.461018443107605,1.121127963066101,9.343266487121582,0.028675759211182594,-0.0073303827084600925,-0.0026179938577115536
1.5595637559890747,1.1550681591033936,8.973917961120605,0.018413223326206207,-0.025935592129826546,0.0020769417751580477
1.6109145879745483,1.1667710542678833,9.01682186126709,-0.0205948855727911,-0.011536626145243645,-0.0026179938577115536
1.5558862686157227,1.141469120979309,9.108596801757812,-0.02666863054037094,0.0075747291557490826,-0.006702064536511898
1.5795601606369019,1.1058242321014404,9.307680130004883,-0.008848818950355053,0.014625859446823597,0.002722713630646467
1.5801539421081543,1.1157170534133911,9.242154121398926,0.011972958222031593,-0.011170106939971447,0.00996582955121994
1.5238231420516968,1.1271039247512817,9.04670238494873,-0.01492256484925747,0.002234021434560418,0.008866272866725922
1.486780047416687,1.1535167694091797,9.154077529907227,-0.023317597806453705,-0.0019024088978767395,0.013561207801103592
1.4723190069198608,1.1156595945358276,9.155081748962402,-0.016353735700249672,-0.017645278945565224,0.016283921897411346
1.5540858507156372,1.0510354042053223,9.139281272888184,-0.01014036312699318,-0.04433136433362961,0.023666664958000183
1.524340271949768,1.0513226985931396,9.156211853027344,-0.011379546485841274,-0.025848325341939926,0.020577432587742805
1.5528217554092407,1.0858662128448486,9.29653263092041,-0.008918632753193378,6.981316983001307e-05,0.011536626145243645
1.522951602935791,1.1185805797576904,9.20691204071045,0.0016929693520069122,-0.02312561310827732,0.007731808349490166
1.543101191520691,1.116904616355896,8.94139575958252,-0.01408480666577816,-0.028501227498054504,0.007557275705039501
1.5192358493804932,1.090606689453125,9.095629692077637,-0.039217546582221985,0.002949606394395232,0.003996803890913725
1.4422862529754639,1.1051729917526245,9.385116577148438,-0.02200860157608986,0.002827433403581381,0.002286381321027875
1.4652035236358643,1.0973200798034668,9.332033157348633,0.004869468510150909,-0.016528267413377762,0.008342674002051353
1.5948543548583984,1.0776588916778564,9.17136287689209,0.0052534411661326885,-0.01235693134367466,0.011414453387260437
1.3095037937164307,1.1216930150985718,9.5322265625,0.09241518378257751,-0.3412991464138031,0.013369222171604633
1.7962929010391235,1.1224209070205688,8.968755722045898,0.1152091845870018,-0.4127179980278015,0.025097833946347237
1.9737415313720703,1.1314326524734497,8.553352355957031,0.0031590459402650595,0.05475097894668579,0.01211258489638567
1.5638350248336792,1.1224783658981323,9.231773376464844,-0.06956882029771805,0.31145399808883667,-0.004188789986073971
1.504966378211975,1.0029981136322021,9.477869987487793,-0.039968039840459824,0.2582912743091583,-0.0018151424592360854
1.460913062095642,1.1076821088790894,9.3123140335083,0.03984586521983147,-0.1137780100107193,-0.0008203047327697277
1.8287869691848755,1.1838656663894653,8.807300567626953,-0.008464846760034561,0.03649483621120453,-0.013299409300088882
1.6480438709259033,1.1374086141586304,9.515008926391602,-0.0031241392716765404,0.05248204991221428,-0.015289084054529667
1.5426511764526367,1.1252460479736328,9.136608123779297,0.031014500185847282,-0.01788962446153164,-0.011850785464048386
1.507360577583313,1.1227177381515503,8.826723098754883,-0.006143558770418167,0.007888888008892536,-0.0103672556579113
1.597870945930481,1.0811352729797363,9.011889457702637,-0.021031217649579048,0.012985249981284142,-0.003979350905865431
1.5963770151138306,1.1198638677597046,9.39519214630127,-0.012374384328722954,-0.012688543647527695,0.0018500490114092827
1.6267929077148438,1.0910568237304688,9.320465087890625,0.020472712814807892,0.009581857360899448,-0.006597344763576984
1.554009199142456,1.0891989469528198,9.099115371704102,0.02436479553580284,0.020839231088757515,-0.017208946868777275
1.5627528429031372,1.0826866626739502,8.971982955932617,0.011746065691113472,-0.00041887903353199363,-0.014800392091274261
1.5717071294784546,1.140070915222168,9.051068305969238,-0.002373647876083851,0.00015707963029854,-0.00823795422911644
1.5203180313110352,1.1515727043151855,9.230271339416504,-0.009040805511176586,0.013316862285137177,-0.009878563694655895
1.460127830505371,1.1449934244155884,9.31155776977539,0.005148721393197775,0.018936822190880775,-0.006806783843785524
1.506460428237915,1.1291916370391846,9.181131362915039,0.018832102417945862,-0.00823795422911644,-0.003577925032004714
1.5849231481552124,1.0526537895202637,9.057600975036621,0.005689773242920637,-0.0030717793852090836,-0.0034382985904812813
1.561230182647705,1.0654675960540771,9.211441993713379,-0.002548180753365159,0.018587756901979446,-0.01120501384139061
1.505722999572754,1.1015913486480713,9.324246406555176,0.009110618382692337,0.004607669077813625,-0.013473941944539547
1.554421067237854,1.1051921844482422,9.182126998901367,0.014521139673888683,-0.025621432811021805,-0.0017627825727686286
1.5676369667053223,1.1219803094863892,9.06593132019043,0.013055062852799892,-0.007295476272702217,-0.0003665191470645368
1.575853943824768,1.0249673128128052,9.294635772705078,-0.004764748737215996,0.032794736325740814,-0.009878563694655895
1.5837355852127075,1.0359997749328613,9.324390411376953,0.024993114173412323,0.014294246211647987,-0.016580628231167793
1.4861479997634888,1.1534305810928345,8.934672355651855,0.028134707361459732,-0.0008552113431505859,-0.018762288615107536
1.5923739671707153,1.165401577949524,8.996011734008789,0.0007853981805965304,0.02506292797625065,-0.01523672416806221
1.5799815654754639,1.211925745010376,9.128592491149902,-0.0013788101496174932,0.04195771366357803,-0.01310742273926735
1.6162010431289673,1.1199500560760498,9.178267478942871,0.006370451766997576,0.03202679008245468,-0.005969026125967503
1.5629347562789917,1.1309058666229248,9.027442932128906,0.01846558414399624,0.006387905217707157,-0.006702064536511898
1.5567768812179565,1.102932095527649,9.172560691833496,0.0010122909443452954,0.0768992081284523,-0.016179202124476433
1.4446804523468018,1.086268424987793,8.555832862854004,0.008045967668294907,0.10190977156162262,-0.01705186627805233
