accX,accY,accZ,gyroX,gyroY,gyroZ
0.20253987610340118,9.780179023742676,0.6565954089164734,-0.13173745572566986,-0.009337511844933033,-0.03684389963746071
0.19559669494628906,9.804075241088867,0.6976320147514343,-0.07744026184082031,0.0023561944253742695,-0.03471459820866585
0.09127654135227203,9.837525367736816,0.7422982454299927,-0.029530970379710197,0.0034208453726023436,-0.023003440350294113
0.0925406813621521,9.868919372558594,0.7752233147621155,0.017872171476483345,0.014067353680729866,-0.0063355453312397
0.20382316410541534,9.840197563171387,0.5202121138572693,0.026633724570274353,-0.002146754879504442,-0.008185594342648983
0.1871020644903183,9.957819938659668,0.49857813119888306,0.01633628085255623,-0.015184364281594753,-0.0190066359937191
0.2993518114089966,9.737707138061523,0.3588525056838989,-0.009093165397644043,-0.04511675983667374,-0.01837831735610962
0.29891127347946167,9.849200248718262,0.3868359327316284,-0.024870941415429115,-0.023003440350294113,-0.0339815616607666
0.18277335166931152,9.831692695617676,0.404792457818985,-0.037629298865795135,-0.012915436178445816,-0.03223622962832451
0.30828696489334106,9.825860977172852,0.1829553097486496,-0.06944665312767029,0.03384193405508995,-0.05084143951535225
0.12200850993394852,9.91731071472168,0.3455790579319,-0.14126694202423096,0.00839503388851881,-0.058259088546037674
0.05914635583758354,9.870450019836426,0.8924242854118347,-0.08388052135705948,-0.07353071868419647,-0.028728120028972626
0.12651918828487396,9.937785148620605,0.4711884558200836,-0.05324999615550041,-0.03269001841545105,-0.009651671163737774
0.2799587845802307,9.904123306274414,0.9029396176338196,-0.07681193947792053,-0.05838126316666603,-0.04283038154244423
0.11570697277784348,9.921552658081055,0.5780656337738037,-0.02918190509080887,-0.0950506329536438,-0.07190756499767303
-0.3109205961227417,9.851009368896484,0.5383793115615845,-0.027262043207883835,0.012217304669320583,-0.04372049868106842
-0.40065526962280273,9.901679992675781,0.6542204022407532,-0.01811651699244976,0.038292523473501205,0.03597123548388481
0.14372870326042175,9.790733337402344,0.8546724915504456,0.003909537568688393,0.030857421457767487,0.06859143823385239
0.2597229778766632,9.763343811035156,0.8493382334709167,0.00022689280740451068,0.0009948377264663577,0.054855696856975555
0.15361197292804718,9.818601608276367,0.7092199921607971,-0.009005898609757423,-0.02281145378947258,0.027227135375142097
0.1727464348077774,9.86458969116211,0.19782808423042297,-0.06572909653186798,-0.03003711625933647,0.03897320106625557
0.4266371428966522,9.721024513244629,-0.029659369960427284,-0.19607028365135193,-0.049410272389650345,0.027576202526688576
0.2336740791797638,9.802742004394531,0.4927075505256653,-0.2542421221733093,0.020385446026921272,0.008709193207323551
0.030770279467105865,9.686767578125,0.8727726936340332,-0.2540675699710846,-0.048956483602523804,0.03015928901731968
0.1658702939748764,9.934529304504395,0.5150215029716492,-0.2655867636203766,-0.019722219556570053,0.022130774334073067
0.17032350599765778,9.860318183898926,0.49067726731300354,-0.31011009216308594,0.017121680080890656,-0.01589994877576828
-0.07445009052753448,9.89615535736084,0.5822698473930359,-0.3687182664871216,0.04305727407336235,-0.012531463988125324
0.17921078205108643,9.75948429107666,0.6622840762138367,-0.4360356032848358,0.022916173562407494,0.0049916417337954044
0.31449273228645325,9.747838973999023,1.1303025484085083,-0.4243069887161255,0.08761552721261978,0.011676252819597721
0.1650371104478836,9.727622032165527,1.3291170597076416,-0.4009195864200592,0.09054768085479736,0.012287117540836334
0.3985387980937958,9.714099884033203,1.469694972038269,-0.36625733971595764,0.04368559271097183,0.01825614459812641
-0.04587290436029434,9.811256408691406,1.4884942770004272,-0.37339574098587036,0.08752825856208801,0.029775317758321762
0.03549164533615112,9.8653564453125,1.6467318534851074,-0.29071947932243347,0.09808750450611115,0.08765043318271637
-0.06607996672391891,9.919224739074707,1.7498644590377808,-0.2177123725414276,0.055658549070358276,0.12939870357513428
-0.4165240526199341,9.798663139343262,1.9633123874664307,-0.20947441458702087,-0.012374384328722954,0.1390852928161621
-0.3754395544528961,10.09642505645752,1.8616067171096802,-0.153239905834198,-0.03251548483967781,0.2266659140586853
-0.1317960023880005,9.970614433288574,1.745507001876831,-0.10779153555631638,0.05324999615550041,0.2608918249607086
0.4131338596343994,9.699610710144043,1.7773882150650024,-0.03799581900238991,0.11672762036323547,0.275954008102417
0.8739601969718933,9.429553031921387,1.4060379266738892,-0.13730505108833313,0.08028514683246613,0.18236945569515228
0.7657710313796997,9.523721694946289,1.7851645946502686,-0.1526813954114914,0.05859070271253586,0.12095131725072861
0.9547309875488281,9.43132495880127,1.92183518409729,-0.12140510231256485,0.07202973961830139,0.055204764008522034
0.7522389888763428,9.769856452941895,1.639520525932312,-0.10808824002742767,0.0636521577835083,-0.016266468912363052
0.5298463702201843,9.648835182189941,1.5101953744888306,-0.1469043642282486,0.02755874954164028,-0.03131120651960373
0.6930064558982849,9.685235023498535,1.5776256322860718,-0.18409733474254608,-0.011746065691113472,-0.02816961333155632
0.6758831143379211,9.675312995910645,1.6825108528137207,-0.22277382016181946,-0.009477137587964535,-0.06794566661119461
0.5720226168632507,9.636700630187988,1.218313455581665,-0.28553587198257446,-0.09374163299798965,-0.09096655994653702
0.28111758828163147,9.54128646850586,1.8033796548843384,-0.3794171214103699,-0.08705702424049377,-0.07798130810260773
0.2079412043094635,9.629441261291504,2.2969396114349365,-0.36278414726257324,-0.12781046330928802,-0.0797615498304367
0.2956647574901581,9.88371467590332,3.354027509689331,-0.1425759494304657,0.07745771110057831,-0.030281461775302887
0.9987268447875977,9.534927368164062,1.9383169412612915,0.19505800306797028,0.07988371700048447,0.006894050631672144
1.0167025327682495,9.116288185119629,1.802000641822815,0.176854208111763,0.14910347759723663,-0.08623671531677246
-0.24592281877994537,9.647857666015625,2.1841726303100586,0.12889257073402405,0.15016812086105347,-0.07672467082738876
-0.40782830119132996,9.848740577697754,2.251526355743408,0.052551861852407455,0.012583823874592781,0.04244640842080116
0.6154534816741943,9.542196273803711,2.1571085453033447,0.023369958624243736,0.01961750164628029,0.026965336874127388
0.6169857382774353,9.62356948852539,2.319655656814575,0.036826446652412415,0.05605997517704964,-0.038065630942583084
0.33674925565719604,9.655776977539062,2.611269474029541,0.2154085338115692,-0.03951425477862358,-0.08531169593334198
-0.0527203194797039,9.730600357055664,1.8843324184417725,0.22385592758655548,-0.04410447180271149,-0.07337363809347153
0.28581979870796204,9.567487716674805,2.0682549476623535,0.057246800512075424,0.04956734925508499,-0.06892304867506027
-0.24266669154167175,9.63733196258545,2.132323741912842,0.05976007506251335,0.013456488028168678,-0.029688050970435143
0.2933758795261383,9.618254661560059,1.868272066116333,-0.012339477427303791,-0.036390114575624466,-0.0682598277926445
-0.005353434942662716,9.718667984008789,2.012096643447876,0.018151424825191498,-0.03499384969472885,-0.06455972790718079
0.4103565812110901,9.535530090332031,1.2739930152893066,-0.01589994877576828,-0.007138396613299847,-0.06475171446800232
0.7367245554924011,9.6030855178833,1.7612321376800537,-0.07255333662033081,0.08707447350025177,-0.1431169956922531
0.9438421726226807,9.437233924865723,2.2249984741210938,-0.03684389963746071,0.07677703350782394,-0.30085986852645874
0.9189424514770508,9.650290489196777,2.080963373184204,-0.03989822790026665,0.10751228034496307,-0.4436452388763428
0.16443376243114471,9.772116661071777,1.7658768892288208,-0.09407324343919754,0.038327429443597794,-0.4950975477695465
-0.5563741326332092,9.668638229370117,1.4949681758880615,-0.18453365564346313,0.09630727022886276,-0.5147150754928589
-1.0248236656188965,9.581518173217773,1.4989904165267944,-0.3171437680721283,0.00457276264205575,-0.41287508606910706
-0.9026044011116028,9.628310203552246,1.9032082557678223,-0.4250923991203308,-0.37889352440834045,-0.3282789885997772
-1.3987116813659668,9.784957885742188,2.2499845027923584,-0.46125560998916626,-0.5034576654434204,-0.2597748041152954
-1.553338885307312,9.694907188415527,2.640890598297119,-0.4266282916069031,-0.5664815306663513,-0.10147344321012497
-0.9860854744911194,9.375655174255371,2.671440601348877,-0.4288274049758911,-0.5193401575088501,0.056932639330625534
-0.38748717308044434,9.447845458984375,2.7702252864837646,-0.4254763722419739,-0.4571715295314789,0.11524409055709839
0.09790369123220444,9.512681007385254,2.9568867683410645,-0.3237585723400116,-0.38926076889038086,0.06188937649130821
0.6226839423179626,9.577984809875488,3.0748634338378906,-0.13262757658958435,-0.10896090418100357,-0.04476769641041756
0.6515005826950073,9.48524284362793,3.761060953140259,0.024155355989933014,0.07428121566772461,-0.1607099175453186
-0.2051064670085907,9.445261001586914,3.7419168949127197,0.20355774462223053,0.16205382347106934,-0.1874832659959793
-0.6245322823524475,9.663017272949219,1.6999022960662842,0.25675538182258606,0.015533430501818657,-0.10545279085636139
-0.6691793203353882,9.602080345153809,1.4993256330490112,0.11510446667671204,0.1374097764492035,-0.07377506792545319
-0.6321650147438049,9.760910987854004,1.460357666015625,-0.048921577632427216,0.2531774640083313,-0.03232349827885628
-0.21514295041561127,9.715968132019043,1.5836877822875977,-0.18305012583732605,0.4562465250492096,-0.0200189258903265
-0.5361670851707458,9.615957260131836,2.148815155029297,-0.3818605840206146,-0.025272367522120476,-0.007365289609879255
-2.2323343753814697,10.792390823364258,2.8635799884796143,-0.07552039623260498,-0.25996679067611694,-0.21355848014354706
-0.9439858198165894,9.648038864135742,2.2673280239105225,0.0627794936299324,-0.1284387856721878,0.01855284906923771
0.3136308193206787,8.976274490356445,3.020246982574463,0.026598818600177765,0.12231267243623734,0.018849555402994156
-0.7604271769523621,9.3378267288208,3.3146283626556396,0.06476917117834091,0.14463543891906738,-0.05447172746062279
-1.3264163732528687,9.604215621948242,3.166369915008545,0.13463470339775085,0.1368338167667389,-0.011990412138402462
-0.979745626449585,9.591574668884277,3.4544785022735596,0.23054054379463196,0.1327846497297287,0.006702064536511898
-0.5611242651939392,9.331879615783691,3.417071580886841,0.3516140282154083,0.043301619589328766,0.004660028964281082
-0.06089891120791435,8.76787281036377,3.3142166137695312,0.33887311816215515,-0.17032667994499207,-0.05585053563117981
-0.8079376816749573,8.909714698791504,2.340561866760254,0.22963297367095947,-0.25733134150505066,-0.09011135250329971
0.5184212327003479,8.975095748901367,2.144026756286621,0.4581663906574249,0.5622578263282776,-0.03296926990151405
-0.9783090949058533,8.792025566101074,1.8326655626296997,0.41427135467529297,0.9506983160972595,-0.10567968338727951
-2.201669454574585,10.016860961914062,2.1403396129608154,0.24230405688285828,1.0262012481689453,0.15791739523410797
-3.5317633152008057,10.607529640197754,1.9559382200241089,0.15627677738666534,0.7264583706855774,0.5436351299285889
-3.084622383117676,10.524622917175293,0.49749594926834106,-0.014503685757517815,0.2816961407661438,1.0413856506347656
-1.6434470415115356,10.323529243469238,-0.31670498847961426,-0.3680550456047058,0.33047810196876526,1.3547245264053345
0.9787496328353882,9.416951179504395,-0.5722525119781494,-0.6878517270088196,0.4438197612762451,1.2435121536254883
8.005290985107422,9.840877532958984,0.49446967244148254,-0.6171309947967529,2.042384386062622,-0.18184585869312286
0.07755298167467117,8.156088829040527,7.569670677185059,0.12388347089290619,1.9417310953140259,-0.02528982050716877
0.6111151576042175,7.2061448097229,7.3010125160217285,0.739164412021637,0.486196368932724,-0.45551347732543945
-1.0172483921051025,9.477753639221191,4.4037699699401855,0.6135355830192566,-0.7463027834892273,-0.6444278955459595
-1.817783236503601,12.08385181427002,2.046036720275879,0.46006879210472107,-1.109854817390442,-0.5360953211784363
-0.9024799466133118,12.354924201965332,1.2598576545715332,0.6522993445396423,-0.7506835460662842,-0.23694589734077454
-0.3175477385520935,12.439668655395508,1.8613768815994263,0.9967749714851379,-0.5002113580703735,0.1448797732591629
-0.37713465094566345,8.173277854919434,1.7899338006973267,1.0602177381515503,-0.3513871431350708,0.519113302230835
-0.6694954037666321,8.08088207244873,0.660090982913971,1.5322245359420776,0.18477800488471985,0.5664815306663513
-0.48043006658554077,7.884565353393555,0.35992512106895447,1.0631150007247925,-0.04677482321858406,0.7279419302940369
0.2907135486602783,7.518731594085693,0.024143129587173462,0.7682415843009949,-0.3470761775970459,0.5826607346534729
1.1217025518417358,7.366077423095703,-1.2214833498001099,0.5014330744743347,-0.5740911364555359,0.23542746901512146
1.4753836393356323,7.909264087677002,-1.878672480583191,0.17809340357780457,-0.5096884965896606,-0.17402677237987518
0.9044814705848694,8.672746658325195,-1.5567481517791748,-0.05578072369098663,-0.47769662737846375,-0.4459141790866852
0.364531546831131,10.072521209716797,-2.3776912689208984,0.044226642698049545,-0.35156166553497314,-0.22883011400699615
0.48897257447242737,9.990199089050293,-1.7465509176254272,0.5394638180732727,0.12180652469396591,-0.16119861602783203
1.0770938396453857,10.0347318649292,-2.5220041275024414,0.89989173412323,0.510404109954834,-0.15543901920318604
0.648186981678009,9.960050582885742,-2.971740484237671,0.670450747013092,0.7317118048667908,-0.13959142565727234
0.2863943874835968,9.418051719665527,-2.560474157333374,0.19346974790096283,0.4953418970108032,-0.153239905834198
0.503021776676178,9.166498184204102,-1.9349842071533203,-0.09969320893287659,0.28499481081962585,-0.3067939877510071
-0.25254037976264954,10.100160598754883,-1.4634318351745605,0.3551570475101471,0.3874107301235199,0.01563815027475357
-0.44580990076065063,10.570045471191406,-1.5027732849121094,0.29485592246055603,0.5504943132400513,0.08072147518396378
-0.43581172823905945,10.385080337524414,-0.8603706955909729,0.12892746925354004,0.3332880735397339,0.08983209729194641
-0.38711366057395935,10.221565246582031,-0.9793433547019958,-0.01448623277246952,0.10562732815742493,0.04879940673708916
-0.2649519145488739,10.143065452575684,-1.1696728467941284,-0.0383099764585495,0.08314748853445053,0.08489281684160233
-0.07024587690830231,9.944230079650879,-0.8019905090332031,-0.024521876126527786,0.1341809183359146,0.18914133310317993
0.333828330039978,9.392309188842773,-0.6376045942306519,0.10332348942756653,0.16317082941532135,0.20729275047779083
0.47317084670066833,9.376564979553223,-0.790967583656311,0.17383478581905365,0.2330014556646347,0.19626227021217346
0.5136232972145081,9.561723709106445,-1.6340234279632568,0.2829004228115082,0.12632693350315094,0.13072516024112701
0.5332940220832825,9.519536972045898,-1.284565806388855,0.06347762793302536,0.06169738993048668,0.04288274049758911
0.43919235467910767,9.434561729431152,-1.0571740865707397,-0.10758209228515625,-0.11283553391695023,-0.061802107840776443
0.06574477255344391,9.351770401000977,-0.9221698641777039,-0.122714102268219,-0.27113690972328186,-0.14322172105312347
-0.1384902000427246,10.212859153747559,-1.2759275436401367,-0.0486772321164608,-0.09342747181653976,-0.028553586453199387
-0.2484702467918396,10.198963165283203,-1.287697434425354,-0.04527384042739868,-0.10393435508012772,0.08339183032512665
0.01824381574988365,10.01046371459961,-1.3111510276794434,-0.10320131480693817,-0.13465215265750885,0.10297442227602005
0.21982601284980774,10.00664234161377,-1.0665210485458374,-0.1947089284658432,-0.2575582265853882,0.0823969915509224
0.017209520563483238,9.871025085449219,-0.9710115790367126,-0.16943655908107758,-0.18540632724761963,0.15882496535778046
0.07798393815755844,9.762530326843262,-0.7134720683097839,-0.15416492521762848,-0.2278701812028885,0.19568631052970886
0.1437382847070694,9.682334899902344,-0.5350561738014221,-0.1667487621307373,-0.38669514656066895,0.17523105442523956
0.28015032410621643,9.962034225463867,-0.7535797357559204,-0.24532347917556763,-0.5300041437149048,0.1802750527858734
0.4492671489715576,9.930813789367676,-0.867275595664978,-0.2787814438343048,-0.5261120200157166,0.1944122314453125
0.7279617786407471,9.625763893127441,-0.930817723274231,-0.2605951130390167,-0.37779396772384644,0.17212437093257904
0.6284874677658081,9.55604362487793,-0.5668894648551941,-0.15385077893733978,-0.16741198301315308,0.1169545128941536
0.41155368089675903,9.782066345214844,-0.16267164051532745,-0.05307546257972717,-0.12842132151126862,0.11170107126235962
0.47056594491004944,9.726836204528809,-0.07258261740207672,0.005619960371404886,-0.20224875211715698,0.14768975973129272
0.7812375426292419,9.592158317565918,-0.27832114696502686,0.043703045696020126,-0.2678905725479126,0.12854349613189697
1.0854640007019043,9.46280574798584,-0.5640068650245667,0.069708451628685,-0.2059663087129593,0.06860889494419098
1.0470227003097534,9.402058601379395,-0.6983694434165955,0.14273302257061005,-0.08073893189430237,-0.027384215965867043
0.7598717212677002,9.772604942321777,-0.6717076301574707,0.14767231047153473,-0.07356562465429306,-0.04187044873833656
0.8059456944465637,9.764128684997559,-0.8021916151046753,0.0780511274933815,-0.149225652217865,-0.035185836255550385
0.9731280207633972,9.861007690429688,-0.7108958959579468,0.06270968168973923,-0.15791739523410797,-0.04749041050672531
0.792471170425415,9.867290496826172,-0.8979213833808899,0.11201523244380951,-0.12667599320411682,-0.08765043318271637
0.5265806913375854,9.955732345581055,-1.1518503427505493,0.11437142640352249,-0.0760439932346344,-0.0757647454738617
0.47607260942459106,9.879040718078613,-1.2021286487579346,0.061138883233070374,-0.07091272622346878,-0.06459463387727737
0.5632694363594055,9.86388111114502,-1.2327935695648193,0.036739181727170944,-0.018622662872076035,-0.0630587488412857
0.40891048312187195,9.78614616394043,-0.9817758798599243,0.04853760451078415,0.053564153611660004,-0.0651182308793068
0.3251134157180786,9.731624603271484,-0.7301836013793945,0.07824310660362244,-0.004450589418411255,-0.06391395628452301
0.31468427181243896,9.777153015136719,-1.0164439678192139,0.08854055404663086,-0.006422811653465033,-0.07208209484815598
0.31059497594833374,9.83433723449707,-1.0279169082641602,0.07473500072956085,-0.005951572675257921,-0.07822565734386444
0.19144994020462036,9.900627136230469,-1.0077673196792603,0.03295181691646576,-0.02848377265036106,-0.07970918715000153
0.13372094929218292,9.869444847106934,-1.0251587629318237,0.015062191523611546,-0.03476695716381073,-0.06834709644317627
-0.013455413281917572,9.986272811889648,-1.52089262008667,0.06169738993048668,0.06312856078147888,-0.046530477702617645
0.21819795668125153,9.716819763183594,-0.9861142039299011,-0.12400564551353455,-0.09723228961229324,0.0495498962700367
0.12187443673610687,9.841164588928223,-0.7381706833839417,-0.06260495632886887,-0.041172318160533905,0.06035348400473595
0.13583742082118988,9.80673599243164,-0.737605631351471,-0.019565140828490257,-0.029513517394661903,0.08344419300556183
0.19240762293338776,9.792869567871094,-0.8581106066703796,0.025132741779088974,-0.021816615015268326,0.10641272366046906
0.03218764811754227,9.826311111450195,-0.8820621967315674,0.03171263262629509,-0.021554816514253616,0.10175269842147827
0.6595833897590637,9.673762321472168,-1.0066660642623901,0.02555162087082863,0.02649409882724285,0.0705636590719223
0.5562783479690552,9.64894962310791,-0.8899438977241516,-0.00027925267932005227,0.01302015595138073,0.05169665068387985
0.8012434840202332,9.621175765991211,-0.7226466536521912,-0.04721115529537201,-0.04846779257059097,0.04014257341623306
0.8697847127914429,9.791681289672852,-0.8029865026473999,-0.021781709045171738,-0.06517059355974197,-0.011641345918178558
0.6602059006690979,9.810453414916992,-0.9248417615890503,-0.006597344763576984,-0.01860520988702774,-0.013386675156652927
0.6403340101242065,9.758124351501465,-0.896609365940094,0.0009773843921720982,-0.0018675023457035422,-0.005270894151180983
0.6425366997718811,9.609587669372559,-0.8099392652511597,0.022340213879942894,0.013299409300088882,-0.024923302233219147
0.5686803460121155,9.614309310913086,-0.8042123317718506,0.017331119626760483,-0.03073524869978428,-0.0728674978017807
0.4041891098022461,9.96937084197998,-1.3788973093032837,0.14552555978298187,0.22015583515167236,-0.06195918843150139
0.17296670377254486,10.06403636932373,-1.1382513046264648,0.14072589576244354,0.23940680921077728,-0.021956242620944977
0.4547259211540222,9.689085006713867,-0.9418405890464783,-0.031171580776572227,0.02122320421040058,-0.005846852902323008
0.5019108653068542,9.389579772949219,-0.7817834615707397,-0.15318754315376282,-0.16927948594093323,-0.09992010146379471
0.38774573802948,9.634612083435059,-0.6716310381889343,-0.18592992424964905,-0.23008675873279572,-0.14638076722621918
0.32948043942451477,9.766073226928711,-0.6932458877563477,-0.15358898043632507,-0.20181241631507874,-0.1414414793252945
0.45560699701309204,9.874617576599121,-0.7739017009735107,-0.03977605327963829,-0.0708429142832756,-0.09300859272480011
0.42547836899757385,9.996501922607422,-0.9484773278236389,0.0685565322637558,0.01687733456492424,-0.040858156979084015
0.4150300621986389,9.828523635864258,-0.9997611045837402,-0.022183135151863098,0.02267182618379593,0.0007504915702156723
0.424549400806427,9.662663459777832,-0.8770151734352112,-0.0469493567943573,-0.01851794309914112,-0.029164452105760574
0.5060288906097412,9.628338813781738,-0.8907004594802856,-0.008709193207323551,0.015515976585447788,-0.045692719519138336
0.38730520009994507,9.719482421875,-0.9328192472457886,0.062081363052129745,0.06719517707824707,-0.05314527451992035
0.3519667983055115,9.915423393249512,-1.1122885942459106,0.06499606370925903,0.09278170019388199,-0.023753931745886803
0.30063509941101074,9.874052047729492,-1.1640512943267822,0.04190535470843315,0.12828169763088226,-0.0005585053586401045
0.2855420708656311,9.839651107788086,-0.901273250579834,-0.10676179081201553,0.06572909653186798,-0.14699162542819977
0.14704228937625885,9.870920181274414,-0.8026800155639648,-0.048747044056653976,0.1140572652220726,-0.13486158847808838
0.020647594705224037,9.88957691192627,-0.6788614988327026,0.00905825849622488,0.1302190124988556,-0.09253735840320587
-0.005851428490132093,9.982719421386719,-0.7861695885658264,0.02506292797625065,0.10882128030061722,-0.08159413933753967
0.13299311697483063,9.811506271362305,-0.665511429309845,0.04848524555563927,0.09325294196605682,-0.06230825558304787
-0.10298897325992584,9.880496978759766,-0.9112522602081299,0.05141739919781685,0.0720122829079628,-0.06265731900930405
-0.23998519778251648,10.014276504516602,-1.5796176195144653,0.1088561862707138,0.044087015092372894,-0.029792770743370056
0.031364042311906815,9.996405601501465,-1.2572144269943237,-0.002827433403581381,0.21179570257663727,0.015062191523611546
0.06902004033327103,9.911660194396973,-0.8823015689849854,-0.04881685972213745,0.1486147791147232,0.027715828269720078
0.2475317120552063,9.567794799804688,-0.5392987132072449,-0.08012806624174118,0.013194689527153969,-0.029338983818888664
0.15037500858306885,9.671818733215332,-0.6725216507911682,-0.06330309063196182,-0.01665044017136097,-0.069708451628685
0.03473507612943649,9.805808067321777,-0.7282778024673462,0.0026529005263000727,0.01825614459812641,-0.05134758725762367
-0.17567694187164307,9.92371654510498,-0.8691239356994629,0.055030230432748795,0.06819001585245132,-0.017016960307955742
0.16519033908843994,9.897850036621094,-0.9771311283111572,0.08859290927648544,0.11362093687057495,0.015114551410079002
0.3771250545978546,9.78951644897461,-1.154809594154358,0.150325208902359,0.20928242802619934,0.019320795312523842
0.4772505760192871,9.698297500610352,-1.201036810874939,0.17041394114494324,0.2883807420730591,-0.008604473434388638
0.3031921088695526,9.748259544372559,-1.0996088981628418,0.1443212777376175,0.22860322892665863,-0.05429719388484955
0.2603071630001068,9.684412956237793,-1.3477152585983276,0.08018042892217636,0.1995958536863327,-0.06349507719278336
0.17198029160499573,9.73120403289795,-1.1604887247085571,0.05115560069680214,0.20284216105937958,-0.07361798733472824
0.09320148080587387,9.763726234436035,-1.180772304534912,0.03392919898033142,0.16580627858638763,-0.09752900153398514
-0.023855824023485184,9.785762786865234,-1.1831090450286865,-0.0006457717972807586,0.13575170934200287,-0.10890854150056839
-0.03376781940460205,9.746842384338379,-1.2413169145584106,0.00472984230145812,0.1593136489391327,-0.11281808465719223
-0.14934071898460388,9.841787338256836,-1.0696239471435547,0.0463733971118927,0.21647319197654724,-0.09985028952360153
-0.2598666548728943,9.836481094360352,-0.9493009448051453,0.04361577704548836,0.18037977814674377,-0.07354817539453506
-0.1901474893093109,9.83336067199707,-0.9663955569267273,0.010821041651070118,0.10234610736370087,-0.05803219601511955
-0.29896873235702515,9.932689666748047,-1.0449540615081787,-0.0008901178953237832,0.1062905490398407,-0.048031460493803024
-0.2907901406288147,9.986425399780273,-1.0788655281066895,0.02666863054037094,0.15488052368164062,-0.016894787549972534
-0.579454243183136,10.1563081741333,-1.7425094842910767,0.10936233401298523,-0.12246975302696228,-0.006300638429820538
-0.012172120623290539,10.199021339416504,-1.2320369482040405,-0.05998696759343147,0.033021628856658936,0.018709929659962654
-0.12876015901565552,9.445375442504883,-0.3632482588291168,-0.1491907387971878,-0.1382998824119568,0.019652407616376877
-0.05523901805281639,9.806716918945312,-0.6265625357627869,-0.11074113845825195,-0.135402649641037,-0.0031241392716765404
-0.000986411003395915,9.905752182006836,-0.9239224195480347,0.056932639330625534,-0.02378883771598339,0.08197811245918274
0.23491905629634857,9.770440101623535,-1.1078928709030151,0.05124286562204361,-0.025359634310007095,0.062430426478385925
0.26887843012809753,9.787343978881836,-1.1473779678344727,0.05160938575863838,-0.0055850534699857235,0.04712389037013054
0.2713300883769989,9.746613502502441,-1.164740800857544,0.04106759652495384,0.0014486232539638877,0.05028293654322624
0.2932896912097931,9.71582317352295,-1.1260122060775757,0.05899212881922722,-0.0012217304902151227,0.03611086308956146
0.26010605692863464,9.708775520324707,-1.2189550399780273,0.06808529049158096,0.020804325118660927,0.02281145378947258
0.2139650136232376,9.649657249450684,-1.1659666299819946,0.06881833076477051,0.03429571911692619,0.021013764664530754
0.2348615974187851,9.651975631713867,-1.2092633247375488,0.0915948823094368,0.03522074595093727,-0.018709929659962654
-0.039571363478899,9.66622543334961,-0.8773312568664551,-0.03157300502061844,-0.06663667410612106,-0.04075343906879425
-0.09425492584705353,10.07522201538086,-1.9231281280517578,-0.008168140426278114,0.007906341925263405,-0.03480186685919762
-0.1597411334514618,9.904228210449219,-1.1760222911834717,-0.116937056183815,0.03363249450922012,0.043737951666116714
-0.04547067731618881,9.90256118774414,-0.9254451394081116,-0.08616690337657928,-0.09772098809480667,-0.013543754816055298
0.35392045974731445,9.83767032623291,-0.8623818159103394,-0.06544984877109528,-0.10983356833457947,0.017924530431628227
0.015744268894195557,9.92834186553955,-0.9401838183403015,-0.052377332001924515,-0.13524556159973145,0.06147049739956856
0.0997711718082428,9.822681427001953,-1.0611006021499634,-0.039095375686883926,-0.09403833746910095,0.08082620054483414
0.03966713324189186,9.824789047241211,-0.77408367395401,0.018221236765384674,0.0019198621157556772,0.0015358896926045418
0.10170568525791168,9.805463790893555,-0.8705316781997681,-0.010925761424005032,-0.06518805027008057,-0.004712388850748539
0.2376963347196579,9.80890941619873,-0.8508704900741577,-0.02998475730419159,-0.07166321575641632,-0.021502455696463585
0.17300501465797424,9.826339721679688,-0.8347814679145813,0.004939281847327948,-0.01713913306593895,-0.03211405873298645
0.014614206738770008,9.854199409484863,-0.7317925095558167,0.04764748737215996,0.001745329238474369,-0.019634954631328583
0.019996371120214462,9.830782890319824,-0.7846947908401489,0.045867253094911575,-0.04668755829334259,-0.012339477427303791
-0.07153874635696411,9.761025428771973,-0.7210568785667419,0.01679006777703762,-0.1293638050556183,-0.01696459949016571
-0.029870059341192245,9.725180625915527,-0.8118162751197815,0.005881759338080883,-0.19917696714401245,-0.01912880875170231
0.007920019328594208,9.803556442260742,-0.9803585410118103,0.011728612706065178,-0.17816321551799774,-0.01630137488245964
0.0501154288649559,9.819051742553711,-1.0031033754348755,0.026546457782387733,-0.1042485162615776,-0.0046774824149906635
0.0709928646683693,9.861516952514648,-1.0323702096939087,0.04920083284378052,-0.03954916074872017,-0.015201817266643047
0.017611747607588768,9.818907737731934,-0.8536669611930847,0.06042329967021942,-0.018570303916931152,-0.014940018765628338
-0.06998730450868607,9.791653633117676,-0.9167014956474304,0.04944517835974693,-0.029932396486401558,-0.009494591504335403
-0.1417175829410553,10.031417846679688,-1.471849799156189,-0.010698867961764336,-0.07452555745840073,-0.03956661373376846
-0.19474436342716217,10.056825637817383,-1.4954183101654053,0.08815658092498779,0.19922932982444763,0.00769690191373229
-0.13531069457530975,9.866351127624512,-0.6429771780967712,0.028553586453199387,0.07531096041202545,0.07195992767810822
0.14006079733371735,9.46568775177002,-0.864565372467041,-0.10908307880163193,-0.13973106443881989,0.021624628454446793
0.23947761952877045,9.599811553955078,-0.840106189250946,-0.09625490754842758,-0.07134906202554703,-0.05291838198900223
-0.14410220086574554,9.79659366607666,-0.524569571018219,0.009913469664752483,-0.008656833320856094,-0.051138147711753845
-0.6262369751930237,9.937478065490723,-0.6638641953468323,0.051940999925136566,0.003490658476948738,-0.034435346722602844
-0.1575097292661667,9.956910133361816,-1.0665689706802368,0.09037315100431442,0.05345943570137024,0.007504915818572044
-0.06410714238882065,9.845685958862305,-1.1946203708648682,-0.031066861003637314,-0.006806783843785524,0.03338814899325371
0.024612393230199814,9.802589416503906,-1.0085430145263672,-0.022427480667829514,0.032218776643276215,0.05740387737751007
0.10501925647258759,9.683932304382324,-1.0119811296463013,-0.03202679008245468,0.03078760765492916,0.05705481395125389
-0.08817365765571594,9.952533721923828,-0.9085612297058105,0.005602506920695305,-0.0005585053586401045,-0.05628686770796776
-0.008801084943115711,9.743969917297363,-0.9744687676429749,-5.2359879191499203e-05,0.018186330795288086,0.02759365551173687
0.07324341684579849,9.757989883422852,-0.9865834712982178,0.010768681764602661,0.05900958180427551,0.022532200440764427
0.1002308577299118,9.736376762390137,-0.813597559928894,0.03090978041291237,0.06169738993048668,0.008761553093791008
0.0011204862967133522,9.794622421264648,-0.8899534940719604,0.013805554248392582,0.06548475474119186,-0.00472984230145812
0.014891933649778366,9.807694435119629,-0.9162896871566772,0.04459316283464432,0.09079203009605408,0.00015707963029854
0.10039366036653519,9.851509094238281,-0.8045666813850403,0.05523966997861862,0.06195918843150139,-0.00989601667970419
0.002930502872914076,9.887669563293457,-1.010075330734253,0.05005604401230812,0.03354522958397865,-0.04171336814761162
-0.15730862319469452,9.770727157592773,-0.9979032278060913,0.018046705052256584,0.016441000625491142,-0.020891591906547546
-0.010362104512751102,9.689621925354004,-0.9914580583572388,0.033283427357673645,0.045029494911432266,0.005602506920695305
-0.019086575135588646,9.85855770111084,-1.052625060081482,0.0070685832761228085,0.0699876993894577,-0.0006108652451075613
-0.17057250440120697,10.059046745300293,-0.833392858505249,-0.045692719519138336,0.0031415927223861217,0.019949113950133324
-0.04445553570985794,9.934022903442383,-0.9545873403549194,-0.05112069472670555,-0.03248057886958122,0.0455181859433651
0.15894626080989838,9.812817573547363,-1.0159363746643066,0.03726277872920036,0.11831586807966232,0.02267182618379593
0.1316332072019577,9.688702583312988,-1.0016286373138428,0.016179202124476433,0.06101670861244202,-0.004171337001025677
0.13418063521385193,9.721473693847656,-0.9998664855957031,0.01286307629197836,0.046303585171699524,-0.035988688468933105
-0.03301125019788742,9.74930477142334,-0.8488211035728455,0.023335052654147148,0.030543262138962746,-0.03378957509994507
-0.15114115178585052,10.049949645996094,-1.5446909666061401,0.011187560856342316,0.040334559977054596,-0.03188716620206833
-0.27786147594451904,9.865250587463379,-0.9173048138618469,-0.0423416867852211,0.0015882495790719986,0.01061160210520029
0.28371289372444153,9.70224380493164,-1.0073076486587524,-0.02272418700158596,-0.028710665181279182,-0.00045378561480902135
0.0684741660952568,9.884432792663574,-1.1203522682189941,-0.009599311277270317,0.021816615015268326,0.011972958222031593
-0.12416329234838486,10.026217460632324,-1.028683066368103,-0.025237461552023888,0.02024581842124462,0.04703662171959877
0.009059659205377102,9.958576202392578,-0.9278010129928589,-0.057560957968235016,-0.003926991019397974,0.06551966071128845
0.14188995957374573,9.711600303649902,-0.8044708967208862,-0.0431968979537487,-0.02267182618379593,0.052290063351392746
0.17540878057479858,9.682966232299805,-0.7228956818580627,-0.012531463988125324,-0.04092797264456749,0.03316125646233559
0.19417932629585266,9.654637336730957,-0.9694026708602905,0.005899212788790464,-0.010908307507634163,0.030595621094107628
0.1893717646598816,9.685196876525879,-0.8854811191558838,0.01408480666577816,0.014468779787421227,0.027227135375142097
0.3014970123767853,9.756016731262207,-0.8738740086555481,0.01342158205807209,-0.015219271183013916,0.008028514683246613
0.24371056258678436,9.74343490600586,-0.9481613039970398,0.009320057928562164,-0.03375466912984848,-0.014503685757517815
0.12471874803304672,9.665325164794922,-1.0251779556274414,0.014346606098115444,-0.01909390278160572,-0.041573744267225266
0.017161637544631958,9.811323165893555,-1.0246416330337524,0.022200588136911392,-0.009407324716448784,-0.04070107638835907
-0.03743573650717735,9.858901023864746,-1.0243256092071533,0.02082177810370922,-0.013997540809214115,-0.029338983818888664
-0.11472056061029434,9.925555229187012,-1.1106605529785156,0.008796459063887596,-0.02307325229048729,-0.03164282068610191
-0.18129852414131165,9.943856239318848,-1.391749382019043,0.06115633621811867,0.0049916417337954044,-0.02258456125855446
-0.15420573949813843,10.022635459899902,-1.4686224460601807,0.027838001027703285,0.0861319974064827,0.008604473434388638
-0.0038019921630620956,9.723705291748047,-0.9649590253829956,-0.04735078290104866,-0.01953023485839367,0.0262148454785347
0.04471410810947418,9.669740676879883,-1.1075671911239624,-0.07946483790874481,-0.06166248396039009,-0.04420918971300125
-0.11048761755228043,9.72651195526123,-0.9681097865104675,-0.08857546001672745,-0.06188937649130821,-0.018221236765384674
0.2476370632648468,9.711984634399414,-0.9953653812408447,-0.07152359187602997,-0.02272418700158596,-0.02410299703478813
0.0561583936214447,9.839699745178223,-0.6682121157646179,-0.03131120651960373,-0.00472984230145812,-0.0303861815482378
-0.017717091366648674,9.921380043029785,-0.7442615032196045,-0.004328416660428047,-0.033772122114896774,-0.023509584367275238
0.04981854557991028,9.902484893798828,-0.8056584000587463,-5.2359879191499203e-05,-0.03511602431535721,-0.017732545733451843
0.06863696873188019,9.894977569580078,-0.8849735260009766,0.006911503616720438,-0.0063355453312397,-0.007661995477974415
0.023855824023485184,9.890667915344238,-0.8071907162666321,0.0016929693520069122,-0.006056292448192835,-0.007627088576555252
-0.0219213105738163,9.870796203613281,-0.8466280102729797,-0.0010646508308127522,-0.043214350938797,-0.006649704650044441
-0.08296387642621994,9.788022994995117,-1.4170225858688354,0.06373942643404007,0.03733259439468384,-0.0060388389974832535
-0.1593484878540039,10.029999732971191,-1.0647588968276978,0.07047639787197113,0.11224212497472763,0.05625196173787117
9.576806041877717e-05,9.733223915100098,-1.085425615310669,-0.008674286305904388,-0.005829399451613426,0.0452214814722538
0.04779784008860588,9.526834487915039,-1.0061200857162476,-0.07696902006864548,-0.04684463515877724,-0.001029744278639555
-0.003236960619688034,9.659032821655273,-0.8531210422515869,-0.03609341010451317,0.00040142572834156454,-0.014678219333291054
-0.1132744625210762,9.76419734954834,-0.8054476976394653,0.023806290701031685,0.019547687843441963,0.0062831854447722435
0.17196112871170044,9.753881454467773,-0.9709157943725586,0.04084070399403572,0.03750712424516678,0.0026529005263000727
0.07590577006340027,9.88695240020752,-0.9584755301475525,0.0040317103266716,-0.0024085543118417263,-0.02860594540834427
-0.013024456799030304,9.9743013381958,-0.9729077816009521,0.02258456125855446,0.04345869645476341,-0.014695672318339348
-0.051954176276922226,9.891146659851074,-0.879399836063385,0.031031953170895576,0.05112069472670555,0.004153883550316095
-0.04296155273914337,9.793472290039062,-0.9154947996139526,0.028152160346508026,0.027384215965867043,0.009669124148786068
0.0376751571893692,9.732861518859863,-0.8865441083908081,0.022689281031489372,0.010576695203781128,-0.0016929693520069122
0.061578866094350815,9.624000549316406,-0.8773025274276733,0.019250981509685516,-0.014538592658936977,-0.020664697512984276
0.030253130942583084,9.601400375366211,-0.8984385132789612,0.017208946868777275,-0.02298598550260067,-0.024923302233219147
-0.07897992432117462,9.578177452087402,-1.1485847234725952,0.06698573380708694,-0.025359634310007095,-0.03689625859260559
-0.00823605339974165,9.923487663269043,-1.250922441482544,0.04368559271097183,0.11803662031888962,-0.004660028964281082
-0.04675396904349327,9.759416580200195,-0.8543564677238464,-0.008726646192371845,-0.013945180922746658,-0.014451325871050358
0.050393156707286835,9.818476676940918,-1.0753508806228638,-0.05607742816209793,-0.07250097393989563,-0.054367005825042725
-0.007192181423306465,9.81601619720459,-1.0347164869308472,-0.06040584668517113,-0.05230751633644104,-0.06633996218442917
-0.07050444930791855,9.819463729858398,-0.9294194579124451,-0.0403171069920063,-0.03958406671881676,-0.07079055160284042
-0.5748956799507141,10.037479400634766,-0.934284508228302,-0.007609635591506958,-0.02324778586626053,-0.05092870816588402
-0.051082685589790344,9.896681785583496,-0.9145467281341553,-0.0008726646192371845,-0.022846359759569168,-0.03733259439468384
-0.09627563506364822,9.831597328186035,-0.9822068214416504,-0.005951572675257921,-0.0018500490114092827,-0.015795229002833366
-0.08664137125015259,9.71342945098877,-0.8645941019058228,0.0019896754529327154,-0.006422811653465033,-0.0044156829826533794
0.12582965195178986,9.66202163696289,-0.8852895498275757,0.03511602431535721,-0.015777776017785072,-0.024591689929366112
0.11190498620271683,9.737410545349121,-1.0196425914764404,0.055518921464681625,-8.726646046852693e-05,-0.04602433368563652
0.0005171475349925458,9.77655029296875,-1.1022233963012695,0.05281366407871246,0.024347342550754547,-0.0469493567943573
0.02378878742456436,9.506915092468262,-0.8719874024391174,0.05195845291018486,-0.004380776546895504,-0.05792747810482979
-0.018090587109327316,9.419153213500977,-0.9293811917304993,0.05792747810482979,-0.03827507048845291,-0.09436995536088943
0.08104851096868515,9.386917114257812,-0.9435644149780273,0.06239552050828934,-0.06572909653186798,-0.11194542050361633
0.11779472231864929,9.771866798400879,-1.2160532474517822,0.0061610122211277485,0.023404864594340324,-0.2474353313446045
-0.26925191283226013,10.000627517700195,-1.2377064228057861,0.03314380347728729,0.08105309307575226,-0.256406307220459
-0.6189011335372925,10.232348442077637,-1.1671828031539917,0.014625859446823597,0.06946410238742828,-0.21821852028369904
-0.7272818088531494,10.26475715637207,-1.1407891511917114,-0.04180063679814339,0.01771509274840355,-0.18362608551979065
-0.8790167570114136,10.261740684509277,-1.0148829221725464,-0.052953287959098816,-0.00024434609804302454,-0.15700982511043549
-1.0333086252212524,10.137643814086914,-0.8854811191558838,-0.04283038154244423,-0.002286381321027875,-0.0924500897526741
-1.1289714574813843,10.0619478225708,-0.8982948660850525,-0.016667895019054413,0.017470745369791985,-0.02139773592352867
-0.39182546734809875,9.702292442321777,-0.909825325012207,0.029513517394661903,-0.02617993950843811,0.08162904530763626
-0.2589568495750427,9.815383911132812,-1.0667221546173096,-0.010943214409053326,-0.030264008790254593,0.05602506920695305
-0.2756204903125763,9.863842010498047,-1.0276200771331787,-0.0006632251315750182,0.0015009831404313445,0.05679301545023918
-0.15135185420513153,9.83966064453125,-1.0909323692321777,0.01377064734697342,0.0007853981805965304,0.0630936548113823
-0.23366449773311615,9.79628849029541,-1.1436430215835571,-0.008255407214164734,-0.005881759338080883,0.03790855035185814
-0.3408481180667877,9.82387924194336,-1.0834048986434937,-0.022654373198747635,-0.009005898609757423,0.028012534603476524
-0.42973044514656067,9.893702507019043,-1.0557376146316528,-0.019914206117391586,-0.022741639986634254,0.04188790172338486
-0.44827115535736084,9.887621879577637,-1.0708593130111694,-0.01661553420126438,-0.019914206117391586,0.05324999615550041
-0.4370088279247284,9.882144927978516,-1.1217600107192993,-0.021938787773251534,-0.01665044017136097,0.06342526525259018
-0.51936936378479,9.877862930297852,-1.1117044687271118,-0.05864306166768074,-0.03504621237516403,0.08070402592420578
-0.47878286242485046,9.827049255371094,-1.0103530883789062,-0.06928957253694534,-0.04530874639749527,0.10217157751321793
-0.3123379647731781,9.731844902038574,-0.9424535036087036,-0.032847095280885696,-0.029530970379710197,0.10602875053882599
-0.2040625959634781,9.802302360534668,-1.0406253337860107,-0.016004668548703194,-0.0017802357906475663,0.10955431312322617
-0.1722867488861084,9.793951034545898,-1.0828303098678589,-0.06290166825056076,-0.011903145350515842,0.1094321459531784
-0.04620809108018875,9.787334442138672,-0.7976617813110352,-0.09416051208972931,-0.05234242230653763,0.0918741300702095
0.09951259195804596,9.640607833862305,-0.5944802761077881,-0.05726425349712372,-0.08482300490140915,0.06485643237829208
0.05504748225212097,9.725342750549316,-0.739022970199585,0.0036826448049396276,-0.08688248693943024,0.015515976585447788
-0.12966038286685944,9.817060470581055,-1.0054305791854858,-0.022881265729665756,-0.08222246170043945,0.030351275578141212
0.07541734725236893,9.559290885925293,-0.6819931268692017,-0.03176499158143997,-0.0483979806303978,0.034260813146829605
-0.002633621683344245,9.609760284423828,-0.7369065284729004,-0.010506882332265377,-0.05550146847963333,0.006265731994062662
-0.05374503880739212,9.926667213439941,-0.9109266996383667,0.013700834475457668,-0.036302849650382996,0.004642575979232788
-0.026671405881643295,9.845044136047363,-0.9177166223526001,0.036826446652412415,-0.010262535884976387,-0.0026354470755904913
-0.15900371968746185,9.926350593566895,-1.053889274597168,0.012566370889544487,-0.042411502450704575,-0.003926991019397974
-0.11007581651210785,9.909590721130371,-1.0477313995361328,-0.011327186599373817,-0.033737216144800186,0.011746065691113472
-0.06805278360843658,9.776148796081543,-0.8377981781959534,0.018797196447849274,-0.019425515085458755,0.015620696358382702
-0.16819745302200317,9.772768020629883,-1.1358188390731812,0.028937559574842453,-0.008936085738241673,0.012461651116609573
-0.30697494745254517,10.024828910827637,-0.9309326410293579,-0.04787437990307808,0.043737951666116714,0.04749041050672531
0.3458280563354492,9.665008544921875,-0.709775447845459,-0.0037000980228185654,0.019774580374360085,0.03480186685919762
0.2918148636817932,9.75992488861084,-0.6491638422012329,-0.0006457717972807586,-0.0014137167017906904,0.0014660765882581472
0.23859655857086182,9.793415069580078,-0.7610496282577515,-0.025813419371843338,-0.014381512999534607,-0.007016223389655352
0.14649640023708344,9.754762649536133,-0.6948835253715515,-0.02382374368607998,-0.010541788302361965,-0.008168140426278114
0.18883547186851501,9.73766803741455,-0.6867815256118774,0.004956734832376242,-0.0021816615480929613,-0.01647590845823288
0.15381309390068054,9.806410789489746,-0.8063192367553711,0.02188642881810665,0.007801621686667204,-0.029792770743370056
-0.003256114199757576,9.874137878417969,-0.8365148901939392,0.007016223389655352,0.014102260582149029,-0.02427753061056137
0.06413587182760239,9.698010444641113,-0.7017021775245667,-0.026738444343209267,-0.022113321349024773,-0.014957471750676632
0.1966022551059723,9.641698837280273,-0.9653708338737488,0.11105529963970184,0.11864747852087021,-0.04040437191724777
-0.06418375670909882,9.826875686645508,-0.7850012183189392,0.08260643482208252,0.09775589406490326,-0.02900737151503563
-0.07606857270002365,9.850139617919922,-0.8362945914268494,-0.012147491797804832,-0.0006632251315750182,-0.029042279347777367
0.026048913598060608,9.912464141845703,-0.8115481734275818,-0.16432274878025055,-0.11974704265594482,-0.06726498901844025
-0.11468225717544556,10.052141189575195,-0.39161476492881775,-0.09430013597011566,-0.07319910824298859,-0.05775294452905655
-0.19651606678962708,10.083908081054688,-0.4157100021839142,0.05251695588231087,0.005899212788790464,0.010088003240525723
-0.5454757213592529,10.067234992980957,-0.7562516927719116,0.07756242901086807,0.040456730872392654,0.050736721605062485
0.056886229664087296,9.832181930541992,-0.7154544591903687,0.015830136835575104,-0.010890854522585869,0.037664204835891724
0.07602068781852722,9.79922866821289,-0.6749829053878784,-0.01687733456492424,-0.06283185631036758,0.020490165799856186
0.10890743881464005,9.82707691192627,-0.8635310530662537,0.021380282938480377,-0.015777776017785072,0.011833332479000092
0.07421067357063293,9.810969352722168,-0.7992898225784302,0.03977605327963829,0.03230604529380798,0.03530801087617874
0.12590627372264862,9.690587997436523,-0.792921245098114,0.027454029768705368,0.004607669077813625,0.034086279571056366
0.24911189079284668,9.63516902923584,-0.8182423114776611,-0.00563741335645318,-0.027209682390093803,0.0032463124953210354
0.19522319734096527,9.68761920928955,-0.8335939645767212,-0.03778637945652008,-0.033457960933446884,-0.022794000804424286
0.09884221851825714,9.726243019104004,-0.7608006596565247,-0.04021238535642624,-0.01851794309914112,-0.03836233541369438
0.023827094584703445,9.826550483703613,-0.6529083251953125,-0.005061454605311155,-0.011746065691113472,-0.03951425477862358
-0.002499546390026808,9.90941047668457,-0.7428345680236816,0.0253421813249588,0.006492624990642071,-0.028588492423295975
0.005880159325897694,9.844286918640137,-0.9419555068016052,-0.002740166848525405,-0.01837831735610962,-0.013962633907794952
-0.019019536674022675,10.028582572937012,-1.2452242374420166,0.14730578660964966,0.21237166225910187,0.0052534411661326885
-0.1447151154279709,9.997258186340332,-0.8271487951278687,0.009128072299063206,0.06253514438867569,0.0674046128988266
0.21133138239383698,9.724987983703613,-0.8965614438056946,-0.220051109790802,-0.15367624163627625,0.012985249981284142
0.08621041476726532,9.738252639770508,-0.5962232351303101,-0.2286904901266098,-0.12206833064556122,-0.03691371530294418
-0.08644025772809982,9.89185619354248,-0.36187878251075745,-0.034487705677747726,0.02918190509080887,0.018884463235735893
-0.15420573949813843,9.875995635986328,-0.6452564597129822,0.07840018719434738,0.09138543903827667,0.06485643237829208
0.21475030481815338,9.7670316696167,-0.7194862961769104,0.004084070213139057,0.018901916220784187,0.031381018459796906
0.15289370715618134,9.903482437133789,-0.8773216605186462,-0.05216789245605469,0.0011519172694534063,0.00799360778182745
0.17436490952968597,9.784029006958008,-0.638763427734375,-0.03438298776745796,0.01507964450865984,0.01595230959355831
0.24158452451229095,9.712691307067871,-0.5936566591262817,0.003717551240697503,0.03544763848185539,0.01961750164628029
0.13929465413093567,9.843109130859375,-0.757956326007843,0.033370696008205414,0.04427900165319443,-0.016144296154379845
-0.014346055686473846,9.960396766662598,-0.802996039390564,-0.0013962633674964309,0.043249256908893585,-0.0012042771559208632
0.06956592202186584,9.749832153320312,-0.6830178499221802,-0.024818582460284233,0.014119713567197323,0.02134537696838379
0.19530938565731049,9.618311882019043,-0.6607421636581421,-0.003543018363416195,0.030368728563189507,0.0007504915702156723
0.14829684793949127,9.637083053588867,-0.6497767567634583,0.010821041651070118,0.03923500329256058,-0.010925761424005032
0.0967927798628807,9.765114784240723,-0.6355072855949402,0.02600540593266487,0.0469493567943573,-0.02480112947523594
0.0825999528169632,9.841854095458984,-0.6039038300514221,0.016510814428329468,0.021642083302140236,-0.041119955480098724
-0.006904877256602049,9.90220832824707,-0.6626096367835999,0.007400196045637131,0.011728612706065178,-0.04136430472135544
-0.09132442623376846,9.96041488647461,-0.6654731035232544,0.004974188283085823,-0.005689773242920637,-0.025272367522120476
-0.029726406559348106,9.993839263916016,-0.708903968334198,-0.003996803890913725,-0.01837831735610962,-0.006824237294495106
0.008226476609706879,9.966583251953125,-0.6551876068115234,-0.012374384328722954,-0.02427753061056137,-0.00041887903353199363
-0.11464394629001617,9.77028751373291,-0.4211783707141876,0.08597491681575775,-0.10075785964727402,0.0
0.04758715257048607,9.984634399414062,-1.3324018716812134,0.10026916861534119,0.02560397982597351,0.014224433340132236
-0.08613380044698715,9.94323444366455,-0.8769098520278931,-0.0377340167760849,0.06679374724626541,0.0838107094168663
0.21507592499256134,9.514203071594238,-0.4669363498687744,-0.13351768255233765,-0.09698794782161713,-0.006440265104174614
0.039398983120918274,9.736309051513672,-0.37784332036972046,-0.11269591003656387,-0.11009536683559418,-0.03747221827507019
-0.18806932866573334,9.862003326416016,-0.45083773136138916,-0.051399946212768555,-0.07841764390468597,-0.016685348004102707
0.17556200921535492,9.890963554382324,-0.6260166764259338,-0.029775317758321762,-0.03527310490608215,0.03574434295296669
0.2415079027414322,9.81966495513916,-0.5646772384643555,0.02830924093723297,0.007749261800199747,0.031241392716765404
0.2850823700428009,9.79736042022705,-0.7471920251846313,-0.005235987715423107,-0.04663519561290741,0.011344640515744686
0.24922680854797363,9.752492904663086,-0.7451138496398926,-0.030944688245654106,-0.04253367334604263,-0.004590216092765331
0.15469415485858917,9.760882377624512,-0.6143712997436523,-0.022252947092056274,-0.03021164983510971,-0.00724311638623476
0.1625375598669052,9.72166633605957,-0.6157982349395752,-0.00024434609804302454,-0.02321287989616394,-0.009250245057046413
0.20638975501060486,9.69249439239502,-0.5938577651977539,0.014276793226599693,-0.02848377265036106,-0.027471482753753662
0.13251426815986633,9.75232982635498,-0.6840425729751587,0.016632987186312675,-0.0345575176179409,-0.04686209186911583
0.01437478605657816,9.91141128540039,-1.2813957929611206,0.1330988109111786,0.14871950447559357,-0.04000294581055641
-0.12941138446331024,10.166058540344238,-0.8081196546554565,0.057299159467220306,0.1080184280872345,0.024382250383496284
0.20255903899669647,9.861276626586914,-0.8877891302108765,-0.17622590065002441,-0.1275835633277893,-0.005305801052600145
0.03857537731528282,9.851210594177246,-0.4371716380119324,-0.23450243473052979,-0.15128514170646667,-0.06531021744012833
-0.1775827258825302,9.870220184326172,-0.23556070029735565,-0.08717919886112213,-0.0587652362883091,-0.012252211570739746
-0.08517611771821976,9.825919151306152,-0.4232756793498993,0.03689625859260559,0.05918411538004875,0.05838126316666603
-0.006703764665871859,9.825977325439453,-0.3846237063407898,0.07435102760791779,0.08101818710565567,0.06888814270496368
0.2296135127544403,9.885035514831543,-0.73273104429245,0.0564439482986927,0.06714281439781189,0.025045474991202354
0.02243845723569393,9.871513366699219,-0.6752797961235046,-0.02396337129175663,0.022218041121959686,0.03237585723400116
0.1796608865261078,10.04426097869873,-1.2143102884292603,0.2491457462310791,0.21675243973731995,-0.0005585053586401045
0.004673481453210115,10.233566284179688,-0.9254930019378662,0.23773129284381866,0.2747148275375366,0.05768313258886337
0.17788918316364288,9.824012756347656,-1.0000101327896118,-0.0041015236638486385,0.016982054337859154,0.08836601674556732
0.4775187075138092,9.629612922668457,-0.7277510762214661,-0.23109903931617737,-0.13013175129890442,-0.016894787549972534
0.08550173044204712,9.829422950744629,-0.38438427448272705,0.04757767543196678,0.018884463235735893,-0.010384708642959595
0.04382346570491791,9.804811477661133,-0.28333938121795654,0.13011430203914642,0.08705702424049377,0.014852751977741718
0.052145712077617645,9.779318809509277,-0.5994314551353455,0.14727088809013367,0.07004006206989288,0.01595230959355831
0.22237344086170197,9.765288352966309,-0.8465705513954163,0.03879866749048233,0.005619960371404886,-0.02209586836397648
0.035443760454654694,9.901796340942383,-0.7017213106155396,0.08199556916952133,0.02649409882724285,-0.029914943501353264
-0.027648240327835083,9.951690673828125,-0.858608603477478,0.0740194097161293,0.051714107394218445,-0.004066617228090763
0.011003750376403332,9.901020050048828,-0.8586468696594238,0.008883725851774216,-0.007103490177541971,-0.007627088576555252
0.03639186546206474,9.74765682220459,-0.3627694249153137,-0.06658431142568588,-0.05014330893754959,-0.062081363052129745
0.14553873240947723,9.806371688842773,-0.4049456715583801,0.044575709849596024,0.019879300147294998,-0.004502949304878712
0.4069376587867737,9.714510917663574,-0.581829309463501,0.1034107580780983,0.05408775433897972,0.004153883550316095
-0.00017238251166418195,9.956365585327148,-0.7337940335273743,0.050911255180835724,0.010018189437687397,-0.015219271183013916
0.07448840141296387,9.999947547912598,-0.7683567404747009,-0.024172810837626457,-0.03251548483967781,-0.011623892933130264
0.07151001691818237,9.936635971069336,-0.6433219909667969,-0.019111355766654015,-0.01621410809457302,-0.0013089969288557768
0.05450160428881645,9.853250503540039,-0.6142180562019348,0.017697637900710106,-0.003036872949451208,0.008133234456181526
0.12586796283721924,9.831194877624512,-0.6941365003585815,0.03316125646233559,-0.005951572675257921,-0.0011344640515744686
0.0342370830476284,9.838186264038086,-0.7287662625312805,0.008534659631550312,0.00996582955121994,0.005113814491778612
0.05929958447813988,9.679594993591309,-0.8846766352653503,0.08637634664773941,0.05080653354525566,-0.007609635591506958
-0.002786850556731224,9.936779022216797,-0.7935437560081482,0.0783303752541542,0.13758429884910583,0.04057890549302101
0.11522813141345978,9.549379348754883,-0.6931692361831665,-0.10349802672863007,-0.11051424592733383,0.004398229531943798
0.09612240642309189,9.754887580871582,-0.8162503838539124,-0.13934709131717682,-0.1068490594625473,-0.08019787818193436
-0.10597693920135498,9.898234367370605,-0.5317617654800415,-0.10044369846582413,-0.05541420355439186,-0.049096111208200455
0.28921955823898315,9.747560501098633,-0.3672226369380951,0.0357094369828701,-0.005201081279665232,0.024609142914414406
0.441596120595932,9.657855033874512,-0.6802884340286255,0.09840166568756104,0.0550127774477005,0.002722713630646467
0.07782112807035446,9.950723648071289,-0.6529179215431213,0.03352777659893036,0.005078908056020737,-0.02785545401275158
0.03116292878985405,9.965559005737305,-0.6809013485908508,-0.04178318381309509,-0.06379178166389465,-0.03232349827885628
0.0020398597698658705,9.997152328491211,-0.6384856700897217,-0.024556782096624374,-0.026337018236517906,-0.010873401537537575
-0.03633440285921097,9.74303150177002,-0.45613372325897217,-0.055257122963666916,-0.02316051907837391,-0.055833082646131516
-0.37790077924728394,9.896998405456543,-0.4637855887413025,0.0956265926361084,0.04136430472135544,0.03164282068610191
0.1887301206588745,9.749046325683594,-0.8795913457870483,0.1149124801158905,0.07222172617912292,0.019216075539588928
0.12908577919006348,9.873132705688477,-0.9696133136749268,0.026022858917713165,0.029932396486401558,-0.023108160123229027
0.13039779663085938,9.689412117004395,-0.7911016941070557,0.04082325100898743,0.04468042775988579,-0.03867649659514427
0.17009365558624268,9.668581008911133,-0.6918668150901794,0.06925466656684875,0.06455972790718079,-0.056810468435287476
0.1132744625210762,9.655643463134766,-0.7207791805267334,0.103131502866745,0.06342526525259018,-0.0694291964173317
0.0424252524971962,9.72597599029541,-0.8709818124771118,0.11576768755912781,0.07644542306661606,-0.07471754401922226
0.014882356859743595,9.764540672302246,-0.940241277217865,0.10423105955123901,0.07841764390468597,-0.09588839113712311
-0.09379523992538452,9.880860328674316,-0.992300808429718,0.05749114602804184,0.04420918971300125,-0.11391764134168625
-0.3601645231246948,10.14482593536377,-0.8281351923942566,-0.014032446779310703,0.026075219735503197,-0.055518921464681625
-0.3000796437263489,10.006441116333008,-0.7535988688468933,-0.0049916417337954044,0.021868975833058357,-0.023352505639195442
-0.2807632386684418,9.933274269104004,-0.7612603306770325,0.02427753061056137,0.030316369608044624,-0.016947146505117416
-0.32728734612464905,9.881340026855469,-0.7235755920410156,0.007051130291074514,0.01679006777703762,0.006213372107595205
0.010007762350142002,9.61917495727539,-0.6236990690231323,0.008604473434388638,-0.007260569836944342,0.015463616698980331
-0.01922065019607544,9.780275344848633,-0.7598812580108643,0.05199335888028145,-0.0047996556386351585,-0.02312561310827732
-0.1787893921136856,9.82112979888916,-0.9550086855888367,0.028867745772004128,-0.012740903533995152,-0.006230825558304787
-0.0401747040450573,9.754792213439941,-0.9337290525436401,-0.0010646508308127522,-0.021764256060123444,0.007627088576555252
-0.03513730317354202,9.723197937011719,-0.8440997004508972,-0.0003490658418741077,-0.0360061414539814,-0.023457225412130356
-0.15015475451946259,9.80789566040039,-0.8503725528717041,0.002199114765971899,-0.043737951666116714,-0.0368788056075573
-0.2742510139942169,10.105457305908203,-1.3773267269134521,0.05808455869555473,-0.004817108623683453,-0.04297000542283058
-0.293730229139328,10.079981803894043,-0.8584936857223511,0.004939281847327948,0.02776818908751011,0.015655603259801865
