accX,accY,accZ,gyroX,gyroY,gyroZ
-0.5365904569625854,2.049452543258667,9.794121742248535,0.022906772792339325,0.13446275889873505,-0.039476003497838974
-0.6538388133049011,2.0063817501068115,9.719944953918457,-0.03306210786104202,-0.09949174523353577,-0.03336753323674202
-0.6729813814163208,1.932204246520996,9.84676456451416,0.06757497787475586,0.008017370477318764,0.005726693198084831
-0.5246263742446899,1.841277003288269,9.547661781311035,0.02970244735479355,-0.007253811229020357,0.011835165321826935
-0.5006981492042542,1.8891334533691406,9.660123825073242,-0.034283801913261414,-0.052456509321928024,0.008170082233846188
-0.49351966381073,1.9250258207321167,9.758230209350586,-0.02244863659143448,0.012293301522731781,0.002061609411612153
-0.47676992416381836,1.9728822708129883,9.731908798217773,0.009239064529538155,0.06543701142072678,-0.009544488042593002
-0.4983053207397461,2.0159530639648438,9.755837440490723,0.0023670331574976444,0.004352286923676729,-0.019928891211748123
-0.5150550603866577,2.035095691680908,9.8300142288208,0.0005344913806766272,-0.05795413255691528,-0.014431266114115715
-0.529412031173706,2.0207388401031494,9.810872077941895,0.011071606539189816,-0.05673243850469589,-0.0064902519807219505
-0.49351966381073,1.9752750396728516,9.669695854187012,0.027869906276464462,-0.02557922899723053,0.01122431829571724
-0.5006981492042542,1.9369899034500122,9.559625625610352,0.007330167107284069,-0.008475505746901035,0.019776180386543274
-0.5006981492042542,1.8915263414382935,9.569196701049805,-0.010689826682209969,0.00129805039614439,0.018554486334323883
-0.5006981492042542,1.8747764825820923,9.62901782989502,-0.031153209507465363,0.047111593186855316,0.006337540224194527
-0.527019202709198,1.8747764825820923,9.710372924804688,-0.03176405653357506,0.08987089991569519,-0.009544488042593002
-0.5629115104675293,1.9178473949432373,9.798908233642578,-0.028098974376916885,0.07032378762960434,-0.015652960166335106
-0.582054078578949,1.9776679277420044,9.887741088867188,-0.010689826682209969,0.011682453565299511,-0.005268557462841272
-0.5772684812545776,1.9752750396728516,9.902098655700684,0.020997874438762665,-0.03779617324471474,0.014278554357588291
-0.5030909776687622,1.9513468742370605,9.758230209350586,0.04153761267662048,-0.07078192383050919,0.026495499536395073
-0.47916272282600403,1.9106688499450684,9.624231338500977,0.0328330397605896,-0.07444700598716736,0.020997874438762665
-0.45523449778556824,1.9058831930160522,9.581160545349121,0.022219568490982056,-0.06100837141275406,0.011835165321826935
-0.47676992416381836,1.9369899034500122,9.535696983337402,-0.001374406274408102,-0.006642963737249374,-0.008322793990373611
-0.4911268353462219,1.9513468742370605,9.617053031921387,-0.020005248486995697,0.048333290964365005,-0.018707197159528732
-0.5006981492042542,1.970489501953125,9.650552749633789,-0.02680092304944992,0.062993623316288,-0.018096350133419037
-0.6394818425178528,1.9752750396728516,8.20229721069336,-0.03306210786104202,0.10636378079652786,-0.008933641016483307
-0.6275177597999573,2.032702922821045,8.745467185974121,-0.17035003006458282,0.7135459780693054,0.0295497365295887
-0.23001007735729218,1.628315806388855,10.926525115966797,-0.32313820719718933,0.771576464176178,0.013667707331478596
-0.5772684812545776,1.7886348962783813,11.522637367248535,-0.23739051818847656,0.2602972984313965,-0.057801421731710434
-1.077667474746704,2.0446670055389404,11.115857124328613,0.0328330397605896,-0.3444415032863617,-0.07368344813585281
-1.2667005062103271,1.8987047672271729,9.691230773925781,0.43293800950050354,-0.8141830563545227,0.028938889503479004
-0.7734799385070801,1.719243049621582,8.898907661437988,0.3378748893737793,-0.5796176791191101,0.06986565887928009
-0.27308088541030884,1.7742780447006226,8.609076499938965,0.09994988143444061,-0.2405974566936493,0.07353074103593826
0.10498509556055069,1.9489539861679077,8.798408508300781,-0.1107160672545433,0.09292513877153397,0.04115583375096321
0.18873389065265656,2.109572172164917,9.428020477294922,-0.19081340730190277,0.34459421038627625,-0.008933641016483307
-0.029012974351644516,2.2004995346069336,10.067203521728516,-0.16225630044937134,0.41117656230926514,-0.048638712614774704
-0.388235479593277,2.181356906890869,10.282557487487793,-0.09269607067108154,0.26640576124191284,-0.05596888065338135
-0.7399803996086121,2.063809633255005,10.112667083740234,-0.02557922899723053,0.044668205082416534,-0.03703261539340019
-0.9050851464271545,1.8867406845092773,9.806086540222168,0.03161134570837021,-0.08971819281578064,-0.0016034740256145597
-0.8620143532752991,1.7910277843475342,9.638588905334473,0.05268557742238045,-0.09765920788049698,0.030160583555698395
-0.6873382925987244,1.7312071323394775,9.61226749420166,0.02970244735479355,-0.045737188309431076,0.04604261368513107
-0.5341976284980774,1.7766708135604858,9.686445236206055,-0.007559234742075205,0.007406522985547781,0.032603971660137177
-0.46002015471458435,1.8747764825820923,9.774979591369629,-0.018096350133419037,0.031229566782712936,-0.0064902519807219505
-0.5485545992851257,2.126322031021118,9.72233772277832,0.03405473381280899,-0.12026055157184601,-0.02664821222424507
-0.46719861030578613,2.0303099155426025,9.600303649902344,0.047111593186855316,-0.10682191699743271,0.027717193588614464
-0.3690928816795349,1.9154545068740845,9.530911445617676,0.03779617324471474,-0.04634803533554077,0.06314633786678314
-0.16061821579933167,1.8939191102981567,9.693623542785645,0.0029778804164379835,-0.03352024406194687,0.06070294603705406
-0.5413761138916016,2.042274236679077,9.133403778076172,0.07757759839296341,0.09720107167959213,-0.015042114071547985
-0.4624129831790924,2.1215364933013916,8.884550094604492,-0.09391776472330093,0.1668376624584198,-0.010155336000025272
-0.34247273206710815,2.032702922821045,9.626625061035156,-0.1814979910850525,0.1924932450056076,-0.012598725035786629
-0.36191442608833313,2.0207388401031494,10.311270713806152,-0.0877329409122467,0.26335152983665466,-0.016874656081199646
-0.3690928816795349,1.9657038450241089,10.351948738098145,-0.02870982140302658,0.23647424578666687,-0.015652960166335106
-0.5222335457801819,1.908276081085205,10.03131103515625,0.012293301522731781,0.009849912486970425,-0.008322793990373611
-0.7447660565376282,1.8747764825820923,9.684052467346191,0.0328330397605896,-0.18256697058677673,0.008170082233846188
-0.7639086246490479,1.9010975360870361,9.583553314208984,0.07070557028055191,-0.05795413255691528,0.02038702741265297
-0.6634100675582886,1.9513468742370605,9.523733139038086,0.033443886786699295,0.012293301522731781,0.026495499536395073
-0.5222335457801819,1.9800606966018677,9.655338287353516,-0.03924693539738655,-0.0029778804164379835,0.02160872146487236
-0.4336991012096405,1.9657038450241089,9.72233772277832,-0.05291464552283287,-0.004199574701488018,0.014889402315020561
-0.3329014480113983,1.9728822708129883,9.849157333374023,-0.016874656081199646,0.015958385542035103,-0.005268557462841272
-0.28504499793052673,1.9800606966018677,9.851550102233887,0.030313294380903244,-0.01763821393251419,-0.023593975231051445
-0.46719861030578613,1.963310956954956,9.562018394470215,0.030313294380903244,-0.06528430432081223,0.006948387715965509
-0.5126622319221497,1.9369899034500122,9.392127990722656,-0.001985253533348441,0.03733803704380989,0.020997874438762665
-0.5389832854270935,1.9130617380142212,9.475876808166504,-0.05291464552283287,0.11796987801790237,0.017332790419459343
-0.5389832854270935,1.9058831930160522,9.763015747070312,-0.07711946964263916,0.15889663994312286,-0.0009926267666742206
-0.5533402562141418,1.8652052879333496,9.964311599731445,-0.05787777900695801,0.141182079911232,-0.018096350133419037
-0.5892325639724731,1.9202401638031006,10.03131103515625,-0.015652960166335106,0.047111593186855316,-0.027259059250354767
-0.6299105882644653,1.9728822708129883,9.981060981750488,0.030313294380903244,-0.07505785673856735,-0.02053973823785782
-0.6203392744064331,2.0374884605407715,9.832406997680664,0.06757497787475586,-0.15446799993515015,0.0038941511884331703
-0.5318048596382141,2.0446670055389404,9.640981674194336,0.07757759839296341,-0.1605764776468277,0.030160583555698395
-0.4169493317604065,1.994417667388916,9.47348403930664,0.0489441379904747,-0.10987614840269089,0.03687990456819534
-0.3233301639556885,1.9537396430969238,9.423234939575195,0.0005344913806766272,-0.021303297951817513,0.017332790419459343
-0.3209373354911804,1.9298114776611328,9.516554832458496,-0.037414394319057465,0.07215633243322372,-0.01382041908800602
-0.39541393518447876,1.9657038450241089,9.698409080505371,-0.05474718660116196,0.12224581092596054,-0.03214583545923233
-0.5006981492042542,1.9537396430969238,9.851550102233887,-0.053525492548942566,0.11186140775680542,-0.02664821222424507
-0.5796613097190857,1.92741858959198,9.904491424560547,-0.035505495965480804,0.06543701142072678,-0.004657710436731577
-0.6203392744064331,1.872383713722229,9.84676456451416,-0.007559234742075205,0.017180079594254494,0.016111096367239952
-0.6035895347595215,1.848455548286438,9.789336204528809,0.015423892997205257,-0.017027366906404495,0.019776180386543274
-0.5653043389320374,1.8556339740753174,9.758230209350586,0.02473931387066841,-0.03901786729693413,0.0051158457063138485
-0.529412031173706,1.9298114776611328,9.734301567077637,0.02351761981844902,-0.05306735634803772,-0.01382041908800602
-0.5174478888511658,2.025524377822876,9.7366943359375,0.022219568490982056,-0.05306735634803772,-0.019928891211748123
-0.5030909776687622,2.059023857116699,9.691230773925781,0.02160872146487236,-0.045737188309431076,-0.011377030052244663
-0.46719861030578613,2.0542383193969727,9.648159980773926,0.014813045971095562,-0.034131091088056564,0.0032833039294928312
-0.4576273262500763,1.9800606966018677,9.449555397033691,0.0017561858985573053,-0.013362283818423748,0.008780929259955883
-0.584446907043457,2.035095691680908,8.96112060546875,-0.01252236869186163,0.23830679059028625,0.0014507622690871358
-0.4049852192401886,1.8388842344284058,10.311270713806152,-0.09888090193271637,0.3134410083293915,-0.004046862944960594
-0.4815555512905121,1.939382791519165,10.629815101623535,-0.12247487902641296,0.009239064529538155,-0.004657710436731577
-0.5581258535385132,1.9298114776611328,10.012167930603027,-0.008170082233846188,-0.19111883640289307,0.005726693198084831
-0.6035895347595215,1.8939191102981567,9.499805450439453,0.11231953650712967,-0.19478392601013184,0.008170082233846188
-0.6538388133049011,1.8987047672271729,9.48784065246582,0.12224581092596054,-0.15080291032791138,0.007559234742075205
-0.5892325639724731,1.8987047672271729,9.59791088104248,0.05703786388039589,-0.08483141660690308,0.012446013279259205
-0.3595215976238251,1.9992033243179321,9.506983757019043,-0.0584886260330677,0.06360447406768799,0.0038941511884331703
-0.3233301639556885,2.0159530639648438,9.707980155944824,-0.0584886260330677,0.08742751181125641,-0.008322793990373611
-0.39062830805778503,2.0039889812469482,9.930811882019043,-0.024968381971120834,0.07765395939350128,-0.01626380905508995
-0.49351966381073,1.932204246520996,9.904491424560547,0.005497625097632408,0.034283801913261414,-0.013209572061896324
-0.5892325639724731,1.908276081085205,9.731908798217773,0.014813045971095562,-0.02008160389959812,-0.004046862944960594
-0.30179476737976074,1.9178473949432373,10.37348461151123,0.04092676565051079,-0.28518930077552795,-0.0034360159188508987
-0.3568296730518341,1.8508483171463013,10.493424415588379,0.11361759155988693,-0.3810923397541046,-0.023593975231051445
-0.8476574420928955,1.8317056894302368,9.84676456451416,0.22975492477416992,-0.2613662779331207,-0.04741701856255531
-0.5700899958610535,2.063809633255005,8.475078582763672,0.08994726091623306,-0.02435753494501114,-0.015042114071547985
-0.3496512174606323,2.1071794033050537,8.41286563873291,-0.17409147322177887,0.13201937079429626,0.03871244564652443
-0.16779668629169464,2.0808584690093994,9.602696418762207,-0.2473931461572647,0.35620030760765076,0.05703786388039589
-0.12711870670318604,1.9561325311660767,10.541280746459961,-0.12064233422279358,0.5095229744911194,0.028938889503479004
-0.31375887989997864,1.908276081085205,10.457531929016113,-0.03802524134516716,0.25174543261528015,-0.019928891211748123
-0.646660327911377,1.8843477964401245,10.06002426147461,-0.023746687918901443,-0.15019206702709198,-0.05841226875782013
-0.8189435601234436,1.8795621395111084,9.909276962280273,0.0035887276753783226,-0.24426254630088806,-0.06329904496669769
-0.9747761487960815,1.8819550275802612,9.667302131652832,0.0942995473742485,-0.17768019437789917,-0.0364217683672905
-0.9098708033561707,1.8963119983673096,9.499805450439453,0.10491301864385605,-0.052456509321928024,0.022219568490982056
-0.7902296781539917,1.8867406845092773,9.48784065246582,0.06261184066534042,-0.03352024406194687,0.049707695841789246
-0.529412031173706,1.8556339740753174,9.621838569641113,-0.03306210786104202,-0.027411770075559616,0.06986565887928009
-0.31854450702667236,1.8460626602172852,9.763015747070312,-0.044820915907621384,0.022677704691886902,0.03565821051597595
-0.26111677289009094,1.963310956954956,9.796515464782715,-0.0032069480512291193,0.0361163429915905,-0.02420482225716114
-0.34247273206710815,2.1071794033050537,9.825228691101074,0.022219568490982056,-0.04940227046608925,-0.05474718660116196
-0.4576273262500763,2.150250196456909,9.810872077941895,0.03718532621860504,-0.11842801421880722,-0.032756682485342026
-0.5030909776687622,2.0832512378692627,9.660123825073242,0.05085303261876106,-0.09338327497243881,0.016721943393349648
-0.4624129831790924,1.932204246520996,9.502198219299316,0.027259059250354767,-0.03352024406194687,0.04787515476346016
-0.28983065485954285,1.7694923877716064,9.827621459960938,-0.008780929259955883,-0.15630054473876953,0.03993413969874382
-0.6442674994468689,1.714457392692566,10.217950820922852,0.05459447205066681,-0.20455747842788696,0.010613471269607544
-0.5557330846786499,2.018345832824707,9.696016311645508,0.1247655525803566,-0.08422056585550308,-0.0022143214009702206
-0.30179476737976074,2.1622142791748047,8.94676399230957,0.03779617324471474,0.05199837312102318,-0.015042114071547985
-0.25633111596107483,2.1430718898773193,8.817551612854004,-0.044820915907621384,0.11858072131872177,-0.022372281178832054
-0.18454644083976746,2.0398812294006348,9.32004451751709,-0.16408884525299072,0.2077644169330597,-0.032756682485342026
-0.24915266036987305,2.008774518966675,10.062417030334473,-0.1349208950996399,0.2975589632987976,-0.03764346241950989
-0.30658039450645447,1.9513468742370605,10.225129127502441,-0.09208522737026215,0.2975589632987976,-0.035200074315071106
-0.4911268353462219,1.8771693706512451,10.122238159179688,-0.035505495965480804,0.14729054272174835,-0.01748550310730934
-0.6801598072052002,1.848455548286438,9.892526626586914,-0.011911521665751934,-0.04695888236165047,0.006337540224194527
-0.7806583642959595,1.8819550275802612,9.815657615661621,0.03588727489113808,-0.08910734206438065,0.020997874438762665
-0.7758727669715881,1.8747764825820923,9.774979591369629,0.06016845628619194,-0.06528430432081223,0.024662958458065987
-0.6993024349212646,1.970489501953125,9.686445236206055,0.060779303312301636,-0.03840702027082443,0.02283041551709175
-0.5653043389320374,1.9896320104599,9.660123825073242,0.009239064529538155,-0.05856497958302498,0.013667707331478596
-0.5126622319221497,1.9872392416000366,9.674481391906738,-0.011911521665751934,-0.05673243850469589,0.0051158457063138485
-0.4217349886894226,1.934597134590149,9.655338287353516,-0.013133215717971325,-0.015805672854185104,-0.019318044185638428
-0.4097708761692047,1.95852530002594,9.662516593933105,0.004886778071522713,0.015347537584602833,-0.039476003497838974
-0.4456632137298584,1.9872392416000366,9.719944953918457,0.008551862090826035,-0.009697199799120426,-0.03703261539340019
-0.49351966381073,2.0159530639648438,9.767801284790039,0.007941014133393764,-0.026190076023340225,-0.023593975231051445
-0.5629115104675293,2.008774518966675,9.7366943359375,0.01046075951308012,-0.028633465990424156,0.016111096367239952
-0.5485545992851257,1.9680966138839722,9.63619613647461,0.006108472589403391,0.0037414394319057465,0.05031854286789894
-0.5174478888511658,1.9489539861679077,9.607481956481934,-0.00259610079228878,0.02023431472480297,0.056427016854286194
-0.47916272282600403,1.903490424156189,9.631410598754883,-0.026190076023340225,0.048333290964365005,0.04421006888151169
-0.46002015471458435,1.8891334533691406,9.767801284790039,-0.035505495965480804,0.06665870547294617,0.006948387715965509
-0.49591249227523804,1.8819550275802612,9.877870559692383,-0.02557922899723053,0.05322006717324257,-0.029091600328683853
-0.5102694034576416,1.8987047672271729,9.877870559692383,-0.006337540224194527,-0.0017561858985573053,-0.043141089379787445
-0.5509474277496338,1.9417755603790283,9.849157333374023,0.02160872146487236,-0.06406260281801224,-0.029091600328683853
-0.5126622319221497,1.963310956954956,9.763015747070312,0.04772244393825531,-0.0952158197760582,0.0008399150101467967
-0.47916272282600403,1.9824535846710205,9.640981674194336,0.05024218559265137,-0.09155073016881943,0.025273805484175682
-0.41934216022491455,2.025524377822876,9.540482521057129,0.029091600328683853,-0.059175826609134674,0.03077143058180809
-0.38344982266426086,2.0398812294006348,9.528518676757812,0.0005344913806766272,-0.0017561858985573053,0.01794363744556904
-0.39062830805778503,2.0736799240112305,9.600303649902344,-0.023059483617544174,0.055052608251571655,-0.005879404954612255
-0.47198426723480225,2.0135602951049805,9.703194618225098,-0.039857782423496246,0.08192989230155945,-0.023593975231051445
-0.5461617708206177,1.9537396430969238,9.794121742248535,-0.04611896723508835,0.0745997205376625,-0.027259059250354767
-0.5988038778305054,1.8819550275802612,9.827621459960938,-0.03489464893937111,0.049554985016584396,-0.015042114071547985
-0.584446907043457,1.8508483171463013,9.849157333374023,-0.011300674639642239,0.011682453565299511,0.004504998680204153
-0.5557330846786499,1.8652052879333496,9.8300142288208,0.012293301522731781,-0.03290939703583717,0.018554486334323883
-0.48873403668403625,1.932204246520996,9.789336204528809,0.03092414326965809,-0.0683385357260704,0.02038702741265297
-0.45523449778556824,1.9752750396728516,9.717552185058594,0.03840702027082443,-0.0817771777510643,0.01122431829571724
-0.4384847581386566,2.0135602951049805,9.633803367614746,0.03092414326965809,-0.06711684167385101,-0.00038177953683771193
-0.4504488706588745,1.9920248985290527,9.59791088104248,0.011682453565299511,-0.03290939703583717,-0.012598725035786629
-0.47676992416381836,1.9800606966018677,9.624231338500977,-0.011911521665751934,0.011682453565299511,-0.015652960166335106
-0.4815555512905121,1.9609181880950928,9.645767211914062,-0.026190076023340225,0.048333290964365005,-0.007101099472492933
-0.47676992416381836,1.9298114776611328,9.7366943359375,-0.029320668429136276,0.061771929264068604,0.002061609411612153
-0.48873403668403625,1.9298114776611328,9.801301002502441,-0.020616095513105392,0.044668205082416534,0.010002624243497849
-0.49351966381073,1.9441684484481812,9.834799766540527,-0.0032069480512291193,0.011682453565299511,0.010613471269607544
-0.5006981492042542,1.95852530002594,9.827621459960938,0.015423892997205257,-0.023746687918901443,0.006337540224194527
-0.4911268353462219,1.9752750396728516,9.767801284790039,0.022219568490982056,-0.05062396824359894,-0.0016034740256145597
-0.4983053207397461,2.0207388401031494,9.693623542785645,0.01916533336043358,-0.05306735634803772,-0.007101099472492933
-0.46719861030578613,2.011167526245117,9.621838569641113,0.01046075951308012,-0.03474193811416626,-0.005879404954612255
-0.4456632137298584,1.95852530002594,9.614660263061523,-0.0038177953101694584,-0.0029778804164379835,-0.0009926267666742206
-0.43130627274513245,1.9154545068740845,9.638588905334473,-0.01626380905508995,0.03061871975660324,0.0032833039294928312
-0.44327038526535034,1.9106688499450684,9.707980155944824,-0.020616095513105392,0.0489441379904747,0.004504998680204153
-0.48394837975502014,1.9298114776611328,9.76062297821045,-0.016874656081199646,0.045889899134635925,0.002672456670552492
-0.5126622319221497,1.9609181880950928,9.8300142288208,-0.004428642801940441,0.023899398744106293,0.0008399150101467967
-0.5413761138916016,1.963310956954956,9.803693771362305,0.007330167107284069,-0.006642963737249374,-0.0034360159188508987
-0.5318048596382141,1.9776679277420044,9.763015747070312,0.012904148548841476,-0.03290939703583717,-0.005879404954612255
-0.5030909776687622,1.9752750396728516,9.712766647338867,0.015423892997205257,-0.044515494257211685,-0.005879404954612255
-0.46480581164360046,1.970489501953125,9.691230773925781,0.014813045971095562,-0.03840702027082443,-0.0016034740256145597
-0.43609192967414856,1.9489539861679077,9.703194618225098,0.01046075951308012,-0.023746687918901443,0.004504998680204153
-0.4456632137298584,1.903490424156189,9.885348320007324,0.028480753302574158,-0.09155073016881943,0.013667707331478596
-0.4504488706588745,1.963310956954956,9.585947036743164,0.03901786729693413,-0.061619218438863754,0.002061609411612153
-0.4743770956993103,2.0135602951049805,9.40169906616211,-0.00259610079228878,0.037948887795209885,-0.010155336000025272
-0.4815555512905121,2.0518453121185303,9.502198219299316,-0.05978667363524437,0.08437328040599823,-0.011987877078354359
-0.48394837975502014,2.008774518966675,9.818050384521484,-0.06841489672660828,0.11247225105762482,-0.004657710436731577
-0.4743770956993103,1.9776679277420044,10.0073823928833,-0.031153209507465363,0.1014770045876503,0.006337540224194527
-0.47676992416381836,1.908276081085205,9.971489906311035,0.0011453386396169662,0.009239064529538155,0.008780929259955883
-0.4911268353462219,1.8939191102981567,9.810872077941895,0.016034740954637527,-0.08605311065912247,0.002672456670552492
-0.5605186820030212,1.9058831930160522,9.672088623046875,0.030313294380903244,-0.08910734206438065,-0.004657710436731577
-0.5676971673965454,1.9226330518722534,9.557232856750488,0.027869906276464462,-0.03779617324471474,-0.005268557462841272
-0.5150550603866577,1.95852530002594,9.593125343322754,0.0005344913806766272,0.0025197449140250683,0.002061609411612153
-0.4001995921134949,1.9824535846710205,9.825228691101074,0.0023670331574976444,0.0019088976550847292,0.0032833039294928312
-0.41934216022491455,1.9561325311660767,9.767801284790039,0.008551862090826035,-0.03290939703583717,-0.00038177953683771193
-0.45284169912338257,1.970489501953125,9.674481391906738,0.009849912486970425,-0.03718532621860504,0.002061609411612153
-0.4624129831790924,1.970489501953125,9.614660263061523,0.007941014133393764,-0.00786465872079134,0.008780929259955883
-0.4456632137298584,1.9513468742370605,9.650552749633789,-0.001374406274408102,0.022066857665777206,0.010613471269607544
-0.4289134442806244,1.9561325311660767,9.719944953918457,-0.01626380905508995,0.034283801913261414,0.00022906772210262716
-0.44805604219436646,1.9657038450241089,9.739087104797363,-0.021226942539215088,0.035505495965480804,-0.013209572061896324
-0.4863412082195282,1.939382791519165,9.739087104797363,-0.01626380905508995,0.03061871975660324,-0.019928891211748123
-0.5437689423561096,1.9250258207321167,9.746265411376953,-0.008170082233846188,0.017180079594254494,-0.012598725035786629
-0.5748756527900696,1.9010975360870361,9.767801284790039,-7.635590736754239e-05,0.004352286923676729,0.002672456670552492
-0.5365904569625854,1.908276081085205,9.765408515930176,0.004886778071522713,-0.005421269219368696,0.014278554357588291
-0.4983053207397461,1.9154545068740845,9.72951602935791,0.007330167107284069,-0.015805672854185104,0.014889402315020561
-0.4743770956993103,1.9250258207321167,9.739087104797363,0.009239064529538155,-0.019470756873488426,0.010002624243497849
-0.44327038526535034,1.9369899034500122,9.739087104797363,0.011071606539189816,-0.022524992004036903,0.002672456670552492
-0.4336991012096405,1.9896320104599,9.7366943359375,0.014813045971095562,-0.027411770075559616,-0.011377030052244663
-0.45284169912338257,1.9824535846710205,9.72233772277832,0.013591351918876171,-0.02924431301653385,-0.015652960166335106
-0.48394837975502014,1.9752750396728516,9.684052467346191,0.007941014133393764,-0.020692450925707817,-0.0064902519807219505
-0.5006981492042542,1.9441684484481812,9.667302131652832,-0.0007635590736754239,-0.0005344913806766272,0.0051158457063138485
-0.4743770956993103,1.9537396430969238,9.669695854187012,-0.011911521665751934,0.020845163613557816,0.010002624243497849
-0.4624129831790924,1.9752750396728516,9.712766647338867,-0.01626380905508995,0.030007870867848396,0.0038941511884331703
-0.4576273262500763,2.0207388401031494,9.767801284790039,-0.008780929259955883,0.023899398744106293,-0.0034360159188508987
-0.46719861030578613,2.0159530639648438,9.784550666809082,0.0035887276753783226,0.0025197449140250683,-0.007711946498602629
-0.49591249227523804,1.9848463535308838,9.75344467163086,0.007330167107284069,-0.01885990984737873,-0.005268557462841272
-0.5461617708206177,1.9465612173080444,9.696016311645508,0.0035887276753783226,-0.02008160389959812,-0.00038177953683771193
-0.5389832854270935,1.908276081085205,9.667302131652832,-0.0051158457063138485,7.635590736754239e-05,0.0051158457063138485
-0.5150550603866577,1.903490424156189,9.700801849365234,-0.013744063675403595,0.022066857665777206,0.008170082233846188
-0.4624129831790924,1.9058831930160522,9.772586822509766,-0.013133215717971325,0.026342788711190224,0.006948387715965509
-0.42412781715393066,1.9489539861679077,9.8300142288208,-0.001374406274408102,0.004963133949786425,0.002061609411612153
-0.4289134442806244,1.9657038450241089,9.815657615661621,0.014202198944985867,-0.029855160042643547,-0.0034360159188508987
-0.4169493317604065,1.9752750396728516,9.782157897949219,0.02038702741265297,-0.04512634128332138,-0.004657710436731577
-0.4336991012096405,1.9800606966018677,9.710372924804688,0.025350160896778107,-0.05734328553080559,-0.0064902519807219505
-0.43130627274513245,1.9752750396728516,9.6433744430542,0.01794363744556904,-0.03901786729693413,-0.004657710436731577
-0.4217349886894226,1.932204246520996,9.660123825073242,-0.016874656081199646,0.056274302303791046,0.0008399150101467967
-0.4576273262500763,1.9489539861679077,9.755837440490723,-0.021837789565324783,0.06055023521184921,-0.0064902519807219505
-0.5054838061332703,2.035095691680908,9.815657615661621,-0.015042114071547985,0.039170581847429276,-0.015042114071547985
-0.5605186820030212,2.1000008583068848,9.820443153381348,-7.635590736754239e-05,0.006184828467667103,-0.014431266114115715
-0.6251249313354492,2.063809633255005,9.786943435668945,0.009849912486970425,-0.019470756873488426,-0.004657710436731577
-0.6035895347595215,1.9489539861679077,9.681659698486328,0.004275931045413017,-0.02924431301653385,0.0014507622690871358
-0.5581258535385132,1.8652052879333496,9.621838569641113,-0.009391776286065578,-0.011529741808772087,-0.0009926267666742206
-0.5102694034576416,1.8340985774993896,9.660123825073242,-0.015652960166335106,0.014125842601060867,-0.004046862944960594
-0.5054838061332703,1.9106688499450684,9.784550666809082,-0.010078979656100273,0.01779092662036419,0.002061609411612153
-0.44805604219436646,1.9728822708129883,9.865906715393066,0.006108472589403391,-0.007253811229020357,0.017332790419459343
-0.3978067636489868,1.9992033243179321,9.832406997680664,0.02351761981844902,-0.0426829531788826,0.02710634656250477
-0.3858426511287689,1.9896320104599,9.696016311645508,0.02970244735479355,-0.05734328553080559,0.02283041551709175
-0.4049852192401886,1.9465612173080444,9.59073257446289,0.020997874438762665,-0.03290939703583717,0.004504998680204153
-0.5102694034576416,1.9537396430969238,9.652945518493652,-0.018783552572131157,0.05932854115962982,-0.01626380905508995
-0.5389832854270935,1.9609181880950928,9.748658180236816,-0.02680092304944992,0.07276718318462372,-0.005268557462841272
-0.5389832854270935,1.9489539861679077,9.818050384521484,-0.020616095513105392,0.05566345527768135,0.009391776286065578
-0.5365904569625854,1.9609181880950928,9.818050384521484,-0.006948387715965509,0.018401773646473885,0.013667707331478596
-0.5246263742446899,1.95852530002594,9.789336204528809,0.008551862090826035,-0.01763821393251419,0.008780929259955883
-0.5365904569625854,1.9872392416000366,9.75344467163086,0.022906772792339325,-0.03901786729693413,0.002061609411612153
-0.4983053207397461,2.0135602951049805,9.72951602935791,0.027869906276464462,-0.04756972938776016,0.0038941511884331703
-0.43609192967414856,2.032702922821045,9.62901782989502,0.024128466844558716,-0.04879142343997955,0.01122431829571724
-0.3810569941997528,2.233999013900757,9.423234939575195,-0.04421006888151169,-0.1074327602982521,0.01122431829571724
-0.27786654233932495,1.8029918670654297,10.201201438903809,-0.02680092304944992,0.026342788711190224,-0.008322793990373611
-0.4456632137298584,1.5302101373672485,10.110274314880371,0.05085303261876106,0.20104511082172394,-0.012598725035786629
-0.4983053207397461,1.6713865995407104,9.72951602935791,0.04092676565051079,0.17661121487617493,-0.004046862944960594
-0.5102694034576416,1.805384635925293,9.384949684143066,-0.0038177953101694584,0.09231429547071457,0.0032833039294928312
-0.5988038778305054,2.0159530639648438,9.396913528442383,-0.08086090534925461,-0.053678203374147415,0.01122431829571724
-0.49591249227523804,1.848455548286438,9.59791088104248,-0.02993151545524597,-0.17584764957427979,-0.018707197159528732
-0.41934216022491455,1.7742780447006226,9.614660263061523,0.005497625097632408,-0.07261446863412857,-0.02970244735479355
-0.41216370463371277,1.7934205532073975,9.650552749633789,0.03779617324471474,0.043446511030197144,-0.02420482225716114
-0.4289134442806244,1.9226330518722534,9.707980155944824,0.0017561858985573053,0.018401773646473885,0.0008399150101467967
-0.44805604219436646,1.994417667388916,9.755837440490723,-0.018783552572131157,-0.00908635277301073,0.014889402315020561
-0.4911268353462219,2.071287155151367,9.772586822509766,-0.020616095513105392,-0.013362283818423748,0.03077143058180809
-0.5030909776687622,2.0976080894470215,9.719944953918457,-0.008170082233846188,0.005573981441557407,0.025273805484175682
-0.5126622319221497,2.0760726928710938,9.624231338500977,-0.001985253533348441,0.02023431472480297,-0.0028251686599105597
-0.5198407173156738,2.0542383193969727,9.693623542785645,-0.021837789565324783,0.000687203137204051,-0.029091600328683853
-0.5509474277496338,1.9465612173080444,9.803693771362305,-0.02435753494501114,0.0025197449140250683,-0.028480753302574158
-0.527019202709198,1.8221344947814941,9.825228691101074,-0.008170082233846188,0.012293301522731781,-0.010766183026134968
-0.4576273262500763,1.7934205532073975,9.794121742248535,-0.001374406274408102,-0.014583977870643139,0.008170082233846188
-0.4336991012096405,1.8340985774993896,9.75344467163086,0.0017561858985573053,-0.052456509321928024,0.017332790419459343
-0.41934216022491455,1.903490424156189,9.719944953918457,0.013591351918876171,-0.05428905040025711,0.015500249341130257
-0.4145565330982208,1.994417667388916,9.691230773925781,0.02160872146487236,-0.03229855000972748,0.004504998680204153
-0.4624129831790924,2.0542383193969727,9.655338287353516,0.014202198944985867,-0.020692450925707817,-0.004657710436731577
-0.4815555512905121,2.078465461730957,9.660123825073242,0.0011453386396169662,-0.012751436792314053,-0.0064902519807219505
-0.46002015471458435,2.035095691680908,9.686445236206055,-0.006337540224194527,0.0031305921729654074,-0.0034360159188508987
-0.43609192967414856,1.9920248985290527,9.691230773925781,-0.013133215717971325,0.015958385542035103,-0.0009926267666742206
-0.4456632137298584,1.9680966138839722,9.693623542785645,-0.018096350133419037,0.02023431472480297,-0.00038177953683771193
-0.47676992416381836,1.9561325311660767,9.719944953918457,-0.014431266114115715,0.025731941685080528,0.0008399150101467967
-0.5078766345977783,1.9657038450241089,9.75344467163086,-0.005726693198084831,0.023899398744106293,0.0038941511884331703
-0.5389832854270935,1.9561325311660767,9.784550666809082,-0.0038177953101694584,0.009239064529538155,0.008170082233846188
-0.5365904569625854,1.9465612173080444,9.75344467163086,-0.007559234742075205,-0.009697199799120426,0.009391776286065578
-0.5174478888511658,1.908276081085205,9.739087104797363,-0.008170082233846188,-0.012751436792314053,0.006337540224194527
-0.4863412082195282,1.8771693706512451,9.72233772277832,-0.0038177953101694584,-0.005421269219368696,0.002061609411612153
-0.4408775866031647,1.8747764825820923,9.75344467163086,0.0035887276753783226,-0.00908635277301073,0.00022906772210262716
-0.4145565330982208,1.9250258207321167,9.772586822509766,0.011071606539189816,-0.023746687918901443,0.0008399150101467967
-0.3762713670730591,1.9848463535308838,9.74387264251709,0.02038702741265297,-0.04023956134915352,0.002061609411612153
-0.373878538608551,2.056631088256836,9.691230773925781,0.024128466844558716,-0.05062396824359894,0.0014507622690871358
-0.37148571014404297,2.078465461730957,9.655338287353516,0.01794363744556904,-0.045737188309431076,0.002061609411612153
-0.36670008301734924,2.0303099155426025,9.607481956481934,0.0035887276753783226,-0.0164165198802948,0.004504998680204153
-0.39541393518447876,1.9202401638031006,9.602696418762207,-0.016874656081199646,0.037948887795209885,0.008170082233846188
-0.4289134442806244,1.8508483171463013,9.664909362792969,-0.037414394319057465,0.09170344471931458,0.0051158457063138485
-0.4743770956993103,1.8317056894302368,9.770194053649902,-0.046729814261198044,0.11063970625400543,-0.010766183026134968
-0.5413761138916016,1.9298114776611328,9.87547779083252,-0.036727190017700195,0.07826480269432068,-0.02664821222424507
-0.5605186820030212,2.0159530639648438,9.930811882019043,-0.006337540224194527,0.011682453565299511,-0.026037365198135376
-0.5676971673965454,2.035095691680908,9.877870559692383,0.029091600328683853,-0.05856497958302498,-0.010155336000025272
-0.5341976284980774,1.9848463535308838,9.739087104797363,0.04650074616074562,-0.10132429003715515,0.0032833039294928312
-0.4863412082195282,1.9441684484481812,9.602696418762207,0.04092676565051079,-0.0952158197760582,0.0038941511884331703
-0.4408775866031647,1.9250258207321167,9.550054550170898,0.02160872146487236,-0.04940227046608925,-0.0028251686599105597
-0.43609192967414856,1.9489539861679077,9.581160545349121,-0.006337540224194527,0.0067956759594380856,-0.004046862944960594
-0.4289134442806244,1.970489501953125,9.667302131652832,-0.02680092304944992,0.048333290964365005,0.0032833039294928312
-0.4336991012096405,1.9680966138839722,9.758230209350586,-0.03176405653357506,0.06360447406768799,0.010002624243497849
-0.4289134442806244,1.963310956954956,9.796515464782715,-0.021226942539215088,0.0489441379904747,0.008170082233846188
-0.4624129831790924,1.9417755603790283,9.827621459960938,-0.00259610079228878,0.013514995574951172,-0.0022143214009702206
-0.49351966381073,1.9441684484481812,9.806086540222168,0.01046075951308012,-0.023746687918901443,-0.010766183026134968
-0.5150550603866577,1.9417755603790283,9.648159980773926,0.011071606539189816,-0.029855160042643547,0.004504998680204153
-0.5078766345977783,1.9417755603790283,9.624231338500977,-0.001374406274408102,0.00129805039614439,0.013667707331478596
-0.47198426723480225,1.9417755603790283,9.664909362792969,-0.013744063675403595,0.02817532978951931,0.011835165321826935
-0.47198426723480225,1.9968105554580688,9.746265411376953,-0.01748550310730934,0.03306210786104202,0.0051158457063138485
-0.4695914387702942,2.018345832824707,9.791728973388672,-0.010078979656100273,0.015958385542035103,-0.00038177953683771193
-0.5078766345977783,2.0279171466827393,9.784550666809082,-7.635590736754239e-05,-0.010918894782662392,-0.0016034740256145597
-0.529412031173706,1.9776679277420044,9.681659698486328,0.007330167107284069,-0.03168770298361778,0.004504998680204153
-0.5916253924369812,1.9848463535308838,9.894919395446777,0.05207473039627075,-0.09032903611660004,-0.0034360159188508987
-0.4695914387702942,2.0159530639648438,10.122238159179688,0.11483928561210632,-0.19172967970371246,-0.01626380905508995
-0.263509601354599,1.7958134412765503,9.957133293151855,0.1328592747449875,-0.24914932250976562,-0.010155336000025272
-0.1534397453069687,1.6977076530456543,9.276973724365234,0.05207473039627075,-0.16485241055488586,0.02038702741265297
-0.24197418987751007,1.932204246520996,8.75503921508789,-0.09513945877552032,0.052609220147132874,0.04115583375096321
-0.26111677289009094,2.119143486022949,9.037691116333008,-0.17470231652259827,0.3109976053237915,0.02283041551709175
-0.37866419553756714,2.233999013900757,9.949954986572266,-0.15416257083415985,0.44721654057502747,-0.004046862944960594
-0.48394837975502014,2.155035972595215,10.538887977600098,-0.0889546349644661,0.31710609793663025,-0.02664821222424507
-0.5102694034576416,2.0542383193969727,10.55085277557373,-0.05413633957505226,0.17050273716449738,-0.031534988433122635
-0.6107679605484009,1.8795621395111084,10.194023132324219,0.016034740954637527,-0.12514732778072357,-0.03214583545923233
-0.6346961855888367,1.750349760055542,9.755837440490723,0.08437328040599823,-0.2540360987186432,-0.02420482225716114
-0.6394818425178528,1.7336000204086304,9.602696418762207,0.10613471269607544,-0.24181915819644928,-0.016874656081199646
-0.6107679605484009,1.810170292854309,9.451948165893555,0.09559759497642517,-0.13858596980571747,0.005726693198084831
-0.5174478888511658,1.9465612173080444,9.428020477294922,0.025961007922887802,-0.024968381971120834,0.030160583555698395
-0.4169493317604065,2.0470597743988037,9.509376525878906,-0.036727190017700195,0.0623827762901783,0.032603971660137177
-0.34247273206710815,2.085644006729126,9.648159980773926,-0.05474718660116196,0.10514208674430847,0.0032833039294928312
-0.37148571014404297,2.078465461730957,9.8300142288208,-0.04107947647571564,0.08498412370681763,-0.032756682485342026
-0.4624129831790924,2.0135602951049805,9.926026344299316,-0.01748550310730934,0.023899398744106293,-0.04619532451033592
-0.5700899958610535,1.8987047672271729,9.873085021972656,0.005497625097632408,-0.021914144977927208,-0.026037365198135376
-0.6131607890129089,1.810170292854309,9.748658180236816,0.01916533336043358,-0.028633465990424156,0.010613471269607544
-0.5653043389320374,1.786242127418518,9.667302131652832,0.013591351918876171,-0.019470756873488426,0.038101598620414734
-0.4743770956993103,1.8388842344284058,9.655338287353516,-0.0007635590736754239,-0.005421269219368696,0.041766680777072906
-0.39541393518447876,1.9202401638031006,9.746265411376953,-0.0051158457063138485,0.009239064529538155,0.019776180386543274
-0.3595215976238251,1.994417667388916,9.789336204528809,0.0035887276753783226,0.004352286923676729,-0.011987877078354359
-0.4049852192401886,2.0542383193969727,9.806086540222168,0.01916533336043358,-0.02557922899723053,-0.033978380262851715
-0.45523449778556824,2.0518453121185303,9.76062297821045,0.028480753302574158,-0.05428905040025711,-0.03092414326965809
-0.5030909776687622,2.011167526245117,9.652945518493652,0.02160872146487236,-0.052456509321928024,-0.005879404954612255
-0.5054838061332703,1.9513468742370605,9.552447319030762,-0.001985253533348441,-0.011529741808772087,0.02160872146487236
-0.47198426723480225,1.9202401638031006,9.554840087890625,-0.028098974376916885,0.052609220147132874,0.03077143058180809
-0.4576273262500763,1.9202401638031006,9.679266929626465,-0.04107947647571564,0.09842276573181152,0.016721943393349648
-0.48873403668403625,1.963310956954956,9.851550102233887,-0.034283801913261414,0.0892600566148758,-0.0064902519807219505
-0.5365904569625854,1.9800606966018677,9.940383911132812,-0.016874656081199646,0.026342788711190224,-0.018707197159528732
-0.5629115104675293,1.970489501953125,9.89970588684082,0.006719320081174374,-0.045737188309431076,-0.01382041908800602
-0.5461617708206177,1.9298114776611328,9.770194053649902,0.027869906276464462,-0.08422056585550308,0.00022906772210262716
-0.47198426723480225,1.9010975360870361,9.676874160766602,0.036574479192495346,-0.0811663269996643,0.010002624243497849
-0.3930211067199707,1.9058831930160522,9.638588905334473,0.029091600328683853,-0.05734328553080559,0.011835165321826935
-0.33768710494041443,1.9489539861679077,9.633803367614746,0.013591351918876171,-0.026190076023340225,0.007559234742075205
-0.34247273206710815,1.9872392416000366,9.655338287353516,-0.0007635590736754239,0.006184828467667103,-0.00038177953683771193
-0.3810569941997528,2.0279171466827393,9.691230773925781,-0.010689826682209969,0.027564482763409615,-0.008322793990373611
-0.4289134442806244,2.0374884605407715,9.734301567077637,-0.015652960166335106,0.037948887795209885,-0.014431266114115715
-0.49351966381073,1.9968105554580688,9.76062297821045,-0.015652960166335106,0.037948887795209885,-0.012598725035786629
-0.5174478888511658,1.9250258207321167,9.734301567077637,-0.013744063675403595,0.034283801913261414,-0.0028251686599105597
-0.49591249227523804,1.8747764825820923,9.72951602935791,-0.01252236869186163,0.02817532978951931,0.004504998680204153
-0.48873403668403625,1.8867406845092773,9.741479873657227,-0.007559234742075205,0.01901262067258358,0.0051158457063138485
-0.5054838061332703,1.9609181880950928,9.782157897949219,0.0023670331574976444,0.006184828467667103,0.0038941511884331703
-0.5246263742446899,1.9992033243179321,9.789336204528809,0.012293301522731781,-0.012751436792314053,0.002061609411612153
-0.5246263742446899,1.9992033243179321,9.75105094909668,0.009849912486970425,-0.031076854094862938,-0.0034360159188508987
-0.5150550603866577,1.9561325311660767,9.655338287353516,0.0011453386396169662,-0.030466007068753242,-0.011377030052244663
-0.4743770956993103,1.9178473949432373,9.624231338500977,-0.0032069480512291193,-0.009697199799120426,-0.014431266114115715
-0.45284169912338257,1.9154545068740845,9.679266929626465,-0.0032069480512291193,0.011071606539189816,-0.009544488042593002
-0.4289134442806244,1.92741858959198,9.791728973388672,0.0017561858985573053,0.014125842601060867,0.0014507622690871358
-0.42412781715393066,1.95852530002594,9.820443153381348,0.008551862090826035,-0.005421269219368696,0.0130568603053689
-0.5557330846786499,2.0614166259765625,8.956335067749023,0.019776180386543274,0.06665870547294617,0.012446013279259205
-0.4743770956993103,2.0063817501068115,9.971489906311035,-0.02870982140302658,0.19982340931892395,0.002061609411612153
-0.4049852192401886,1.8987047672271729,10.344770431518555,-0.08086090534925461,-0.010918894782662392,-0.007711946498602629
-0.45284169912338257,1.8580267429351807,9.827621459960938,-0.019394399598240852,-0.1349208950996399,-0.015652960166335106
-0.5509474277496338,1.9465612173080444,9.497411727905273,0.06887302547693253,-0.09216158092021942,-0.02053973823785782
-0.5964110493659973,1.9465612173080444,9.559625625610352,0.0794101431965828,-0.05795413255691528,-0.010766183026134968
-0.615553617477417,2.056631088256836,9.75344467163086,0.03527642786502838,-0.04085041210055351,0.01122431829571724
-0.5509474277496338,2.0760726928710938,9.688838005065918,-0.008170082233846188,-0.0029778804164379835,0.02710634656250477
-0.4504488706588745,2.035095691680908,9.530911445617676,-0.04046862944960594,0.03245126083493233,0.020997874438762665
-0.4169493317604065,1.9800606966018677,9.62901782989502,-0.04978405311703682,0.05199837312102318,0.00022906772210262716
-0.4289134442806244,1.9250258207321167,9.83719253540039,-0.02870982140302658,0.05932854115962982,-0.015652960166335106
-0.45284169912338257,1.8843477964401245,9.902098655700684,-0.001374406274408102,0.03367295488715172,-0.013209572061896324
-0.49591249227523804,1.8771693706512451,9.827621459960938,0.011682453565299511,-0.021914144977927208,-0.00038177953683771193
-0.5078766345977783,1.9154545068740845,9.731908798217773,0.018554486334323883,-0.06223006546497345,0.012446013279259205
-0.4983053207397461,1.9489539861679077,9.674481391906738,0.020997874438762665,-0.05062396824359894,0.017332790419459343
-0.4504488706588745,1.9848463535308838,9.660123825073242,0.009849912486970425,-0.010308047756552696,0.013667707331478596
-0.41934216022491455,1.970489501953125,9.664909362792969,-0.009391776286065578,0.018401773646473885,-0.00038177953683771193
-0.4408775866031647,1.9417755603790283,9.693623542785645,-0.019394399598240852,0.03061871975660324,-0.01626380905508995
-0.44805604219436646,1.9178473949432373,9.74387264251709,-0.015042114071547985,0.0293970238417387,-0.026037365198135376
-0.48394837975502014,1.9369899034500122,9.755837440490723,0.007330167107284069,-0.0035887276753783226,-0.0028251686599105597
-0.4983053207397461,2.018345832824707,9.739087104797363,0.01725643500685692,-0.015194825828075409,0.010002624243497849
-0.5150550603866577,2.092822551727295,9.75105094909668,0.019776180386543274,-0.020692450925707817,0.016721943393349648
-0.5246263742446899,2.1598215103149414,9.705587387084961,0.01046075951308012,-0.021914144977927208,0.016721943393349648
-0.5102694034576416,2.0665013790130615,9.633803367614746,-0.011300674639642239,-0.008475505746901035,0.008780929259955883
-0.48394837975502014,1.9058831930160522,9.554840087890625,-0.034283801913261414,0.0293970238417387,-0.011377030052244663
-0.4911268353462219,1.7934205532073975,9.61226749420166,-0.044820915907621384,0.07398887723684311,-0.03092414326965809
-0.529412031173706,1.7838492393493652,9.796515464782715,-0.0361163429915905,0.08620581775903702,-0.03336753323674202
-0.5653043389320374,1.8436698913574219,9.966704368591309,-0.010689826682209969,0.039170581847429276,-0.008322793990373611
-0.5246263742446899,1.9250258207321167,9.993025779724121,0.018554486334323883,-0.03718532621860504,0.028938889503479004
-0.4336991012096405,1.970489501953125,9.834799766540527,0.04214845970273018,-0.0946049690246582,0.048486001789569855
-0.3978067636489868,1.9992033243179321,9.633803367614746,0.047111593186855316,-0.10010259598493576,0.03443651273846626
-0.39062830805778503,2.0207388401031494,9.521340370178223,0.04214845970273018,-0.0817771777510643,0.01794363744556904
-0.41934216022491455,1.9609181880950928,9.499805450439453,-0.001985253533348441,0.011682453565299511,-0.0358109213411808
-0.5796613097190857,1.8532410860061646,9.248259544372559,-0.07963921129703522,0.08681666851043701,0.03321481868624687
-0.4863412082195282,1.9872392416000366,9.717552185058594,-0.08521319180727005,0.1283542811870575,0.03993413969874382
-0.4576273262500763,2.0542383193969727,10.237093925476074,-0.010689826682209969,0.14362546801567078,0.02283041551709175
-0.4576273262500763,2.063809633255005,10.167701721191406,0.04092676565051079,0.004963133949786425,-0.004046862944960594
-0.5030909776687622,2.0135602951049805,9.786943435668945,0.03588727489113808,-0.1880646049976349,-0.026037365198135376
-0.5413761138916016,1.939382791519165,9.530911445617676,0.042759306728839874,-0.2008923888206482,-0.02970244735479355
-0.5461617708206177,1.908276081085205,9.46630573272705,0.051463883370161057,-0.1349208950996399,-0.023593975231051445
-0.5150550603866577,1.8532410860061646,9.425627708435059,0.03092414326965809,0.015347537584602833,-0.0028251686599105597
-0.48873403668403625,1.8340985774993896,9.509376525878906,-0.037414394319057465,0.09231429547071457,0.015500249341130257
-0.4911268353462219,1.8340985774993896,9.602696418762207,-0.06780404597520828,0.11186140775680542,0.01916533336043358
-0.5102694034576416,1.903490424156189,9.801301002502441,-0.07773031294345856,0.13385190069675446,0.01122431829571724
-0.5413761138916016,1.994417667388916,9.954740524291992,-0.034283801913261414,0.09842276573181152,-0.0022143214009702206
-0.5533402562141418,2.0665013790130615,10.026525497436523,0.011071606539189816,-0.013362283818423748,-0.010155336000025272
-0.5581258535385132,2.063809633255005,10.026525497436523,0.030313294380903244,-0.07383616268634796,-0.009544488042593002
-0.5198407173156738,2.0039889812469482,9.851550102233887,0.06322269141674042,-0.1465269923210144,0.0014507622690871358
-0.4911268353462219,1.9537396430969238,9.710372924804688,0.07261446863412857,-0.15019206702709198,0.006948387715965509
-0.4504488706588745,1.8891334533691406,9.471091270446777,0.05894676223397255,-0.11170869320631027,0.010002624243497849
-0.4289134442806244,1.8963119983673096,9.423234939575195,0.009239064529538155,-0.035352785140275955,0.006948387715965509
-0.4217349886894226,1.9537396430969238,9.521340370178223,-0.0361163429915905,0.05810684710741043,0.008170082233846188
-0.4289134442806244,1.9872392416000366,9.698409080505371,-0.05474718660116196,0.1271325796842575,0.008780929259955883
-0.46480581164360046,1.9776679277420044,9.841979026794434,-0.051082100719213486,0.12530004978179932,0.00022906772210262716
-0.4983053207397461,1.9657038450241089,9.892526626586914,-0.029320668429136276,0.061771929264068604,-0.015652960166335106
-0.5581258535385132,1.95852530002594,9.902098655700684,0.0035887276753783226,-0.013973130844533443,-0.02420482225716114
-0.6011967062950134,1.9417755603790283,9.791728973388672,0.032222192734479904,-0.06650599837303162,-0.016874656081199646
-0.5988038778305054,1.939382791519165,9.693623542785645,0.03779617324471474,-0.07872293889522552,0.0051158457063138485
-0.5629115104675293,1.9226330518722534,9.609874725341797,0.024128466844558716,-0.05184566229581833,0.025273805484175682
-0.49351966381073,1.8747764825820923,9.607481956481934,0.0023670331574976444,-0.007253811229020357,0.0295497365295887
-0.43130627274513245,1.8939191102981567,9.662516593933105,-0.01626380905508995,0.027564482763409615,0.011835165321826935
-0.40259242057800293,1.9369899034500122,9.777372360229492,-0.020616095513105392,0.034283801913261414,-0.011987877078354359
-0.4289134442806244,1.963310956954956,9.8300142288208,-0.006948387715965509,0.011682453565299511,-0.02420482225716114
-0.4624129831790924,2.008774518966675,9.815657615661621,0.013591351918876171,-0.022524992004036903,-0.018707197159528732
-0.5078766345977783,1.9968105554580688,9.734301567077637,0.025961007922887802,-0.04634803533554077,-0.0022143214009702206
-0.5174478888511658,1.9752750396728516,9.631410598754883,0.01916533336043358,-0.04390464723110199,0.009391776286065578
-0.5078766345977783,1.9561325311660767,9.583553314208984,-7.635590736754239e-05,-0.013362283818423748,0.010613471269607544
-0.4911268353462219,1.9680966138839722,9.822835922241211,-0.01748550310730934,0.039170581847429276,-0.011987877078354359
-0.5126622319221497,1.9776679277420044,9.86829948425293,-0.00259610079228878,7.635590736754239e-05,-0.010766183026134968
-0.5341976284980774,1.95852530002594,9.803693771362305,0.012293301522731781,-0.03718532621860504,-0.0022143214009702206
-0.5222335457801819,1.9226330518722534,9.74387264251709,0.020997874438762665,-0.05123481526970863,0.007559234742075205
-0.48394837975502014,1.8891334533691406,9.669695854187012,0.01916533336043358,-0.03962871432304382,0.010002624243497849
-0.45523449778556824,1.9058831930160522,9.6433744430542,0.01046075951308012,-0.01885990984737873,0.002672456670552492
-0.4265206456184387,1.9513468742370605,9.669695854187012,-0.0007635590736754239,-0.004810422193259001,-0.007101099472492933
-0.40737804770469666,2.008774518966675,9.71515941619873,-0.0038177953101694584,-0.0017561858985573053,-0.007711946498602629
-0.4169493317604065,2.032702922821045,9.746265411376953,0.0011453386396169662,-0.004199574701488018,-0.0016034740256145597
-0.42412781715393066,2.011167526245117,9.739087104797363,0.008551862090826035,-0.0023670331574976444,0.0051158457063138485
-0.44327038526535034,1.9752750396728516,9.681659698486328,0.004886778071522713,0.004963133949786425,0.004504998680204153
-0.49591249227523804,1.9369899034500122,9.633803367614746,-0.010078979656100273,0.02023431472480297,-0.004046862944960594
-0.5676971673965454,1.939382791519165,9.652945518493652,-0.02680092304944992,0.04283566400408745,-0.008933641016483307
-0.6107679605484009,1.9609181880950928,9.707980155944824,-0.03176405653357506,0.06421531736850739,-0.0034360159188508987
-0.5700899958610535,1.9728822708129883,9.834799766540527,-0.02244863659143448,0.05566345527768135,0.0051158457063138485
-0.5389832854270935,1.95852530002594,9.90688419342041,-0.0038177953101694584,0.008017370477318764,0.0051158457063138485
-0.49591249227523804,1.9609181880950928,9.858728408813477,0.01725643500685692,-0.052456509321928024,-0.004657710436731577
-0.5006981492042542,1.9728822708129883,9.746265411376953,0.03092414326965809,-0.08971819281578064,-0.007101099472492933
-0.48394837975502014,1.9465612173080444,9.61226749420166,0.028480753302574158,-0.08483141660690308,0.0014507622690871358
-0.46719861030578613,1.9154545068740845,9.559625625610352,0.012904148548841476,-0.03779617324471474,0.012446013279259205
-0.43130627274513245,1.9130617380142212,9.566803932189941,-0.008780929259955883,0.020845163613557816,0.02038702741265297
-0.4289134442806244,1.9226330518722534,9.674481391906738,-0.026190076023340225,0.056274302303791046,0.019776180386543274
-0.41934216022491455,1.9657038450241089,9.808479309082031,-0.028098974376916885,0.05993938818573952,0.009391776286065578
-0.43609192967414856,1.9824535846710205,9.85394287109375,-0.016874656081199646,0.035505495965480804,-0.007711946498602629
-0.5126622319221497,1.9896320104599,9.813264846801758,-0.004428642801940441,-0.0011453386396169662,-0.019318044185638428
-0.5533402562141418,1.9465612173080444,9.741479873657227,0.005497625097632408,-0.02435753494501114,-0.016874656081199646
-0.584446907043457,1.9106688499450684,9.696016311645508,0.006719320081174374,-0.023746687918901443,-0.0022143214009702206
-0.5629115104675293,1.9010975360870361,9.698409080505371,0.0011453386396169662,-0.011529741808772087,0.015500249341130257
-0.48394837975502014,1.9202401638031006,9.72233772277832,-0.004428642801940441,-0.004199574701488018,0.024662958458065987
-0.40737804770469666,1.9441684484481812,9.755837440490723,0.0005344913806766272,-0.006032116711139679,0.02038702741265297
-0.388235479593277,1.994417667388916,9.763015747070312,0.011682453565299511,-0.02008160389959812,0.005726693198084831
-0.40259242057800293,2.0039889812469482,9.746265411376953,0.01916533336043358,-0.03779617324471474,-0.009544488042593002
-0.4336991012096405,1.9920248985290527,9.684052467346191,0.014813045971095562,-0.03901786729693413,-0.01626380905508995
-0.4863412082195282,2.049452543258667,8.8438720703125,-0.001374406274408102,0.012293301522731781,-0.012598725035786629
-0.6514459848403931,2.0760726928710938,8.609076499938965,-0.12186402827501297,0.4325562119483948,0.02160872146487236
-0.4408775866031647,1.695314884185791,10.526924133300781,-0.2579302489757538,0.6115344762802124,0.028938889503479004
-0.46002015471458435,1.7455641031265259,11.36949634552002,-0.1814979910850525,0.21081866323947906,-0.016874656081199646
-0.6729813814163208,1.841277003288269,10.620244026184082,0.05329642444849014,-0.29862794280052185,-0.043141089379787445
-0.8548358678817749,1.8460626602172852,9.813264846801758,0.2539597451686859,-0.5564054846763611,-0.04008685052394867
-0.9146564602851868,1.939382791519165,9.428020477294922,0.3086305856704712,-0.5509078502655029,-0.007711946498602629
-0.6969096064567566,1.9992033243179321,9.116654396057129,0.20990239083766937,-0.36154523491859436,0.03687990456819534
-0.31375887989997864,2.0159530639648438,8.910871505737305,0.03092414326965809,-0.10193513333797455,0.06253548711538315
-0.13908281922340393,2.0614166259765625,8.941978454589844,-0.05230379477143288,0.025121092796325684,0.05948125198483467
0.03559323772788048,2.0518453121185303,9.329915046691895,-0.15110833942890167,0.2321983128786087,0.027717193588614464
-0.014656038954854012,2.0542383193969727,9.85394287109375,-0.1498102843761444,0.3232145607471466,-0.01748550310730934
-0.12711870670318604,2.0374884605407715,10.071989059448242,-0.12499462068080902,0.3079433739185333,-0.03458922728896141
-0.43130627274513245,1.9824535846710205,10.201201438903809,-0.06284090876579285,0.17600037157535553,-0.049860406666994095
-0.7256234884262085,1.9106688499450684,10.016953468322754,-0.007559234742075205,0.004963133949786425,-0.040697697550058365
-0.8428717851638794,1.872383713722229,9.770194053649902,0.03092414326965809,-0.08788564801216125,-0.016874656081199646
-0.8452646136283875,1.8604196310043335,9.691230773925781,0.04153761267662048,-0.09643751382827759,-0.0009926267666742206
-0.7088736891746521,1.8604196310043335,9.640981674194336,0.03901786729693413,-0.0695602297782898,0.0295497365295887
-0.5126622319221497,1.8556339740753174,9.71515941619873,0.01794363744556904,-0.03596363216638565,0.0423775278031826
-0.41216370463371277,1.8556339740753174,9.772586822509766,0.01046075951308012,-0.024968381971120834,0.03687990456819534
-0.2922234535217285,1.8963119983673096,9.791728973388672,0.009239064529538155,-0.026190076023340225,0.007559234742075205
-0.27308088541030884,1.970489501953125,9.763015747070312,0.018554486334323883,-0.050013117492198944,-0.027869906276464462
-0.33529427647590637,2.035095691680908,9.679266929626465,0.027259059250354767,-0.06589514762163162,-0.04130854457616806
-0.4145565330982208,2.059023857116699,9.576375007629395,0.024128466844558716,-0.0420721061527729,-0.02420482225716114
-0.45284169912338257,2.0207388401031494,9.538089752197266,0.007330167107284069,0.0165692325681448,0.009391776286065578
-0.47916272282600403,1.9537396430969238,9.59073257446289,-0.016874656081199646,0.07704310864210129,0.032603971660137177
-0.47676992416381836,1.9298114776611328,9.717552185058594,-0.04107947647571564,0.11002886295318604,0.030160583555698395
-0.828514814376831,1.8628123998641968,10.299306869506836,0.07505785673856735,-0.02802261710166931,-0.059023115783929825
-0.5964110493659973,1.7790635824203491,9.48784065246582,0.11170869320631027,0.031229566782712936,-0.008322793990373611
-0.4001995921134949,1.908276081085205,9.255437850952148,-0.07406523078680038,-0.06039752438664436,0.047264307737350464
-0.2922234535217285,2.042274236679077,10.028918266296387,0.008551862090826035,0.10636378079652786,0.03382566571235657
-0.33768710494041443,2.078465461730957,9.83958625793457,0.03092414326965809,0.09536852687597275,0.0051158457063138485
-0.46480581164360046,2.056631088256836,9.640981674194336,-0.03176405653357506,-0.06223006546497345,-0.022372281178832054
-0.5653043389320374,1.963310956954956,9.710372924804688,-0.02993151545524597,-0.061619218438863754,-0.032756682485342026
-0.5748756527900696,1.8795621395111084,9.7366943359375,0.01794363744556904,0.05322006717324257,-0.022372281178832054
-0.527019202709198,1.8460626602172852,9.679266929626465,0.004886778071522713,0.05566345527768135,-0.0009926267666742206
-0.47916272282600403,1.867598056793213,9.755837440490723,-0.03176405653357506,-0.012140588834881783,0.016721943393349648
-0.41934216022491455,1.934597134590149,9.822835922241211,-0.005726693198084831,-0.0164165198802948,0.020997874438762665
-0.4001995921134949,2.011167526245117,9.772586822509766,0.03779617324471474,-0.007253811229020357,0.010613471269607544
-0.4049852192401886,2.0542383193969727,9.734301567077637,0.04023956134915352,-0.04879142343997955,-0.0009926267666742206
-0.4265206456184387,2.035095691680908,9.686445236206055,0.019776180386543274,-0.06589514762163162,-0.0034360159188508987
-0.4456632137298584,1.9609181880950928,9.588339805603027,0.0035887276753783226,-0.006032116711139679,-0.0028251686599105597
-0.4863412082195282,1.9154545068740845,9.52612590789795,-0.021226942539215088,0.06665870547294617,-0.005268557462841272
-0.5030909776687622,1.932204246520996,9.63619613647461,-0.047951508313417435,0.09903360903263092,-0.005268557462841272
-0.5461617708206177,1.932204246520996,9.849157333374023,-0.047951508313417435,0.09964445978403091,-0.0028251686599105597
-0.5509474277496338,1.939382791519165,9.89970588684082,-0.023746687918901443,0.06849125027656555,-0.004046862944960594
-0.5676971673965454,1.9441684484481812,9.85394287109375,0.0029778804164379835,0.0025197449140250683,-0.011987877078354359
-0.584446907043457,1.9800606966018677,9.803693771362305,0.025350160896778107,-0.06406260281801224,-0.015652960166335106
-0.5868397355079651,2.001596212387085,9.75344467163086,0.04153761267662048,-0.08971819281578064,-0.007711946498602629
-0.5318048596382141,1.9872392416000366,9.660123825073242,0.03779617324471474,-0.07566870748996735,0.010613471269607544
-0.3858426511287689,1.8604196310043335,9.660123825073242,-0.02435753494501114,0.061771929264068604,0.0014507622690871358
-0.4504488706588745,1.8747764825820923,9.767801284790039,-0.03176405653357506,0.0752105712890625,-0.02176143415272236
-0.5413761138916016,1.934597134590149,9.822835922241211,-0.027411770075559616,0.049554985016584396,-0.029091600328683853
-0.5988038778305054,1.95852530002594,9.86829948425293,-0.008170082233846188,0.014736690558493137,-0.014431266114115715
-0.6035895347595215,1.9824535846710205,9.827621459960938,0.014202198944985867,-0.019470756873488426,0.006337540224194527
-0.5748756527900696,1.9896320104599,9.755837440490723,0.026571854948997498,-0.05306735634803772,0.02038702741265297
-0.4911268353462219,1.9968105554580688,9.681659698486328,0.02351761981844902,-0.06711684167385101,0.02160872146487236
-0.4504488706588745,1.9752750396728516,9.61226749420166,0.01794363744556904,-0.045737188309431076,0.010002624243497849
-0.4408775866031647,2.0135602951049805,9.62901782989502,0.006719320081174374,-0.010918894782662392,-0.005268557462841272
-0.4743770956993103,2.0398812294006348,9.676874160766602,-0.006337540224194527,0.011071606539189816,-0.01382041908800602
-0.49351966381073,2.0374884605407715,9.731908798217773,-0.016874656081199646,0.018401773646473885,-0.007711946498602629
-0.49351966381073,1.9800606966018677,9.7366943359375,-0.019394399598240852,0.01901262067258358,0.006337540224194527
-0.46480581164360046,1.8939191102981567,9.7366943359375,-0.018096350133419037,0.019623467698693275,0.016721943393349648
-0.46002015471458435,1.848455548286438,9.7366943359375,-0.013133215717971325,0.02023431472480297,0.013667707331478596
-0.47198426723480225,1.8508483171463013,9.763015747070312,-0.0051158457063138485,0.015347537584602833,0.0014507622690871358
-0.47198426723480225,1.9202401638031006,9.772586822509766,0.004886778071522713,0.00129805039614439,-0.008933641016483307
-0.5030909776687622,1.9920248985290527,9.763015747070312,0.015423892997205257,-0.031076854094862938,-0.007101099472492933
-0.47198426723480225,1.994417667388916,9.660123825073242,0.013591351918876171,-0.02557922899723053,0.0008399150101467967
-0.4743770956993103,1.9369899034500122,9.62901782989502,0.004275931045413017,-0.0005344913806766272,0.00022906772210262716
-0.46480581164360046,1.9513468742370605,9.660123825073242,-0.008170082233846188,0.020845163613557816,-0.0034360159188508987
-0.49351966381073,1.994417667388916,9.739087104797363,-0.016874656081199646,0.03061871975660324,-0.0028251686599105597
-0.529412031173706,2.0279171466827393,9.755837440490723,-0.016874656081199646,0.03061871975660324,0.0032833039294928312
-0.5605186820030212,2.0135602951049805,9.770194053649902,-0.011911521665751934,0.023288551717996597,0.005726693198084831
-0.5054838061332703,2.0374884605407715,8.94676399230957,0.30183491110801697,-0.3456631898880005,-0.0028251686599105597
-0.24436701834201813,2.1670000553131104,7.8287177085876465,0.028480753302574158,0.08987089991569519,0.004504998680204153
-0.08644071966409683,2.1311075687408447,8.298009872436523,-0.3026748299598694,0.39773792028427124,0.01122431829571724
-0.06251249462366104,2.078465461730957,9.894919395446777,-0.37536564469337463,0.6768951416015625,-0.0022143214009702206
-0.21565313637256622,1.9609181880950928,10.91456127166748,-0.22311195731163025,0.7190435528755188,-0.02542651630938053
-0.5389832854270935,1.9106688499450684,10.766206741333008,-0.09330692142248154,0.28961795568466187,-0.04130854457616806
-0.9050851464271545,1.8580267429351807,10.296914100646973,0.0011453386396169662,-0.20700086653232574,-0.040697697550058365
-1.0298110246658325,1.8819550275802612,10.112667083740234,0.06757497787475586,-0.3303920030593872,-0.031534988433122635
-1.084846019744873,1.8747764825820923,9.930811882019043,0.13904410600662231,-0.3584909737110138,-0.01626380905508995
-0.984347403049469,1.903490424156189,9.583553314208984,0.21051323413848877,-0.280913382768631,0.02710634656250477
-0.057726845145225525,1.9058831930160522,9.578767776489258,-0.050394900143146515,0.11980241537094116,-0.010155336000025272
-0.07926224917173386,1.95852530002594,9.691230773925781,-0.04359922185540199,0.14545799791812897,-0.039476003497838974
-0.2228316068649292,2.0470597743988037,9.902098655700684,-0.0361163429915905,0.07948649674654007,-0.06696412712335587
-0.43130627274513245,2.1047866344451904,9.940383911132812,-0.013133215717971325,-0.011529741808772087,-0.040697697550058365
-0.5581258535385132,2.059023857116699,9.746265411376953,0.02351761981844902,-0.02680092304944992,0.014278554357588291
-0.4695914387702942,1.7934205532073975,9.700801849365234,-0.041766680777072906,0.08742751181125641,0.01122431829571724
-0.5102694034576416,1.8149559497833252,9.813264846801758,-0.047951508313417435,0.1149156391620636,-0.02970244735479355
-0.584446907043457,1.908276081085205,9.904491424560547,-0.03245126083493233,0.06726955622434616,-0.053525492548942566
-0.6203392744064331,2.0470597743988037,9.952347755432129,0.006719320081174374,-0.027411770075559616,-0.04558447748422623
-0.6083751320838928,2.085644006729126,9.909276962280273,0.05329642444849014,-0.10926530510187149,-0.011987877078354359
-0.5413761138916016,2.0518453121185303,9.705587387084961,0.07261446863412857,-0.1471378356218338,0.02160872146487236
-0.44327038526535034,1.9561325311660767,9.451948165893555,0.05024218559265137,-0.1214822456240654,0.03565821051597595
-0.3978067636489868,1.8939191102981567,9.40169906616211,0.009239064529538155,-0.03290939703583717,0.02405211143195629
-0.4049852192401886,1.8963119983673096,9.509376525878906,-0.03306210786104202,0.07154548168182373,0.002672456670552492
-0.4265206456184387,1.9369899034500122,9.739087104797363,-0.0590994730591774,0.1265217363834381,-0.012598725035786629
-0.4743770956993103,1.9800606966018677,9.89970588684082,-0.05978667363524437,0.11247225105762482,-0.018096350133419037
-0.529412031173706,1.9680966138839722,9.940383911132812,-0.030542362481355667,0.05016583204269409,-0.014431266114115715
-0.5389832854270935,1.9369899034500122,9.894919395446777,0.011682453565299511,-0.021303297951817513,-0.007711946498602629
-0.5198407173156738,1.8963119983673096,9.786943435668945,0.04023956134915352,-0.07505785673856735,-0.0022143214009702206
-0.5078766345977783,1.8891334533691406,9.679266929626465,0.043981000781059265,-0.08971819281578064,0.0032833039294928312
-0.48873403668403625,1.934597134590149,9.60508918762207,0.027869906276464462,-0.05978667363524437,0.008780929259955883
-0.47198426723480225,1.9680966138839722,9.576375007629395,0.0029778804164379835,-0.0017561858985573053,0.01122431829571724
-0.47198426723480225,1.9872392416000366,9.621838569641113,-0.021837789565324783,0.05138752609491348,0.007559234742075205
-0.5006981492042542,1.95852530002594,9.71515941619873,-0.036727190017700195,0.07337802648544312,-0.0009926267666742206
-0.5054838061332703,1.963310956954956,9.794121742248535,-0.03245126083493233,0.06055023521184921,-0.012598725035786629
-0.529412031173706,1.9680966138839722,9.820443153381348,-0.023059483617544174,0.04283566400408745,-0.015652960166335106
-0.5509474277496338,1.963310956954956,9.772586822509766,0.030313294380903244,-0.06589514762163162,0.008780929259955883
-0.5126622319221497,1.9369899034500122,9.684052467346191,0.027259059250354767,-0.06650599837303162,0.02283041551709175
-0.47916272282600403,1.8963119983673096,9.595518112182617,0.007941014133393764,-0.035352785140275955,0.019776180386543274
-0.44805604219436646,1.9202401638031006,9.61226749420166,-0.011911521665751934,0.011071606539189816,0.004504998680204153
-0.43609192967414856,1.9489539861679077,9.693623542785645,-0.02244863659143448,0.03978142887353897,-0.011987877078354359
-0.4384847581386566,1.970489501953125,9.789336204528809,-0.016874656081199646,0.03184041380882263,-0.01626380905508995
-0.4336991012096405,1.994417667388916,9.832406997680664,-0.001374406274408102,-0.0029778804164379835,-0.010766183026134968
-0.46480581164360046,1.994417667388916,9.772586822509766,0.01725643500685692,-0.036574479192495346,-0.00038177953683771193
-0.4743770956993103,1.9800606966018677,9.703194618225098,0.02160872146487236,-0.04940227046608925,0.006948387715965509
-0.5006981492042542,1.9489539861679077,9.626625061035156,0.012293301522731781,-0.026190076023340225,0.007559234742075205
-0.5054838061332703,1.932204246520996,9.600303649902344,-0.008780929259955883,0.018401773646473885,0.0051158457063138485
-0.5318048596382141,1.9226330518722534,9.645767211914062,-0.030542362481355667,0.055052608251571655,0.00022906772210262716
-0.5437689423561096,1.9417755603790283,9.76062297821045,-0.03924693539738655,0.0623827762901783,-0.0028251686599105597
-0.5174478888511658,1.9752750396728516,9.86112117767334,-0.023746687918901443,0.036727190017700195,-0.00038177953683771193
-0.5102694034576416,1.970489501953125,9.882657051086426,0.004275931045413017,-0.015194825828075409,0.0032833039294928312
-0.4504488706588745,1.9680966138839722,9.8300142288208,0.033443886786699295,-0.07627955079078674,0.002672456670552492
-0.4408775866031647,1.9298114776611328,9.700801849365234,0.04337015375494957,-0.0952158197760582,-0.0034360159188508987
-0.4504488706588745,1.9441684484481812,9.542876243591309,0.028480753302574158,-0.06284090876579285,-0.0028251686599105597
-0.4815555512905121,2.0063817501068115,9.528518676757812,-0.001374406274408102,-0.0035887276753783226,0.0051158457063138485
-0.4743770956993103,1.9513468742370605,9.614660263061523,-0.02993151545524597,0.05932854115962982,0.0130568603053689
-0.45523449778556824,1.9561325311660767,9.74387264251709,-0.041766680777072906,0.09048175066709518,0.0130568603053689
-0.4576273262500763,1.934597134590149,9.832406997680664,-0.03802524134516716,0.07154548168182373,0.0038941511884331703
-0.46480581164360046,1.9202401638031006,9.882657051086426,-0.015652960166335106,0.02145601063966751,-0.008322793990373611
-0.49591249227523804,1.934597134590149,9.84676456451416,0.014813045971095562,-0.028633465990424156,-0.01382041908800602
-0.5030909776687622,1.92741858959198,9.75105094909668,0.03161134570837021,-0.06223006546497345,-0.005879404954612255
-0.5054838061332703,1.9417755603790283,9.672088623046875,0.030313294380903244,-0.06528430432081223,0.006948387715965509
-0.47676992416381836,1.932204246520996,9.602696418762207,0.016034740954637527,-0.03290939703583717,0.013667707331478596
-0.46480581164360046,1.9513468742370605,9.607481956481934,-0.004428642801940441,0.012293301522731781,0.007559234742075205
-0.45523449778556824,1.9680966138839722,9.660123825073242,-0.020005248486995697,0.04283566400408745,-0.004046862944960594
-0.4624129831790924,2.001596212387085,9.758230209350586,-0.023059483617544174,0.04772244393825531,-0.012598725035786629
-0.4911268353462219,2.0039889812469482,9.8300142288208,-0.013133215717971325,0.02695363573729992,-0.011987877078354359
-0.5246263742446899,1.9752750396728516,9.827621459960938,0.0005344913806766272,-0.006032116711139679,-0.004657710436731577
-0.5198407173156738,1.9154545068740845,9.770194053649902,0.007941014133393764,-0.03229855000972748,0.004504998680204153
-0.46719861030578613,1.8819550275802612,9.707980155944824,0.01046075951308012,-0.03840702027082443,0.009391776286065578
-0.42412781715393066,1.8795621395111084,9.662516593933105,0.007941014133393764,-0.024968381971120834,0.006948387715965509
-0.39062830805778503,1.9154545068740845,9.674481391906738,0.005497625097632408,-0.004810422193259001,0.00022906772210262716
-0.5126622319221497,2.0374884605407715,9.717552185058594,-7.635590736754239e-05,0.008017370477318764,-0.013209572061896324
-0.5557330846786499,2.0279171466827393,9.705587387084961,-0.007559234742075205,0.014736690558493137,-0.007711946498602629
-0.582054078578949,1.9657038450241089,9.686445236206055,-0.015042114071547985,0.027564482763409615,0.00022906772210262716
-0.5485545992851257,1.903490424156189,9.719944953918457,-0.020616095513105392,0.037948887795209885,0.0032833039294928312
-0.5318048596382141,1.8580267429351807,9.74387264251709,-0.016874656081199646,0.037948887795209885,0.0032833039294928312
-0.5102694034576416,1.836491346359253,9.806086540222168,-0.005726693198084831,0.01901262067258358,0.0008399150101467967
-0.5006981492042542,1.8795621395111084,9.83958625793457,0.007330167107284069,-0.01763821393251419,-0.004046862944960594
-0.5030909776687622,1.95852530002594,9.902098655700684,0.04527905210852623,-0.09277242422103882,0.0032833039294928312
-0.4049852192401886,2.1000008583068848,9.490233421325684,0.034665580838918686,-0.07689040154218674,0.01794363744556904
-0.3089732229709625,1.9537396430969238,9.346664428710938,-0.01252236869186163,-0.011529741808772087,0.0051158457063138485
-0.5916253924369812,1.9058831930160522,9.916455268859863,-0.04978405311703682,0.09842276573181152,-0.004657710436731577
-0.6275177597999573,1.9226330518722534,9.918848037719727,-0.02993151545524597,0.028786176815629005,0.014278554357588291
-0.6275177597999573,1.9010975360870361,9.89970588684082,-0.013133215717971325,0.0025197449140250683,0.020997874438762665
-0.5222335457801819,1.903490424156189,9.794121742248535,0.0328330397605896,-0.05856497958302498,0.016111096367239952
-0.3930211067199707,1.9824535846710205,9.593125343322754,0.03527642786502838,-0.05978667363524437,-0.02053973823785782
-0.43130627274513245,2.025524377822876,9.602696418762207,0.015423892997205257,-0.01763821393251419,-0.012598725035786629
-0.49591249227523804,2.056631088256836,9.617053031921387,-0.013744063675403595,0.023288551717996597,-0.00038177953683771193
-0.6346961855888367,1.9920248985290527,9.698409080505371,-0.020005248486995697,0.04405735805630684,0.007559234742075205
-0.41934216022491455,1.9776679277420044,10.153345108032227,0.04337015375494957,-0.06772769242525101,-0.0064902519807219505
-0.48394837975502014,1.970489501953125,9.820443153381348,0.05268557742238045,-0.05978667363524437,0.008780929259955883
-0.5006981492042542,1.934597134590149,9.22433090209961,-0.024968381971120834,-0.012751436792314053,0.008170082233846188
-0.48394837975502014,2.0279171466827393,9.257830619812012,-0.09017632901668549,0.06421531736850739,0.0032833039294928312
-0.4456632137298584,1.939382791519165,9.83958625793457,-0.07154548168182373,0.16989189386367798,0.0008399150101467967
-0.45523449778556824,1.95852530002594,10.160523414611816,-0.021226942539215088,0.1656159609556198,0.004504998680204153
-0.4624129831790924,1.963310956954956,10.04566764831543,-0.0007635590736754239,0.0019088976550847292,0.006337540224194527
-0.49591249227523804,1.9489539861679077,9.810872077941895,0.018554486334323883,-0.14164020121097565,0.0008399150101467967
-0.5389832854270935,1.9824535846710205,9.6433744430542,0.0558161698281765,-0.13125580549240112,-0.004657710436731577
-0.5461617708206177,1.9992033243179321,9.559625625610352,0.05459447205066681,-0.05673243850469589,-0.00038177953683771193
-0.5318048596382141,1.9848463535308838,9.521340370178223,0.030313294380903244,-0.02802261710166931,0.006337540224194527
-0.4695914387702942,1.9298114776611328,9.538089752197266,-0.031153209507465363,0.022677704691886902,0.017332790419459343
-0.42412781715393066,1.8795621395111084,9.655338287353516,-0.05543438717722893,0.08131904155015945,0.011835165321826935
-0.40259242057800293,1.8771693706512451,9.710372924804688,-0.050394900143146515,0.1014770045876503,0.002061609411612153
-0.44327038526535034,1.8747764825820923,9.841979026794434,-0.02993151545524597,0.08498412370681763,-0.016874656081199646
-0.5078766345977783,1.9226330518722534,9.952347755432129,-0.006948387715965509,0.009239064529538155,-0.02053973823785782
-0.5509474277496338,1.9680966138839722,9.90688419342041,0.018554486334323883,-0.0561215914785862,-0.005879404954612255
-0.5533402562141418,1.9992033243179321,9.75105094909668,0.04214845970273018,-0.0817771777510643,0.013667707331478596
-0.4863412082195282,2.0159530639648438,9.633803367614746,0.04153761267662048,-0.08299887180328369,0.022219568490982056
-0.4049852192401886,2.008774518966675,9.609874725341797,0.02160872146487236,-0.059175826609134674,0.015500249341130257
-0.32572299242019653,1.9657038450241089,9.585947036743164,-0.00259610079228878,-0.010918894782662392,-0.0034360159188508987
-0.3329014480113983,1.9226330518722534,9.583553314208984,-0.020616095513105392,0.04161396995186806,-0.02298312820494175
-0.4145565330982208,1.9178473949432373,9.660123825073242,-0.029320668429136276,0.07154548168182373,-0.03336753323674202
-0.5030909776687622,1.939382791519165,9.784550666809082,-0.02557922899723053,0.07154548168182373,-0.02176143415272236
-0.5676971673965454,1.9680966138839722,9.844371795654297,-0.014431266114115715,0.04650074616074562,0.0051158457063138485
-0.5629115104675293,1.9609181880950928,9.806086540222168,-0.0038177953101694584,0.012293301522731781,0.02832804247736931
-0.5365904569625854,1.9250258207321167,9.731908798217773,0.0023670331574976444,-0.008475505746901035,0.032603971660137177
-0.5222335457801819,1.8867406845092773,9.703194618225098,0.006108472589403391,-0.0035887276753783226,0.0130568603053689
-0.5246263742446899,1.8747764825820923,9.696016311645508,0.004886778071522713,0.004352286923676729,-0.01748550310730934
-0.5413761138916016,1.8963119983673096,9.758230209350586,-0.001374406274408102,-0.0029778804164379835,-0.03336753323674202
-0.5629115104675293,1.9537396430969238,9.770194053649902,0.0005344913806766272,-0.0164165198802948,-0.026037365198135376
-0.4504488706588745,2.011167526245117,9.688838005065918,0.01725643500685692,-0.035352785140275955,0.0295497365295887
-0.4001995921134949,2.0159530639648438,9.662516593933105,0.009849912486970425,-0.026190076023340225,0.016721943393349648
-0.4049852192401886,1.9872392416000366,9.640981674194336,-0.001985253533348441,-0.007253811229020357,-0.0016034740256145597
-0.4384847581386566,1.9561325311660767,9.674481391906738,-0.013744063675403595,0.015347537584602833,-0.011987877078354359
-0.4624129831790924,1.9298114776611328,9.698409080505371,-0.021226942539215088,0.0361163429915905,-0.010766183026134968
-0.47198426723480225,1.8867406845092773,9.734301567077637,-0.021837789565324783,0.04283566400408745,-0.005268557462841272
-0.47916272282600403,1.8891334533691406,9.786943435668945,-0.015042114071547985,0.03489464893937111,-0.00038177953683771193
-0.5006981492042542,1.8939191102981567,9.801301002502441,-0.0032069480512291193,0.012293301522731781,0.0032833039294928312
-0.5006981492042542,1.9489539861679077,9.774979591369629,0.009849912486970425,-0.011529741808772087,0.006948387715965509
-0.4983053207397461,1.9776679277420044,9.74387264251709,0.01794363744556904,-0.02680092304944992,0.004504998680204153
-0.49351966381073,2.008774518966675,9.696016311645508,0.018554486334323883,-0.031076854094862938,-0.0028251686599105597
-0.48873403668403625,2.0135602951049805,9.662516593933105,0.012904148548841476,-0.02435753494501114,-0.010766183026134968
-0.4815555512905121,1.9824535846710205,9.667302131652832,0.0035887276753783226,-0.00908635277301073,-0.01382041908800602
-0.4863412082195282,1.9298114776611328,9.679266929626465,-0.006337540224194527,0.013514995574951172,-0.005268557462841272
-0.4863412082195282,1.8891334533691406,9.672088623046875,-0.013133215717971325,0.035505495965480804,0.0038941511884331703
-0.4911268353462219,1.9010975360870361,9.72233772277832,-0.01626380905508995,0.04161396995186806,0.0038941511884331703
-0.5174478888511658,1.9848463535308838,9.789336204528809,-0.011300674639642239,0.025731941685080528,0.00022906772210262716
-0.5222335457801819,2.0760726928710938,9.798908233642578,0.0011453386396169662,-0.004199574701488018,-0.00038177953683771193
-0.5006981492042542,2.0736799240112305,9.777372360229492,0.01046075951308012,-0.028633465990424156,0.0008399150101467967
-0.47676992416381836,1.970489501953125,9.667302131652832,0.01046075951308012,-0.03290939703583717,-0.004046862944960594
-0.45523449778556824,1.9369899034500122,9.61944580078125,0.005497625097632408,-0.024968381971120834,-0.008322793990373611
-0.45284169912338257,1.8771693706512451,9.62901782989502,-0.005726693198084831,0.009239064529538155,-0.016874656081199646
-0.5030909776687622,1.8699909448623657,9.681659698486328,-0.01626380905508995,0.04222481697797775,-0.013209572061896324
-0.529412031173706,1.9010975360870361,9.719944953918457,-0.020616095513105392,0.053830914199352264,-0.0064902519807219505
-0.5557330846786499,1.903490424156189,9.801301002502441,-0.024968381971120834,0.057496000081300735,0.010002624243497849
-0.5700899958610535,1.9130617380142212,9.834799766540527,-0.020616095513105392,0.037948887795209885,0.017332790419459343
-0.5437689423561096,1.9202401638031006,9.791728973388672,-0.010689826682209969,0.007406522985547781,0.008170082233846188
-0.5246263742446899,1.9441684484481812,9.76062297821045,0.007941014133393764,-0.019470756873488426,-0.007101099472492933
-0.527019202709198,1.934597134590149,9.76062297821045,0.02473931387066841,-0.03840702027082443,-0.014431266114115715
-0.5150550603866577,1.9298114776611328,9.765408515930176,0.03161134570837021,-0.05428905040025711,-0.010155336000025272
-0.4695914387702942,1.963310956954956,9.688838005065918,0.027869906276464462,-0.05734328553080559,-0.0022143214009702206
-0.4695914387702942,1.9824535846710205,9.617053031921387,0.013591351918876171,-0.034131091088056564,0.005726693198084831
-0.4863412082195282,2.0063817501068115,9.583553314208984,-0.0051158457063138485,0.0067956759594380856,0.008170082233846188
-0.4911268353462219,2.025524377822876,9.638588905334473,-0.021837789565324783,0.047111593186855316,0.0051158457063138485
-0.5054838061332703,2.001596212387085,9.717552185058594,-0.02870982140302658,0.06665870547294617,-0.00038177953683771193
-0.5246263742446899,1.9417755603790283,9.820443153381348,-0.024968381971120834,0.05199837312102318,-0.0034360159188508987
-0.5389832854270935,1.8987047672271729,9.827621459960938,-0.013133215717971325,0.0165692325681448,-0.0034360159188508987
-0.527019202709198,1.8819550275802612,9.813264846801758,-0.0007635590736754239,-0.018249060958623886,-0.0034360159188508987
-0.529412031173706,1.8987047672271729,9.739087104797363,0.011071606539189816,-0.03474193811416626,-0.0016034740256145597
-0.5078766345977783,1.9298114776611328,9.614660263061523,0.01794363744556904,-0.031076854094862938,0.0038941511884331703
-0.6418746709823608,2.150250196456909,8.245368003845215,-0.010689826682209969,0.2584647536277771,0.018554486334323883
-0.3113660514354706,1.7479569911956787,10.3016996383667,-0.15416257083415985,0.5107446908950806,0.017332790419459343
-0.5653043389320374,1.8652052879333496,11.08475112915039,-0.18340688943862915,0.15217731893062592,-0.03092414326965809
-0.7615157961845398,1.9728822708129883,10.435697555541992,-0.020005248486995697,-0.2381540685892105,-0.04253023862838745
-0.8452646136283875,1.9226330518722534,9.703194618225098,0.17508409917354584,-0.3713187873363495,-0.021150587126612663
-0.8237292170524597,1.8795621395111084,9.485447883605957,0.237237811088562,-0.3603235185146332,0.01122431829571724
-0.5916253924369812,1.810170292854309,9.430413246154785,0.16515782475471497,-0.2686964273452759,0.0423775278031826
-0.29700911045074463,1.8436698913574219,9.267401695251465,0.04459185153245926,-0.11109784245491028,0.044820915907621384
-0.15583257377147675,1.994417667388916,9.221938133239746,-0.05978667363524437,0.05199837312102318,0.016721943393349648
-0.16540385782718658,2.1454646587371826,9.51176929473877,-0.10071343928575516,0.17233528196811676,-0.015652960166335106
-0.3161516785621643,2.2076780796051025,9.90688419342041,-0.08276980370283127,0.21448373794555664,-0.02970244735479355
-0.5198407173156738,2.109572172164917,10.019346237182617,-0.04543176665902138,0.15645325183868408,-0.027259059250354767
-0.6801598072052002,1.963310956954956,9.865906715393066,-0.021837789565324783,0.043446511030197144,-0.023593975231051445
-0.7639086246490479,1.867598056793213,9.712766647338867,-0.001985253533348441,-0.029855160042643547,-0.018707197159528732
-0.768694281578064,1.805384635925293,9.696016311645508,0.012293301522731781,-0.03229855000972748,-0.0016034740256145597
-0.6801598072052002,1.812563180923462,9.763015747070312,0.009239064529538155,-0.007253811229020357,0.022219568490982056
-0.5676971673965454,1.8388842344284058,9.83958625793457,-0.0007635590736754239,7.635590736754239e-05,0.03565821051597595
-0.47676992416381836,1.8867406845092773,9.813264846801758,0.0023670331574976444,-0.020692450925707817,0.022219568490982056
-0.4384847581386566,1.934597134590149,9.770194053649902,0.016034740954637527,-0.05062396824359894,-0.0064902519807219505
-0.44805604219436646,1.9776679277420044,9.72233772277832,0.027259059250354767,-0.07566870748996735,-0.026037365198135376
-0.4456632137298584,2.008774518966675,9.667302131652832,0.02970244735479355,-0.07750124484300613,-0.018096350133419037
-0.43609192967414856,1.9968105554580688,9.607481956481934,0.025350160896778107,-0.0420721061527729,0.008780929259955883
-0.42412781715393066,1.970489501953125,9.595518112182617,0.011682453565299511,0.012904148548841476,0.030160583555698395
-0.4384847581386566,1.9800606966018677,9.648159980773926,-0.01252236869186163,0.05199837312102318,0.03077143058180809
-0.4911268353462219,1.9728822708129883,9.667302131652832,-0.03924693539738655,0.07276718318462372,0.010002624243497849
-0.5557330846786499,1.9728822708129883,9.719944953918457,-0.04978405311703682,0.08681666851043701,-0.015042114071547985
-0.6299105882644653,1.939382791519165,9.777372360229492,-0.038636088371276855,0.08192989230155945,-0.029091600328683853
-0.6681957244873047,1.8987047672271729,9.89970588684082,-0.014431266114115715,0.03978142887353897,-0.023593975231051445
-0.6394818425178528,1.9130617380142212,9.954740524291992,0.011682453565299511,-0.031076854094862938,-0.0064902519807219505
-0.5724828243255615,1.9130617380142212,9.87547779083252,0.032222192734479904,-0.0952158197760582,0.013667707331478596
-0.48394837975502014,1.9226330518722534,9.693623542785645,0.04023956134915352,-0.11659546941518784,0.02160872146487236
-0.4217349886894226,1.932204246520996,9.564411163330078,0.03405473381280899,-0.08605311065912247,0.014278554357588291
-0.31854450702667236,2.011167526245117,9.930811882019043,0.01725643500685692,-0.20883341133594513,-0.007711946498602629
-0.5054838061332703,1.9250258207321167,10.112667083740234,0.08254073560237885,-0.33894386887550354,-0.0364217683672905
-0.5605186820030212,1.9776679277420044,9.432806015014648,0.1701209545135498,-0.10071343928575516,-0.005879404954612255
-0.39062830805778503,2.0760726928710938,8.716753959655762,0.04459185153245926,0.12285665422677994,0.03626905754208565
-0.22043879330158234,2.0880367755889893,9.044869422912598,-0.16905197501182556,0.2059318870306015,0.0423775278031826
-0.16301104426383972,2.042274236679077,9.93559741973877,-0.20700086653232574,0.31588438153266907,0.015500249341130257
-0.19172491133213043,1.9752750396728516,10.234700202941895,-0.15477342903614044,0.36902809143066406,-0.004046862944960594
-0.373878538608551,1.9058831930160522,10.28734302520752,-0.05169294774532318,0.2835094928741455,-0.03886515647172928
-0.5030909776687622,1.8652052879333496,10.160523414611816,-0.03245126083493233,0.14423631131649017,-0.049860406666994095
-0.7591229677200317,1.8340985774993896,9.990633010864258,-0.0051158457063138485,-0.11476293206214905,-0.05047125369310379
-0.9122636318206787,1.8556339740753174,9.818050384521484,0.06261184066534042,-0.1471378356218338,-0.02298312820494175
-0.8500502705574036,1.92741858959198,9.624231338500977,0.09743013978004456,-0.07444700598716736,0.016111096367239952
-0.6897311210632324,1.9872392416000366,9.516554832458496,0.042759306728839874,-0.06467345356941223,0.0429883748292923
-0.4863412082195282,1.9896320104599,9.600303649902344,-0.016874656081199646,-0.04940227046608925,0.04421006888151169
-0.3643072545528412,1.9776679277420044,9.664909362792969,-0.016874656081199646,0.020845163613557816,0.015500249341130257
-0.3762713670730591,1.9680966138839722,9.710372924804688,-0.00259610079228878,0.045889899134635925,-0.02542651630938053
-0.4624129831790924,1.9824535846710205,9.767801284790039,-0.006948387715965509,-0.0005344913806766272,-0.043141089379787445
-0.5485545992851257,1.9968105554580688,9.791728973388672,-0.00259610079228878,-0.027411770075559616,-0.022372281178832054
-0.5700899958610535,1.963310956954956,9.710372924804688,0.011071606539189816,-0.006032116711139679,0.019776180386543274
-0.5341976284980774,1.9106688499450684,9.624231338500977,0.005497625097632408,0.015347537584602833,0.048486001789569855
-0.47198426723480225,1.8628123998641968,9.669695854187012,-0.013744063675403595,0.027564482763409615,0.04115583375096321
-0.46719861030578613,1.8795621395111084,9.763015747070312,-0.02244863659143448,0.043446511030197144,0.005726693198084831
-0.5150550603866577,1.9154545068740845,9.782157897949219,-0.019394399598240852,0.040392275899648666,-0.031534988433122635
-0.5772684812545776,1.963310956954956,9.806086540222168,-0.010078979656100273,0.00862821750342846,-0.04497363045811653
-0.6131607890129089,1.9848463535308838,9.8300142288208,0.009239064529538155,-0.029855160042643547,-0.027869906276464462
-0.584446907043457,2.008774518966675,9.791728973388672,0.02970244735479355,-0.0561215914785862,0.002061609411612153
-0.5078766345977783,1.9872392416000366,9.707980155944824,0.03527642786502838,-0.0695602297782898,0.025884652510285378
-0.4408775866031647,1.9561325311660767,9.595518112182617,0.02351761981844902,-0.05978667363524437,0.02710634656250477
-0.41934216022491455,1.963310956954956,9.583553314208984,0.005497625097632408,-0.018249060958623886,0.010613471269607544
-0.46002015471458435,1.95852530002594,9.624231338500977,-0.01252236869186163,0.03184041380882263,-0.008322793990373611
-0.49591249227523804,1.970489501953125,9.712766647338867,-0.028098974376916885,0.05810684710741043,-0.01748550310730934
-0.5485545992851257,1.95852530002594,9.777372360229492,-0.03176405653357506,0.055052608251571655,-0.014431266114115715
-0.5581258535385132,1.9465612173080444,9.8300142288208,-0.018783552572131157,0.03367295488715172,-0.0064902519807219505
-0.5557330846786499,1.939382791519165,9.820443153381348,0.0011453386396169662,7.635590736754239e-05,-0.00038177953683771193
-0.5365904569625854,1.9417755603790283,9.784550666809082,0.009849912486970425,-0.01763821393251419,0.002061609411612153
-0.5365904569625854,1.9250258207321167,9.741479873657227,0.020997874438762665,-0.0426829531788826,0.002061609411612153
-0.529412031173706,1.9202401638031006,9.669695854187012,0.02160872146487236,-0.04390464723110199,-0.0009926267666742206
-0.5246263742446899,1.9250258207321167,9.652945518493652,0.019776180386543274,-0.03718532621860504,-0.0022143214009702206
-0.527019202709198,1.970489501953125,9.63619613647461,0.008551862090826035,-0.013362283818423748,-0.0028251686599105597
-0.5222335457801819,1.9896320104599,9.676874160766602,-0.00259610079228878,0.009239064529538155,-0.0016034740256145597
-0.5078766345977783,1.994417667388916,9.717552185058594,-0.009391776286065578,0.023899398744106293,0.0008399150101467967
-0.5030909776687622,1.9657038450241089,9.741479873657227,-0.011300674639642239,0.025121092796325684,0.004504998680204153
-0.5150550603866577,1.932204246520996,9.75105094909668,-0.008780929259955883,0.014736690558493137,0.002672456670552492
-0.529412031173706,1.9178473949432373,9.763015747070312,-0.005726693198084831,0.0019088976550847292,-0.0016034740256145597
-0.5461617708206177,1.9680966138839722,9.75105094909668,0.0005344913806766272,-0.008475505746901035,-0.0016034740256145597
-0.5485545992851257,2.001596212387085,9.748658180236816,0.007941014133393764,-0.017027366906404495,0.0032833039294928312
-0.5102694034576416,2.011167526245117,9.712766647338867,0.011682453565299511,-0.024968381971120834,0.0038941511884331703
-0.4911268353462219,1.9776679277420044,9.672088623046875,0.007330167107284069,-0.023746687918901443,-0.0034360159188508987
-0.5222335457801819,1.9776679277420044,9.631410598754883,-7.635590736754239e-05,-0.009697199799120426,-0.013209572061896324
-0.5509474277496338,1.9609181880950928,9.650552749633789,-0.007559234742075205,0.00862821750342846,-0.014431266114115715
-0.584446907043457,1.9441684484481812,9.72233772277832,-0.015042114071547985,0.023899398744106293,-0.0028251686599105597
-0.5557330846786499,1.9298114776611328,9.758230209350586,-0.015652960166335106,0.025121092796325684,0.015500249341130257
-0.649053156375885,2.133500576019287,10.335199356079102,0.07505785673856735,-0.1605764776468277,0.008780929259955883
-0.36191442608833313,1.9298114776611328,10.751849174499512,0.22540263831615448,-0.45622655749320984,-0.011377030052244663
-0.19172491133213043,1.8005990982055664,9.497411727905273,0.23471805453300476,-0.3865899443626404,0.011835165321826935
-0.19172491133213043,1.9369899034500122,8.139784812927246,-0.24678228795528412,0.26335152983665466,0.0295497365295887
-0.2706880569458008,2.1071794033050537,9.562018394470215,-0.284654825925827,0.637190043926239,0.002061609411612153
-0.47676992416381836,2.1981067657470703,10.847562789916992,-0.18271969258785248,0.6958313584327698,-0.018096350133419037
-0.6586244106292725,2.068894386291504,10.890633583068848,-0.10071343928575516,0.26762744784355164,-0.026037365198135376
-0.8237292170524597,1.872383713722229,10.3016996383667,-0.013133215717971325,-0.2259371280670166,-0.03214583545923233
-0.8955138921737671,1.7575281858444214,9.856335639953613,0.12789614498615265,-0.38781166076660156,-0.03458922728896141
-0.8141579031944275,1.8005990982055664,9.557232856750488,0.21356746554374695,-0.31084489822387695,-0.016874656081199646
-0.646660327911377,1.9800606966018677,9.35623550415039,0.1483595222234726,-0.2259371280670166,0.02710634656250477
-0.4217349886894226,2.109572172164917,9.29611587524414,0.027869906276464462,-0.12392564117908478,0.06681142002344131
-0.21326032280921936,2.116750717163086,9.375378608703613,-0.029320668429136276,0.030007870867848396,0.06192464008927345
-0.1701895147562027,2.0976080894470215,9.583553314208984,-0.041766680777072906,0.1283542811870575,0.014889402315020561
-0.24197418987751007,2.042274236679077,9.834799766540527,-0.053525492548942566,0.11186140775680542,-0.031534988433122635
-0.39541393518447876,1.9800606966018677,9.952347755432129,-0.041766680777072906,0.06482616811990738,-0.040697697550058365
-0.5485545992851257,1.8939191102981567,9.865906715393066,-0.006948387715965509,0.04405735805630684,-0.014431266114115715
-0.5988038778305054,1.8293129205703735,9.746265411376953,0.018554486334323883,0.025121092796325684,0.01794363744556904
-0.582054078578949,1.8508483171463013,9.727123260498047,0.022906772792339325,7.635590736754239e-05,0.03626905754208565
-0.5318048596382141,1.908276081085205,9.755837440490723,0.02351761981844902,-0.0035887276753783226,0.03687990456819534
-0.46002015471458435,1.9513468742370605,9.763015747070312,0.027869906276464462,0.0025197449140250683,0.016721943393349648
-0.8476574420928955,2.289033889770508,8.408080101013184,-0.04856235533952713,0.05688514932990074,-0.005268557462841272
-0.06969095766544342,1.932204246520996,10.048060417175293,-0.16286714375019073,0.2981698215007782,0.0008399150101467967
-0.1941177397966385,1.7742780447006226,11.036894798278809,-0.04107947647571564,0.40140300989151,-0.06329904496669769
