accX,accY,accZ,gyroX,gyroY,gyroZ
-0.2296518236398697,0.14709016680717468,9.338162422180176,0.15446163713932037,0.020961403846740723,0.02790781483054161
0.5913486480712891,-0.05306508392095566,12.244560241699219,-0.1998751014471054,-0.6989694833755493,0.02267182618379593
0.7298197150230408,0.0066271498799324036,12.560968399047852,0.3315601944923401,0.9906663298606873,-0.03717551380395889
-0.5272032022476196,0.3063333034515381,6.357361793518066,0.1655968427658081,0.35177111625671387,-0.015149458311498165
-0.11914505064487457,0.17756356298923492,9.83820629119873,-0.4243418872356415,-1.0152928829193115,0.033335790038108826
0.7952675819396973,-0.07544608414173126,12.09337043762207,-0.062255892902612686,-0.16566665470600128,0.004694935865700245
0.1632653921842575,0.05945281311869621,11.085451126098633,0.3744603991508484,0.993074893951416,-0.034086279571056366
-0.5721758604049683,0.31520143151283264,6.127566337585449,-0.11098548769950867,-0.2304358184337616,0.005515240598469973
-0.279977947473526,0.18999426066875458,8.596649169921875,-0.3669380247592926,-0.8579340577125549,0.0286583062261343
0.7761618494987488,-0.05697242170572281,12.135979652404785,-0.03497639670968056,-0.08190830051898956,0.0017976891249418259
0.5603389143943787,-0.04623682051897049,12.058808326721191,0.21404717862606049,0.6516186594963074,-0.022479841485619545
-0.4988749921321869,0.3039774000644684,6.5987162590026855,0.1638515144586563,0.34407421946525574,-0.015184364281594753
-0.10469365119934082,0.11627200990915298,10.044557571411133,-0.33515557646751404,-0.8454549312591553,0.027401668950915337
0.7558590173721313,-0.0593666210770607,12.546392440795898,0.024120450019836426,0.10845475643873215,-0.00427605677396059
-0.15788322687149048,0.10665689408779144,10.19363021850586,0.31784191727638245,0.74771648645401,-0.02754129469394684
-0.43698009848594666,0.2808781564235687,7.228870391845703,-0.2309943288564682,-0.5020264983177185,0.015550883486866951
0.4518049955368042,-0.014480131678283215,11.912235260009766,-0.13084733486175537,-0.403816819190979,0.011327186599373817
0.42227011919021606,0.022811952978372574,11.286334991455078,0.23397883772850037,0.677344799041748,-0.02471386268734932
-0.47502875328063965,0.31607291102409363,6.204180717468262,0.011222466826438904,0.029775317758321762,-0.003176499158143997
0.2990070581436157,0.05687665194272995,11.231937408447266,-0.23081979155540466,-0.6474822163581848,0.019826939329504967
0.4827955365180969,-0.006569689139723778,11.454780578613281,0.07649777829647064,0.24438099563121796,-0.009826203808188438
-0.20041382312774658,0.2107950896024704,8.720525741577148,0.24015730619430542,0.5543340444564819,-0.020472712814807892
-0.26586171984672546,0.21523872017860413,8.332367897033691,-0.015428710728883743,-0.026738444343209267,-0.0010646508308127522
-0.40928396582603455,0.2827743589878082,6.762728691101074,-0.04398229718208313,-0.08937831223011017,0.0021118484437465668
0.372374951839447,0.0629291981458664,10.891615867614746,-0.17411404848098755,-0.4852713346481323,0.015289084054529667
0.4341166317462921,0.03242706507444382,11.248016357421875,0.11215485632419586,0.33107149600982666,-0.01129228062927723
-0.30892860889434814,0.20949263870716095,7.80070161819458,0.13151055574417114,0.2961823642253876,-0.010698867961764336
-0.05879201367497444,0.10426269471645355,10.177970886230469,-0.22685790061950684,-0.5668480396270752,0.018448129296302795
0.3745201826095581,0.02225649729371071,11.32138442993164,-0.12150982022285461,-0.3441789150238037,0.010506882332265377
0.34660378098487854,0.03607583045959473,11.284820556640625,0.1616174876689911,0.4603305757045746,-0.017208946868777275
-0.34218886494636536,0.254762202501297,7.609012126922607,0.024870941415429115,0.05647885426878929,-0.00296705961227417
0.22466230392456055,0.0694318488240242,10.924723625183105,-0.17580701410770416,-0.4842416048049927,0.01401499379426241
0.3978588581085205,0.04383304342627525,11.27408504486084,-0.04495968297123909,-0.12370893359184265,0.0025830871891230345
0.06388687342405319,0.06486371159553528,10.57813835144043,0.19767598807811737,0.5155702829360962,-0.019233528524637222
-0.3025887608528137,0.23737072944641113,7.85270357131958,-0.09808750450611115,-0.224065363407135,0.006387905217707157
-0.3021290898323059,0.22666385769844055,7.782955646514893,-0.06916739791631699,-0.15461872518062592,0.003508111694827676
0.35142090916633606,0.03353797644376755,11.23292350769043,-0.09180431813001633,-0.24757495522499084,0.007400196045637131
0.20554699003696442,0.06988195329904556,10.72160816192627,0.16027358174324036,0.43622758984565735,-0.01507964450865984
-0.2702862024307251,0.2309255301952362,7.900817394256592,-0.0780685767531395,-0.17968164384365082,0.005044001620262861
0.33208534121513367,0.03500322625041008,11.237253189086914,-0.06658431142568588,-0.1848827302455902,0.004293509759008884
0.08711063116788864,0.08134539425373077,10.405966758728027,0.15606734156608582,0.4078660011291504,-0.014224433340132236
-0.23297497630119324,0.21080465614795685,8.279886245727539,-0.10976375639438629,-0.25987952947616577,0.008185594342648983
0.33770692348480225,0.028586767613887787,11.205495834350586,-0.02200860157608986,-0.06257005035877228,0.0008203047327697277
-0.08668924868106842,0.146324023604393,9.48653507232666,0.13758429884910583,0.33046063780784607,-0.012636183761060238
-0.07467035949230194,0.16542017459869385,9.10709285736084,-0.13603095710277557,-0.3312634825706482,0.009791296906769276
0.3412024676799774,0.043095629662275314,11.148561477661133,0.030421089380979538,0.09311331808567047,-0.003351032268255949
-0.1746234893798828,0.20711758732795715,8.487587928771973,0.07766715437173843,0.18362608551979065,-0.006981316953897476
0.12042833864688873,0.08873868733644485,10.318799018859863,-0.11632619053125381,-0.3110002279281616,0.009250245057046413
0.27388709783554077,0.06443275511264801,10.855205535888672,0.0812276229262352,0.2304009199142456,-0.008813912980258465
-0.03620990365743637,0.1361342966556549,9.510784149169922,0.11374310404062271,0.2785719931125641,-0.009948376566171646
-0.0700160339474678,0.127486452460289,9.505928039550781,-0.11557570099830627,-0.28475046157836914,0.007941247895359993
0.3119453191757202,0.03877649083733559,10.966391563415527,0.03663446009159088,0.10641272366046906,-0.004241149872541428
0.15538369119167328,0.09460926800966263,10.375205993652344,-0.08534660190343857,-0.22891739010810852,0.005986479111015797
0.1855219006538391,0.0897059440612793,10.517756462097168,0.08422958850860596,0.2333330661058426,-0.009930923581123352
-0.17745822668075562,0.17886601388454437,8.55794906616211,-0.047769661992788315,-0.11835077404975891,0.0019896754529327154
0.27544811367988586,0.05149448662996292,10.74571418762207,-0.020350538194179535,-0.05670574679970741,0.00027925267932005227
-0.021576544269919395,0.14081735908985138,9.529104232788086,0.08319984376430511,0.20903807878494263,-0.007487462367862463
0.03097139112651348,0.11601343005895615,9.942910194396973,-0.08487536013126373,-0.21666517853736877,0.005270894151180983
-0.035462915897369385,0.12685437500476837,9.236849784851074,-0.10636036098003387,-0.308225154876709,0.00905825849622488
0.2845364809036255,0.045652635395526886,10.417996406555176,-0.18041469156742096,-0.5775818228721619,0.016929693520069122
0.5746467113494873,-0.026431985199451447,11.103646278381348,-0.01895427517592907,-0.05475097894668579,0.00019198621157556772
0.6448638439178467,-0.028242001309990883,11.765020370483398,0.2997777462005615,0.9803165197372437,-0.03391174599528313
-0.388502299785614,0.27192384004592896,6.100454330444336,0.3153809905052185,0.6761056184768677,-0.030368728563189507
0.23609700798988342,0.025148693472146988,12.11772632598877,-0.39735910296440125,-1.127360463142395,0.03717551380395889
0.8625637888908386,0.0075273700058460236,11.659273147583008,0.11287043988704681,0.37175512313842773,-0.014119713567197323
-0.5627523064613342,0.33237263560295105,6.161113739013672,0.07841764390468597,0.16383405029773712,-0.011013027280569077
-0.08820238709449768,0.017410634085536003,11.24470329284668,-0.39767327904701233,-1.0533759593963623,0.034836772829294205
0.6578882932662964,-0.09509769082069397,13.684748649597168,-0.21666517853736877,-0.6672044396400452,0.020350538194179535
0.4377175271511078,-0.08673713356256485,12.473915100097656,0.3039141893386841,0.8814785480499268,-0.03113667294383049
-0.25420674681663513,0.15894626080989838,9.985172271728516,0.38526397943496704,0.8785638213157654,-0.03263765573501587
-0.5896918773651123,0.32448136806488037,6.232777118682861,-0.22251202166080475,-0.4729842245578766,0.012845623306930065
-0.07210377603769302,0.045556869357824326,11.021075248718262,-0.35327208042144775,-0.8982511758804321,0.030229102820158005
0.7790253162384033,-0.07007349282503128,12.61909008026123,0.08016297221183777,0.25335198640823364,-0.008621926419436932
-0.21314139664173126,0.1562647521495819,9.621655464172363,0.34580206871032715,0.7911577224731445,-0.029251718893647194
0.10518206655979156,0.003993528429418802,11.77824592590332,-0.314473420381546,-0.8649851679801941,0.028379052877426147
0.7313519716262817,-0.04199429601430893,12.518965721130371,0.09306095540523529,0.3090977966785431,-0.010733774863183498
-0.24252304434776306,0.21872468292713165,8.232893943786621,0.2887996435165405,0.6476218700408936,-0.02471386268734932
-0.4345284402370453,0.2088797241449356,7.9401397705078125,-0.2811550796031952,-0.6415306925773621,0.021729348227381706
0.598713219165802,-0.025292346253991127,11.909784317016602,-0.08716174215078354,-0.26108381152153015,0.008115780539810658
0.3006446957588196,0.027485433965921402,11.120789527893066,0.2728298604488373,0.7734775543212891,-0.027471482753753662
-0.518947958946228,0.311696320772171,6.2327961921691895,-0.06880088150501251,-0.1529257446527481,0.0011868239380419254
0.40511807799339294,0.0476350337266922,10.929800033569336,-0.20437805354595184,-0.5693787336349487,0.017331119626760483
0.42604339122772217,-0.005640739109367132,11.485311508178711,0.13323843479156494,0.3903428912162781,-0.014294246211647987
-0.3555772304534912,0.22261285781860352,7.699131011962891,0.18395769596099854,0.40161770582199097,-0.01532399095594883
-0.06145436689257622,0.1299859881401062,9.681788444519043,-0.24902357161045074,-0.6188239455223083,0.020437804982066154
0.36767274141311646,0.02616383507847786,11.2997407913208,-0.1416683793067932,-0.3989648222923279,0.01235693134367466
0.39882609248161316,0.02130839414894581,11.324649810791016,0.16453218460083008,0.48003536462783813,-0.015655603259801865
-0.39305129647254944,0.23630769550800323,7.696237564086914,0.08792968839406967,0.1901012659072876,-0.008168140426278114
0.047002967447042465,0.06110960245132446,10.820556640625,-0.21310469508171082,-0.5746322274208069,0.018814649432897568
0.4076271951198578,0.00888727605342865,11.388307571411133,0.04654793068766594,0.14048154652118683,-0.0045378562062978745
-0.17991946637630463,0.20907126367092133,8.686211585998535,0.18367844820022583,0.4323878586292267,-0.01567305624485016
-0.22448034584522247,0.19301095604896545,8.33079719543457,-0.1880766749382019,-0.44490188360214233,0.01417207345366478
0.4088146984577179,0.026929980143904686,11.206061363220215,-0.02830924093723297,-0.07585200667381287,0.0010646508308127522
0.0019249380566179752,0.0801004096865654,10.377304077148438,0.20387190580368042,0.5122017860412598,-0.018168877810239792
-0.2936248779296875,0.22720973193645477,7.871713638305664,-0.11479030549526215,-0.2624451518058777,0.008447393774986267
0.07361691445112228,0.07202716171741486,10.625439643859863,-0.18715165555477142,-0.49555131793022156,0.015428710728883743
0.4790605902671814,0.0031890764366835356,11.808364868164062,0.11456341296434402,0.33885568380355835,-0.01226966455578804
-0.3522445261478424,0.25494417548179626,7.592262268066406,0.0869872123003006,0.186610609292984,-0.0070685832761228085
0.03597048670053482,0.057432107627391815,10.841156005859375,-0.22511257231235504,-0.5903401374816895,0.018343409523367882
0.40118199586868286,0.0114347068592906,11.400374412536621,0.03733259439468384,0.11562806367874146,-0.0052534411661326885
-0.3342401087284088,0.26513388752937317,7.4591827392578125,0.0019024088978767395,0.008656833320856094,-0.0015882495790719986
0.25383326411247253,0.052078671753406525,10.92140007019043,-0.17119935154914856,-0.4692492187023163,0.01539380382746458
0.40205347537994385,0.019488800317049026,11.276995658874512,0.10527826100587845,0.3121695816516876,-0.011187560856342316
0.025445574894547462,0.08418013155460358,10.434256553649902,0.19694295525550842,0.4988325536251068,-0.017749998718500137
-0.27876168489456177,0.22989124059677124,7.866024971008301,-0.10578440874814987,-0.24178045988082886,0.006771877408027649
0.36788344383239746,0.021011512726545334,11.382773399353027,-0.08403760194778442,-0.22883011400699615,0.006475171539932489
0.3979546129703522,0.031249118968844414,11.341303825378418,0.05801474303007126,0.17381733655929565,-0.006265731994062662
-0.22577321529388428,0.2200462818145752,8.10776424407959,0.11503464728593826,0.2695311903953552,-0.009285151958465576
-0.06339845806360245,0.1400320678949356,9.73342514038086,-0.18071138858795166,-0.45643851161003113,0.014748032204806805
0.38036203384399414,0.009251195006072521,11.317286491394043,0.04368559271097183,0.1414240300655365,-0.005410520825535059
-0.19506996870040894,0.20974163711071014,8.236811637878418,0.10869910567998886,0.25158920884132385,-0.008779006078839302
0.342447429895401,0.029515717178583145,11.15937328338623,-0.0725882425904274,-0.2056346982717514,0.005654866807162762
0.10486602783203125,0.0807037502527237,10.519547462463379,0.1555088311433792,0.4138350188732147,-0.014678219333291054
-0.24319341778755188,0.21126434206962585,8.142268180847168,-0.09955357760190964,-0.2353227436542511,0.00769690191373229
0.35551977157592773,0.031699229031801224,11.230530738830566,-0.03300417587161064,-0.09018116444349289,0.0016755161341279745
-0.04633259028196335,0.13233231008052826,9.72530460357666,0.14405947923660278,0.35129988193511963,-0.012461651116609573
-0.10863929241895676,0.15931017696857452,8.863986015319824,-0.13199925422668457,-0.31981414556503296,0.009686577133834362
0.36606383323669434,0.036363132297992706,11.127732276916504,0.020053833723068237,0.056234508752822876,-0.002775073517113924
-0.15338213741779327,0.17498740553855896,8.695300102233887,0.09056513756513596,0.21535617113113403,-0.007819075137376785
0.05253836140036583,0.11048761755228043,10.19693374633789,-0.12479104101657867,-0.3246137797832489,0.009721484035253525
0.2929832339286804,0.04068227484822273,10.946126937866211,0.07195992767810822,0.20863665640354156,-0.006667157635092735
-0.010199299082159996,0.12061987817287445,9.810653686523438,0.09395107626914978,0.2382199913263321,-0.0077841682359576225
0.00979707296937704,0.09350793808698654,9.995255470275879,-0.12224286049604416,-0.3130422532558441,0.00890117883682251
0.3186490833759308,0.058715399354696274,10.993264198303223,0.024521876126527786,0.07730063050985336,-0.0027925267349928617
-0.16454869508743286,0.18916107714176178,8.603276252746582,0.056269414722919464,0.1345474272966385,-0.004886921960860491
-0.16501794755458832,0.19388245046138763,8.510286331176758,-0.0763406977057457,-0.17893114686012268,0.005689773242920637
0.30885201692581177,0.04723281040787697,10.886396408081055,-0.008883725851774216,-0.023090705275535583,-0.0003316125657875091
-0.09404423832893372,0.16650235652923584,9.160924911499023,0.08196066319942474,0.20118410885334015,-0.006352998316287994
0.057317186146974564,0.10215579718351364,10.007390022277832,-0.09519025683403015,-0.24575981497764587,0.00724311638623476
0.23561817407608032,0.06478709727525711,10.62153148651123,0.057735491544008255,0.16345007717609406,-0.006248278543353081
-0.178827702999115,0.19626706838607788,8.524545669555664,-0.008133234456181526,-0.018238689750432968,0.00043633230961859226
0.2170487344264984,0.059136778116226196,10.603421211242676,-0.04181808978319168,-0.11390018463134766,0.002199114765971899
0.24840320646762848,0.07070556282997131,10.65771198272705,0.038781214505434036,0.11198032647371292,-0.004869468510150909
-0.15427277982234955,0.19265662133693695,8.61623477935791,0.008813912980258465,0.02396337129175663,-0.0014486232539638877
0.11025777459144592,0.08746497333049774,10.356013298034668,-0.10580185800790787,-0.2778913080692291,0.008447393774986267
0.2510751187801361,0.059328313916921616,10.704072952270508,0.07888887822628021,0.22228513658046722,-0.008133234456181526
-0.19192877411842346,0.1989198476076126,8.403542518615723,-0.026249751448631287,-0.05845107510685921,0.0008203047327697277
0.24464909732341766,0.06423164159059525,10.720832824707031,-0.04277801886200905,-0.11768755316734314,0.0026179938577115536
0.049042824655771255,0.12322476506233215,9.894805908203125,0.0967959612607956,0.24785420298576355,-0.007679448463022709
-0.06798575073480606,0.14737747609615326,9.350574493408203,-0.09077457338571548,-0.2249205857515335,0.006475171539932489
0.2558826804161072,0.057594913989305496,10.743500709533691,0.027628561481833458,0.08836601674556732,-0.003176499158143997
-0.1462378352880478,0.19484969973564148,8.649073600769043,0.026947883889079094,0.06606071442365646,-0.0034208453726023436
0.24606646597385406,0.0385083369910717,10.698125839233398,0.013823007233440876,0.0423416867852211,-0.0015882495790719986
-0.12456551939249039,0.17686446011066437,8.829290390014648,0.03825761750340462,0.08789478242397308,-0.0028623400721699
-0.09493488073348999,0.1657457947731018,8.946910858154297,-0.06354743987321854,-0.15214034914970398,0.003944444004446268
0.23017853498458862,0.0632835403084755,10.59891128540039,0.007278022821992636,0.0246265958994627,-0.0010646508308127522
-0.09677363187074661,0.16171395778656006,9.038572311401367,0.03963642567396164,0.096761055290699,-0.004066617228090763
0.3017077147960663,0.030770279467105865,11.20430850982666,-0.0200189258903265,-0.041748274117708206,0.00094247778179124
-0.11794795095920563,0.13749420642852783,9.513044357299805,0.15334463119506836,0.32683035731315613,-0.011013027280569077
-0.21489395201206207,0.171329066157341,8.870296478271484,-0.16812756657600403,-0.36765360832214355,0.011903145350515842
0.35289573669433594,0.022907720878720284,11.32444953918457,-0.04525638744235039,-0.12093386054039001,0.002600540639832616
-0.008858545683324337,0.10358273983001709,9.917014122009277,0.1322086900472641,0.3315078318119049,-0.011850785464048386
-0.11275731772184372,0.16438588500022888,8.876465797424316,-0.12295844405889511,-0.29365164041519165,0.009372417815029621
0.3446405231952667,0.02280237525701523,11.08967399597168,0.018500490114092827,0.05717698484659195,-0.0021816615480929613
-0.16125427186489105,0.17649096250534058,8.585175514221191,0.07449065148830414,0.17765706777572632,-0.0077667152509093285
0.0947912260890007,0.08264783769845963,10.24385929107666,-0.11105529963970184,-0.2940879762172699,0.009005898609757423
0.26108288764953613,0.05960604175925255,10.7393159866333,0.07665485888719559,0.21711896359920502,-0.008429939858615398
-0.2112930864095688,0.1960180699825287,8.363702774047852,-0.014992378652095795,-0.03534291684627533,0.00020943951676599681
0.1465538740158081,0.06675991415977478,10.415888786315918,0.08923868089914322,0.23710298538208008,-0.007417649496346712
-0.14445655047893524,0.17465221881866455,8.743681907653809,-0.06921976059675217,-0.1621759980916977,0.0046774824149906635
0.25410139560699463,0.05324704200029373,10.7281494140625,-0.0007504915702156723,0.004660028964281082,-0.0007504915702156723
-0.10441592335700989,0.15588167309761047,9.050704956054688,0.05602506920695305,0.14002776145935059,-0.0051312679424881935
-0.04546109959483147,0.13881580531597137,9.332197189331055,0.06073745712637901,0.150342658162117,-0.004712388850748539
0.3298156261444092,0.05001965910196304,11.12331771850586,-0.03249803185462952,-0.06468190252780914,0.001483529806137085
-0.10050858557224274,0.20403386652469635,8.946135520935059,0.22591541707515717,0.47476446628570557,-0.018308503553271294
-0.3561805784702301,0.28194117546081543,7.489924430847168,-0.10330604016780853,-0.20781634747982025,0.005881759338080883
-0.2488437443971634,0.26206931471824646,7.632628440856934,-0.31209978461265564,-0.6565055847167969,0.023439772427082062
0.466763973236084,-0.008992621675133705,11.727680206298828,-0.1307949721813202,-0.3925420045852661,0.012252211570739746
0.4181137979030609,0.02061886340379715,11.231132507324219,0.22849850356578827,0.6202900409698486,-0.02200860157608986
-0.48699018359184265,0.29953378438949585,6.198214530944824,-0.028989918529987335,-0.06572909653186798,-0.0010471974965184927
0.25710850954055786,0.04757757484912872,11.310601234436035,-0.22472859919071198,-0.6376909613609314,0.01935570128262043
0.4773750603199005,-0.009356539696455002,11.386459350585938,0.06845181435346603,0.20984093844890594,-0.007749261800199747
0.8988215923309326,-0.11206778883934021,14.423149108886719,0.07194247096776962,0.19338248670101166,-0.005829399451613426
-0.38507381081581116,0.22989124059677124,-0.5835818648338318,0.029827676713466644,0.05982988700270653,-0.037751469761133194
0.042856208980083466,0.1225256621837616,9.892765998840332,-0.15653857588768005,-0.32557371258735657,0.010157816112041473
0.0014556745300069451,0.15632221102714539,9.479114532470703,-0.11334168165922165,-0.2692868411540985,0.008168140426278114
-0.06806236505508423,0.1611585021018982,8.964762687683105,0.07332128286361694,0.17929767072200775,-0.0057246801443398
0.08605717867612839,0.0932493656873703,10.101203918457031,-0.08628907799720764,-0.22397810220718384,0.006544984877109528
-0.024420855566859245,0.12485282868146896,9.535195350646973,0.08218755573034286,0.20504127442836761,-0.007557275705039501
0.03753150254487991,0.11209651827812195,9.899343490600586,-0.08347909897565842,-0.21032962203025818,0.005462880712002516
0.200337216258049,0.07743805646896362,10.530962944030762,0.03818780556321144,0.11353366822004318,-0.004136430099606514
-0.1551155298948288,0.18852901458740234,8.578376770019531,0.0006632251315750182,0.0049916417337954044,-0.00094247778179124
0.19094236195087433,0.09815268963575363,10.52489185333252,-0.03436553105711937,-0.09140289574861526,0.0013613568153232336
0.3452438712120056,0.019182343035936356,11.61662769317627,0.10871656239032745,0.2865481674671173,-0.01014036312699318
-0.25244462490081787,0.23420080542564392,7.900301456451416,0.049986228346824646,0.09697049111127853,-0.004241149872541428
0.024918850511312485,0.13609600067138672,9.808679580688477,-0.18812903761863708,-0.4530874788761139,0.014398965984582901
0.1326770782470703,0.07629841566085815,10.439465522766113,-0.09531243145465851,-0.2280796319246292,0.007400196045637131
-0.2407800704240799,0.21596656739711761,8.243523597717285,-0.026511551812291145,-0.06295402348041534,0.0006806784076616168
0.28358837962150574,0.0663672685623169,10.842880249023438,-0.05784020945429802,-0.1500983089208603,0.0036477381363511086
0.06156928837299347,0.09708008915185928,10.186304092407227,0.1158025935292244,0.29448941349983215,-0.010332348756492138
-0.13025414943695068,0.18211254477500916,8.847580909729004,-0.09979792684316635,-0.23870867490768433,0.006684611085802317
0.31422460079193115,0.04131434112787247,10.931818962097168,0.015690509229898453,0.046705011278390884,-0.0021816615480929613
-0.14755943417549133,0.17562904953956604,8.779613494873047,0.06112143024802208,0.14358823001384735,-0.005305801052600145
0.13371136784553528,0.08776185661554337,10.294472694396973,-0.08663814514875412,-0.22771310806274414,0.007278022821992636
0.47444456815719604,-0.012679691426455975,12.694880485534668,0.18496999144554138,0.42011821269989014,-0.017296213656663895
-1.0082653760910034,0.35360443592071533,5.209332466125488,-0.08794713765382767,-0.189542755484581,-0.016406094655394554
-0.07709328830242157,0.15179237723350525,9.852895736694336,-0.2889567017555237,-0.6904173493385315,0.02263692021369934
0.43912529945373535,0.000641646038275212,11.307125091552734,0.10248573124408722,0.30262264609336853,-0.011501720175147057
-0.4200866222381592,0.2744808495044708,6.8088507652282715,-0.055344391614198685,-0.11856021732091904,0.003281218931078911
0.38105154037475586,0.06052541732788086,10.952275276184082,-0.17786650359630585,-0.49125781655311584,0.014835298992693424
0.4329482614994049,0.004903324879705906,11.33981990814209,0.11321950703859329,0.3300941288471222,-0.012287117540836334
-0.29643088579177856,0.23589590191841125,7.837466716766357,0.1448972374200821,0.3300941288471222,-0.011728612706065178
-0.07529285550117493,0.17305289208889008,9.224207878112793,-0.23340287804603577,-0.5707575678825378,0.01776745170354843
-0.3373238444328308,0.22105184197425842,7.8389811515808105,0.07155849784612656,0.15891222655773163,-0.0061610122211277485
0.016050728037953377,0.08201576769351959,10.586968421936035,-0.20432569086551666,-0.5457993745803833,0.01665044017136097
0.4261583089828491,0.021260511130094528,11.359855651855469,0.05483824387192726,0.1641831248998642,-0.006806783843785524
-0.32368648052215576,0.2433849573135376,7.8201518058776855,-0.0247662216424942,-0.054541539400815964,0.00062831852119416
0.29774290323257446,0.030415937304496765,10.926897048950195,-0.14725342392921448,-0.4086513817310333,0.012130037881433964
0.3351307511329651,0.005209782626479864,11.205965042114258,0.13432054221630096,0.38386771082878113,-0.013002702966332436
-0.29430484771728516,0.22380997240543365,7.890368938446045,0.03223622962832451,0.07541567832231522,-0.00376991112716496
0.19841226935386658,0.07104074954986572,10.756756782531738,-0.16123351454734802,-0.4392819106578827,0.012880530208349228
0.41534608602523804,0.019163189455866814,11.299511909484863,-0.0114493602886796,-0.028448866680264473,-8.726646046852693e-05
-0.09067320078611374,0.14428415894508362,9.379544258117676,0.1687558889389038,0.40051814913749695,-0.014992378652095795
-0.2558252215385437,0.2157558649778366,8.192977905273438,-0.12808971107006073,-0.2978404462337494,0.00970403105020523
0.39351096749305725,0.02343444526195526,11.313933372497559,-0.03415609151124954,-0.09276425093412399,0.0013788101496174932
-0.024593239650130272,0.11922166496515274,9.779825210571289,0.15971508622169495,0.3963293731212616,-0.014119713567197323
-0.20887014269828796,0.18734148144721985,8.442416191101074,-0.13526301085948944,-0.3185923993587494,0.009843656793236732
0.38086000084877014,0.04093126952648163,11.220598220825195,-0.007627088576555252,-0.01687733456492424,0.0003665191470645368
-0.09462842345237732,0.16198210418224335,9.256941795349121,0.13261011242866516,0.3199886679649353,-0.011938052251935005
0.17564821243286133,0.0547410249710083,10.592571258544922,0.12770573794841766,0.3451039493083954,-0.012601276859641075
-0.23254401981830597,0.21815964579582214,8.21065616607666,-0.06544984877109528,-0.1540776640176773,0.00411897711455822
-0.2191077470779419,0.1986038088798523,8.295698165893555,0.0239110104739666,0.05244714394211769,-0.002146754879504442
0.19002299010753632,0.06350380182266235,10.561254501342773,-0.09211847931146622,-0.24644048511981964,0.0073303827084600925
0.19317376613616943,0.08268614858388901,10.554177284240723,0.09976302087306976,0.27494171261787415,-0.009791296906769276
0.2775645852088928,0.049473781138658524,10.79704475402832,-0.040194932371377945,-0.10510372370481491,0.002146754879504442
0.26558399200439453,0.05554547533392906,10.772327423095703,0.06635741889476776,0.1811302751302719,-0.006300638429820538
-0.1785787045955658,0.1960180699825287,8.472428321838379,0.005986479111015797,0.015428710728883743,-0.0013788101496174932
-0.07253473252058029,0.15649458765983582,9.169906616210938,-0.09550441801548004,-0.23525293171405792,0.0063355453312397
0.28317660093307495,0.057173535227775574,10.826177597045898,0.01673770695924759,0.0590444877743721,-0.003926991019397974
-0.11795752495527267,0.17809028923511505,8.838262557983398,0.05311036854982376,0.12487830966711044,-0.0050090947188436985
0.022333111613988876,0.09817184507846832,9.729289054870605,-0.10330604016780853,-0.2791828513145447,0.00823795422911644
0.20086394250392914,0.07296568900346756,10.277828216552734,-0.04255112633109093,-0.12053243815898895,0.002548180753365159
0.27246972918510437,0.0539078414440155,10.649734497070312,0.07482226192951202,0.22101104259490967,-0.00890117883682251
-0.171951562166214,0.18667110800743103,8.526354789733887,0.09724974632263184,0.23434536159038544,-0.008970992639660835
0.03137361630797386,0.09934978932142258,10.063346862792969,-0.13009683787822723,-0.33601078391075134,0.009424777701497078
0.29934224486351013,0.04871721565723419,10.977941513061523,0.061191242188215256,0.18367844820022583,-0.00708603672683239
-0.2018120437860489,0.20228131115436554,8.320685386657715,0.03249803185462952,0.07211700081825256,-0.00251327408477664
0.18288826942443848,0.08079951256513596,10.556256294250488,-0.09421287477016449,-0.25846579670906067,0.007522369269281626
0.20993317663669586,0.075934499502182,10.58059024810791,0.09644689410924911,0.26539477705955505,-0.010088003240525723
-0.1980004757642746,0.20555657148361206,8.418885231018066,-0.03947934880852699,-0.10177014768123627,0.003001966280862689
0.2604508399963379,0.054329223930835724,10.760011672973633,0.0564439482986927,0.15791739523410797,-0.005497787147760391
-0.17851166427135468,0.1997721791267395,8.46310043334961,0.015515976585447788,0.042236968874931335,-0.0021293016616255045
0.1741829514503479,0.08457277715206146,10.542991638183594,-0.07059856504201889,-0.1881115883588791,0.005532693583518267
0.28469929099082947,0.05340984836220741,10.83348560333252,0.020367993041872978,0.059917151927948,-0.002251474652439356
-0.10907982289791107,0.17331147193908691,8.864645957946777,0.056409042328596115,0.13821262121200562,-0.005497787147760391
0.10385088622570038,0.0911233127117157,10.188151359558105,-0.08187339454889297,-0.2125461995601654,0.005061454605311155
0.1838076412677765,0.07637502998113632,10.51311206817627,0.06016149744391441,0.16901768743991852,-0.005358160939067602
-0.18300318717956543,0.1962479203939438,8.63849925994873,-0.020804325118660927,-0.049672070890665054,0.0010995573829859495
0.19801004230976105,0.08149862289428711,10.528482437133789,-0.03366740047931671,-0.09229300916194916,0.001658062799833715
0.12348334491252899,0.080684594810009,10.258214950561523,0.06733480095863342,0.17863444983959198,-0.00663225119933486
-0.041697416454553604,0.1491970717906952,9.213376998901367,-0.05749114602804184,-0.1396612524986267,0.0024958208668977022
0.18773414194583893,0.08467812091112137,10.457862854003906,0.006143558770418167,0.01926843449473381,-0.0007853981805965304
-0.08594226092100143,0.16429969668388367,9.170098304748535,0.0371580608189106,0.09033824503421783,-0.002914699725806713
0.12044749408960342,0.09459969401359558,10.2420015335083,-0.04848524555563927,-0.12205087393522263,0.0021118484437465668
0.1378198266029358,0.10091081261634827,10.266308784484863,0.0483805276453495,0.13177235424518585,-0.005218534264713526
-0.07213250547647476,0.1618671864271164,9.225193977355957,-0.04084070399403572,-0.09800023585557938,0.0014486232539638877
0.1818731278181076,0.06866570562124252,10.375360488891602,0.00457276264205575,0.016371188685297966,-0.0009773843921720982
0.10930966585874557,0.09887094795703888,10.24070930480957,-0.029914943501353264,-0.07730063050985336,0.00094247778179124
0.07135678082704544,0.10217494517564774,9.906882286071777,0.042184606194496155,0.1106015145778656,-0.003490658476948738
0.01872265711426735,0.11834059655666351,9.698921203613281,-0.03848451003432274,-0.09794788062572479,0.002827433403581381
0.13483186066150665,0.09889967739582062,10.258138656616211,0.024242622777819633,0.0670904591679573,-0.0037350046914070845
-0.0322355292737484,0.13612473011016846,9.207870483398438,-0.010646508075296879,-0.03029891662299633,-0.00022689280740451068
0.08286810666322708,0.11831186711788177,9.9217529296875,-0.023195425048470497,-0.059725165367126465,0.00041887903353199363
0.04412034526467323,0.11084195971488953,9.774950981140137,0.028204521164298058,0.0711570754647255,-0.0021642083302140236
-0.023645134642720222,0.14101848006248474,9.498248100280762,0.018238689750432968,0.049096111208200455,-0.0024085543118417263
0.0899357870221138,0.10765288025140762,10.037049293518066,-0.025569073855876923,-0.06504841893911362,0.00047123889089562
0.04893748089671135,0.10267294198274612,9.90941047668457,0.028536133468151093,0.07482226192951202,-0.0027925267349928617
0.025914838537573814,0.12918154895305634,9.70850658416748,-0.026459190994501114,-0.06400122493505478,0.0013788101496174932
0.1199207678437233,0.09445603936910629,10.150524139404297,0.014870204962790012,0.0394618958234787,-0.002199114765971899
0.11311165988445282,0.08607633411884308,10.156730651855469,-0.006527531426399946,-0.01441641990095377,-0.0005759586347267032
0.02457408607006073,0.13114479184150696,9.652914047241211,0.014800392091274261,0.039618972688913345,-0.0008028514566831291
0.08152735233306885,0.11372457444667816,9.935563087463379,-0.020053833723068237,-0.04769985005259514,-0.00015707963029854
0.07936299592256546,0.1115027591586113,9.938034057617188,0.0184306763112545,0.05019566789269447,-0.0017627825727686286
0.025914838537573814,0.12645214796066284,9.702817916870117,-0.01532399095594883,-0.037489671260118484,3.490658491500653e-05
0.1066473126411438,0.11285308748483658,10.088064193725586,0.004921828396618366,0.01984439417719841,-0.0015882495790719986
0.06832093745470047,0.12658622860908508,9.85602855682373,0.014695672318339348,0.0437903106212616,-0.002687806962057948
0.0809335932135582,0.10410946607589722,10.028411865234375,-0.008045967668294907,-0.017208946868777275,0.00038397242315113544
0.03955221176147461,0.12019849568605423,9.762118339538574,0.01127482671290636,0.03159045800566673,-0.0013264502631500363
0.047884032130241394,0.11447156965732574,9.863526344299316,-0.013561207801103592,-0.030665434896945953,3.490658491500653e-05
0.05844724923372269,0.11829271167516708,9.922558784484863,-0.010402162559330463,-0.023998277261853218,-0.00029670598451048136
0.06417418271303177,0.1272374540567398,9.884164810180664,0.00923279207199812,0.027436574921011925,-0.0008901178953237832
0.03834553435444832,0.11708603799343109,9.777873039245605,-0.00874409917742014,-0.020751964300870895,-1.7453292457503267e-05
0.06800489872694016,0.10901279002428055,9.967042922973633,0.0035953782498836517,0.012985249981284142,-0.0005934119690209627
0.025100810453295708,0.12530294060707092,9.743185043334961,-5.2359879191499203e-05,0.00024434609804302454,-0.0008203047327697277
0.05009627342224121,0.12582965195178986,9.832037925720215,-0.008918632753193378,-0.019338248297572136,0.0008028514566831291
0.06552451103925705,0.12554235756397247,9.942124366760254,0.0050090947188436985,0.016632987186312675,-0.0006632251315750182
0.022141575813293457,0.11963346600532532,9.755250930786133,-0.001972222002223134,-0.006824237294495106,-0.00012217304902151227
0.07336791604757309,0.11950896680355072,9.973343849182129,-0.0012391837080940604,-0.001029744278639555,-0.0006632251315750182
0.049780238419771194,0.11722011119127274,9.808162689208984,0.0024085543118417263,0.009564404375851154,-0.0013788101496174932
0.05858132615685463,0.11450987309217453,9.891270637512207,-0.005427973810583353,-0.012147491797804832,-0.00031415926059708
0.04747223109006882,0.12246820330619812,9.880142211914062,0.005061454605311155,0.01507964450865984,-0.0007330382941290736
0.05395572632551193,0.11961431056261063,9.814801216125488,-0.005235987715423107,-0.011484266258776188,-0.0003665191470645368
0.07093540579080582,0.11760318279266357,9.921849250793457,0.0020769417751580477,0.008011061698198318,-0.0006981316837482154
0.030990544706583023,0.11109095066785812,9.784383773803711,-0.00027925267932005227,-0.0004886921960860491,-0.0006806784076616168
0.07236234843730927,0.10936713218688965,9.908097267150879,-0.0014137167017906904,-0.004014257341623306,-0.00024434609804302454
0.05232767015695572,0.11784259974956512,9.816954612731934,0.0018675023457035422,0.00923279207199812,-0.0012740903766825795
0.04919605329632759,0.13479354977607727,9.869148254394531,-0.0036128314677625895,-0.009808750823140144,-0.00041887903353199363
0.0514274500310421,0.1165880411863327,9.821399688720703,-3.490658491500653e-05,0.0032114058267325163,-0.00125663704238832
0.060036998242139816,0.11480675637722015,9.89687442779541,-0.0013788101496174932,-0.005288347601890564,-0.0008377580670639873
0.06045837700366974,0.11633904278278351,9.858278274536133,0.0017104226863011718,0.007382742594927549,-0.0016406094655394554
0.12455594539642334,0.10269209742546082,10.500289916992188,0.12479104101657867,0.2934771180152893,-0.011013027280569077
-0.1769123375415802,0.20440734922885895,8.700835227966309,0.047630034387111664,0.09342747181653976,-0.0041015236638486385
-0.03599921613931656,0.15658079087734222,9.620697021484375,-0.15472343564033508,-0.3374943137168884,0.01160643994808197
0.24151748418807983,0.0529693178832531,10.802312850952148,-0.07609635591506958,-0.20662952959537506,0.005113814491778612
0.2907710075378418,0.032618600875139236,10.985143661499023,0.035988688468933105,0.10861183702945709,-0.0042236968874931335
-0.15243402123451233,0.1932695358991623,8.631891250610352,0.05548401549458504,0.1267632693052292,-0.005044001620262861
0.10536402463912964,0.0888727605342865,10.279791831970215,-0.093305304646492,-0.24439845979213715,0.007400196045637131
0.21968236565589905,0.08106766641139984,10.567220687866211,0.07475244998931885,0.20662952959537506,-0.007208209950476885
-0.17385734617710114,0.18678602576255798,8.531230926513672,-0.025045474991202354,-0.05668829381465912,0.0009250245057046413
0.22932620346546173,0.05680003762245178,10.67735481262207,-0.04194026067852974,-0.10903071612119675,0.0013613568153232336
0.06438487023115158,0.10738473385572433,10.021228790283203,0.09026842564344406,0.2353052943944931,-0.009162978269159794
-0.07139509171247482,0.13947661221027374,9.244769096374512,-0.08211774379014969,-0.20081758499145508,0.005532693583518267
0.2320939004421234,0.06054456904530525,10.681557655334473,0.01754055917263031,0.05267403647303581,-0.002914699725806713
-0.11473014205694199,0.16602352261543274,8.934412956237793,0.04029965400695801,0.09892526268959045,-0.002775073517113924
0.12498690187931061,0.08813534677028656,10.327829360961914,-0.06215117499232292,-0.16318827867507935,0.004485496319830418
0.1700170487165451,0.08988790214061737,10.428385734558105,0.058835048228502274,0.16111133992671967,-0.004974188283085823
-0.12536996603012085,0.16543933749198914,8.848289489746094,-0.03951425477862358,-0.0953298807144165,0.0012391837080940604
0.20092140138149261,0.09293332695960999,10.479393005371094,-0.0119555052369833,-0.030682887881994247,0.00022689280740451068
-0.13485100865364075,0.1861252337694168,8.860586166381836,-0.022165682166814804,-0.053302355110645294,0.00125663704238832
0.18121233582496643,0.08725428581237793,10.399445533752441,-0.016947146505117416,-0.039444439113140106,0.0003316125657875091
0.003888183506205678,0.11559205502271652,9.691364288330078,0.05365142226219177,0.13671164214611053,-0.0050090947188436985
0.05182009935379028,0.11808202415704727,9.911640167236328,-0.0529881976544857,-0.1353677362203598,0.0018675023457035422
0.17627069354057312,0.08829815685749054,10.337453842163086,0.034749504178762436,0.09798278659582138,-0.0034208453726023436
-0.0895814448595047,0.15981774032115936,9.066899299621582,-0.02370157092809677,-0.05523966997861862,0.0003665191470645368
0.1803504228591919,0.10341035574674606,10.385530471801758,-0.0036477381363511086,-0.0091455252841115,-3.490658491500653e-05
-0.010907982476055622,0.13474567234516144,9.422744750976562,0.028047440573573112,0.07237880676984787,-0.0035604715812951326
0.09267475455999374,0.09600748121738434,10.160484313964844,-0.03354522958397865,-0.0832347497344017,0.001117010717280209
0.08446743339300156,0.10644620656967163,9.961793899536133,0.03729768469929695,0.100234255194664,-0.0038397242315113544
0.015887921676039696,0.14622825384140015,9.684316635131836,-0.033684853464365005,-0.08618436008691788,0.0014486232539638877
0.12527421116828918,0.09583510458469391,10.25607967376709,0.019984019920229912,0.05368632823228836,-0.0035953782498836517
-0.026882095262408257,0.14562492072582245,9.322590827941895,-0.009267698042094707,-0.021554816514253616,-0.0005235987482592463
0.13240893185138702,0.07993759959936142,10.257171630859375,-0.004921828396618366,-0.012077677994966507,-0.0013089969288557768
0.0070772599428892136,0.13529154658317566,9.60294246673584,0.017610372975468636,0.046792276203632355,-0.0018675023457035422
0.0709737092256546,0.11124418675899506,10.040688514709473,-0.022881265729665756,-0.05625196173787117,0.0003665191470645368
-0.00879150815308094,0.13636414706707,9.516913414001465,0.004956734832376242,0.014625859446823597,-0.0008028514566831291
0.10709742456674576,0.10407115519046783,10.108463287353516,-0.014032446779310703,-0.034522611647844315,0.0012915435945615172
0.08788635581731796,0.10500968247652054,10.127406120300293,-0.005462880712002516,-0.011135200969874859,-0.00027925267932005227
0.07282203435897827,0.1085435226559639,10.028860092163086,0.014154620468616486,0.04145156964659691,-0.00041887903353199363
0.02777273766696453,0.12489113211631775,9.628138542175293,-0.011920598335564137,-0.03029891662299633,-0.0003490658418741077
0.09670659154653549,0.11318827420473099,10.10114574432373,0.0014137167017906904,0.006021386012434959,-0.0006632251315750182
0.007718905806541443,0.13691960275173187,9.641517639160156,0.004485496319830418,0.015044738538563251,-0.0010995573829859495
0.10443507134914398,0.10844775289297104,9.995514869689941,-0.009599311277270317,-0.027488935738801956,-0.00012217304902151227
0.04862144589424133,0.11597512662410736,9.820631980895996,0.01377064734697342,0.037088245153427124,-0.00205948855727911
0.03763685002923012,0.12891338765621185,9.78330135345459,0.010227628983557224,0.028117254376411438,-0.0011868239380419254
0.07686344534158707,0.1244218721985817,9.883159637451172,-0.010594148188829422,-0.03021164983510971,-0.00015707963029854
0.046323012560606,0.10503841191530228,9.950542449951172,0.010018189437687397,0.028204521164298058,-0.001745329238474369
0.021365854889154434,0.11675084382295609,9.752684593200684,-0.008499753661453724,-0.017994344234466553,0.00045378561480902135
0.09133400022983551,0.10945332050323486,9.98739242553711,0.0035604715812951326,0.008290314115583897,-0.00029670598451048136
0.028538882732391357,0.13025414943695068,9.744199752807617,0.0007853981805965304,0.0067369709722697735,-0.0007853981805965304
0.07319553196430206,0.11181879043579102,9.931550025939941,-0.004939281847327948,-0.014974924735724926,0.0
0.0637432262301445,0.1311926692724228,9.833695411682129,0.00724311638623476,0.021013764664530754,-0.00125663704238832
0.2774783968925476,0.04739561304450035,11.298112869262695,0.1391027420759201,0.3291865587234497,-0.011170106939971447
-0.12018892168998718,0.3464888632297516,9.06647777557373,0.20891590416431427,0.4098381996154785,-0.02117084339261055
-0.1040232703089714,0.2112930864095688,10.172187805175781,-0.0910189226269722,-0.1912880837917328,0.006859143730252981
0.0,0.144322469830513,10.326632499694824,0.010855947621166706,0.02090904489159584,-0.0016406094655394554
-0.2370067983865738,0.2428199201822281,8.309182167053223,-0.13184216618537903,-0.25967007875442505,0.007749261800199747
0.1811452955007553,-0.022697031497955322,11.81789493560791,-0.23366467654705048,-0.644550085067749,0.0200189258903265
0.42351511120796204,0.014566322788596153,11.393030166625977,0.0481012724339962,0.14652039110660553,-0.005567600484937429
0.4359745383262634,0.025062503293156624,11.260496139526367,-0.06359979510307312,-0.1768716722726822,0.0050090947188436985
0.2659096121788025,0.05139872059226036,10.921974182128906,0.2079734355211258,0.5728344917297363,-0.020839231088757515
-0.30524155497550964,0.25281810760498047,7.494128704071045,-0.04928809776902199,-0.10400416702032089,0.002251474652439356
0.03623863682150841,0.13281114399433136,9.527104377746582,-0.17640042304992676,-0.40507346391677856,0.013055062852799892
0.1395723819732666,0.13286861777305603,10.787793159484863,0.35496506094932556,0.7345741987228394,-0.028117254376411438
0.358622670173645,0.02865380421280861,11.303360939025879,-0.03583160787820816,-0.09794788062572479,0.0016406094655394554
-0.042951975017786026,0.13168108463287354,9.606561660766602,0.12693779170513153,0.30682888627052307,-0.010314895771443844
-0.22297678887844086,0.22584982216358185,8.147171020507812,0.0050090947188436985,0.013456488028168678,-0.001518436474725604
0.22233514487743378,0.058332327753305435,10.73889446258545,-0.08436921238899231,-0.23181463778018951,0.006771877408027649
-0.19030071794986725,0.1871212273836136,8.471068382263184,-0.06359979510307312,-0.15847589075565338,0.004084070213139057
-0.031086314469575882,0.12165417522192001,9.643787384033203,-0.10203194618225098,-0.25876250863075256,0.00799360778182745
0.28626030683517456,0.04067269712686539,10.79660415649414,0.039618972688913345,0.1114741787314415,-0.005044001620262861
-0.08532934635877609,0.17463307082653046,9.045716285705566,-0.0840899646282196,-0.20285962522029877,0.005515240598469973
0.2700372040271759,0.05915593355894089,10.806353569030762,0.012007865123450756,0.03392919898033142,-0.0020943949930369854
0.2482212483882904,0.07064810395240784,10.655500411987305,-0.006928957067430019,-0.01603957638144493,-0.0008726646192371845
-0.0583035983145237,0.1533246636390686,9.325511932373047,0.06531021744012833,0.16001178324222565,-0.005916666239500046
0.09287586808204651,0.10130345821380615,10.107667922973633,-0.07033676654100418,-0.18079864978790283,0.0041015236638486385
0.18574215471744537,0.07924807071685791,10.454740524291992,0.046268679201602936,0.12795008718967438,-0.003979350905865431
0.01054406352341175,0.11909716576337814,9.586297988891602,0.06640977412462234,0.16453218460083008,-0.005654866807162762
0.18303191661834717,0.08944737166166306,10.407690048217773,-0.017872171476483345,-0.04757767543196678,0.0010821041651070118
0.009911994449794292,0.12325350195169449,9.640531539916992,0.04995132237672806,0.13062043488025665,-0.005148721393197775
-0.09629479050636292,0.16725891828536987,8.996461868286133,-0.021589722484350204,-0.05239478498697281,-0.00029670598451048136
0.1530756801366806,0.09317275136709213,10.376461029052734,-0.0073303827084600925,-0.020629791542887688,-0.0006108652451075613
-0.008427589200437069,0.15299905836582184,9.475876808166504,0.034173548221588135,0.0867079570889473,-0.003455751808360219
0.10644620656967163,0.10522036999464035,10.139740943908691,-0.03693116828799248,-0.0947539210319519,0.0021293016616255045
0.09569144994020462,0.10884997993707657,10.014093399047852,0.04038691893219948,0.10841985046863556,-0.0049916417337954044
0.14364251494407654,0.09665870666503906,10.291389465332031,-0.01940806210041046,-0.04893903061747551,0.00031415926059708
-0.024325087666511536,0.14756901562213898,9.320674896240234,-0.013962633907794952,-0.036128316074609756,0.0008377580670639873
0.12223836034536362,0.09593086689710617,10.317248344421387,0.00022689280740451068,-0.00094247778179124,-0.0010995573829859495
-0.006789955776184797,0.14744451642036438,9.486650466918945,0.013456488028168678,0.035185836255550385,-0.0018151424592360854
0.1061684787273407,0.10809341073036194,10.123086929321289,-0.019826939329504967,-0.05103342607617378,0.00038397242315113544
0.0528448186814785,0.12196063250303268,9.843194961547852,0.024905849248170853,0.06859143823385239,-0.002478367416188121
0.04890875145792961,0.10350612550973892,9.823993682861328,-0.024748768657445908,-0.06274458765983582,0.0007679448463022709
0.09736739099025726,0.11227847635746002,10.102831840515137,0.017680184915661812,0.05216789245605469,-0.002234021434560418
-0.003581725526601076,0.13120225071907043,9.573589324951172,-0.0131772356107831,-0.03160791099071503,0.0008726646192371845
0.11397357285022736,0.09882306307554245,10.156941413879395,-0.00029670598451048136,0.006824237294495106,-0.0012740903766825795
0.004568136762827635,0.13676637411117554,9.597798347473145,0.007557275705039501,0.019373154267668724,-0.0011693706037476659
0.015217545442283154,0.13958194851875305,9.595702171325684,-0.00251327408477664,-0.009354964829981327,-0.00040142572834156454
0.11495040357112885,0.09265559911727905,10.208494186401367,0.006143558770418167,0.018500490114092827,-0.0014660765882581472
-0.014518438838422298,0.14948436617851257,9.441793441772461,-0.004084070213139057,-0.007382742594927549,-0.0006457717972807586
0.04886086657643318,0.11372457444667816,9.94852066040039,-0.022340213879942894,-0.04951499029994011,0.0002617993741296232
0.05867709219455719,0.12753432989120483,9.862300872802734,0.0030717793852090836,0.010681414976716042,-0.0008377580670639873
0.07857769727706909,0.1314033567905426,9.852445602416992,-0.0041015236638486385,-0.008691739290952682,-0.0003665191470645368
0.07096413522958755,0.1048756092786789,9.922367095947266,-0.002146754879504442,-0.004520402755588293,-0.0013264502631500363
0.06225881725549698,0.10528741031885147,9.815594673156738,-0.0011344640515744686,-0.0006632251315750182,-0.0006632251315750182
0.08687121421098709,0.10843817889690399,9.927557945251465,-0.0007330382941290736,-0.00047123889089562,-0.00029670598451048136
0.05452075973153114,0.10880209505558014,9.895627975463867,0.002740166848525405,0.008255407214164734,-0.0007504915702156723
0.040442854166030884,0.11119630187749863,9.8192720413208,-0.0020943949930369854,-0.0037000980228185654,-0.0005585053586401045
0.059136778116226196,0.12264057993888855,9.864819526672363,-0.0020420351065695286,-0.0049916417337954044,-0.0006108652451075613
0.060515839606523514,0.11092814803123474,9.882633209228516,0.0031066860537976027,0.0050090947188436985,-0.0006457717972807586
0.04047158360481262,0.12809936702251434,9.840752601623535,-0.0013613568153232336,-5.2359879191499203e-05,-0.0011519172694534063
0.046054862439632416,0.12327264994382858,9.86556625366211,0.0005759586347267032,0.005235987715423107,-0.0007679448463022709
0.06377195566892624,0.12230539321899414,9.882346153259277,-0.002373647876083851,-0.005323254037648439,-0.00031415926059708
0.067181296646595,0.111981600522995,9.888943672180176,0.0008377580670639873,0.004433136433362961,-0.0017802357906475663
0.04996220022439957,0.10668562352657318,9.87828540802002,0.0005585053586401045,0.005427973810583353,-0.0004886921960860491
0.048334140330553055,0.12992852926254272,9.857693672180176,-0.0017627825727686286,-0.0025656339712440968,-0.0008726646192371845
0.05421430245041847,0.11265197396278381,9.890936851501465,-0.0010122909443452954,0.002199114765971899,-0.0008203047327697277
0.05019204318523407,0.1391988843679428,9.826359748840332,-0.0005061454721726477,0.002024581888690591,-0.00041887903353199363
0.06270892918109894,0.11225932836532593,9.893654823303223,-0.0009948377264663577,-0.0017976891249418259,-0.00019198621157556772
0.14557702839374542,0.08300217986106873,10.597033500671387,0.10960667580366135,0.2636145353317261,-0.01005309633910656
0.0299754049628973,0.11626242846250534,9.950359344482422,-0.16004669666290283,-0.3759613633155823,0.011135200969874859
0.23667161166667938,0.06415502727031708,10.666915893554688,0.02834414690732956,0.08911651372909546,-0.004171337001025677
-0.1289038211107254,0.1759929656982422,8.712615013122559,0.003036872949451208,0.011379546485841274,-0.0009250245057046413
0.17018942534923553,0.06536170095205307,10.519336700439453,-0.043336525559425354,-0.11861257255077362,0.0008901178953237832
0.14166012406349182,0.07942045480012894,10.419661521911621,-0.05138249322772026,-0.1345474272966385,0.00376991112716496
0.145864337682724,0.0798514112830162,10.364900588989258,0.06131341680884361,0.16397368907928467,-0.006195918656885624
-0.06254611909389496,0.1514476090669632,9.192106246948242,-0.051574479788541794,-0.12519246339797974,0.002024581888690591
0.12139559537172318,0.09898587316274643,10.340958595275879,-0.047769661992788315,-0.12130038440227509,0.0023387412074953318
0.11340854316949844,0.1081700250506401,10.28011703491211,0.055292028933763504,0.14653784036636353,-0.005550147034227848
-0.056292466819286346,0.15719370543956757,9.332722663879395,-0.04881685972213745,-0.11739084869623184,0.003228859044611454
0.18037915229797363,0.08481219410896301,10.444388389587402,0.011728612706065178,0.03525565192103386,-0.002321287989616394
-0.003418919863179326,0.12376107275485992,9.680063247680664,-0.046530477702617645,-0.11787953972816467,0.0017976891249418259
0.14867034554481506,0.08553045988082886,10.396906852722168,0.025935592129826546,0.07063347101211548,-0.0028623400721699
-0.06242162361741066,0.16338030993938446,9.153799057006836,-0.014643312431871891,-0.03691371530294418,-0.00020943951676599681
0.14509819447994232,0.09090304374694824,10.38061809539795,-0.0041015236638486385,-0.009023352526128292,-0.0002617993741296232
-0.03728250786662102,0.13025414943695068,9.420639038085938,0.02028072625398636,0.0524122379720211,-0.0027576202992349863
0.05144660547375679,0.12933477759361267,9.861315727233887,0.03223622962832451,0.0855560377240181,-0.002914699725806713
0.04388092830777168,0.11085153371095657,9.84441089630127,-0.031695179641246796,-0.07942993193864822,0.00015707963029854
0.06830178201198578,0.10817960649728775,9.964082717895508,0.03087487444281578,0.08098327368497849,-0.0032463124953210354
-0.0030358475632965565,0.14092271029949188,9.517038345336914,-0.01966986060142517,-0.04815363511443138,0.0011344640515744686
0.1214626356959343,0.09767384827136993,10.251482963562012,0.00617846567183733,0.018325956538319588,-0.0019198621157556772
-0.008159439079463482,0.15874513983726501,9.498458862304688,0.003455751808360219,0.01080358773469925,-0.0006981316837482154
0.1048756092786789,0.09747273474931717,10.13344955444336,-0.012636183761060238,-0.03113667294383049,0.00024434609804302454
0.036458902060985565,0.12373233586549759,9.771081924438477,0.018832102417945862,0.05085889250040054,-0.0018151424592360854
0.11699984222650528,0.09475292265415192,10.154058456420898,-0.0031939526088535786,-0.004782202187925577,-0.00094247778179124
0.007920019328594208,0.1310681700706482,9.67001724243164,-0.012339477427303791,-0.033405601978302,-0.00019198621157556772
0.10315178334712982,0.10520122200250626,10.101730346679688,0.0034382985904812813,0.014451325871050358,-0.0013264502631500363
0.000641646038275212,0.13085748255252838,9.536507606506348,0.001518436474725604,0.004153883550316095,-0.0010821041651070118
0.26208844780921936,0.06425079703330994,10.73967170715332,-0.013212142512202263,-0.027925267815589905,0.0
-0.030578743666410446,0.13862426578998566,9.617775917053223,0.11299261450767517,0.28178340196609497,-0.010157816112041473
-0.06039134040474892,0.15489526093006134,9.222177505493164,-0.10803587734699249,-0.269025057554245,0.007679448463022709
0.1040424257516861,0.08916964381933212,10.378576278686523,0.10501646250486374,0.27605873346328735,-0.010227628983557224
-0.13480313122272491,0.18602946400642395,8.69209098815918,-0.08127998560667038,-0.19116590917110443,0.0055850534699857235
0.18836620450019836,0.0840173214673996,10.550643920898438,0.08087855577468872,0.22415263950824738,-0.007278022821992636
0.08630617707967758,0.10682927817106247,10.119792938232422,-0.086428701877594,-0.22389084100723267,0.005550147034227848
0.23942974209785461,0.05639781430363655,10.718093872070312,-0.021991148591041565,-0.057159531861543655,0.0010995573829859495
-0.026958709582686424,0.14498327672481537,9.46791934967041,0.08117526024580002,0.20053833723068237,-0.007103490177541971
0.03945644199848175,0.11651142686605453,9.915854454040527,-0.08126252889633179,-0.2090729922056198,0.005358160939067602
0.2284451425075531,0.07592491805553436,10.597847938537598,0.04047418385744095,0.11391764134168625,-0.004206243436783552
0.05184882879257202,0.13053187727928162,9.886568069458008,0.07936011999845505,0.20031143724918365,-0.007958701811730862
-0.011674126610159874,0.1360289603471756,9.724530220031738,-0.07417649030685425,-0.18383553624153137,0.0041015236638486385
0.2155068814754486,0.06410714238882065,10.524211883544922,0.026197392493486404,0.07771950960159302,-0.0033335788175463676
-0.11427045613527298,0.18932388722896576,8.811054229736328,0.010175269097089767,0.02701769582927227,-0.0014660765882581472
0.094187892973423,0.09119035303592682,10.087145805358887,0.06209881603717804,0.16240288317203522,-0.005235987715423107
-0.013206415809690952,0.13268665969371796,9.630436897277832,-0.056321773678064346,-0.14294245839118958,0.002949606394395232
0.18415240943431854,0.0844961628317833,10.441007614135742,0.022183135151863098,0.06288421154022217,-0.0021816615480929613
-0.10251013934612274,0.16348566114902496,8.966381072998047,0.00020943951676599681,-0.001117010717280209,-0.0010471974965184927
0.16248966753482819,0.09187030047178268,10.430559158325195,-0.016807520762085915,-0.04473278671503067,0.0006806784076616168
0.07215166091918945,0.11916419863700867,10.019590377807617,-0.03738495334982872,-0.09424778074026108,0.0016406094655394554
0.10096827149391174,0.10221325606107712,10.132155418395996,0.03857177495956421,0.10259045660495758,-0.004310963209718466
0.005487510003149509,0.14601756632328033,9.57715129852295,-0.034662239253520966,-0.08604472875595093,0.0008726646192371845
0.13208331167697906,0.0857890322804451,10.335586547851562,0.01918116770684719,0.0506843626499176,-0.00125663704238832
-0.04178360477089882,0.15164873003959656,9.294816970825195,-0.0077667152509093285,-0.01869247667491436,-0.0002617993741296232
0.1480095386505127,0.09197565168142319,10.310647964477539,-0.005270894151180983,-0.010855947621166706,-0.00020943951676599681
-0.005324704572558403,0.14483961462974548,9.531622886657715,0.01771509274840355,0.04513421282172203,-0.001343903481028974
0.09763554483652115,0.08936118334531784,10.096941947937012,-0.024207716807723045,-0.056234508752822876,0.00038397242315113544
0.06116706132888794,0.11893435567617416,9.897428512573242,0.026686083525419235,0.06962118297815323,-0.0024260077625513077
0.0374453142285347,0.11601343005895615,9.80642032623291,-0.025446901097893715,-0.06344271451234818,-6.981316983001307e-05
0.10145668685436249,0.09472419321537018,10.177827835083008,-0.010192723013460636,-0.024015730246901512,-0.0007679448463022709
0.011817779392004013,0.1383848488330841,9.707118034362793,0.01846558414399624,0.04934045672416687,-0.00205948855727911
0.07552269846200943,0.10812214761972427,9.940534591674805,-0.021048670634627342,-0.05412266030907631,0.00015707963029854
0.07024587690830231,0.11275731772184372,9.975095748901367,0.02117084339261055,0.05595525726675987,-0.0024085543118417263
0.005631162319332361,0.1440543234348297,9.620266914367676,0.009721484035253525,0.02192133478820324,-0.0008028514566831291
0.1000010147690773,0.09804734587669373,10.047745704650879,-0.014556045643985271,-0.03672172874212265,-0.0005410520825535059
0.061981089413166046,0.11393526941537857,9.843989372253418,0.017697637900710106,0.046670105308294296,-0.002321287989616394
0.04891832545399666,0.12702676653862,9.815048217773438,-0.017662731930613518,-0.04412192478775978,0.0008726646192371845
0.0998956710100174,0.0984591469168663,10.06351089477539,0.01186823844909668,0.03354522958397865,-0.002251474652439356
0.0338827408850193,0.11772768199443817,9.766858100891113,0.013753194361925125,0.03703588619828224,-0.0016057029133662581
0.11218270659446716,0.1103152334690094,10.447339057922363,0.12536700069904327,0.28792697191238403,-0.010559242218732834
-0.21567925810813904,0.2251124083995819,8.41425895690918,0.0005934119690209627,0.0033859387040138245,-0.0019373154500499368
0.011856086552143097,0.14927367866039276,9.77945327758789,-0.18732619285583496,-0.4326496720314026,0.013857914134860039
0.28796499967575073,0.05163814127445221,10.898770332336426,0.014870204962790012,0.04787437990307808,-0.0026529005263000727
-0.1414877325296402,0.1804557591676712,8.773734092712402,0.05265658348798752,0.126693457365036,-0.004153883550316095
0.12893255054950714,0.08050263673067093,10.27122974395752,-0.08077383786439896,-0.21418680250644684,0.005846852902323008
0.1903964877128601,0.0895814448595047,10.53085708618164,0.06925466656684875,0.19343483448028564,-0.0073303827084600925
-0.16451038420200348,0.1858091950416565,8.671981811523438,-0.0371580608189106,-0.08918632566928864,0.0016406094655394554
0.22470061480998993,0.0764324888586998,10.631597518920898,-0.0230383463203907,-0.05784020945429802,0.0009773843921720982
0.004683058243244886,0.1335102617740631,9.65001106262207,0.07539822161197662,0.19092155992984772,-0.008133234456181526
0.03243664279580116,0.11057380586862564,9.928141593933105,-0.07456046342849731,-0.19107864797115326,0.0042236968874931335
0.2086307257413864,0.08304049074649811,10.508008003234863,0.036791540682315826,0.10337585210800171,-0.004241149872541428
-0.13346236944198608,0.18152835965156555,8.765421867370605,-0.0031590459402650595,-0.00502654816955328,-0.0009599310578778386
0.17116625607013702,0.06850289553403854,10.460372924804688,-0.03174753859639168,-0.07990117371082306,0.001029744278639555
0.06515101343393326,0.10697292536497116,9.96553897857666,0.06483898311853409,0.16351990401744843,-0.006544984877109528
0.01398213766515255,0.13447751104831696,9.77120590209961,-0.0584685280919075,-0.15013322234153748,0.003508111694827676
0.17789874970912933,0.08544426411390305,10.416213035583496,0.028326693922281265,0.077178455889225,-0.002809980185702443
-0.10319966822862625,0.16548721492290497,8.944986343383789,-0.009005898609757423,-0.022514747455716133,-0.0012042771559208632
0.1647210717201233,0.09559568017721176,10.396716117858887,-0.013247049413621426,-0.03728023171424866,-0.00047123889089562
-0.006809109356254339,0.13180558383464813,9.623475074768066,-0.03719296678900719,-0.09154251962900162,0.0016057029133662581
0.11477802693843842,0.09409212321043015,10.260581016540527,-0.022933626547455788,-0.058224182575941086,0.00013962633966002613
0.039753321558237076,0.11993034929037094,9.749159812927246,0.03392919898033142,0.08805186301469803,-0.004084070213139057
-0.04031835496425629,0.14013740420341492,9.295602798461914,-0.011082841083407402,-0.02963569015264511,-0.00027925267932005227
0.13841357827186584,0.08951441198587418,10.319219589233398,-0.003577925032004714,-0.006440265104174614,-0.000715585018042475
-0.08349059522151947,0.1825818121433258,8.902033805847168,0.0005759586347267032,-0.007138396613299847,-0.00094247778179124
-0.0952700674533844,0.13831780850887299,9.12421703338623,-0.10365510731935501,-0.28415706753730774,0.007749261800199747
0.29553067684173584,0.05095818638801575,10.772768020629883,-0.030455995351076126,-0.08977973461151123,0.0023038345389068127
0.266771525144577,0.0574704147875309,10.870699882507324,0.17931511998176575,0.508204996585846,-0.01745329238474369
-0.2860592007637024,0.2265680879354477,7.8278422355651855,-0.023858651518821716,-0.052778758108615875,0.0007853981805965304
0.2868732213973999,0.05861005559563637,10.968308448791504,-0.1356469839811325,-0.37922513484954834,0.010629055090248585
0.4122910797595978,0.014901510439813137,11.263148307800293,0.1379508227109909,0.3995407819747925,-0.01492256484925747
-0.2937876880168915,0.22651062905788422,7.894142150878906,0.001972222002223134,0.007487462367862463,-0.0018325956771150231
0.259799599647522,0.06698018312454224,10.860483169555664,-0.13631021976470947,-0.3744429349899292,0.01012290921062231
0.41776901483535767,0.043708544224500656,11.252307891845703,0.02117084339261055,0.06002187356352806,-0.003036872949451208
-0.20049044489860535,0.19684167206287384,8.409499168395996,0.11934561282396317,0.2814692556858063,-0.01029744278639555
-0.105229951441288,0.18015888333320618,8.849380493164062,-0.15678292512893677,-0.375071257352829,0.010541788302361965
0.40011897683143616,0.02552218921482563,11.25946044921875,0.014852751977741718,0.05145230516791344,-0.003089232835918665
-0.17437449097633362,0.19829735159873962,8.632781982421875,0.11840313673019409,0.27173030376434326,-0.010279988870024681
0.360624223947525,0.03222595527768135,11.18284797668457,0.053668875247240067,0.1537809669971466,-0.006510077975690365
-0.2282344549894333,0.20861157774925232,8.319381713867188,0.06490879505872726,0.15393804013729095,-0.006021386012434959
0.10930966585874557,0.0862487182021141,10.408772468566895,-0.12388347089290619,-0.33599331974983215,0.009285151958465576
0.26175326108932495,0.06306327134370804,10.921333312988281,0.09234537184238434,0.25788983702659607,-0.009930923581123352
-0.2142331600189209,0.20479042828083038,8.248579978942871,0.00022689280740451068,-0.0019373154500499368,-0.0015009831404313445
0.25941652059555054,0.0744117870926857,10.833695411682129,-0.08360127359628677,-0.2226865589618683,0.005218534264713526
0.3187735676765442,0.04423527047038078,11.082777976989746,0.029914943501353264,0.08789478242397308,-0.003001966280862689
-0.16001886129379272,0.18330007791519165,8.585980415344238,0.0642281174659729,0.15596261620521545,-0.005113814491778612
0.10382215678691864,0.09040505439043045,10.307181358337402,-0.10873401165008545,-0.2840523421764374,0.00815068744122982
0.2420729398727417,0.06147351861000061,10.736030578613281,0.0763232484459877,0.22383847832679749,-0.008587019518017769
-0.20412005484104156,0.19694702327251434,8.461166381835938,-0.015742870047688484,-0.035587262362241745,6.981316983001307e-05
0.28565698862075806,0.05337154120206833,10.886484146118164,0.0411897711455822,0.12095131725072861,-0.005218534264713526
-0.16398365795612335,0.1876862496137619,8.551446914672852,0.028361599892377853,0.06544984877109528,-0.0044156829826533794
0.17814774811267853,0.07924807071685791,10.500642776489258,-0.07246606796979904,-0.19624482095241547,0.004747295752167702
0.15387055277824402,0.0846015065908432,10.469921112060547,0.08168140798807144,0.2252696454524994,-0.008342674002051353
-0.14969505369663239,0.1826201230287552,8.718571662902832,-0.056810468435287476,-0.13660691678524017,0.003525565145537257
0.251726359128952,0.0715578943490982,10.71784496307373,-0.007923794910311699,-0.018395770341157913,-0.0010646508308127522
0.470767080783844,-0.05943366140127182,13.152077674865723,0.22703242301940918,0.5625720024108887,-0.018413223326206207
-0.7480251789093018,0.4766472280025482,0.5506951212882996,-0.00609119888395071,0.004817108623683453,-0.012042772024869919
0.02116474136710167,0.12558066844940186,10.136992454528809,-0.24607397615909576,-0.5251172184944153,0.016772614791989326
0.30497339367866516,0.05385996028780937,10.998952865600586,-0.03056071512401104,-0.07789404690265656,0.0017627825727686286
0.22104227542877197,0.04816175997257233,10.677852630615234,0.06562437862157822,0.18411478400230408,-0.007592182140797377
-0.1330505758523941,0.1970427930355072,8.481659889221191,-0.01326450239866972,-0.03193952515721321,0.00015707963029854
0.24109609425067902,0.0708492174744606,10.665029525756836,-0.043249256908893585,-0.11573278158903122,0.0029321531765162945
0.0540323406457901,0.11949939280748367,9.924492835998535,0.08686503767967224,0.22453661262989044,-0.00799360778182745
-0.045250412076711655,0.12053368240594864,9.517488479614258,-0.08108799904584885,-0.20113174617290497,0.005235987715423107
0.22995828092098236,0.05664680898189545,10.707283020019531,0.025743605569005013,0.07874925434589386,-0.0027052604127675295
-0.06677906960248947,0.14968548715114594,9.247796058654785,-0.05705481395125389,-0.14355333149433136,0.002251474652439356
0.1972726285457611,0.06935523450374603,10.544801712036133,0.011972958222031593,0.03405137360095978,-0.0018325956771150231
-0.0829351469874382,0.16019123792648315,9.094260215759277,0.028955012559890747,0.07408922910690308,-0.0026179938577115536
0.4403032660484314,-0.009940724819898605,12.704056739807129,0.16037830710411072,0.37749725580215454,-0.013002702966332436
-0.8616827130317688,0.4354669749736786,2.3207571506500244,-0.07908086478710175,-0.16695819795131683,-0.004171337001025677
0.02537853643298149,0.16683754324913025,10.001557350158691,-0.1408480703830719,-0.28991663455963135,0.00890117883682251
-0.003428496653214097,0.12152009457349777,9.637590408325195,-0.10567968338727951,-0.24586452543735504,0.007120943162590265
0.1412578970193863,0.09944555908441544,10.304787635803223,-0.08618436008691788,-0.2217615395784378,0.005044001620262861
0.1766825020313263,0.08446743339300156,10.488116264343262,0.0671079084277153,0.19022344052791595,-0.007435102481395006
-0.13114479184150696,0.1841619908809662,8.770036697387695,-0.040858156979084015,-0.09698794782161713,0.0018675023457035422
0.21086212992668152,0.08869080245494843,10.670516967773438,-0.013247049413621426,-0.02666863054037094,0.00027925267932005227
-0.04106534644961357,0.14224430918693542,9.353897094726562,0.0547160729765892,0.13473941385746002,-0.0057072266936302185
0.09203311055898666,0.10884997993707657,10.12056827545166,-0.06555456668138504,-0.16615533828735352,0.004084070213139057
0.19865170121192932,0.05962519720196724,10.574719429016113,-0.007155850064009428,-0.019634954631328583,-3.490658491500653e-05
-0.04888959601521492,0.14881399273872375,9.298495292663574,0.04934045672416687,0.11510446667671204,-0.004380776546895504
0.10022127628326416,0.10650366544723511,10.148063659667969,-0.05670574679970741,-0.14149384200572968,0.0028623400721699
0.5916263461112976,-0.08604760468006134,13.648138046264648,0.1917942315340042,0.4809952974319458,-0.01532399095594883
-0.962210476398468,0.479481965303421,-0.952154815196991,-0.07471754401922226,-0.12938125431537628,-0.013543754816055298
0.12112744897603989,0.12289915978908539,10.648490905761719,-0.0786270797252655,-0.16034339368343353,0.004310963209718466
-0.05490383133292198,0.14234007894992828,9.339838027954102,-0.08562584966421127,-0.1849001795053482,0.004084070213139057
0.20938730239868164,0.08858545869588852,10.720747947692871,-0.15971508622169495,-0.4452334940433502,0.013247049413621426
0.3621565103530884,0.017975665628910065,11.296582221984863,0.11257373541593552,0.3333229720592499,-0.011693705804646015
-0.28179752826690674,0.2386540174484253,7.970959186553955,0.02042035199701786,0.04220206290483475,-0.0016406094655394554
0.24016715586185455,0.05772898718714714,11.003703117370605,-0.12948597967624664,-0.3600614368915558,0.010105456225574017
-0.287936270236969,0.22310128808021545,7.954207897186279,-0.03307398781180382,-0.08169886469841003,0.0016755161341279745
0.33272698521614075,0.04163995385169983,11.032386779785156,-0.08258897811174393,-0.2275560200214386,0.005515240598469973
0.09543287754058838,0.06569689512252808,10.486623764038086,0.1449146866798401,0.37685149908065796,-0.012444197200238705
-0.21867679059505463,0.2030666023492813,8.434648513793945,-0.09681341052055359,-0.2280796319246292,0.005393067374825478
0.36033692955970764,0.024401701986789703,11.259173393249512,-0.013508847914636135,-0.03476695716381073,0.00029670598451048136
-0.10446380078792572,0.15554648637771606,9.078889846801758,0.10814060270786285,0.26431265473365784,-0.01029744278639555
-0.048688482493162155,0.1309436708688736,9.552749633789062,-0.12747885286808014,-0.3191858232021332,0.008936085738241673
0.29880592226982117,0.054683566093444824,10.989500999450684,-0.06293657422065735,-0.1751612424850464,0.003857177682220936
0.05235639959573746,0.10541190952062607,10.074408531188965,0.12000884115695953,0.3064972758293152,-0.010437068529427052
-0.13374967873096466,0.16783353686332703,8.830370903015137,-0.10004227608442307,-0.23773129284381866,0.006475171539932489
-0.17956511676311493,0.1875426024198532,8.596601486206055,-0.06354743987321854,-0.15041247010231018,0.0024958208668977022
0.12827174365520477,0.10116938501596451,10.24631118774414,-0.09236282110214233,-0.2422167956829071,0.007120943162590265
0.23812729120254517,0.06283342838287354,10.664223670959473,0.08246680349111557,0.2266484498977661,-0.0077667152509093285
-0.16854222118854523,0.19026240706443787,8.61435604095459,-0.03419100120663643,-0.07946483790874481,0.0020420351065695286
0.2653254270553589,0.07550354301929474,10.787879943847656,-0.030455995351076126,-0.0806342139840126,0.0005235987482592463
-0.036985624581575394,0.1404247134923935,9.445672035217285,0.08117526024580002,0.20064304769039154,-0.00724311638623476
0.004414907656610012,0.10755711048841476,9.738759994506836,-0.08658578246831894,-0.22127284109592438,0.005864306353032589
0.23308031260967255,0.05668511614203453,10.660699844360352,0.04878195375204086,0.14044664800167084,-0.004904375411570072
-0.13828907907009125,0.17504486441612244,8.756217956542969,-0.006143558770418167,-0.014625859446823597,-0.0013613568153232336
0.034352004528045654,0.12767797708511353,9.690943717956543,0.06213372200727463,0.15858061611652374,-0.006108652334660292
0.017123330384492874,0.13041694462299347,9.76557445526123,-0.06147049739956856,-0.15866787731647491,0.003857177682220936
0.0641167163848877,0.08997409790754318,9.891108512878418,0.0034208453726023436,0.007417649496346712,-0.0011868239380419254
0.08694782853126526,0.1269214153289795,9.976245880126953,-0.038432151079177856,-0.1054004356265068,0.0019024088978767395
0.20344968140125275,0.08684247732162476,10.474078178405762,0.05668829381465912,0.16430529952049255,-0.006318091880530119
-0.1128147765994072,0.17401057481765747,8.85793399810791,0.013788101263344288,0.03298672288656235,-0.001658062799833715
0.1525297909975052,0.07670064270496368,10.497472763061523,-0.025010569021105766,-0.06368706375360489,0.00029670598451048136
0.019115306437015533,0.12245862185955048,9.67543888092041,0.053564153611660004,0.13847441971302032,-0.0038397242315113544
-0.09359412640333176,0.17640477418899536,9.00908374786377,-0.003455751808360219,-0.009285151958465576,-0.0006981316837482154
0.013895946554839611,0.13418063521385193,9.71877384185791,-0.05333726108074188,-0.13514083623886108,0.0030717793852090836
0.17340722680091858,0.08576987683773041,10.427743911743164,0.03548254445195198,0.09585348516702652,-0.003804817795753479
-0.07330087572336197,0.16948074102401733,9.158950805664062,-0.01993165910243988,-0.046652652323246,-0.00024434609804302454
0.1699116975069046,0.08198703825473785,10.422457695007324,-0.004764748737215996,-0.01080358773469925,-0.00012217304902151227
-0.0258286464959383,0.14960886538028717,9.389753341674805,0.022881265729665756,0.057194437831640244,-0.002600540639832616
-0.03618117421865463,0.14064498245716095,9.405716896057129,-0.031293753534555435,-0.076619952917099,0.0007679448463022709
0.16031573712825775,0.09559568017721176,10.396323204040527,0.011798425577580929,0.03529055789113045,-0.00188495556358248
-0.03656424582004547,0.15235741436481476,9.340134620666504,0.002548180753365159,0.008377579972147942,-0.0011693706037476659
0.1353394240140915,0.0977504625916481,10.28568172454834,-0.014276793226599693,-0.03593632951378822,-0.00043633230961859226
0.006761225406080484,0.1339890956878662,9.632974624633789,0.024731315672397614,0.06490879505872726,-0.0031590459402650595
0.08300217986106873,0.12009315192699432,9.972749710083008,-0.029653143137693405,-0.07319910824298859,0.0007853981805965304
0.12957419455051422,0.10178229957818985,10.306195259094238,0.0013089969288557768,0.007504915818572044,-0.00019198621157556772
-0.022409727796912193,0.1406162530183792,9.51555347442627,0.007278022821992636,0.02024581842124462,-0.0010821041651070118
0.0042999861761927605,0.13489890098571777,9.636929512023926,-0.02439970336854458,-0.06040584668517113,0.001029744278639555
0.11545797437429428,0.09965624660253525,10.188859939575195,0.015114551410079002,0.0420449823141098,-0.0019024088978767395
-0.07413405925035477,0.16106273233890533,9.29167652130127,-0.11758282780647278,-0.3324503004550934,0.008761553093791008
0.17044800519943237,0.09346005320549011,10.141359329223633,-0.1209687665104866,-0.34842008352279663,0.0103672556579113
0.44316670298576355,0.026307487860322,11.186217308044434,0.06614797562360764,0.21554815769195557,-0.008098327554762363
-0.14699439704418182,0.1536790132522583,9.374610900878906,0.24439845979213715,0.5827828645706177,-0.022026054561138153
-0.3385496735572815,0.2393243908882141,7.88178825378418,-0.1846209317445755,-0.4249178469181061,0.014224433340132236
0.4454459846019745,0.01528458297252655,11.483567237854004,-0.07995353639125824,-0.23392647504806519,0.006021386012434959
0.45869073271751404,-0.0006224923999980092,11.475666999816895,0.07175048440694809,0.213157057762146,-0.007714355364441872
-0.23528297245502472,0.21482692658901215,8.179186820983887,0.18079864978790283,0.41861721873283386,-0.016371188685297966
-0.21582290530204773,0.20594921708106995,8.3655424118042,-0.21652553975582123,-0.5086413025856018,0.015830136835575104
0.447715699672699,0.014470554888248444,11.2908353805542,-0.021450096741318703,-0.06129596382379532,0.0010646508308127522
0.4093797504901886,0.02490927278995514,11.321796417236328,0.12765337526798248,0.37343063950538635,-0.014049900695681572
-0.3090722858905792,0.23394222557544708,7.884805202484131,0.08820894360542297,0.18994417786598206,-0.007976154796779156
0.0038690296933054924,0.08681374788284302,10.275023460388184,-0.21214477717876434,-0.5477541089057922,0.01687733456492424
0.4239269196987152,0.008207323029637337,11.44395923614502,0.060039326548576355,0.1774476170539856,-0.006475171539932489
-0.22154025733470917,0.21955786645412445,8.216134071350098,0.14034192264080048,0.3297974169254303,-0.011152653954923153
-0.1116272583603859,0.18104952573776245,9.018661499023438,-0.19533725082874298,-0.4727049767971039,0.015009831637144089
0.3268659710884094,0.051341257989406586,11.123098373413086,0.15933111310005188,0.45094072818756104,-0.015428710728883743
-0.27309221029281616,0.22368547320365906,7.84281063079834,-0.014870204962790012,-0.032271139323711395,-0.00038397242315113544
-0.17165467143058777,0.1838938295841217,8.69422721862793,-0.17287486791610718,-0.41552799940109253,0.01342158205807209
0.43600326776504517,0.023712173104286194,11.251206398010254,0.008325220085680485,0.0437728576362133,-0.00296705961227417
-0.15624558925628662,0.18738937377929688,8.616205215454102,0.13894565403461456,0.3312809467315674,-0.01160643994808197
-0.09476249665021896,0.17576313018798828,8.995512962341309,-0.14676474034786224,-0.35871753096580505,0.010332348756492138
0.3752863109111786,0.020513519644737244,11.387943267822266,0.0987856388092041,0.28761279582977295,-0.010838494636118412
-0.19166062772274017,0.20855411887168884,8.33145809173584,0.096761055290699,0.2327047437429428,-0.00898844562470913
0.008456320501863956,0.11209651827812195,10.02469539642334,-0.15339699387550354,-0.40016910433769226,0.011850785464048386
0.36060506105422974,0.03822103515267372,11.235077857971191,0.0783652812242508,0.23739968240261078,-0.008255407214164734
-0.26494234800338745,0.21680931746959686,8.170759201049805,0.030281461775302887,0.0656592845916748,-0.0031415927223861217
-0.1733689308166504,0.18148048222064972,8.631881713867188,-0.1229759007692337,-0.2920284867286682,0.00898844562470913
0.40414121747016907,0.028519729152321815,11.278336524963379,0.009616764262318611,0.029880037531256676,-0.0020420351065695286
-0.15085385739803314,0.1841236799955368,8.733233451843262,0.09916960448026657,0.2290046513080597,-0.009407324716448784
0.341786652803421,0.04990473762154579,11.11518669128418,-0.04783947393298149,-0.12887510657310486,0.002460914198309183
0.0007757213315926492,0.13585656881332397,9.726875305175781,0.12199851125478745,0.3016103506088257,-0.011571533046662807
-0.09948386251926422,0.16875290870666504,8.962128639221191,-0.11039207130670547,-0.2727425992488861,0.008098327554762363
0.3462589979171753,0.05069003626704216,11.122512817382812,0.03127630054950714,0.1034107580780983,-0.0036128314677625895
-0.17823395133018494,0.1854165494441986,9.017454147338867,0.19521507620811462,0.41407936811447144,-0.015358896926045418
-0.3066876530647278,0.21050778031349182,7.998615741729736,-0.2206270694732666,-0.47363001108169556,0.01624901592731476
0.4256124198436737,0.006339845713227987,11.645541191101074,-0.08518952131271362,-0.239633709192276,0.007051130291074514
0.25769269466400146,0.040845077484846115,11.08780574798584,0.20401152968406677,0.5624498128890991,-0.01891936920583248
-0.3158430755138397,0.2576639652252197,7.595748424530029,-0.044575709849596024,-0.09407324343919754,0.002199114765971899
-0.16084246337413788,0.1864987313747406,8.729844093322754,-0.1996307522058487,-0.49233993887901306,0.015411256812512875
0.4228639006614685,0.01452801562845707,11.345939636230469,0.0026354470755904913,0.01984439417719841,-0.0019896754529327154
-0.11744038015604019,0.16179056465625763,9.239750862121582,0.186628058552742,0.44514623284339905,-0.017418386414647102
-0.24777112901210785,0.22255539894104004,8.146347999572754,-0.15847589075565338,-0.36943385004997253,0.011885692365467548
0.3905421793460846,0.0292667206376791,11.363340377807617,0.11527899652719498,0.3448072373867035,-0.012234757654368877
0.40824010968208313,0.009548076428472996,11.413084030151367,-0.03202679008245468,-0.08777260780334473,0.0012915435945615172
-0.07742848247289658,0.1281951367855072,9.594149589538574,0.16774359345436096,0.40339794754981995,-0.014748032204806805
-0.2863177955150604,0.21893537044525146,7.9418253898620605,-0.027087509632110596,-0.07140141725540161,0.001029744278639555
0.3269234299659729,0.04551856219768524,11.019791603088379,-0.08724901080131531,-0.24329890310764313,0.0071907564997673035
0.10815087705850601,0.06155013293027878,10.534372329711914,0.14678218960762024,0.3816685974597931,-0.012880530208349228
-0.2179202288389206,0.1973971277475357,8.360015869140625,-0.09206611663103104,-0.2165604531764984,0.006230825558304787
0.36184048652648926,0.034495655447244644,11.248237609863281,-0.019477874040603638,-0.0524122379720211,0.0009948377264663577
-0.07834785431623459,0.16460615396499634,9.163366317749023,0.11543607711791992,0.2805791199207306,-0.009913469664752483
-0.23847205936908722,0.2054608017206192,8.194087982177734,-0.01970476657152176,-0.042097341269254684,0.0005235987482592463
-0.06146394461393356,0.15312355756759644,9.347404479980469,-0.1183682307600975,-0.3010518550872803,0.008412486873567104
0.32872387766838074,0.03778050094842911,11.11422061920166,0.05159193277359009,0.16048301756381989,-0.006510077975690365
-0.18370230495929718,0.19930291175842285,8.454596519470215,0.03551745042204857,0.08681267499923706,-0.0037350046914070845
-0.1359236091375351,0.180369570851326,8.745482444763184,-0.09510298818349838,-0.22568853199481964,0.005689773242920637
0.34764763712882996,0.046035706996917725,11.09882926940918,0.0077841682359576225,0.029129544273018837,-0.002321287989616394
-0.13609600067138672,0.1792490929365158,8.811630249023438,0.07044149190187454,0.16460199654102325,-0.006318091880530119
-0.1773528754711151,0.18686264753341675,8.554865837097168,-0.05578072369098663,-0.130742609500885,0.003351032268255949
0.2984132766723633,0.06035303324460983,10.966995239257812,-0.02094395086169243,-0.05518731102347374,0.00024434609804302454
-0.06075526028871536,0.1529894769191742,9.30856990814209,0.08630653470754623,0.21062633395195007,-0.007522369269281626
0.002566584153100848,0.11688492447137833,9.857024192810059,-0.09663888067007065,-0.24921555817127228,0.007208209950476885
0.2745574712753296,0.0661182701587677,10.750826835632324,0.05770058557391167,0.16149531304836273,-0.0070685832761228085
0.1444278210401535,0.08159439265727997,10.528338432312012,0.06578145921230316,0.16634732484817505,-0.006510077975690365
-0.08723513036966324,0.15874513983726501,9.048810005187988,-0.020786872133612633,-0.049898963421583176,3.490658491500653e-05
