accX,accY,accZ,gyroX,gyroY,gyroZ
-0.9667003750801086,3.373281717300415,9.219246864318848,-0.02450035884976387,-0.03794892504811287,0.019307348877191544
-0.8685946464538574,3.3251261711120605,9.224032402038574,-0.08095771074295044,-0.07523208111524582,0.021437814459204674
-0.7968099117279053,3.248555898666382,9.116354942321777,-0.08947957307100296,-0.0880148783326149,0.013981183059513569
-0.6481558084487915,3.241377353668213,9.116354942321777,-0.07137060910463333,-0.06031882017850876,0.012915950268507004
-0.6409773826599121,3.241377353668213,9.073284149169922,-0.04047885537147522,-0.03155753016471863,-0.0030625448562204838
-0.8638089895248413,3.2533414363861084,9.224032402038574,-0.01917419396340847,-0.013448567129671574,-0.045671865344047546
-0.9379864931106567,3.397209882736206,9.271888732910156,-0.03515268862247467,-0.04327509179711342,-0.06271559745073318
-0.9379864931106567,3.3924243450164795,9.221639633178711,-0.05645735189318657,-0.05818835273385048,-0.044606633484363556
-0.885344386100769,3.3589248657226562,9.121140480041504,-0.1065233051776886,-0.0560578890144825,-0.017975807189941406
-0.8327022790908813,3.3179476261138916,9.300901412963867,-0.1278279572725296,-0.02516612969338894,-0.016910573467612267
-0.8374879360198975,3.2557342052459717,9.317651748657227,-0.07137060910463333,-0.04114462435245514,-0.023301972076296806
-0.8255237936973572,3.3469607830047607,9.085248947143555,-0.06284874677658081,-0.03262276202440262,-0.041410934180021286
-0.7654041647911072,3.274876832962036,9.224032402038574,-0.10758853703737259,0.02170412242412567,-0.025432437658309937
-0.8087740540504456,3.1025936603546143,9.521040916442871,-0.12250179797410965,0.02703028731048107,-0.03288906812667847
-0.7606185078620911,3.0786654949188232,9.494720458984375,-0.07669677585363388,-0.03049229457974434,-0.061650361865758896
-0.885344386100769,3.258127212524414,9.276674270629883,-0.05645735189318657,-0.05179695412516594,-0.07549838721752167
-1.0121639966964722,3.2605199813842773,9.291330337524414,-0.12143656611442566,-0.06138405203819275,-0.055258963257074356
-1.1679965257644653,3.241377353668213,9.432506561279297,-0.2141118347644806,-0.06884068250656128,-0.016910573467612267
-1.1703894138336182,3.227020502090454,9.377471923828125,-0.2450035959482193,-0.07097115367650986,0.013981183059513569
-1.0411769151687622,2.89890456199646,9.667302131652832,-0.3067871034145355,-0.04114462435245514,0.06830807030200958
-0.9882357716560364,2.7574288845062256,9.777372360229492,-0.26204732060432434,-0.0773625448346138,0.0778951644897461
-0.9810572862625122,2.5851457118988037,9.755837440490723,-0.1587197184562683,-0.0667102187871933,0.06404713541269302
-1.0097711086273193,2.570788860321045,9.696016311645508,-0.09480573982000351,-0.04007939249277115,0.066177599132061
-0.9954141974449158,2.580360174179077,9.533005714416504,-0.0426093190908432,0.007856093347072601,0.07150376588106155
-0.8757730722427368,2.853440999984741,9.4660062789917,0.004260932095348835,0.13781452178955078,0.11517832428216934
-0.8303094506263733,2.7263224124908447,9.384650230407715,-0.07030537724494934,0.09520520269870758,0.05232957378029823
-0.8446664214134216,2.6952157020568848,9.300901412963867,-0.03408745676279068,0.13142313063144684,0.054460037499666214
-0.9020941257476807,2.7478578090667725,9.403793334960938,-0.04793548583984375,0.1580539494752884,0.05659050494432449
-0.9308080077171326,2.7023940086364746,9.461220741271973,-0.05432688444852829,0.12716218829154968,0.07576470077037811
-0.9379864931106567,2.664108991622925,9.271888732910156,-0.05645735189318657,0.07709623873233795,0.10239552706480026
-0.9690931439399719,2.6856443881988525,9.166604042053223,-0.06924014538526535,0.09520520269870758,0.0874822586774826
-1.0336993932724,2.697608470916748,9.245567321777344,-0.1267627328634262,0.14207544922828674,0.06937330216169357
-1.0698908567428589,2.7071797847747803,9.322437286376953,-0.16617634892463684,0.1452711522579193,0.066177599132061
-1.074676513671875,2.6928226947784424,9.401400566101074,-0.19919857382774353,0.12396649271249771,0.06937330216169357
-1.00259268283844,2.5851457118988037,9.552447319030762,-0.18748101592063904,0.08348763734102249,0.08641702681779861
-0.9834501147270203,2.503490686416626,9.585947036743164,-0.1267627328634262,0.05579157918691635,0.08961272984743118
-0.9427721500396729,2.503490686416626,9.324830055236816,0.015845341607928276,0.039813082665205,0.08322133123874664
-0.97148597240448,2.5995028018951416,9.015856742858887,0.033954303711652756,0.08668334037065506,0.0778951644897461
-0.9667003750801086,2.577967405319214,9.185747146606445,-0.08734910935163498,0.14420592784881592,0.09706936031579971
-0.9188438653945923,2.462812662124634,9.547661781311035,-0.14700216054916382,0.1346188187599182,0.09706936031579971
-0.8590233325958252,2.4053850173950195,9.705587387084961,-0.08628387749195099,0.10266183316707611,0.047003407031297684
-0.9355936646461487,2.5612175464630127,9.61226749420166,-0.02236989326775074,0.07816147059202194,0.013981183059513569
-0.9834501147270203,2.513062000274658,9.557232856750488,-0.02343512699007988,0.08135717362165451,0.023568280041217804
-1.0555338859558105,2.536990165710449,9.540184020996094,-0.02982652559876442,0.09413997083902359,0.027829213067889214
-1.0914262533187866,2.570788860321045,9.511469841003418,-0.0159784946590662,0.12716218829154968,0.029959678649902344
-1.1512467861175537,2.6210381984710693,9.614660263061523,0.030758604407310486,0.1676410436630249,0.040612008422613144
-1.1512467861175537,2.5612175464630127,9.772586822509766,0.11065108329057693,0.16338011622428894,0.040612008422613144
-1.1823534965515137,2.633002281188965,9.588339805603027,0.15219517052173615,0.11331415921449661,0.0033288532868027687
-1.2541381120681763,2.767000198364258,9.497113227844238,0.09893351793289185,0.06750914454460144,-0.015845341607928276
-1.2541381120681763,2.783750057220459,9.430113792419434,0.08508548885583878,0.03448691964149475,-0.020106272771954536
-1.1225329637527466,2.6521449089050293,9.082855224609375,0.17989122867584229,0.12396649271249771,0.0001331541279796511
-1.3980066776275635,2.7574288845062256,9.470791816711426,-0.0053261648863554,0.07496577501296997,-0.005193010903894901
-1.5439687967300415,2.853440999984741,9.676874160766602,-0.08095771074295044,-0.010252867825329304,-0.054193731397390366
-1.4865410327911377,2.8773691654205322,9.528220176696777,0.12130340933799744,-0.14979839324951172,-0.08508548885583878
-1.43389892578125,3.3323047161102295,8.891130447387695,0.14154283702373505,0.06963960826396942,-0.05312849581241608
-1.623231053352356,3.131307601928711,9.11156940460205,-0.004260932095348835,0.13142313063144684,0.08322133123874664
-1.8337994813919067,2.843869686126709,9.75105094909668,-0.13208889961242676,-0.0038614696823060513,0.06511236727237701
-1.46500563621521,2.8941190242767334,9.540184020996094,-0.04473978653550148,-0.13595037162303925,-0.055258963257074356
-1.6615161895751953,2.9587252140045166,9.583553314208984,-0.0053261648863554,-0.14660269021987915,-0.04673709720373154
-1.5176477432250977,2.8869404792785645,9.32004451751709,0.04993279650807381,-0.1519288569688797,0.008655018173158169
-1.3381860256195068,2.9826533794403076,9.121140480041504,0.058454662561416626,-0.07097115367650986,0.07576470077037811
-1.1799606084823608,2.9180471897125244,9.178568840026855,0.041410934180021286,0.02063889056444168,0.11730878800153732
-1.1368898153305054,2.8486554622650146,9.34875774383545,0.028628136962652206,0.0504654161632061,0.10772168636322021
-1.1321041584014893,2.8151557445526123,9.439684867858887,-0.00852186419069767,0.007856093347072601,0.07256899774074554
-1.0866405963897705,2.721536636352539,9.550054550170898,-0.0532616525888443,-0.04966649040579796,0.04593817517161369
-1.0794621706008911,2.6521449089050293,9.638588905334473,-0.02663082629442215,-0.08481918275356293,0.023568280041217804
-1.0265209674835205,2.721536636352539,9.363115310668945,0.055258963257074356,-0.09547150880098343,0.008655018173158169
-0.9930213689804077,2.83669114112854,9.178568840026855,0.058454662561416626,-0.04434032365679741,0.0011983871227130294
-1.1249257326126099,2.8223342895507812,9.28893756866455,-0.0159784946590662,-0.03581846132874489,-0.023301972076296806
-1.1105687618255615,2.8630123138427734,9.329615592956543,-0.009587096981704235,-0.0560578890144825,-0.03608476743102074
-1.189531922340393,2.8965117931365967,9.216854095458984,0.007456631399691105,-0.04114462435245514,-0.037150003015995026
-1.251745343208313,2.8175487518310547,9.219246864318848,-0.0106523297727108,-0.0017310036346316338,-0.009453942999243736
-1.3043874502182007,2.793321371078491,9.346364974975586,-0.02556559257209301,0.02489982172846794,-0.011584409512579441
-1.3932210206985474,2.7406792640686035,9.468399047851562,-0.01704372838139534,-0.004926702938973904,-0.038215234875679016
-1.4530415534973145,2.77657151222229,9.367900848388672,-0.01491326279938221,-0.03155753016471863,-0.047802332788705826
-1.3645070791244507,2.8342983722686768,9.358329772949219,-0.03408745676279068,-0.04647079110145569,-0.050998032093048096
-1.3262219429016113,2.913261651992798,9.562018394470215,-0.09693620353937149,-0.0773625448346138,-0.05632419511675835
-1.215852975845337,2.843869686126709,9.667302131652832,-0.07243584841489792,-0.11677616834640503,-0.03608476743102074
-1.1440683603286743,2.71435809135437,9.02542781829834,0.017975807189941406,-0.0880148783326149,-0.030758604407310486
-0.9547362327575684,3.0113673210144043,8.9581298828125,0.22250054776668549,0.12396649271249771,-0.054193731397390366
-1.3860424757003784,3.1743783950805664,9.003593444824219,0.32476291060447693,0.28907760977745056,0.08215609937906265
-1.414756417274475,2.937189817428589,9.34875774383545,0.044606633484363556,0.08029194176197052,0.13435252010822296
-1.1392827033996582,2.7406792640686035,9.391828536987305,-0.256721168756485,-0.20838621258735657,0.08428656309843063
-1.067497968673706,2.479562520980835,9.439684867858887,-0.21730753779411316,-0.1934729516506195,-0.06591129302978516
-1.0890333652496338,2.882154941558838,9.353543281555176,0.07869409024715424,0.06324820965528488,-0.014780107885599136
-1.158425211906433,2.9419753551483154,9.135498046875,0.14899946749210358,0.23475073277950287,0.12156971544027328
-1.2254242897033691,2.8558337688446045,9.43489933013916,0.12449911236763,0.30931705236434937,0.15778763592243195
-1.184746265411377,2.8797619342803955,9.626625061035156,0.0829550251364708,0.2219679355621338,0.11730878800153732
-1.1536396741867065,2.83669114112854,9.53061294555664,0.019041040912270546,0.07709623873233795,0.05978620424866676
-1.1823534965515137,2.711965322494507,9.494720458984375,-0.03728315606713295,-0.01770949922502041,-0.024367205798625946
-1.2469596862792969,2.7167510986328125,9.53061294555664,-0.05113118514418602,-0.04114462435245514,-0.06591129302978516
-1.282852053642273,2.721536636352539,9.698409080505371,-0.06178351491689682,-0.06777545064687729,-0.10639014840126038
-1.3860424757003784,2.7478578090667725,9.595518112182617,-0.01917419396340847,-0.10079767554998398,-0.08934641629457474
-1.378864049911499,2.8558337688446045,9.41336441040039,0.03928046673536301,-0.05712312087416649,-0.050998032093048096
-1.40279221534729,2.908475875854492,9.238389015197754,0.10106398165225983,0.011051792651414871,-0.010519175790250301
-1.4195420742034912,2.915654420852661,9.140283584594727,0.10639014840126038,0.0504654161632061,0.008655018173158169
-1.3357932567596436,2.977867841720581,9.185747146606445,0.054193731397390366,0.04940018057823181,0.006524552125483751
-1.374078392982483,3.025724172592163,9.27428150177002,0.028628136962652206,0.03448691964149475,-0.011584409512579441
-1.4171491861343384,3.0882368087768555,9.147461891174316,0.07017222791910172,0.01744319126009941,-0.020106272771954536
-1.4195420742034912,3.248555898666382,8.898308753967285,0.1031944528222084,0.004660394508391619,0.0001331541279796511
-1.3645070791244507,3.1839497089385986,8.591729164123535,0.1553908735513687,0.1367492824792862,0.04274247586727142
-1.441077470779419,3.116950511932373,9.14985466003418,0.052063263952732086,0.16444534063339233,0.1087869256734848
-1.2134602069854736,2.8893332481384277,9.367900848388672,-0.05752258375287056,0.10692276805639267,0.10346075892448425
-1.3070793151855469,2.82951283454895,9.375079154968262,-0.10119713842868805,-0.02410089783370495,0.026763979345560074
-1.184746265411377,2.690429925918579,9.351150512695312,-0.05219641700387001,0.01957365684211254,-0.017975807189941406
-1.2062816619873047,2.9730820655822754,9.41336441040039,-0.0106523297727108,0.07496577501296997,0.041677240282297134
-1.196710467338562,2.9204399585723877,9.449256896972656,0.015845341607928276,0.10905323177576065,0.08535179495811462
-1.2852448225021362,2.8319056034088135,9.489934921264648,0.023301972076296806,0.10479229688644409,0.05978620424866676
-1.3573286533355713,2.80767822265625,9.640981674194336,-0.02450035884976387,0.04513924941420555,0.015046416781842709
-1.342971682548523,2.743072032928467,9.686445236206055,-0.04580501839518547,-0.05712312087416649,-0.016910573467612267
-1.4123635292053223,2.7861428260803223,9.463613510131836,-0.004260932095348835,-0.10612384229898453,-0.041410934180021286
-1.6734803915023804,3.073580741882324,9.252745628356934,0.07975932210683823,-0.20092958211898804,-0.061650361865758896
-1.3549357652664185,3.155235767364502,8.06231689453125,0.23634858429431915,0.12929265201091766,-0.09999874979257584
-1.9202401638031006,3.4546377658843994,8.917451858520508,-0.08095771074295044,0.08029194176197052,0.13754820823669434
-1.4003994464874268,2.666501760482788,9.707980155944824,-0.17256775498390198,-0.0667102187871933,0.022503048181533813
-1.2972090244293213,3.1289145946502686,9.363115310668945,-0.05006595328450203,-0.1945381760597229,-0.0936073511838913
-1.3381860256195068,3.0906295776367188,9.188139915466309,-0.03621792420744896,-0.2158428430557251,-0.10212921351194382
-1.1679965257644653,3.164807081222534,9.046963691711426,-0.09161003679037094,-0.1742987483739853,-0.037150003015995026
-1.038784146308899,2.970689296722412,9.329615592956543,-0.10332760214805603,-0.04753602296113968,0.03209014609456062
-1.031306505203247,2.7239294052124023,9.559625625610352,-0.04367455467581749,-0.009187635034322739,0.023568280041217804
-1.0411769151687622,2.7646074295043945,9.62901782989502,-0.02236989326775074,-0.04220985993742943,-0.025432437658309937
-1.0049854516983032,2.704786777496338,9.547661781311035,-0.05219641700387001,-0.1093195378780365,-0.048867564648389816
-1.0217353105545044,2.673680305480957,9.554840087890625,-0.07350108027458191,-0.12103710323572159,-0.058454662561416626
-1.0459625720977783,2.635395050048828,9.59791088104248,-0.07563154399394989,-0.11890663951635361,-0.06697652488946915
-1.0890333652496338,2.618645191192627,9.712766647338867,-0.004260932095348835,-0.09121058136224747,-0.0936073511838913
-1.1823534965515137,2.8701908588409424,9.521040916442871,0.09999874979257584,-0.07629731297492981,-0.11278154700994492
-1.06271231174469,3.0448668003082275,9.188139915466309,0.016910573467612267,-0.08375394344329834,-0.0712374597787857
-1.09381902217865,3.0664021968841553,9.068498611450195,0.017975807189941406,-0.08055824786424637,-0.07549838721752167
-1.1799606084823608,3.032902717590332,9.097212791442871,0.01384802907705307,-0.02303566411137581,-0.06484606117010117
-1.311864972114563,2.9012975692749023,9.2288179397583,0.028628136962652206,0.015312724746763706,-0.04673709720373154
-1.3884353637695312,2.9012975692749023,9.387042999267578,0.024367205798625946,0.01637795753777027,-0.043541401624679565
-1.2684950828552246,2.944368362426758,9.339186668395996,0.019041040912270546,-0.04647079110145569,-0.033954303711652756
-1.1775678396224976,3.0185458660125732,9.094820022583008,-0.0063913981430232525,-0.0560578890144825,-0.04993279650807381
-1.2445669174194336,3.0352954864501953,9.257532119750977,-0.06071828305721283,-0.01983996480703354,-0.035019535571336746
-1.1823534965515137,2.8462624549865723,9.585947036743164,-0.07669677585363388,-0.012383334338665009,-0.008388710208237171
-1.1799606084823608,2.819941520690918,9.470791816711426,-0.0010652330238372087,-0.0347532257437706,-0.008388710208237171
-1.1321041584014893,2.874976396560669,9.092427253723145,0.06271559745073318,-0.013448567129671574,-0.012649642303586006
-1.0818549394607544,3.073580741882324,8.778668403625488,0.2533923089504242,0.16018441319465637,-0.04993279650807381
-1.4243277311325073,3.3179476261138916,9.195318222045898,0.057389430701732635,0.16444534063339233,0.0874822586774826
-1.3262219429016113,2.7239294052124023,9.415757179260254,-0.17363297939300537,-0.02410089783370495,0.08109086751937866
-1.2038888931274414,2.649751901626587,9.61944580078125,-0.191741943359375,-0.13595037162303925,-0.10106398165225983
-1.2996017932891846,2.9252257347106934,9.578767776489258,-0.08841434121131897,-0.10186290740966797,-0.12343387305736542
-1.3094722032546997,2.908475875854492,9.595518112182617,-0.01704372838139534,-0.01983996480703354,-0.031823836266994476
-1.1416754722595215,2.9874391555786133,9.638588905334473,0.045671865344047546,0.04300878196954727,0.054460037499666214
-1.038784146308899,2.9036903381347656,9.557232856750488,0.07017222791910172,0.06218297779560089,0.07576470077037811
-1.1560324430465698,2.8319056034088135,9.583553314208984,0.024367205798625946,0.0025299284607172012,0.037416309118270874
-1.2708879709243774,3.0520453453063965,8.836095809936523,0.21823962032794952,0.1356840580701828,-0.03288906812667847
-1.5032907724380493,2.9347970485687256,9.300901412963867,0.00852186419069767,0.04087831825017929,0.08535179495811462
-1.40279221534729,2.68325138092041,9.456435203552246,-0.21730753779411316,-0.19666863977909088,0.037416309118270874
-1.1871391534805298,2.711965322494507,9.367900848388672,-0.1278279572725296,-0.1742987483739853,-0.08402025699615479
-1.2062816619873047,2.9898319244384766,9.355937004089355,-0.02556559257209301,-0.0880148783326149,-0.07656362652778625
-1.0770692825317383,3.0520453453063965,9.23599624633789,0.019041040912270546,-0.03049229457974434,0.029959678649902344
-0.9308080077171326,3.0448668003082275,8.982057571411133,0.060585130006074905,0.05792204663157463,0.10239552706480026
-0.9260223507881165,2.977867841720581,9.061320304870605,0.05632419511675835,0.10798799991607666,0.10985215753316879
-0.9188438653945923,2.89890456199646,9.284152030944824,0.028628136962652206,0.13035789132118225,0.10026505589485168
-0.9092726111412048,2.793321371078491,9.648159980773926,-0.03515268862247467,0.04407401755452156,0.05659050494432449
-0.885344386100769,2.721536636352539,9.698409080505371,-0.04580501839518547,-0.02197043038904667,0.027829213067889214
-0.8638089895248413,2.719143867492676,9.516255378723145,-0.0159784946590662,-0.09653674066066742,-0.024367205798625946
-0.8422735929489136,2.882154941558838,9.269495964050293,0.05632419511675835,-0.007057168986648321,-0.011584409512579441
-0.7776673436164856,2.9515466690063477,9.293723106384277,0.08402025699615479,0.04513924941420555,0.009720250964164734
-0.6433702111244202,3.0424740314483643,9.15703296661377,0.08402025699615479,0.06005251035094261,0.013981183059513569
-0.9547362327575684,2.9108686447143555,9.154640197753906,0.038215234875679016,0.0611177459359169,-0.017975807189941406
-1.5056836605072021,2.8630123138427734,9.712766647338867,-0.04900071769952774,-0.004926702938973904,-0.06697652488946915
-1.031306505203247,2.8654050827026367,9.533005714416504,0.06378082931041718,-0.06990591436624527,-0.031823836266994476
-1.0121639966964722,2.963510751724243,9.197710990905762,0.06910699605941772,-0.10292813926935196,-0.059519894421100616
-0.6409773826599121,3.2868409156799316,8.455039024353027,0.42809051275253296,0.25605538487434387,-0.09467258304357529
-1.1129616498947144,3.559921979904175,8.52472972869873,0.39932921528816223,0.4625774323940277,0.10452599078416824
-1.220638632774353,3.040081262588501,9.066105842590332,0.040345702320337296,0.20492419600486755,0.1194392517209053
-1.3764712810516357,3.0520453453063965,9.42772102355957,-0.40798425674438477,-0.2540580630302429,-0.017975807189941406
-1.409970760345459,2.496312141418457,9.724730491638184,-0.5560516119003296,-0.4479304850101471,-0.1468690037727356
-1.2613166570663452,2.7789642810821533,9.791728973388672,-0.30359140038490295,-0.34673336148262024,-0.21397867798805237
-1.158425211906433,3.0233314037323,9.446864128112793,0.0106523297727108,-0.13275466859340668,-0.07017222791910172
-1.09381902217865,3.040081262588501,9.121140480041504,0.15006470680236816,0.09627043455839157,0.08854749798774719
-1.06271231174469,2.9659037590026855,9.430113792419434,0.10212921351194382,0.18468476831912994,0.12156971544027328
-0.9547362327575684,2.908475875854492,9.600303649902344,-0.0031956990715116262,0.02063889056444168,0.054460037499666214
-0.7630113363265991,2.882154941558838,9.418149948120117,-0.06604444980621338,-0.15725502371788025,-0.041410934180021286
-0.7630113363265991,2.9874391555786133,9.137890815734863,-0.06071828305721283,-0.17962491512298584,-0.08828118443489075
-0.8446664214134216,2.9491539001464844,8.998807907104492,-0.00852186419069767,-0.08055824786424637,-0.050998032093048096
-0.9332008361816406,2.8462624549865723,9.030213356018066,0.0010652330238372087,0.05366111174225807,0.008655018173158169
-1.1512467861175537,2.6856443881988525,9.43489933013916,-0.01384802907705307,0.1260969638824463,0.026763979345560074
-1.2014961242675781,2.6306095123291016,9.727123260498047,-0.01491326279938221,0.06963960826396942,-0.024367205798625946
-1.1368898153305054,2.7311079502105713,9.672088623046875,-0.02023942768573761,-0.07203638553619385,-0.08828118443489075
-1.1368898153305054,2.9347970485687256,9.559625625610352,-0.06924014538526535,-0.14340700209140778,-0.1255643367767334
-1.1440683603286743,3.0448668003082275,9.437292098999023,-0.09267527610063553,-0.1615159511566162,-0.10852061212062836
-1.1249257326126099,3.1695926189422607,8.931808471679688,-0.06071828305721283,-0.09760197252035141,-0.09786828607320786
-1.09381902217865,3.3684961795806885,8.903095245361328,0.297066867351532,0.2762948274612427,-0.007323476951569319
-1.4219348430633545,3.4713873863220215,9.324830055236816,0.2203700840473175,0.2635120153427124,0.15459194779396057
-1.227817177772522,2.9012975692749023,9.401400566101074,-0.11930610239505768,-0.11358047276735306,0.1290263533592224
-0.9786644577980042,2.7335007190704346,9.343972206115723,-0.27269965410232544,-0.27003657817840576,-0.0723026916384697
-1.0049854516983032,2.697608470916748,9.53779125213623,-0.20985090732574463,-0.20199480652809143,-0.12023817747831345
-1.0193424224853516,2.7693932056427,9.564411163330078,-0.13528458774089813,-0.13914605975151062,-0.09147688746452332
-0.8685946464538574,2.8701908588409424,9.432506561279297,0.04993279650807381,0.00359516148455441,0.011850717477500439
-0.9068797826766968,2.7646074295043945,9.27428150177002,0.1468690037727356,0.13355359435081482,0.0874822586774826
-0.9690931439399719,2.711965322494507,9.32722282409668,0.1255643367767334,0.1559234857559204,0.08535179495811462
-1.067497968673706,2.7023940086364746,9.614660263061523,-0.009587096981704235,0.06537867337465286,0.023568280041217804
-1.0770692825317383,2.7311079502105713,9.679266929626465,-0.09161003679037094,-0.13381989300251007,-0.055258963257074356
-0.8542376756668091,2.92283296585083,8.67069149017334,-0.0532616525888443,-0.13275466859340668,-0.09893351793289185
-0.9068797826766968,3.0616166591644287,8.728119850158691,0.2981320917606354,0.31038227677345276,0.024633513763546944
-1.3142578601837158,3.0041887760162354,9.315258979797363,0.21717438101768494,0.35299158096313477,0.1396786868572235
-1.316650629043579,2.9276185035705566,9.573982238769531,-0.16617634892463684,-0.06777545064687729,0.033155377954244614
-1.2469596862792969,2.611466884613037,9.477970123291016,-0.3717663288116455,-0.3222329914569855,-0.15432563424110413
-1.0794621706008911,2.8319056034088135,9.640981674194336,0.055258963257074356,0.18361954391002655,0.10346075892448425
-1.0962119102478027,2.6784658432006836,9.81356430053711,-0.03728315606713295,-0.0017310036346316338,0.019307348877191544
-1.0914262533187866,2.7478578090667725,9.746265411376953,-0.08628387749195099,-0.14553746581077576,-0.050998032093048096
-1.134497046470642,2.7502505779266357,9.609874725341797,-0.06071828305721283,-0.1615159511566162,-0.042476166039705276
-1.1703894138336182,2.743072032928467,9.581160545349121,-0.03621792420744896,-0.13808083534240723,-0.025432437658309937
-1.2541381120681763,2.68325138092041,8.95095157623291,0.023301972076296806,-0.05392742156982422,-0.012649642303586006
-1.043569803237915,2.9276185035705566,8.843274116516113,0.47069984674453735,0.4007939398288727,0.031024912372231483
-1.3645070791244507,3.1289145946502686,9.166604042053223,0.37376365065574646,0.4306204617023468,0.19919857382774353
-1.2661023139953613,2.939582586288452,9.408578872680664,-0.05113118514418602,-0.008122402243316174,0.19600287079811096
-1.0651051998138428,2.4364917278289795,9.569196701049805,-0.4569849669933319,-0.4159734845161438,-0.027562905102968216
-0.7920243144035339,2.7981069087982178,9.504291534423828,-0.2247641682624817,-0.2774932086467743,-0.11917294561862946
-0.7848458290100098,3.0209386348724365,9.12831974029541,0.0712374597787857,-0.013448567129671574,0.033155377954244614
-0.8183453679084778,3.0233314037323,8.986844062805176,0.16071702539920807,0.13248835504055023,0.12796111404895782
-0.9092726111412048,2.827120065689087,9.2288179397583,0.17989122867584229,0.3370130956172943,0.2226337045431137
-0.9882357716560364,2.7550361156463623,9.593125343322754,0.09467258304357529,0.27096864581108093,0.18854624032974243
-0.9834501147270203,2.704786777496338,9.679266929626465,0.03928046673536301,0.17190198600292206,0.1311568170785904
-0.9882357716560364,2.7335007190704346,9.686445236206055,-0.04687025398015976,-0.05499265342950821,-0.0030625448562204838
-1.0360921621322632,2.9180471897125244,9.214461326599121,-0.07882724702358246,-0.16897258162498474,-0.08082455396652222
-1.031306505203247,2.999403238296509,9.221639633178711,-0.07989247888326645,-0.04647079110145569,-0.005193010903894901
-1.067497968673706,2.8869404792785645,9.41336441040039,-0.02023942768573761,0.0717700719833374,0.08322133123874664
-1.0241280794143677,2.8342983722686768,9.614660263061523,0.043541401624679565,-0.015579032711684704,-0.020106272771954536
-0.8805587291717529,2.8869404792785645,9.418149948120117,0.10958584398031235,-0.02197043038904667,-0.021171506494283676
-0.9355936646461487,2.970689296722412,9.212067604064941,0.10745538026094437,-0.012383334338665009,-0.030758604407310486
-0.9882357716560364,2.9036903381347656,9.245567321777344,0.060585130006074905,0.009986559860408306,-0.024367205798625946
-1.0531411170959473,2.9276185035705566,9.317651748657227,0.024367205798625946,-0.014513799920678139,-0.010519175790250301
-1.0289137363433838,2.882154941558838,9.425328254699707,-0.0031956990715116262,-0.04327509179711342,-0.03288906812667847
-1.067497968673706,2.8869404792785645,9.365508079528809,0.0021304660476744175,-0.0560578890144825,-0.045671865344047546
-0.882951557636261,3.0137600898742676,8.946166038513184,0.2853493094444275,0.09200949966907501,-0.1042596846818924
-1.2134602069854736,3.3780672550201416,8.903095245361328,0.2523270845413208,0.2198374718427658,0.036351077258586884
-1.134497046470642,2.944368362426758,9.293723106384277,-0.03728315606713295,0.08135717362165451,0.10239552706480026
-0.9978070259094238,2.7167510986328125,9.578767776489258,-0.23861220479011536,-0.16471165418624878,-0.030758604407310486
-0.9308080077171326,2.6952157020568848,9.571589469909668,-0.1288931965827942,-0.1742987483739853,-0.18308693170547485
-0.9379864931106567,2.9587252140045166,9.552447319030762,0.01384802907705307,-0.06457975506782532,-0.1468690037727356
-0.8733802437782288,2.9204399585723877,9.399007797241211,0.13302096724510193,0.04194355010986328,-0.029693370684981346
-0.8757730722427368,3.0185458660125732,9.339186668395996,0.17136935889720917,0.12077079713344574,0.00226362026296556
-0.9619147181510925,3.0592236518859863,9.418149948120117,0.11278154700994492,0.08561810106039047,-0.029693370684981346
-1.0962119102478027,3.0906295776367188,9.430113792419434,0.06804175674915314,0.02703028731048107,-0.05632419511675835
-1.1249257326126099,3.049652576446533,9.379864692687988,-0.01384802907705307,-0.09227581322193146,-0.09041165560483932
-1.1703894138336182,3.0544381141662598,9.391828536987305,-0.01917419396340847,-0.11145000159740448,-0.09147688746452332
-1.1440683603286743,3.0233314037323,9.312865257263184,0.05632419511675835,-0.0667102187871933,-0.058454662561416626
-1.1440683603286743,3.0544381141662598,9.298508644104004,0.12023817747831345,0.0003994623839389533,-0.037150003015995026
-1.0866405963897705,3.116950511932373,9.185747146606445,0.10852061212062836,0.02170412242412567,-0.022236740216612816
-1.0866405963897705,3.0687949657440186,9.23599624633789,0.050998032093048096,-0.0017310036346316338,-0.013714875094592571
-1.0866405963897705,2.9180471897125244,9.387042999267578,0.015845341607928276,-0.03049229457974434,-0.042476166039705276
-1.1368898153305054,3.049652576446533,9.43489933013916,0.031823836266994476,-0.05818835273385048,-0.06378082931041718
-1.251745343208313,3.303590774536133,8.306683540344238,0.048867564648389816,-0.06884068250656128,-0.03928046673536301
-1.0603195428848267,3.2054851055145264,8.546265602111816,0.14793424308300018,0.21451130509376526,0.00226362026296556
-1.1249257326126099,3.521636724472046,9.061320304870605,0.021171506494283676,0.13355359435081482,0.1087869256734848
-1.3070793151855469,3.0424740314483643,9.212067604064941,-0.14487169682979584,-0.04966649040579796,0.07469946891069412
-1.0770692825317383,2.8725836277008057,9.377471923828125,-0.24287313222885132,-0.11038476973772049,-0.035019535571336746
-1.0914262533187866,2.8462624549865723,9.54496955871582,-0.07030537724494934,-0.02942706272006035,-0.019041040912270546
-0.9930213689804077,3.0592236518859863,9.370293617248535,0.038215234875679016,0.05259587988257408,0.033155377954244614
-0.9882357716560364,2.9730820655822754,9.25035285949707,0.055258963257074356,0.08987903594970703,0.05232957378029823
-1.074676513671875,3.100200891494751,9.595518112182617,-0.07243584841489792,0.009986559860408306,0.0033288532868027687
-1.0507482290267944,3.0376882553100586,9.554840087890625,-0.09267527610063553,-0.09653674066066742,-0.004127778112888336
-1.0890333652496338,2.86061954498291,9.422935485839844,-0.04154408723115921,-0.03688369318842888,0.013981183059513569
-1.0411769151687622,2.9204399585723877,9.456435203552246,0.0010652330238372087,-0.02197043038904667,0.022503048181533813
-0.9643075466156006,2.96111798286438,9.324830055236816,0.019041040912270546,-0.03368799388408661,0.022503048181533813
-0.8949156403541565,2.968296527862549,9.12592601776123,0.01171756349503994,-0.0347532257437706,0.013981183059513569
-0.9236295223236084,2.9587252140045166,9.003593444824219,-0.02236989326775074,-0.014513799920678139,-0.0030625448562204838
-0.9643075466156006,3.064009428024292,9.14267635345459,-0.07669677585363388,0.0185084231197834,-0.014780107885599136
-1.0001999139785767,2.9826533794403076,9.257532119750977,-0.11291470378637314,0.004660394508391619,-0.021171506494283676
-1.0507482290267944,2.9204399585723877,9.399007797241211,-0.13208889961242676,0.007856093347072601,-0.020106272771954536
-1.043569803237915,2.8654050827026367,9.525827407836914,-0.08202294260263443,0.008921326138079166,-0.006258244160562754
-1.0411769151687622,2.8965117931365967,9.391828536987305,-0.02876129187643528,0.02063889056444168,-0.0009320789249613881
-1.1321041584014893,2.99222469329834,9.291330337524414,-0.06284874677658081,0.04300878196954727,0.010785484686493874
-1.043569803237915,2.89172625541687,9.422935485839844,-0.15232832729816437,-0.0017310036346316338,0.010785484686493874
-1.1273186206817627,2.8725836277008057,9.300901412963867,-0.12569749355316162,0.00359516148455441,0.009720250964164734
-1.0770692825317383,2.8486554622650146,9.34875774383545,-0.15232832729816437,0.05259587988257408,0.024633513763546944
-1.2086745500564575,2.6928226947784424,9.442078590393066,-0.1501978635787964,0.04513924941420555,0.051264338195323944
-1.0555338859558105,2.587538480758667,9.513862609863281,-0.11291470378637314,0.05792204663157463,0.07043853402137756
-0.9403793215751648,2.649751901626587,9.41336441040039,-0.06924014538526535,0.07709623873233795,0.07896039634943008
-0.9978070259094238,2.6066811084747314,9.473184585571289,-0.05752258375287056,0.09733566641807556,0.061916667968034744
-1.007378339767456,2.5588247776031494,9.60508918762207,-0.06710968166589737,0.05579157918691635,0.017176883295178413
-1.0459625720977783,2.5226333141326904,9.633803367614746,-0.05645735189318657,-0.02090519852936268,-0.006258244160562754
-1.1129616498947144,2.5660030841827393,9.332008361816406,-0.0426093190908432,-0.011318100616335869,0.004394086077809334
-1.1464611291885376,2.5516462326049805,9.550054550170898,-0.05752258375287056,0.06218297779560089,0.036351077258586884
-1.1823534965515137,2.5250260829925537,9.550054550170898,-0.04047885537147522,0.06750914454460144,0.04274247586727142
-1.196710467338562,2.570788860321045,9.602696418762207,-0.01491326279938221,0.039813082665205,0.028894444927573204
-1.2014961242675781,2.5851457118988037,9.343972206115723,-0.0053261648863554,-0.008122402243316174,0.015046416781842709
-1.2445669174194336,2.642573595046997,9.396614074707031,-0.0532616525888443,0.009986559860408306,0.012915950268507004
-1.2852448225021362,2.6401805877685547,9.375079154968262,-0.08095771074295044,0.02170412242412567,0.033155377954244614
-1.160818099975586,2.6521449089050293,9.53779125213623,-0.07350108027458191,0.03022598661482334,0.05232957378029823
-0.9954141974449158,2.556432008743286,9.521040916442871,-0.02023942768573761,0.02063889056444168,0.0555252730846405
-1.0145567655563354,2.5827529430389404,9.504291534423828,-0.004260932095348835,0.02809552103281021,0.043807707726955414
-1.0866405963897705,2.68325138092041,9.499505996704102,-0.02236989326775074,0.013182258233428001,0.03848154470324516
-1.1440683603286743,2.527418851852417,9.576375007629395,-0.07350108027458191,-0.02090519852936268,0.053394805639982224
-1.2780663967132568,2.5851457118988037,9.559625625610352,-0.24926452338695526,-0.07310161739587784,0.09387365728616714
-0.9906286001205444,2.297708034515381,9.827920913696289,-0.32383084297180176,-0.2870802879333496,-0.10532491654157639
-1.1321041584014893,2.503490686416626,9.698409080505371,-0.1480673849582672,-0.25086238980293274,-0.17030413448810577
-1.1057831048965454,2.520240545272827,9.391828536987305,0.040345702320337296,-0.07523208111524582,-0.06484606117010117
-1.1536396741867065,2.6760730743408203,9.367900848388672,0.14047759771347046,0.12929265201091766,0.06298190355300903
-1.1512467861175537,2.6521449089050293,9.600303649902344,0.1138467788696289,0.1452711522579193,0.10985215753316879
-1.0483554601669312,2.656930446624756,9.554840087890625,0.029693370684981346,-0.0017310036346316338,0.06511236727237701
-1.031306505203247,2.5660030841827393,9.363115310668945,-0.03834838792681694,-0.11677616834640503,-0.013714875094592571
-0.9284151792526245,2.527418851852417,9.593125343322754,0.07762885838747025,0.0003994623839389533,0.054460037499666214
-0.9499505758285522,2.5660030841827393,9.343972206115723,0.07656362652778625,-0.015579032711684704,0.033155377954244614
-0.9332008361816406,2.546860694885254,9.44447135925293,-0.02343512699007988,-0.03794892504811287,0.016111649572849274
-0.9212366938591003,2.5612175464630127,9.59073257446289,-0.07030537724494934,-0.0773625448346138,-0.008388710208237171
-1.1177473068237305,3.085843801498413,8.828917503356934,0.5655055642127991,0.6010577082633972,0.12689588963985443
-1.3812568187713623,2.8414769172668457,9.226425170898438,0.18734785914421082,0.3901416063308716,0.16630950570106506
-1.2134602069854736,2.6162524223327637,9.791728973388672,-0.33448317646980286,-0.1519288569688797,0.027829213067889214
-1.0579266548156738,2.5540390014648438,9.973882675170898,-0.5794867873191833,-0.5299534201622009,-0.1777607649564743
-1.0818549394607544,2.4699912071228027,9.866206169128418,-0.5453993082046509,-0.5757584571838379,-0.20332635939121246
-0.8638089895248413,2.4843480587005615,9.521040916442871,-0.17256775498390198,-0.3211677670478821,-0.1884130984544754
-0.8662018179893494,2.851048231124878,9.29611587524414,0.18202169239521027,0.09946613013744354,-0.007323476951569319
-0.9212366938591003,2.7861428260803223,9.463613510131836,0.2640446424484253,0.3189041316509247,0.14926578104496002
-0.8925228714942932,2.6234309673309326,9.755837440490723,0.16391272842884064,0.23901166021823883,0.12476541846990585
-0.9930213689804077,2.5178475379943848,9.782157897949219,0.038215234875679016,-0.011318100616335869,-0.037150003015995026
-1.129711389541626,2.611466884613037,9.593125343322754,-0.07563154399394989,-0.19134248793125153,-0.16284750401973724
-1.067497968673706,2.697608470916748,9.489934921264648,-0.07563154399394989,-0.19027724862098694,-0.12982527911663055
-1.0794621706008911,2.673680305480957,9.360722541809082,0.054193731397390366,-0.04860125854611397,-0.047802332788705826
-1.0483554601669312,2.6952157020568848,9.271888732910156,0.1585865616798401,0.07922670245170593,-0.005193010903894901
-1.1201400756835938,2.759821891784668,9.185747146606445,0.13834713399410248,0.07709623873233795,-0.008388710208237171
-1.0603195428848267,2.783750057220459,9.135498046875,0.041410934180021286,0.015312724746763706,-0.029693370684981346
-1.0411769151687622,2.77657151222229,9.137890815734863,-0.04047885537147522,-0.02410089783370495,-0.052063263952732086
-1.0794621706008911,2.688037157058716,9.2288179397583,-0.03089175745844841,-0.007057168986648321,-0.048867564648389816
-1.1321041584014893,2.6377878189086914,9.240781784057617,0.017975807189941406,0.03342168778181076,-0.026497671380639076
-1.1871391534805298,2.597109794616699,9.185747146606445,0.05312849581241608,0.07283531129360199,-0.0009320789249613881
-1.2349956035614014,2.5899314880371094,9.291330337524414,0.004260932095348835,0.07922670245170593,0.004394086077809334
-1.0097711086273193,2.8654050827026367,8.898308753967285,0.14154283702373505,0.08881380409002304,-0.10958584398031235
-1.5152549743652344,3.08345103263855,9.293723106384277,-0.01704372838139534,0.13035789132118225,0.09174319356679916
-1.4219348430633545,2.4029922485351562,9.798908233642578,-0.2023942768573761,0.10266183316707611,0.1631138026714325
-1.2038888931274414,2.6617159843444824,9.827920913696289,-0.04047885537147522,-0.13808083534240723,-0.08828118443489075
-1.0531411170959473,2.697608470916748,9.449256896972656,0.019041040912270546,0.0238345880061388,0.0555252730846405
-0.9499505758285522,2.642573595046997,9.53779125213623,-0.00852186419069767,-0.015579032711684704,0.027829213067889214
-1.0193424224853516,2.5444676876068115,9.394221305847168,-0.02023942768573761,-0.05286218971014023,0.018242115154862404
-0.916451096534729,2.6760730743408203,9.387042999267578,-0.05113118514418602,-0.03368799388408661,0.022503048181533813
-1.00259268283844,2.6928226947784424,9.42772102355957,-0.04687025398015976,0.007856093347072601,0.040612008422613144
-1.00259268283844,2.580360174179077,9.633803367614746,-0.02556559257209301,0.02703028731048107,0.037416309118270874
-0.973878800868988,2.580360174179077,9.578767776489258,0.00852186419069767,-0.011318100616335869,0.025698747485876083
-0.9547362327575684,2.5588247776031494,9.367900848388672,0.00852186419069767,-0.02942706272006035,0.017176883295178413
-0.9499505758285522,2.5322046279907227,9.432506561279297,-0.02663082629442215,0.006790860556066036,0.00226362026296556
-1.043569803237915,2.5393829345703125,9.633803367614746,-0.02023942768573761,0.004660394508391619,-0.010519175790250301
-1.0531411170959473,2.5588247776031494,9.602696418762207,0.0010652330238372087,-0.03049229457974434,-0.012649642303586006
-1.038784146308899,2.6138596534729004,9.42772102355957,0.01384802907705307,-0.04220985993742943,-0.009453942999243736
-1.0722836256027222,2.6210381984710693,9.30329418182373,-0.0053261648863554,-0.02090519852936268,-0.010519175790250301
-1.0531411170959473,2.5827529430389404,9.339186668395996,-0.02982652559876442,-0.01877473294734955,-0.006258244160562754
-1.0603195428848267,2.5995028018951416,9.365508079528809,-0.02023942768573761,-0.02197043038904667,-0.013714875094592571
-0.9619147181510925,2.5755743980407715,9.360722541809082,-0.02876129187643528,-0.005991935729980469,-0.04993279650807381
-1.0507482290267944,2.6473591327667236,9.382257461547852,-0.0532616525888443,-0.014513799920678139,-0.05312849581241608
-1.0890333652496338,2.513062000274658,9.4660062789917,-0.11824086308479309,-0.04327509179711342,-0.03288906812667847
-0.9595218896865845,2.5995028018951416,9.375079154968262,0.14367330074310303,0.13781452178955078,-0.07762885838747025
-1.2900304794311523,2.8462624549865723,9.365508079528809,0.3375457227230072,0.36364391446113586,0.04593817517161369
-1.319043517112732,2.6617159843444824,9.384650230407715,0.1255643367767334,0.21451130509376526,0.1205044835805893
-1.1703894138336182,2.4915266036987305,9.710372924804688,-0.19813334941864014,-0.07629731297492981,0.023568280041217804
-1.067497968673706,2.4293131828308105,9.648159980773926,-0.14167599380016327,-0.22116900980472565,-0.14154283702373505
-1.256531000137329,2.5683960914611816,9.59791088104248,0.0063913981430232525,-0.02090519852936268,-0.022236740216612816
-1.3956137895584106,2.597109794616699,9.550054550170898,-0.09267527610063553,-0.1316894292831421,-0.08934641629457474
-1.3597214221954346,2.580360174179077,9.62901782989502,-0.08947957307100296,-0.12529803812503815,-0.043541401624679565
-1.2804591655731201,2.4987051486968994,9.518648147583008,0.028628136962652206,-0.05073172226548195,0.010785484686493874
-1.0890333652496338,2.6784658432006836,9.063713073730469,0.3620460629463196,0.20172850787639618,0.018242115154862404
-1.3956137895584106,2.9491539001464844,9.221639633178711,0.20652204751968384,0.20279373228549957,0.16417904198169708
-1.2756736278533936,2.4149563312530518,9.497113227844238,-0.11291470378637314,-0.04434032365679741,0.12796111404895782
-0.9260223507881165,2.4604198932647705,9.54496955871582,-0.20452474057674408,-0.2275604009628296,-0.08402025699615479
-1.0603195428848267,2.520240545272827,9.533005714416504,-0.13102366030216217,-0.19986434280872345,-0.12236864119768143
-1.0097711086273193,2.6545376777648926,9.425328254699707,0.0010652330238372087,-0.07629731297492981,-0.020106272771954536
-0.851844847202301,2.6162524223327637,9.399007797241211,0.10212921351194382,0.07922670245170593,0.09174319356679916
-0.8398807644844055,2.5612175464630127,9.449256896972656,0.11171631515026093,0.11224892735481262,0.08322133123874664
-0.9355936646461487,2.5923242568969727,9.576375007629395,0.01384802907705307,0.012117025442421436,0.012915950268507004
-1.0121639966964722,2.580360174179077,9.535398483276367,-0.07776200771331787,-0.13381989300251007,-0.03928046673536301
-1.3932210206985474,2.83669114112854,9.216854095458984,0.07017222791910172,0.22516362369060516,0.19493764638900757
-1.3597214221954346,2.345564365386963,9.748658180236816,-0.28335198760032654,-0.13595037162303925,0.07363422960042953
-1.0555338859558105,2.4388844966888428,9.63619613647461,-0.3099828064441681,-0.3211677670478821,-0.1990654170513153
-1.1991032361984253,2.7813572883605957,9.552447319030762,-0.20026381313800812,-0.2551233172416687,-0.1777607649564743
-1.0914262533187866,2.82951283454895,9.355937004089355,-0.01810896210372448,-0.05712312087416649,-0.001997311832383275
-0.9858429431915283,2.74546480178833,9.482755661010742,0.1031944528222084,0.17509767413139343,0.1418091505765915
-1.0336993932724,2.580360174179077,9.672088623046875,0.10852061212062836,0.16551057994365692,0.14926578104496002
-0.9786644577980042,2.510669231414795,9.786943435668945,-0.004260932095348835,-0.005991935729980469,0.07896039634943008
-0.8638089895248413,2.486740827560425,9.14985466003418,-0.007456631399691105,-0.08481918275356293,-0.044606633484363556
-1.0265209674835205,2.6617159843444824,9.185747146606445,0.24380521476268768,0.17296721041202545,0.033155377954244614
-1.067497968673706,2.7502505779266357,9.365508079528809,0.07549838721752167,0.05366111174225807,0.09493889659643173
-1.06271231174469,2.520240545272827,9.789336204528809,-0.06071828305721283,-0.012383334338665009,0.027829213067889214
-0.9810572862625122,2.4269204139709473,9.688838005065918,-0.02663082629442215,-0.06457975506782532,-0.005193010903894901
-0.9403793215751648,2.510669231414795,9.499505996704102,0.037150003015995026,-0.0027962366584688425,0.008655018173158169
-1.0818549394607544,2.5082762241363525,9.528220176696777,0.025432437658309937,0.012117025442421436,0.020372580736875534
-1.1249257326126099,2.5540390014648438,9.454042434692383,-0.012782796286046505,-0.02090519852936268,0.021437814459204674
-1.1105687618255615,2.489133834838867,9.430113792419434,-0.02769605815410614,-0.03901416063308716,0.020372580736875534
-1.0914262533187866,2.4532413482666016,9.446864128112793,-0.01917419396340847,-0.01770949922502041,0.011850717477500439
-1.0459625720977783,2.573181629180908,9.30329418182373,0.08402025699615479,-0.0027962366584688425,-0.007323476951569319
-1.0336993932724,2.6617159843444824,9.372686386108398,-0.11930610239505768,0.07603100687265396,0.0981345921754837
-0.8781659007072449,2.5226333141326904,9.513862609863281,-0.2982652485370636,-0.1423417627811432,0.03209014609456062
-1.0241280794143677,2.594717025756836,9.513862609863281,-0.15339355170726776,-0.08162347972393036,-0.0712374597787857
-1.043569803237915,2.4843480587005615,9.525827407836914,0.06591129302978516,0.19214141368865967,0.0768299326300621
-1.0579266548156738,2.3814568519592285,9.640981674194336,0.055258963257074356,0.20598943531513214,0.058720968663692474
-1.0411769151687622,2.5827529430389404,9.835099220275879,0.012782796286046505,0.10053136944770813,-0.012649642303586006
-1.031306505203247,2.563610315322876,9.782157897949219,-0.03941362351179123,-0.03688369318842888,-0.06697652488946915
-1.0962119102478027,2.6449663639068604,9.61226749420166,-0.03621792420744896,-0.09334104508161545,-0.09147688746452332
-1.184746265411377,2.6545376777648926,9.415757179260254,0.015845341607928276,-0.04007939249277115,-0.052063263952732086
-1.2349956035614014,2.625823736190796,9.399007797241211,0.06271559745073318,0.02809552103281021,0.005459319334477186
-1.134497046470642,2.520240545272827,9.343972206115723,0.0829550251364708,0.05792204663157463,0.015046416781842709
-1.2541381120681763,2.5250260829925537,9.382257461547852,0.048867564648389816,0.04726971685886383,-0.022236740216612816
-1.2589237689971924,2.527418851852417,9.693623542785645,0.23528334498405457,-0.18814678490161896,-0.12236864119768143
-1.1943175792694092,2.7717859745025635,9.315258979797363,0.0031956990715116262,-0.17642922699451447,-0.1138467788696289
-1.0217353105545044,2.6928226947784424,9.286544799804688,0.01491326279938221,-0.02090519852936268,0.08002562820911407
-0.9834501147270203,2.527418851852417,9.43489933013916,0.05312849581241608,0.07070484012365341,0.12156971544027328
-0.9810572862625122,2.4604198932647705,9.566803932189941,0.05312849581241608,0.04833494871854782,0.07256899774074554
-1.0169496536254883,2.4269204139709473,9.559625625610352,0.027562905102968216,0.0003994623839389533,0.041677240282297134
-0.9978070259094238,2.4221346378326416,9.578767776489258,-0.03728315606713295,-0.08375394344329834,-0.0030625448562204838
-0.8973084688186646,2.4221346378326416,9.585947036743164,-0.0426093190908432,-0.11145000159740448,-0.025432437658309937
-0.9236295223236084,2.400599241256714,9.588339805603027,-0.02236989326775074,-0.1093195378780365,-0.033954303711652756
-0.9451649188995361,2.6090738773345947,9.45164966583252,0.024367205798625946,-0.08908011019229889,-0.03928046673536301
-0.9403793215751648,2.690429925918579,9.332008361816406,0.037150003015995026,-0.06884068250656128,-0.027562905102968216
-0.9786644577980042,2.7382864952087402,9.202496528625488,0.015845341607928276,-0.05286218971014023,-0.013714875094592571
-1.0049854516983032,2.7071797847747803,9.178568840026855,-0.02023942768573761,-0.03368799388408661,-0.0030625448562204838
-0.9858429431915283,2.6473591327667236,9.291330337524414,-0.03834838792681694,-0.015579032711684704,0.00226362026296556
-1.0049854516983032,2.594717025756836,9.286544799804688,-0.004260932095348835,-0.000665770610794425,-0.005193010903894901
-1.0770692825317383,2.604288339614868,9.370293617248535,0.00852186419069767,0.04087831825017929,-0.007323476951569319
-1.0483554601669312,2.6449663639068604,9.509077072143555,-0.00852186419069767,0.04940018057823181,-0.004127778112888336
-1.0336993932724,2.5612175464630127,9.660123825073242,-0.04900071769952774,0.0025299284607172012,0.005459319334477186
-0.9547362327575684,2.5178475379943848,9.593125343322754,-0.04793548583984375,-0.03688369318842888,0.0033288532868027687
-0.9595218896865845,2.4293131828308105,9.504291534423828,-0.007456631399691105,-0.01770949922502041,-0.012649642303586006
-1.0121639966964722,2.4604198932647705,9.45164966583252,0.017975807189941406,0.01744319126009941,-0.025432437658309937
-1.0049854516983032,2.5058834552764893,9.44447135925293,0.01171756349503994,0.02276935614645481,-0.023301972076296806
-1.007378339767456,2.5226333141326904,9.42772102355957,0.0063913981430232525,0.01744319126009941,-0.028628136962652206
-0.8757730722427368,2.628216505050659,9.360722541809082,0.0010652330238372087,0.0025299284607172012,-0.038215234875679016
-0.9547362327575684,2.666501760482788,9.192925453186035,-0.01704372838139534,-0.000665770610794425,-0.042476166039705276
-0.9882357716560364,2.68325138092041,9.382257461547852,-0.05752258375287056,0.02170412242412567,-0.020106272771954536
-1.1129616498947144,2.633002281188965,9.499505996704102,-0.06817491352558136,0.05366111174225807,0.00226362026296556
-1.2541381120681763,2.369492530822754,9.794121742248535,-0.0213046595454216,0.06644391268491745,0.004394086077809334
-1.2732807397842407,2.355135679244995,9.942776679992676,0.016910573467612267,0.02916075475513935,-0.0009320789249613881
-1.2996017932891846,2.3718855381011963,9.746265411376953,0.0063913981430232525,-0.04327509179711342,-0.006258244160562754
-1.098604679107666,2.4604198932647705,9.755837440490723,-0.012782796286046505,-0.06884068250656128,-0.013714875094592571
-1.0531411170959473,2.536990165710449,9.439684867858887,0.031823836266994476,-0.08162347972393036,-0.015845341607928276
-1.00259268283844,2.6210381984710693,9.145069122314453,0.06910699605941772,-0.02942706272006035,-0.010519175790250301
-0.9188438653945923,2.7382864952087402,8.860024452209473,0.2619141638278961,0.11224892735481262,-0.015845341607928276
-1.282852053642273,2.89172625541687,9.003593444824219,0.2725664973258972,0.29227331280708313,0.1087869256734848
-0.97148597240448,2.546860694885254,9.353543281555176,-0.1906767040491104,-0.1306242048740387,-0.12343387305736542
-1.0049854516983032,2.5540390014648438,9.581160545349121,-0.07350108027458191,0.07603100687265396,-0.006258244160562754
-0.9906286001205444,2.3910279273986816,9.815957069396973,0.07656362652778625,0.19427187740802765,0.10026505589485168
-1.0241280794143677,2.2881367206573486,9.90688419342041,0.13834713399410248,0.16551057994365692,0.043807707726955414
-1.1177473068237305,2.4771697521209717,9.897313117980957,0.058454662561416626,-0.008122402243316174,-0.0723026916384697
-1.196710467338562,2.6090738773345947,9.746265411376953,-0.04793548583984375,-0.17962491512298584,-0.13408620655536652
-1.1632108688354492,2.721536636352539,9.528220176696777,-0.06497921794652939,-0.19773387908935547,-0.11278154700994492
-1.0459625720977783,2.711965322494507,9.45882797241211,0.01491326279938221,-0.09334104508161545,-0.03608476743102074
-0.9834501147270203,2.6449663639068604,9.367900848388672,0.13195574283599854,0.006790860556066036,0.009720250964164734
-1.031306505203247,2.5755743980407715,9.281759262084961,0.1351514458656311,0.039813082665205,0.0033288532868027687
-1.0459625720977783,2.611466884613037,9.322437286376953,0.050998032093048096,-0.0027962366584688425,-0.029693370684981346
-0.9619147181510925,2.618645191192627,9.379864692687988,-0.0,-0.06351451575756073,-0.054193731397390366
-0.9212366938591003,2.6210381984710693,9.25992488861084,0.0106523297727108,-0.06138405203819275,-0.06378082931041718
-0.9403793215751648,2.704786777496338,9.166604042053223,0.028628136962652206,-0.010252867825329304,-0.030758604407310486
-1.2326027154922485,2.9012975692749023,8.82652473449707,-0.004260932095348835,0.11011846363544464,0.058720968663692474
-1.1775678396224976,2.6521449089050293,9.650552749633789,-0.11291470378637314,-0.02942706272006035,0.12370018661022186
