accX,accY,accZ,gyroX,gyroY,gyroZ
0.2560320198535919,3.7734813690185547,8.274081230163574,-0.21440738439559937,-0.6384881138801575,-0.04772244393825531
0.2919243574142456,4.4054856300354,8.01057243347168,-0.3871244490146637,-0.7203416228294373,-0.1527881771326065
-0.17976079881191254,4.78594446182251,7.883752346038818,-0.6462000608444214,-0.7221741676330566,-0.09842276573181152
-0.49591249227523804,4.735694885253906,8.405686378479004,-0.869235634803772,-0.7704311013221741,0.08971819281578064
-0.4384847581386566,4.8915276527404785,9.937990188598633,-1.0133192539215088,-0.9115368127822876,0.36337774991989136
0.9382855892181396,3.7663028240203857,11.690434455871582,-1.021412968635559,-0.9371923804283142,0.5863370299339294
2.953939437866211,1.5254244804382324,13.20808219909668,-0.8412894010543823,-1.030041217803955,0.46661093831062317
3.76570463180542,0.23001007735729218,14.125131607055664,-0.2187596708536148,-1.0062181949615479,0.02435753494501114
2.4777679443359375,1.4270195960998535,9.250652313232422,0.6789567470550537,-0.8223531246185303,-0.40140300989151
1.7425731420516968,2.681756019592285,4.967798709869385,0.7031615376472473,-0.5297572612762451,-0.39773792028427124
1.7928223609924316,2.7774689197540283,4.1368913650512695,0.18814095854759216,-0.10636378079652786,-0.18638476729393005
1.8095721006393433,2.9832515716552734,5.204688549041748,-0.3939964771270752,0.15813308954238892,0.010918894782662392
1.3525429964065552,3.81655216217041,9.212367057800293,-0.6903337836265564,0.44523128867149353,0.04940227046608925
1.3334003686904907,4.175475597381592,13.943276405334473,-0.31382277607917786,0.5900021195411682,0.0823880210518837
1.795215129852295,3.1818559169769287,12.82044506072998,0.3434488773345947,0.250981867313385,0.04940227046608925
2.3650059700012207,2.688934564590454,10.299306869506836,0.3913240134716034,-0.01779092662036419,-0.043446511030197144
1.6683956384658813,3.169891834259033,9.37298583984375,0.20616094768047333,-0.09170344471931458,-0.10514208674430847
1.1799606084823608,3.1651060581207275,7.658827304840088,0.1620272397994995,-0.01046075951308012,-0.025121092796325684
0.9000003933906555,3.119642496109009,7.290033340454102,0.04963133856654167,0.13064496219158173,0.022524992004036903
0.8688937425613403,3.0933215618133545,7.479066371917725,-0.08521319180727005,0.1459161341190338,0.00786465872079134
1.067497968673706,3.337688446044922,7.905287742614746,-0.23929941654205322,0.14286190271377563,-0.000687203137204051
1.3211371898651123,3.392723321914673,8.379365921020508,-0.3958290219306946,0.18501035869121552,0.04512634128332138
1.472184181213379,3.478864908218384,9.231510162353516,-0.4859289824962616,0.20883341133594513,0.07444700598716736
1.6947166919708252,3.416651725769043,10.057631492614746,-0.5101338028907776,0.18867544829845428,0.08666395395994186
1.587039589881897,2.399103879928589,12.018250465393066,0.3086305856704712,0.13675342500209808,0.08299887180328369
0.9334999322891235,2.5067808628082275,10.115059852600098,0.43477052450180054,-0.035505495965480804,0.04940227046608925
0.6532405614852905,2.758326292037964,8.42722225189209,0.2596100866794586,-0.03367295488715172,0.04695888236165047
0.7441678643226624,2.8827531337738037,6.569494724273682,-0.07528692483901978,0.04879142343997955,0.06589514762163162
1.0220344066619873,2.5594229698181152,6.595815658569336,-0.3877353072166443,0.20700086653232574,0.10682191699743271
1.4123635292053223,2.463710069656372,7.83111047744751,-0.47348299622535706,0.2760266065597534,0.07444700598716736
1.3549357652664185,2.5378875732421875,10.119845390319824,-0.2877090573310852,0.2925194799900055,0.012140588834881783
1.4506487846374512,2.9042885303497314,12.257832527160645,0.02664821222424507,0.14469444751739502,-0.04161396995186806
1.7688941955566406,2.8277182579040527,11.611471176147461,0.34100547432899475,-0.045889899134635925,-0.07032378762960434
1.7880367040634155,3.0287153720855713,10.081560134887695,0.3248180150985718,-0.05810684710741043,-0.10330954194068909
0.6317051649093628,2.7798616886138916,7.661220073699951,-0.07276718318462372,0.022524992004036903,0.05184566229581833
0.7034898400306702,2.815753936767578,7.184749126434326,-0.013744063675403595,0.04695888236165047,0.03474193811416626
0.6771687865257263,3.004786968231201,7.689933776855469,-0.02557922899723053,0.1361425817012787,0.007253811229020357
0.5335994362831116,3.2228329181671143,8.115856170654297,-0.06406260281801224,0.1343100368976593,-0.022066857665777206
0.7731808423995972,3.3209388256073,7.936394691467285,-0.23616881668567657,0.07811209559440613,-0.04222481697797775
0.8736793398857117,3.330509901046753,9.020941734313965,-0.4927246570587158,0.22960221767425537,-0.01901262067258358
1.3764712810516357,3.660719633102417,12.437294006347656,-0.447369247674942,0.30412557721138,0.029855160042643547
0.8282157182693481,2.7224340438842773,14.55374526977539,0.08131904155015945,0.23143476247787476,0.09216158092021942
1.1991032361984253,2.509173631668091,12.200404167175293,0.5379273891448975,0.0005344913806766272,0.15691138803958893
0.8665009140968323,2.6001009941101074,10.158130645751953,0.4987567961215973,-0.14301460981369019,0.022524992004036903
0.45224347710609436,2.463710069656372,8.063214302062988,0.33413344621658325,-0.2071535736322403,0.006642963737249374
0.5431707501411438,2.346461772918701,6.844669342041016,0.2477749139070511,-0.1289651244878769,0.0426829531788826
0.47617170214653015,2.344068765640259,6.246164321899414,0.12354385852813721,-0.015958385542035103,0.06528430432081223
0.4259224236011505,2.1119651794433594,6.148058891296387,-0.14736689627170563,0.0958266630768776,0.1343100368976593
0.8641080856323242,2.20528507232666,7.28046178817749,-0.25235626101493835,0.17157171666622162,0.10682191699743271
0.9837492108345032,2.533101797103882,8.130212783813477,-0.25479966402053833,0.15080291032791138,0.021303297951817513
1.0914262533187866,3.2778680324554443,9.107083320617676,-0.36788275837898254,0.10315682739019394,-0.05077667906880379
1.46500563621521,3.7253258228302,14.424532890319824,-0.35978904366493225,0.07750124484300613,-0.04772244393825531
1.4554343223571777,3.090928554534912,13.828421592712402,0.28999972343444824,-0.03489464893937111,0.02557922899723053
1.313958764076233,3.0143582820892334,10.969595909118652,0.4658474028110504,-0.17111359536647797,0.0011453386396169662
0.9813563823699951,3.0000014305114746,9.892526626586914,0.4739411175251007,-0.19615831971168518,-0.013514995574951172
0.7202396392822266,2.604886531829834,7.620242595672607,0.4080459773540497,-0.09231429547071457,0.015194825828075409
0.4977070987224579,2.3967108726501465,5.949155330657959,0.18569757044315338,0.02008160389959812,0.035352785140275955
0.5264210104942322,2.2244277000427246,6.042774677276611,-0.11751174181699753,0.06284090876579285,0.02008160389959812
0.7803592681884766,2.7320053577423096,7.6034932136535645,-0.2622825503349304,0.054899897426366806,-0.02817532978951931
1.189531922340393,2.9904301166534424,9.4088773727417,-0.21692712604999542,0.10498937219381332,-0.07887565344572067
1.2637094259262085,3.4980075359344482,10.770992279052734,-0.10697462409734726,0.13186664879322052,-0.09842276573181152
1.3211371898651123,3.6080775260925293,11.312068939208984,-0.09330692142248154,0.07383616268634796,-0.07887565344572067
1.3043874502182007,3.447758436203003,10.660922050476074,-0.08086090534925461,-0.03978142887353897,-0.01901262067258358
0.5718846321105957,2.988037347793579,10.569994926452637,-0.04856235533952713,-0.014736690558493137,0.011529741808772087
0.3565305769443512,2.604886531829834,9.564411163330078,0.058335911482572556,-0.03061871975660324,0.08788564801216125
0.13848461210727692,2.3512473106384277,8.872586250305176,0.11109784245491028,-0.03245126083493233,0.08360971510410309
0.3206382393836975,2.6626133918762207,8.235795974731445,0.09743013978004456,-0.06055023521184921,0.06406260281801224
0.7827520966529846,2.743969440460205,7.656434059143066,-0.011911521665751934,-0.14362546801567078,0.05062396824359894
1.007677435874939,3.3017961978912354,9.008976936340332,-0.19081340730190277,-0.00129805039614439,0.01763821393251419
1.1871391534805298,3.1746773719787598,11.522637367248535,-0.149199441075325,0.03352024406194687,0.021303297951817513
1.3549357652664185,2.7966115474700928,12.303296089172363,0.1626380831003189,0.014583977870643139,0.028633465990424156
1.318744421005249,2.727219581604004,10.90738296508789,0.3745257258415222,-0.0880383625626564,0.01763821393251419
1.0651051998138428,2.782254457473755,9.439984321594238,0.3503209054470062,-0.13201937079429626,0.005421269219368696
0.8090731501579285,2.6362924575805664,7.843074321746826,0.24464432895183563,-0.08315158635377884,0.03840702027082443
0.6963114142417908,2.494816780090332,6.916453838348389,0.04031591862440109,-0.008017370477318764,0.053678203374147415
0.6843472719192505,2.5833511352539062,7.321139812469482,-0.1050657257437706,0.027411770075559616,0.05123481526970863
0.8952147960662842,2.8827531337738037,7.730611801147461,-0.1044548824429512,0.030466007068753242,0.015194825828075409
1.0244271755218506,3.354438304901123,7.9244303703308105,-0.16783028841018677,0.07872293889522552,-0.027564482763409615
1.2134602069854736,3.761517286300659,9.104690551757812,-0.36039987206459045,0.11598462611436844,-0.024510245770215988
1.3573286533355713,3.7878382205963135,12.217154502868652,-0.42629504203796387,0.06345175951719284,-0.011682453565299511
1.2852448225021362,3.5147573947906494,14.204093933105469,-0.04421006888151169,-0.019623467698693275,-0.011071606539189816
1.2421740293502808,2.9856443405151367,12.135798454284668,0.3906368315219879,-0.13629528880119324,0.03352024406194687
0.9239286184310913,2.868396043777466,9.978668212890625,0.4695888161659241,-0.16500511765480042,0.010918894782662392
0.5862415432929993,2.535494804382324,7.965108394622803,0.3975088596343994,-0.13507360219955444,0.030466007068753242
0.5718846321105957,2.29142689704895,6.270092487335205,0.19562382996082306,-0.036727190017700195,0.06589514762163162
0.5694918036460876,2.1454646587371826,6.21266508102417,-0.09888090193271637,0.004199574701488018,0.0561215914785862
0.6269195079803467,2.3488545417785645,6.787241458892822,-0.19768545031547546,0.012140588834881783,0.04756972938776016
0.7803592681884766,2.5522444248199463,7.282855033874512,-0.23616881668567657,0.023746687918901443,0.03901786729693413
1.0459625720977783,2.8396823406219482,8.063214302062988,-0.2728196680545807,0.0946049690246582,0.006642963737249374
1.1440683603286743,3.3041889667510986,9.190832138061523,-0.40575528144836426,0.12270393967628479,-0.015958385542035103
1.2708879709243774,3.6631124019622803,11.702398300170898,-0.4865398406982422,0.06406260281801224,-0.007406522985547781
1.4051851034164429,3.596113443374634,13.188939094543457,-0.2504473626613617,-0.018401773646473885,0.0035887276753783226
1.191924810409546,2.9042885303497314,12.279367446899414,0.14400723576545715,-0.03733803704380989,0.043293800204992294
1.06271231174469,2.7726831436157227,10.450353622436523,0.3384857475757599,-0.07643226534128189,0.04940227046608925
0.763310432434082,2.5594229698181152,9.028120040893555,0.3962871730327606,-0.06421531736850739,0.04695888236165047
0.8425726890563965,2.4732813835144043,7.7114691734313965,0.36521029472351074,-0.014125842601060867,0.05184566229581833
0.921535849571228,2.5953152179718018,7.649255752563477,0.23036576807498932,-0.0489441379904747,0.03962871432304382
0.921535849571228,2.648256540298462,8.3267240524292,0.04772244393825531,-0.19066070020198822,0.02924431301653385
1.1416754722595215,2.8731818199157715,9.521340370178223,-0.11254860460758209,-0.4246915578842163,0.0164165198802948
1.8215361833572388,2.9042885303497314,10.725528717041016,-0.09017632901668549,-0.4020902216434479,-0.015347537584602833
2.1520447731018066,3.033500909805298,10.845169067382812,0.16080553829669952,-0.1949366331100464,-0.04650074616074562
1.1488540172576904,4.192225456237793,11.056036949157715,0.3676536977291107,-0.2743467688560486,0.013362283818423748
0.021236300468444824,4.287938117980957,10.069596290588379,0.44904908537864685,-0.5981721878051758,0.278469979763031
0.6891329288482666,3.3903305530548096,9.035298347473145,0.4503471553325653,-0.760657548904419,0.436068594455719
1.7784653902053833,2.312962293624878,8.113463401794434,0.3931565582752228,-0.8046385645866394,0.3206184506416321
2.24057936668396,2.478066921234131,7.843074321746826,0.3533751368522644,-0.5938962697982788,0.12453648447990417
2.11615252494812,3.206083297729492,7.531708240509033,0.4000285863876343,-0.17111359536647797,0.06528430432081223
1.7928223609924316,3.902693748474121,8.250153541564941,0.40186113119125366,0.1990598440170288,0.08605311065912247
1.7928223609924316,3.9912281036376953,9.719944953918457,0.3210766017436981,0.19478392601013184,0.19417306780815125
2.0635104179382324,3.759124279022217,10.313663482666016,0.3925457298755646,0.0005344913806766272,0.22105035185813904
2.1592233180999756,3.8356947898864746,10.043274879455566,0.6596387028694153,0.1856212168931961,0.24304085969924927
1.9079769849777222,3.9361932277679443,8.738288879394531,0.8683957457542419,0.5985539555549622,0.35238251090049744
1.4913266897201538,4.07258415222168,7.642077445983887,0.7528692483901978,0.9406284093856812,0.514867901802063
1.0794621706008911,4.132404804229736,7.771289825439453,0.41117656230926514,0.9809443354606628,0.5893912315368652
0.6149554252624512,3.7495529651641846,8.216653823852539,0.19684553146362305,0.7561525702476501,0.537469208240509
0.8928219676017761,3.4597225189208984,8.146963119506836,0.06016845628619194,0.44339874386787415,0.5014292597770691
1.8693926334381104,3.203690528869629,7.840681552886963,0.008017370477318764,0.3957526683807373,0.42812758684158325
1.8813568353652954,3.5937204360961914,8.554041862487793,-0.053525492548942566,0.5912237763404846,0.26075541973114014
1.3163515329360962,3.9744784832000732,9.796515464782715,0.01916533336043358,0.7347729206085205,0.19050799310207367
0.9933205246925354,4.022335052490234,9.245866775512695,0.2844257652759552,0.852055549621582,0.0958266630768776
0.5886343717575073,4.273581027984619,8.67607593536377,0.33535513281822205,0.8086854219436646,0.02924431301653385
0.0930209830403328,4.776372909545898,9.652945518493652,0.06390989571809769,0.2528144121170044,-0.023288551717996597
0.1983051747083664,4.984847545623779,12.83480167388916,-0.04978405311703682,-0.35681116580963135,0.07872293889522552
1.0220344066619873,4.431806564331055,12.032608032226562,0.351542592048645,-0.5749599933624268,0.1611873209476471
1.83828604221344,3.440579891204834,9.983454704284668,0.7211815714836121,-0.411863774061203,0.09704835712909698
1.835893154144287,3.1028928756713867,7.340282440185547,0.6528429985046387,-0.39170581102371216,-0.09842276573181152
1.6013965606689453,3.11246395111084,5.602196216583252,0.3080197274684906,-0.3513135313987732,-0.22670069336891174
1.220638632774353,3.344866991043091,5.633302688598633,-0.1274380087852478,-0.3470376133918762,-0.26579490303993225
1.0579266548156738,3.512364625930786,6.866204738616943,-0.44988900423049927,-0.5089884996414185,-0.19738002121448517
2.020439624786377,3.009572744369507,7.361817836761475,-0.5796940326690674,-0.6329904794692993,-0.20165595412254333
1.551147222518921,4.046263217926025,8.185248374938965,-0.8114342093467712,-0.7295043468475342,-0.3116084635257721
1.6947166919708252,4.917848587036133,10.02173900604248,-1.0288958549499512,-0.6916317939758301,-0.30488914251327515
1.958226203918457,5.049454212188721,11.850752830505371,-0.8859575986862183,-0.5798467397689819,-0.29450473189353943
1.9486548900604248,4.6734819412231445,11.393424987792969,-0.5089121460914612,-0.6036698222160339,-0.3116084635257721
2.24057936668396,3.588934898376465,8.944371223449707,-0.20944425463676453,-0.47050508856773376,-0.3635304868221283
1.9701902866363525,2.789433002471924,7.613064289093018,-0.17157171666622162,-0.2444152534008026,-0.47409382462501526
1.158425211906433,3.1483564376831055,7.191927433013916,-0.3268796503543854,-0.22914408147335052,-0.5541911721229553
0.7585247755050659,3.7277185916900635,6.942774772644043,-0.5697677731513977,-0.21204034984111786,-0.5144097208976746
0.8330013751983643,3.9290146827697754,7.689933776855469,-0.7623373866081238,-0.08009734749794006,-0.36963894963264465
1.49611234664917,3.746861219406128,8.719146728515625,-0.8561787605285645,0.03168770298361778,-0.21631628274917603
2.319542407989502,3.1028928756713867,9.008976936340332,-0.8176190853118896,0.1599656194448471,-0.1424037665128708
2.640479803085327,2.8971099853515625,10.998310089111328,-0.6275691986083984,0.3688753843307495,-0.15889663994312286
1.8215361833572388,3.6320056915283203,13.117155075073242,-0.3100813329219818,0.25647950172424316,-0.18943901360034943
0.9263214468955994,3.972085475921631,12.640684127807617,0.03596363216638565,0.0683385357260704,-0.08315158635377884
1.0292128324508667,3.375973701477051,11.08475112915039,0.30435463786125183,0.024968381971120834,0.0426829531788826
1.098604679107666,2.854039192199707,9.253045082092285,0.43293800950050354,-0.00129805039614439,0.08605311065912247
1.0459625720977783,2.6096723079681396,7.34267520904541,0.3620797097682953,-0.05016583204269409,0.08666395395994186
1.4075778722763062,2.281855583190918,5.997310638427734,0.12354385852813721,-0.045889899134635925,0.06100837141275406
1.8837496042251587,2.157428741455078,6.136094570159912,-0.18333053588867188,0.03229855000972748,-0.000687203137204051
1.9845472574234009,2.535494804382324,7.926823139190674,-0.39025503396987915,0.18134528398513794,-0.0758214145898819
1.9319051504135132,3.28983211517334,10.440483093261719,-0.3946073353290558,0.3419981002807617,-0.10758547484874725
1.8864415884017944,3.7301113605499268,12.568899154663086,-0.19829629361629486,0.36521029472351074,-0.0892600566148758
2.144866466522217,3.3592238426208496,12.145369529724121,0.14339639246463776,0.27052897214889526,-0.06726955622434616
1.9869401454925537,3.2874391078948975,9.803693771362305,0.34405970573425293,0.17035003006458282,-0.1277434378862381
1.2708879709243774,3.385545015335083,8.30997371673584,0.3142809271812439,0.1984490007162094,-0.1924932450056076
0.19591236114501953,3.591327667236328,8.075178146362305,0.1540098637342453,0.08483141660690308,-0.14973393082618713
0.2512463629245758,3.5147573947906494,7.692326545715332,-0.011911521665751934,-0.13140851259231567,-0.04222481697797775
0.8330013751983643,3.3185458183288574,7.742575645446777,-0.13797512650489807,-0.24380441009998322,-0.044668205082416534
1.215852975845337,3.2347970008850098,8.180462837219238,-0.2573194205760956,-0.2688491642475128,-0.11858072131872177
1.4362918138504028,2.8636105060577393,8.276473999023438,-0.4039227366447449,-0.348259299993515,-0.1821088343858719
2.1664018630981445,2.4996023178100586,10.201201438903809,-0.4566846787929535,-0.30611082911491394,-0.3232145607471466
2.0395822525024414,2.7415764331817627,12.940085411071777,-0.16844113171100616,-0.3623087704181671,-0.5235724449157715
0.797109067440033,3.447758436203003,13.359128952026367,0.48012593388557434,-0.4405735731124878,-0.4569900929927826
0.7875377535820007,3.7372899055480957,12.118749618530273,0.7640172243118286,-0.4283566474914551,-0.26457321643829346
1.0579266548156738,3.5147573947906494,10.512567520141602,0.8640434741973877,-0.43141087889671326,-0.05932854115962982
1.5966109037399292,3.0526435375213623,9.004191398620605,0.6888830065727234,-0.3268796503543854,0.12942326068878174
1.5224334001541138,3.4908292293548584,7.558029651641846,0.44721654057502747,-0.3470376133918762,0.0958266630768776
1.3453645706176758,3.3257243633270264,5.925227165222168,0.17943638563156128,-0.2212030589580536,0.11109784245491028
1.811964988708496,2.8516464233398438,5.819942951202393,-0.14110571146011353,-0.09781191498041153,0.1214822456240654
1.989332914352417,2.8396823406219482,7.392924785614014,-0.3405473530292511,-0.06360447406768799,0.029855160042643547
1.9127626419067383,3.392723321914673,9.061619758605957,-0.35795649886131287,-0.13629528880119324,-0.0489441379904747
2.465803623199463,3.7974095344543457,10.522138595581055,-0.25296711921691895,-0.10697462409734726,-0.0752105712890625
2.7529425621032715,3.9433717727661133,11.920145034790039,-0.11063970625400543,-0.057496000081300735,-0.062993623316288
2.4993033409118652,3.5769708156585693,11.331212043762207,0.10735640674829483,-0.12163496017456055,-0.04405735805630684
2.2453649044036865,3.5315070152282715,9.353842735290527,0.24036839604377747,-0.1790546029806137,-0.06849125027656555
1.7808582782745361,3.4381871223449707,8.168498039245605,0.24838577210903168,0.01763821393251419,-0.06543701142072678
1.313958764076233,2.964108943939209,7.654041290283203,0.15897299349308014,0.13247749209403992,-0.030007870867848396
1.2708879709243774,2.9353952407836914,7.632206916809082,0.02664821222424507,0.09216158092021942,0.00908635277301073
1.4362918138504028,3.2419755458831787,7.814360618591309,-0.06658235192298889,0.04023956134915352,0.004199574701488018
1.7138592004776,3.3520455360412598,8.398508071899414,-0.1653105467557907,0.03168770298361778,0.02802261710166931
2.336292266845703,3.553042411804199,8.10389232635498,-0.3013767600059509,-0.03978142887353897,0.018249060958623886
2.33389949798584,3.584149122238159,9.181260108947754,-0.4479801058769226,0.021914144977927208,-0.0025197449140250683
2.336292266845703,3.557828187942505,10.289735794067383,-0.4566846787929535,0.04390464723110199,-0.02145601063966751
1.9510477781295776,3.512364625930786,12.889836311340332,-0.1821088343858719,0.10376767814159393,-0.030007870867848396
1.9845472574234009,3.1651060581207275,12.396615982055664,0.28068432211875916,0.045737188309431076,0.02008160389959812
1.7832510471343994,3.1316065788269043,11.213963508605957,0.4316399395465851,-0.012293301522731781,0.01885990984737873
1.4913266897201538,2.933002471923828,9.37298583984375,0.5229616165161133,-0.0489441379904747,0.020692450925707817
1.4075778722763062,3.0215368270874023,7.579565048217773,0.4316399395465851,-0.04772244393825531,0.01763821393251419
1.4530415534973145,2.9760732650756836,6.126523494720459,0.15836215019226074,0.050013117492198944,0.031076854094862938
1.5391831398010254,3.0550363063812256,6.442375659942627,-0.1355317384004593,0.1074327602982521,0.03229855000972748
1.7377874851226807,3.145963668823242,7.388139247894287,-0.23991025984287262,0.10987614840269089,0.03168770298361778
1.9869401454925537,3.4286158084869385,8.29561710357666,-0.2976353168487549,0.13247749209403992,0.006642963737249374
2.027618169784546,3.81655216217041,8.812766075134277,-0.3883461356163025,0.07750124484300613,-0.007406522985547781
2.3075783252716064,3.9194436073303223,10.646565437316895,-0.47531551122665405,0.08360971510410309,0.006642963737249374
2.233400821685791,3.9218363761901855,13.016655921936035,-0.26098448038101196,0.05306735634803772,-0.0037414394319057465
2.1424734592437744,3.416651725769043,12.537792205810547,0.2148655205965042,0.03901786729693413,0.029855160042643547
1.866999864578247,3.1866414546966553,10.069596290588379,0.4683671295642853,-0.03061871975660324,-0.004963133949786425
1.3453645706176758,2.9617161750793457,8.53729248046875,0.45714282989501953,-0.0019088976550847292,-0.04161396995186806
1.129711389541626,2.854039192199707,6.806384086608887,0.3049654960632324,0.05673243850469589,-0.004352286923676729
1.2134602069854736,2.7391836643218994,6.2413787841796875,-0.005650337319821119,0.09888090193271637,0.027411770075559616
1.3525429964065552,2.877967357635498,7.199106216430664,-0.2250208556652069,0.06345175951719284,0.02435753494501114
1.594218134880066,3.177070379257202,8.048856735229492,-0.24487338960170746,0.06772769242525101,0.00908635277301073
1.8693926334381104,3.643969774246216,9.573982238769531,-0.26167169213294983,0.04879142343997955,0.0011453386396169662
2.108973979949951,3.8261234760284424,11.11346435546875,-0.23800136148929596,0.004810422193259001,0.004810422193259001
2.4032912254333496,3.759124279022217,11.76461124420166,-0.09139802306890488,0.0017561858985573053,0.013973130844533443
1.9677975177764893,3.3209388256073,11.094322204589844,0.13904410600662231,0.012140588834881783,0.015805672854185104
1.618146300315857,3.3592238426208496,9.38016414642334,0.2838149070739746,0.012751436792314053,0.020692450925707817
1.1057831048965454,3.0717861652374268,8.079963684082031,0.2459423840045929,0.06589514762163162,0.036574479192495346
1.0579266548156738,2.8253252506256104,7.428816795349121,0.09865183383226395,0.07078192383050919,0.06711684167385101
1.2445669174194336,3.026322364807129,7.639684677124023,-0.03489464893937111,0.04023956134915352,0.05428905040025711
1.3764712810516357,3.2467613220214844,8.022536277770996,-0.11254860460758209,-0.0037414394319057465,0.04023956134915352
1.7904295921325684,3.536292791366577,8.824729919433594,-0.19333316385746002,-0.03733803704380989,0.03168770298361778
2.061117649078369,3.6008989810943604,8.870193481445312,-0.25296711921691895,-0.03184041380882263,0.028633465990424156
2.3721845149993896,3.4549367427825928,9.880263328552246,-0.31321191787719727,0.03352024406194687,0.03962871432304382
1.9486548900604248,3.4286158084869385,11.719147682189941,-0.149199441075325,0.11109784245491028,0.006642963737249374
1.6875381469726562,3.25872540473938,11.719147682189941,0.19501298666000366,0.09155073016881943,0.054899897426366806
1.795215129852295,3.19651198387146,9.909276962280273,0.3453577756881714,0.06039752438664436,0.04818057641386986
1.618146300315857,2.909074068069458,8.362615585327148,0.29496288299560547,0.1605764776468277,0.02924431301653385
1.555932879447937,2.782254457473755,7.172784805297852,0.14530529081821442,0.38781166076660156,0.0164165198802948
1.2062816619873047,3.057429075241089,7.215855598449707,-0.07589777559041977,0.4342360496520996,0.05856497958302498
1.536790370941162,2.6865415573120117,7.378567695617676,-0.23433628678321838,0.3603235185146332,0.15752223134040833
1.896012783050537,3.040679454803467,8.197212219238281,-0.29893338680267334,0.48188212513923645,0.17706935107707977
1.5056836605072021,3.768695592880249,9.190832138061523,-0.2877090573310852,0.6260420680046082,0.173404261469841
1.1775678396224976,3.708575963973999,9.832406997680664,-0.31504446268081665,0.7219451069831848,0.2821350693702698
1.2445669174194336,3.5219359397888184,11.498709678649902,-0.29893338680267334,0.5606814026832581,0.41285640001296997
1.3716856241226196,3.471686601638794,12.396615982055664,-0.12186402827501297,0.3566584289073944,0.46661093831062317
0.8186444640159607,3.347259759902954,12.214761734008789,0.21173493564128876,0.22227205336093903,0.5179221034049988
0.638883650302887,2.916252613067627,10.141380310058594,0.5515950918197632,0.20822255313396454,0.4916556775569916
0.8330013751983643,2.346461772918701,8.170890808105469,0.6416950225830078,0.3291703164577484,0.3328354060649872
0.6819544434547424,2.4445674419403076,7.7114691734313965,0.5851153135299683,0.36582115292549133,0.23021306097507477
0.5216353535652161,2.7559335231781006,7.34267520904541,0.47829338908195496,0.36154523491859436,0.15141376852989197
0.6795616149902344,2.767897605895996,6.74656343460083,0.20738264918327332,0.33711132407188416,0.09827005118131638
0.39960137009620667,3.0239295959472656,6.8757758140563965,-0.05787777900695801,0.32367268204689026,0.036574479192495346
0.5335994362831116,3.033500909805298,7.725826263427734,-0.27595025300979614,0.23448899388313293,-0.014125842601060867
0.9311071038246155,2.9928228855133057,8.908478736877441,-0.439351886510849,0.12270393967628479,-0.08254073560237885
0.88803631067276,3.478864908218384,10.601101875305176,-0.491502970457077,0.012751436792314053,-0.06360447406768799
0.8665009140968323,4.01754903793335,12.537792205810547,-0.3399364948272705,-0.08559497445821762,0.0023670331574976444
0.6939185857772827,3.957728624343872,12.95205020904541,0.006719320081174374,-0.14484715461730957,0.07444700598716736
0.7130611538887024,3.4549367427825928,11.158928871154785,0.31985488533973694,-0.1918824017047882,0.1355317384004593
0.5647061467170715,3.1555347442626953,9.274580955505371,0.4372902810573578,-0.20165595412254333,0.18256697058677673
0.14805589616298676,3.1651060581207275,7.333104133605957,0.3739148676395416,-0.14545799791812897,0.18928629159927368
0.36610186100006104,2.533101797103882,6.796812534332275,0.1005607321858406,-0.17416782677173615,0.13064496219158173
0.9861420392990112,2.4134607315063477,6.6939215660095215,-0.1044548824429512,-0.0623827762901783,0.07383616268634796
1.1512467861175537,2.8827531337738037,7.199106216430664,-0.32130566239356995,0.07933378964662552,-0.005573981441557407
1.0292128324508667,2.9425735473632812,8.908478736877441,-0.511966347694397,0.1862320601940155,-0.037948887795209885
1.0651051998138428,3.2084760665893555,10.467103958129883,-0.5188384056091309,0.16424155235290527,-0.0361163429915905
1.0268200635910034,2.4900310039520264,8.934800148010254,0.38758260011672974,-0.2047101855278015,-0.0037414394319057465
0.8760721683502197,2.5618157386779785,7.416852951049805,0.31985488533973694,-0.1014770045876503,-0.045889899134635925
0.7899305820465088,2.7726831436157227,6.495018005371094,0.0856713280081749,0.006032116711139679,-0.05688514932990074
0.8042874932289124,2.7870402336120605,6.411269187927246,-0.05665608495473862,0.04512634128332138,-0.04527905210852623
1.1033903360366821,2.590529680252075,7.182356357574463,-0.3100813329219818,0.08544225990772247,-0.027564482763409615
1.2708879709243774,2.6769702434539795,8.55164909362793,-0.4703523814678192,0.04756972938776016,-0.08681666851043701
1.2589237689971924,3.0239295959472656,10.134202003479004,-0.5083012580871582,-0.018401773646473885,-0.12346750497817993
1.1464611291885376,3.10528564453125,11.34796142578125,0.2608317732810974,-0.05077667906880379,-0.022066857665777206
0.7130611538887024,2.923431158065796,9.63619613647461,0.3913240134716034,0.006642963737249374,-0.06360447406768799
0.4378865361213684,2.6602206230163574,8.455936431884766,0.353985995054245,-0.04222481697797775,-0.05688514932990074
0.34217363595962524,2.7224340438842773,7.479066371917725,0.18195612728595734,-0.141182079911232,-0.057496000081300735
0.6963114142417908,2.767897605895996,7.225427150726318,-0.04230117425322533,-0.27801185846328735,-0.04772244393825531
1.3163515329360962,2.813361167907715,7.694719314575195,-0.19264595210552216,-0.30733251571655273,-0.06788039952516556
1.591825246810913,2.8181469440460205,8.539685249328613,-0.2486148327589035,-0.29267218708992004,-0.14362546801567078
1.7306089401245117,2.9521448612213135,9.09272575378418,-0.30015507340431213,-0.24319356679916382,-0.1784437596797943
1.7832510471343994,3.1244282722473145,10.186843872070312,-0.3306210935115814,-0.17538951337337494,-0.17600037157535553
1.3884353637695312,3.285046339035034,12.813265800476074,-0.20700086653232574,-0.08437328040599823,-0.11674818396568298
1.4985052347183228,2.9904301166534424,13.08365535736084,0.19745637476444244,-0.139960378408432,-0.05810684710741043
1.0220344066619873,3.057429075241089,10.67288589477539,0.4751628041267395,-0.2047101855278015,-0.1008661538362503
0.9119645357131958,2.7487549781799316,8.944371223449707,0.4832565486431122,-0.20104511082172394,-0.07093463838100433
0.9047860503196716,2.6096723079681396,7.134500026702881,0.329781174659729,-0.193104088306427,-0.04650074616074562
0.88803631067276,2.501995086669922,6.069095611572266,0.04772244393825531,-0.24869118630886078,-0.048333290964365005
0.9717850685119629,2.540280342102051,6.033203125,-0.09636115282773972,-0.22364644706249237,-0.03855973482131958
1.445863127708435,2.822932481765747,7.323532581329346,-0.280913382768631,-0.11247225105762482,-0.018401773646473885
1.5296118259429932,2.8420751094818115,8.067999839782715,-0.3076379597187042,-0.06055023521184921,-0.031229566782712936
1.6875381469726562,3.0000014305114746,9.265008926391602,-0.30633988976478577,-0.00129805039614439,-0.043446511030197144
1.9319051504135132,3.4836506843566895,11.343175888061523,-0.264725923538208,0.04940227046608925,-0.04772244393825531
1.8454644680023193,3.471686601638794,13.031013488769531,-0.03924693539738655,0.10132429003715515,-0.05322006717324257
1.7904295921325684,2.9282166957855225,12.0302152633667,0.2527380585670471,0.04818057641386986,-0.007406522985547781
1.4626128673553467,3.0550363063812256,9.983454704284668,0.3900259733200073,-0.03489464893937111,-0.04405735805630684
0.9502496719360352,2.822932481765747,8.367402076721191,0.37078428268432617,-0.030007870867848396,-0.04222481697797775
0.7226324677467346,2.641077995300293,6.964310169219971,0.24159009754657745,-0.05199837312102318,-0.023288551717996597
0.7345965504646301,2.580958366394043,6.653243541717529,0.017332790419459343,-0.06360447406768799,-0.0037414394319057465
1.1727821826934814,2.892324447631836,7.347461223602295,-0.17035003006458282,-0.08376242965459824,-0.015347537584602833
1.3645070791244507,3.0526435375213623,8.252546310424805,-0.2815242409706116,-0.022066857665777206,-0.0361163429915905
1.4195420742034912,3.354438304901123,8.499007225036621,-0.3889569938182831,-0.01046075951308012,-0.009849912486970425
1.7042878866195679,3.3807592391967773,8.992227554321289,-0.5772506594657898,-0.01779092662036419,0.03718532621860504
1.9414764642715454,3.19651198387146,11.647363662719727,-0.5890094637870789,-0.05199837312102318,0.034131091088056564
1.3019945621490479,3.3520455360412598,14.292628288269043,-0.13056860864162445,0.00786465872079134,0.03290939703583717
1.7425731420516968,2.8013970851898193,12.640684127807617,0.4298073947429657,0.021914144977927208,0.07444700598716736
0.9646066427230835,2.5833511352539062,7.2421770095825195,0.44034451246261597,-0.056274302303791046,0.03901786729693413
1.1249257326126099,2.3799612522125244,5.592624664306641,0.09063446521759033,-0.09292513877153397,0.059175826609134674
1.4434702396392822,2.157428741455078,6.069095611572266,-0.2480039894580841,-0.06910209357738495,0.053678203374147415
1.6133606433868408,2.4996023178100586,7.443173885345459,-0.3181750774383545,-0.0025197449140250683,0.0035887276753783226
1.7904295921325684,2.899502754211426,9.428020477294922,-0.280913382768631,0.11476293206214905,-0.028786176815629005
1.866999864578247,3.169891834259033,10.67288589477539,-0.23494713008403778,0.1343100368976593,-0.04650074616074562
2.1735801696777344,3.495614767074585,12.30808162689209,-0.09078717231750488,0.13858596980571747,-0.07276718318462372
2.144866466522217,3.285046339035034,12.28415298461914,0.05703786388039589,0.13980767130851746,-0.06910209357738495
1.8936200141906738,2.9928228855133057,10.751849174499512,0.24220094084739685,0.07322531193494797,-0.05932854115962982
1.3860424757003784,2.956930637359619,8.973084449768066,0.3248180150985718,0.10926530510187149,-0.06604786217212677
0.7345965504646301,2.705684185028076,7.883752346038818,0.283204048871994,0.10010259598493576,-0.07704310864210129
0.5096712112426758,2.5929224491119385,7.263712406158447,0.16332527995109558,0.0023670331574976444,-0.05688514932990074
0.8234301209449768,2.940180778503418,7.112964630126953,-7.635590736754239e-05,-0.04100312292575836,-0.024510245770215988
1.256531000137329,3.059821844100952,7.8693952560424805,-0.18523943424224854,0.005421269219368696,-0.04527905210852623
1.5200406312942505,3.230011463165283,8.570791244506836,-0.3169533610343933,0.10682191699743271,-0.03855973482131958
1.7832510471343994,3.244368314743042,9.20997428894043,-0.42003384232521057,0.18439951539039612,-0.022677704691886902
1.7114664316177368,3.2946176528930664,11.575578689575195,-0.3889569938182831,0.25770118832588196,-0.03061871975660324
0.9334999322891235,3.4070804119110107,13.689338684082031,-0.006337540224194527,0.5179221034049988,0.00786465872079134
0.6963114142417908,2.8875386714935303,12.597613334655762,0.3913240134716034,0.24670593440532684,0.1074327602982521
0.7106683254241943,2.799004316329956,11.008180618286133,0.4298073947429657,-0.1277434378862381,0.021914144977927208
0.6963114142417908,2.4924237728118896,8.910871505737305,0.4217136800289154,-0.3647521734237671,0.03229855000972748
1.0244271755218506,2.29860520362854,5.542375564575195,0.20990239083766937,-0.25418880581855774,0.018249060958623886
0.9981061220169067,2.394318103790283,5.62373161315918,-0.11567919701337814,0.036574479192495346,0.026190076023340225
1.2110673189163208,2.564208507537842,7.536494255065918,-0.29893338680267334,0.07505785673856735,0.0695602297782898
1.4578272104263306,2.940180778503418,8.439186096191406,-0.31382277607917786,0.0561215914785862,0.04634803533554077
1.5846468210220337,3.5171501636505127,8.723932266235352,-0.4324798583984375,0.08849649876356125,0.027411770075559616
1.709073543548584,3.6726837158203125,10.016953468322754,-0.5753417611122131,0.07322531193494797,0.021914144977927208
1.6827524900436401,3.5075788497924805,13.062119483947754,-0.45172154903411865,0.043293800204992294,-0.0025197449140250683
1.2302099466323853,2.9904301166534424,14.062917709350586,0.06574243307113647,-0.02695363573729992,0.013973130844533443
1.2708879709243774,2.6362924575805664,11.666505813598633,0.46332764625549316,-0.15950748324394226,0.0023670331574976444
1.165603756904602,2.509173631668091,9.37298583984375,0.5664844512939453,-0.2627406716346741,-0.02817532978951931
0.974177896976471,2.470888376235962,7.543672561645508,0.5205182433128357,-0.07887565344572067,-0.02695363573729992
0.8928219676017761,2.2483558654785156,5.7888360023498535,0.261442631483078,0.018249060958623886,-0.034283801913261414
1.0579266548156738,2.3201406002044678,6.002096652984619,-0.05535803362727165,0.23204560577869415,0.004810422193259001
1.191924810409546,2.5929224491119385,7.476673603057861,-0.23616881668567657,0.23021306097507477,0.012751436792314053
1.196710467338562,2.8899314403533936,8.484649658203125,-0.3573456406593323,0.034131091088056564,-0.0019088976550847292
1.587039589881897,3.5386855602264404,10.239486694335938,-0.45920443534851074,-0.04405735805630684,-0.02145601063966751
1.673181176185608,3.6655051708221436,11.379068374633789,-0.4560738205909729,-0.06543701142072678,-0.037948887795209885
1.6612170934677124,3.598506212234497,13.385449409484863,-0.23242738842964172,-0.062993623316288,-0.047111593186855316
1.4386845827102661,2.940180778503418,12.655040740966797,0.18439951539039612,-0.07215633243322372,0.008475505746901035
1.4291132688522339,2.870789051055908,11.577971458435059,0.34161633253097534,-0.08559497445821762,0.015194825828075409
0.9287142753601074,2.7846474647521973,9.559625625610352,0.44721654057502747,-0.08987089991569519,-0.0067956759594380856
0.641276478767395,2.5474588871002197,8.182855606079102,0.42362257838249207,-0.06849125027656555,0.00908635277301073
0.6939185857772827,2.432603359222412,6.768098831176758,0.30244573950767517,-0.06604786217212677,0.036574479192495346
0.7585247755050659,2.4445674419403076,6.442375659942627,0.18875180184841156,-0.06360447406768799,0.03474193811416626
0.8641080856323242,2.5163521766662598,6.454339981079102,0.05268557742238045,-0.06482616811990738,0.026190076023340225
1.1775678396224976,2.8636105060577393,7.4001030921936035,-0.18707197904586792,-0.04405735805630684,0.010918894782662392
1.5056836605072021,3.0239295959472656,9.040083885192871,-0.29893338680267334,0.029855160042643547,0.004810422193259001
1.7569299936294556,3.3113675117492676,10.995917320251465,-0.26037365198135376,0.04023956134915352,-0.01901262067258358
1.7808582782745361,3.4549367427825928,12.305688858032227,-0.06841489672660828,0.0420721061527729,-0.01779092662036419
1.5343974828720093,3.050250768661499,11.848360061645508,0.15958385169506073,0.03779617324471474,0.022524992004036903
1.3019945621490479,3.04307222366333,10.426126480102539,0.2943520247936249,-0.05077667906880379,0.017027366906404495
0.8353942036628723,2.8803603649139404,8.908478736877441,0.33535513281822205,-0.08131904155015945,0.00908635277301073
0.7226324677467346,2.6001009941101074,7.5843505859375,0.2993151545524597,-0.07704310864210129,0.030466007068753242
0.760917603969574,2.5785655975341797,6.8757758140563965,0.15897299349308014,-0.07643226534128189,0.04390464723110199
1.1368898153305054,2.9688947200775146,7.223034381866455,-0.04421006888151169,-0.08254073560237885,0.0426829531788826
1.472184181213379,3.1483564376831055,7.981858253479004,-0.21005509793758392,-0.03245126083493233,0.02557922899723053
1.896012783050537,3.308974504470825,8.3267240524292,-0.32313820719718933,0.05795413255691528,0.015805672854185104
2.0563318729400635,3.2084760665893555,8.640183448791504,-0.43744298815727234,0.19661645591259003,0.005421269219368696
1.800000786781311,3.119642496109009,11.180463790893555,-0.4467584192752838,0.255257785320282,-0.0165692325681448
1.2900304794311523,3.4549367427825928,13.976776123046875,-0.09636115282773972,0.21616357564926147,-0.031229566782712936
1.7545372247695923,2.8899314403533936,12.729516983032227,0.38880428671836853,0.12820157408714294,-0.0489441379904747
1.3692927360534668,2.6001009941101074,10.522138595581055,0.5484644770622253,0.06100837141275406,-0.1546207070350647
1.2038888931274414,2.274677038192749,6.207879066467285,0.28694549202919006,0.23143476247787476,-0.2566322088241577
0.5575276613235474,2.954537868499756,5.819942951202393,0.11735902726650238,0.3187859058380127,-0.32993388175964355
0.13130614161491394,3.7567315101623535,6.882954120635986,-0.20509196817874908,0.4623350203037262,-0.2828986346721649
0.14327025413513184,4.287938117980957,9.109476089477539,-0.5592306852340698,0.37742725014686584,-0.14423631131649017
0.5431707501411438,4.106083869934082,11.417353630065918,-0.6648308634757996,0.28641101717948914,-0.014736690558493137
0.9550353288650513,3.581756353378296,13.243974685668945,-0.3939964771270752,0.18195612728595734,0.006642963737249374
0.8784649968147278,3.059821844100952,12.444472312927246,0.06574243307113647,-0.00129805039614439,-0.015347537584602833
0.7417750358581543,3.009572744369507,10.519745826721191,0.29496288299560547,-0.14423631131649017,-0.00862821750342846
0.32542386651039124,3.002394199371338,9.059226989746094,0.3608580231666565,-0.17600037157535553,-0.0067956759594380856
0.380458801984787,2.765504837036133,7.39053201675415,0.30183491110801697,-0.12041326612234116,0.005421269219368696
0.20069800317287445,2.923431158065796,6.799205780029297,0.07505785673856735,0.0011453386396169662,-0.007406522985547781
0.2871387302875519,3.07417893409729,8.015357971191406,-0.18333053588867188,0.04818057641386986,0.026190076023340225
0.7513462901115417,3.1483564376831055,9.451948165893555,-0.2728196680545807,0.03229855000972748,0.04390464723110199
1.256531000137329,3.1100711822509766,10.203594207763672,-0.22372281551361084,0.06528430432081223,0.035352785140275955
1.1871391534805298,3.1941192150115967,10.68245792388916,-0.17775654792785645,0.07627955079078674,0.017027366906404495
0.8258228898048401,3.3352956771850586,11.496315956115723,-0.014965757727622986,0.06039752438664436,0.004199574701488018
0.7899305820465088,2.8492536544799805,10.392626762390137,0.23288552463054657,-0.06971294432878494,0.02435753494501114
0.6221339106559753,2.6530420780181885,9.241081237792969,0.31176117062568665,-0.06849125027656555,-0.008017370477318764
0.5575276613235474,2.743969440460205,8.341080665588379,0.30992862582206726,-0.07337802648544312,0.015194825828075409
0.6197410821914673,2.98085880279541,6.897311210632324,0.16637952625751495,-0.056274302303791046,0.03901786729693413
0.5623133182525635,3.3257243633270264,8.044071197509766,-0.06100837141275406,-0.05138752609491348,0.04818057641386986
1.2038888931274414,3.2874391078948975,8.475078582763672,-0.16844113171100616,-0.012293301522731781,0.04634803533554077
1.165603756904602,3.4070804119110107,8.855836868286133,-0.1963873952627182,0.022524992004036903,0.011529741808772087
1.1009975671768188,3.560220956802368,8.817551612854004,-0.22372281551361084,0.03840702027082443,-0.01046075951308012
1.0507482290267944,3.4286158084869385,8.963513374328613,-0.3429907262325287,0.018249060958623886,-0.027564482763409615
0.8282157182693481,3.5865421295166016,9.351449966430664,-0.46042612195014954,-0.08559497445821762,-0.026342788711190224
0.8090731501579285,3.457329511642456,11.094322204589844,-0.42996010184288025,-0.13629528880119324,-0.0031305921729654074
0.768395185470581,3.251546859741211,12.614362716674805,-0.13927318155765533,-0.14912308752536774,0.011529741808772087
1.0220344066619873,2.6386852264404297,12.370294570922852,0.25029465556144714,-0.11858072131872177,0.012751436792314053
0.6340979933738708,2.8348965644836426,10.534102439880371,0.4969242513179779,-0.15584240853786469,0.008475505746901035
0.6364908218383789,2.861217737197876,8.803194046020508,0.5217399001121521,-0.1277434378862381,0.054899897426366806
0.5982056856155396,2.7535407543182373,6.861418724060059,0.3975088596343994,-0.11002886295318604,0.0811663269996643
0.9837492108345032,2.3895325660705566,5.829514026641846,0.10613471269607544,-0.09170344471931458,0.07872293889522552
1.165603756904602,2.3321046829223633,6.509375095367432,-0.20012883841991425,-0.019623467698693275,0.015805672854185104
1.165603756904602,2.727219581604004,7.948358535766602,-0.3659738600254059,0.04940227046608925,-0.039170581847429276
1.4315061569213867,3.8189449310302734,13.581661224365234,0.0626882016658783,0.04940227046608925,-0.025121092796325684
1.251745343208313,3.4669008255004883,11.814861297607422,0.34719032049179077,-0.09414683282375336,-0.008017370477318764
0.8736793398857117,3.1579277515411377,9.521340370178223,0.4745519757270813,-0.13690614700317383,-0.037948887795209885
0.5910272002220154,2.765504837036133,7.816753387451172,0.460273414850235,-0.09964445978403091,-0.04772244393825531
0.3684946894645691,2.657827854156494,6.411269187927246,0.31924405694007874,-0.07032378762960434,-0.052609220147132874
0.45942193269729614,2.679363250732422,6.1241302490234375,0.06139015033841133,-0.031229566782712936,-0.03061871975660324
0.7731808423995972,3.0717861652374268,6.916453838348389,-0.1963873952627182,0.02802261710166931,-0.0489441379904747
1.1368898153305054,3.3281171321868896,7.723433494567871,-0.3784198760986328,0.12820157408714294,-0.057496000081300735
1.3525429964065552,3.581756353378296,8.86062240600586,-0.538080096244812,0.22227205336093903,-0.0623827762901783
1.2349956035614014,3.6966118812561035,11.709576606750488,-0.559841513633728,0.2387649267911911,-0.05199837312102318
0.9263214468955994,3.8524444103240967,14.029417991638184,-0.23494713008403778,0.12942326068878174,-0.03184041380882263
0.763310432434082,3.543471336364746,13.086048126220703,0.17630578577518463,-0.07704310864210129,0.014583977870643139
0.4307080805301666,2.5713870525360107,6.926024913787842,0.38009971380233765,-0.10269869863986969,0.08788564801216125
0.6580262184143066,2.29142689704895,5.879763603210449,0.14400723576545715,-0.05932854115962982,0.10132429003715515
1.160818099975586,2.7774689197540283,7.45992374420166,-0.32810133695602417,0.061619218438863754,-0.00129805039614439
1.5176477432250977,3.1941192150115967,9.190832138061523,-0.4566846787929535,0.13797512650489807,-0.03061871975660324
1.6037893295288086,3.557828187942505,12.025429725646973,-0.41384902596473694,0.17706935107707977,-0.06726955622434616
1.378864049911499,3.7567315101623535,13.512269020080566,-0.11751174181699753,0.11659546941518784,-0.056274302303791046
1.2230315208435059,3.4764721393585205,12.281760215759277,0.18501035869121552,-0.035505495965480804,-0.025731941685080528
0.7731808423995972,3.371187925338745,10.210772514343262,0.3459686040878296,-0.09720107167959213,-0.03306210786104202
0.46899324655532837,2.901895761489868,8.568398475646973,0.3906368315219879,-0.061771929264068604,-0.0019088976550847292
0.44745782017707825,2.456531524658203,6.9690961837768555,0.30740886926651,-0.07032378762960434,-0.0025197449140250683
0.48095735907554626,2.439781904220581,6.339484691619873,0.08750387281179428,-0.07154548168182373,-0.009239064529538155
0.7250252366065979,2.7559335231781006,6.997809886932373,-0.1566823273897171,0.006032116711139679,-0.025731941685080528
0.9167501926422119,3.1917262077331543,8.154141426086426,-0.3175642192363739,0.10498937219381332,-0.03489464893937111
1.098604679107666,3.3496525287628174,8.4200439453125,-0.3728458881378174,0.14164020121097565,-0.034283801913261414
1.2445669174194336,3.450151205062866,8.594719886779785,-0.43561044335365295,0.16790664196014404,-0.036727190017700195
1.2972090244293213,3.543471336364746,9.774979591369629,-0.5517477989196777,0.15324631333351135,-0.04405735805630684
1.1751750707626343,3.699004650115967,12.676576614379883,-0.4853181540966034,0.08055548369884491,-0.05016583204269409
0.8497511148452759,3.3640096187591553,13.995918273925781,-0.05665608495473862,-0.030007870867848396,-0.014125842601060867
0.39960137009620667,3.0550363063812256,11.989537239074707,0.34719032049179077,-0.14606885612010956,-0.0037414394319057465
0.12652049958705902,3.189333438873291,10.198808670043945,0.5086830258369446,-0.19860170781612396,0.011529741808772087
0.363709032535553,2.729612350463867,7.9244303703308105,0.5292227864265442,-0.15645325183868408,0.07505785673856735
0.6173482537269592,2.384746789932251,6.181558132171631,0.32733777165412903,-0.13873867690563202,0.07078192383050919
0.7731808423995972,2.2603201866149902,5.839085578918457,-0.02435753494501114,-0.14729054272174835,0.03229855000972748
1.0052846670150757,2.45413875579834,7.084250450134277,-0.3032856583595276,-0.09781191498041153,-0.000687203137204051
1.3621143102645874,2.8325037956237793,8.752646446228027,-0.4156815707683563,-0.08009734749794006,-0.03367295488715172
1.6301103830337524,3.347259759902954,11.388639450073242,-0.3616979420185089,-0.03733803704380989,-0.09414683282375336
1.5152549743652344,3.806980848312378,13.363914489746094,-0.07398887723684311,-0.04650074616074562,-0.10025530308485031
1.5296118259429932,3.4214372634887695,12.614362716674805,0.22853323817253113,-0.09720107167959213,-0.014736690558493137
1.2972090244293213,3.2252259254455566,10.754241943359375,0.4217136800289154,-0.21204034984111786,-0.022066857665777206
0.9717850685119629,3.0287153720855713,8.68325424194336,0.49318280816078186,-0.21631628274917603,-0.04161396995186806
0.7489534616470337,2.580958366394043,7.129714012145996,0.40308284759521484,-0.168670192360878,-0.06604786217212677
0.6340979933738708,2.344068765640259,6.279664039611816,0.16767756640911102,-0.21570543944835663,-0.13446275889873505
0.6484549641609192,2.8181469440460205,6.658029079437256,-0.08399149775505066,-0.22731153666973114,-0.16928105056285858
1.3163515329360962,2.9856443405151367,7.0025954246521,-0.22189027070999146,-0.22792237997055054,-0.16011834144592285
1.6755740642547607,3.4429726600646973,7.967501163482666,-0.3393256664276123,-0.015347537584602833,-0.15095563232898712
1.500898003578186,3.7372899055480957,10.079167366027832,-0.5293754935264587,0.1471378356218338,-0.12468919903039932
1.563111424446106,3.8045880794525146,13.49312686920166,-0.3778090178966522,0.1752368062734604,-0.06604786217212677
1.1249257326126099,3.8189449310302734,13.316058158874512,0.09865183383226395,0.061619218438863754,-0.022066857665777206
0.8976075649261475,3.5697922706604004,11.388639450073242,0.3434488773345947,-0.09048175066709518,0.004199574701488018
0.641276478767395,3.2563323974609375,9.798908233642578,0.43232715129852295,-0.10941801220178604,0.04023956134915352
0.7178468108177185,2.8181469440460205,7.538887023925781,0.422324538230896,-0.05199837312102318,0.0695602297782898
1.0411769151687622,2.1933209896087646,6.325127601623535,0.2390703409910202,0.09216158092021942,0.07872293889522552
1.5463616847991943,2.1000008583068848,6.392126560211182,0.0005344913806766272,0.19172967970371246,0.10376767814159393
1.5272190570831299,2.5594229698181152,7.785646915435791,-0.17714570462703705,0.2680855989456177,0.03290939703583717
0.05712864175438881,2.9210381507873535,10.004989624023438,-0.24548424780368805,0.06772769242525101,-0.1008661538362503
1.2996017932891846,4.125226020812988,11.398210525512695,-0.1336991935968399,0.03962871432304382,0.08788564801216125
1.654038667678833,3.6008989810943604,10.857133865356445,-0.006337540224194527,0.11476293206214905,0.24731677770614624
1.3286148309707642,4.309473514556885,10.962417602539062,0.13660071790218353,0.3016822040081024,0.2796916961669922
0.5048855543136597,4.070191383361816,10.502995491027832,0.20432840287685394,0.17645850777626038,0.3413872718811035
0.26081767678260803,3.6631124019622803,10.268199920654297,0.261442631483078,0.10071343928575516,0.45744824409484863
1.0459625720977783,2.7798616886138916,8.930013656616211,0.4130091071128845,0.07139277458190918,0.5301390886306763
1.4578272104263306,2.3273191452026367,7.0408806800842285,0.48012593388557434,0.2124984860420227,0.4085804522037506
1.0962119102478027,2.657827854156494,5.839085578918457,0.28877803683280945,0.3016822040081024,0.19417306780815125
0.9909276962280273,2.7415764331817627,6.535995006561279,-0.09330692142248154,0.28702184557914734,0.04879142343997955
0.6819544434547424,3.308974504470825,7.9316086769104,-0.3659738600254059,0.24304085969924927,-0.04161396995186806
1.3525429964065552,3.203690528869629,9.29611587524414,-0.4237752854824066,0.3047364354133606,-0.03733803704380989
1.5655041933059692,3.2778680324554443,10.339984893798828,-0.39895960688591003,0.33955472707748413,-0.06482616811990738
1.5726827383041382,3.588934898376465,11.630613327026367,-0.3411581814289093,0.3279486298561096,-0.07887565344572067
1.3357932567596436,4.043870449066162,13.071690559387207,-0.06467345356941223,0.33466795086860657,-0.07887565344572067
0.49292147159576416,3.8285162448883057,12.29133129119873,0.26396235823631287,0.23632153868675232,-0.06604786217212677
-0.7519445419311523,3.9194436073303223,9.703194618225098,0.33413344621658325,-0.09781191498041153,-0.028786176815629005
0.349352091550827,2.916252613067627,6.751348972320557,0.26457321643829346,-0.22242476046085358,0.14225105941295624
0.9885348677635193,2.621636390686035,6.792026996612549,-0.2423536479473114,-0.2725142240524292,0.03718532621860504
0.9885348677635193,2.8492536544799805,7.780860900878906,-0.5909183621406555,-0.36780640482902527,-0.05993938818573952
1.4051851034164429,3.1507492065429688,9.566803932189941,-0.7797465324401855,-0.5291464328765869,-0.139960378408432
2.1999013423919678,3.2563323974609375,11.180463790893555,-0.7226322889328003,-0.5242596864700317,-0.1790546029806137
2.192722797393799,3.5171501636505127,12.85633659362793,-0.37406760454177856,-0.22608983516693115,-0.2181488275527954
1.7018951177597046,3.3496525287628174,12.463615417480469,0.12354385852813721,-0.011071606539189816,-0.15584240853786469
0.8042874932289124,3.1100711822509766,11.170892715454102,0.4143071472644806,-0.013514995574951172,-0.14790138602256775
-0.09361918270587921,3.4860434532165527,9.617053031921387,0.5199073553085327,-0.1821088343858719,-0.0892600566148758
-0.04097708687186241,3.090928554534912,8.072785377502441,0.5559473633766174,-0.27923354506492615,-0.04222481697797775
0.4737788736820221,2.813361167907715,6.722635269165039,0.488219678401947,-0.3978142738342285,-0.09842276573181152
1.1703894138336182,2.6096723079681396,5.999703884124756,0.2850365936756134,-0.5150969624519348,-0.22242476046085358
1.4434702396392822,2.6240291595458984,6.198307991027832,0.14469444751739502,-0.5187620520591736,-0.29206135869026184
1.8478572368621826,2.94975209236145,7.071987152099609,-0.1969982385635376,-0.5163186192512512,-0.37269318103790283
1.7569299936294556,3.6631124019622803,7.984251022338867,-0.5654155015945435,-0.4680617153644562,-0.31588438153266907
1.8478572368621826,3.9146578311920166,8.863015174865723,-0.7002600431442261,-0.4149180054664612,-0.23708508908748627
2.3793630599975586,4.3672003746032715,11.34078311920166,-0.6921663284301758,-0.13018682599067688,-0.13018682599067688
2.3961126804351807,4.336093902587891,13.826027870178223,-0.3019876182079315,0.18317782878875732,-0.03733803704380989
2.6596224308013916,2.8181469440460205,12.683754920959473,0.21173493564128876,0.12881241738796234,0.014583977870643139
1.7473586797714233,3.026322364807129,10.68245792388916,0.536629319190979,0.09827005118131638,-0.10575293004512787
0.6364908218383789,3.1746773719787598,8.247760772705078,0.6149705052375793,0.008475505746901035,-0.10269869863986969
0.24646073579788208,2.9760732650756836,6.279664039611816,0.40308284759521484,-0.1680593490600586,0.0005344913806766272
0.5407779216766357,2.7224340438842773,5.415555953979492,0.042759306728839874,-0.2572430372238159,0.08605311065912247
1.318744421005249,2.6001009941101074,5.518447399139404,-0.33680590987205505,-0.19066070020198822,0.12759071588516235
1.922333836555481,2.954537868499756,7.237390995025635,-0.6784985661506653,-0.05138752609491348,0.10498937219381332
2.2669003009796143,3.536292791366577,12.145369529724121,-0.596492350101471,0.32428354024887085,0.04512634128332138
2.168794631958008,3.7133617401123047,13.533804893493652,-0.39766156673431396,0.3810923397541046,0.03474193811416626
1.251745343208313,2.9593234062194824,11.003095626831055,0.40247198939323425,-0.000687203137204051,0.04634803533554077
0.8904291391372681,2.758326292037964,8.949156761169434,0.5335750579833984,-0.0752105712890625,0.04085041210055351
0.6029912829399109,2.688934564590454,6.49980354309082,0.4391228258609772,-0.15828579664230347,0.07139277458190918
0.8928219676017761,2.533101797103882,5.5591254234313965,0.08498412370681763,-0.18394137918949127,0.12942326068878174
1.6396816968917847,2.5594229698181152,6.660421848297119,-0.2579302489757538,-0.13507360219955444,0.13064496219158173
2.140080690383911,3.035893678665161,8.436793327331543,-0.37528929114341736,0.09216158092021942,0.0689493864774704
2.11615252494812,3.2970104217529297,11.10628604888916,-0.25418880581855774,0.36521029472351074,-0.024510245770215988
1.9606190919876099,3.402294635772705,12.113964080810547,-0.06032116711139679,0.3175642192363739,-0.06055023521184921
2.006082773208618,3.3496525287628174,11.934501647949219,0.016645587980747223,0.22838051617145538,-0.05810684710741043
1.927119493484497,3.2108688354492188,11.477173805236816,0.08498412370681763,0.12453648447990417,-0.05932854115962982
1.5822539329528809,3.0622148513793945,10.095916748046875,0.21234577894210815,-0.012904148548841476,-0.05566345527768135
1.227817177772522,3.019144058227539,8.688039779663086,0.28694549202919006,-0.037948887795209885,-0.03489464893937111
0.8832506537437439,2.9665019512176514,7.469494819641113,0.24220094084739685,-0.025731941685080528,-0.00862821750342846
0.7178468108177185,2.9856443405151367,7.2661051750183105,0.09368869662284851,-0.02023431472480297,0.011529741808772087
1.129711389541626,3.2467613220214844,7.72104024887085,-0.08521319180727005,-0.04100312292575836,0.01763821393251419
1.472184181213379,3.4669008255004883,8.436793327331543,-0.23181653022766113,0.0023670331574976444,0.0035887276753783226
1.8526428937911987,3.478864908218384,8.455936431884766,-0.34673216938972473,0.07139277458190918,0.004199574701488018
2.013261079788208,3.347259759902954,9.61944580078125,-0.447369247674942,0.14164020121097565,-0.0067956759594380856
1.6875381469726562,3.323331594467163,11.843574523925781,-0.3262687921524048,0.19111883640289307,-0.025731941685080528
1.3860424757003784,3.3185458183288574,12.68136215209961,-0.16164545714855194,0.19234053790569305,-0.022066857665777206
1.158425211906433,3.19651198387146,12.647862434387207,0.029091600328683853,0.15324631333351135,-0.0037414394319057465
1.1751750707626343,2.8253252506256104,11.302497863769531,0.2825932204723358,0.030466007068753242,0.0023670331574976444
0.974177896976471,2.7224340438842773,10.871490478515625,0.34719032049179077,-0.012293301522731781,-0.027564482763409615
0.6269195079803467,2.736790895462036,10.244272232055664,0.4117874205112457,-0.06421531736850739,-0.043446511030197144
0.7513462901115417,2.614457845687866,8.13260555267334,0.4664582312107086,-0.12346750497817993,0.024968381971120834
0.8928219676017761,2.6841487884521484,6.502196311950684,0.285647451877594,-0.14606885612010956,0.054899897426366806
1.215852975845337,2.813361167907715,6.1695942878723145,-0.006337540224194527,-0.0745997205376625,0.0689493864774704
1.445863127708435,2.9976086616516113,7.349853992462158,-0.22189027070999146,0.0689493864774704,0.06528430432081223
1.7138592004776,3.2659037113189697,9.241081237792969,-0.3256579339504242,0.1740151196718216,0.014583977870643139
1.843071699142456,3.529114246368408,11.283354759216309,-0.2641150951385498,0.174625962972641,-0.030007870867848396
1.9462621212005615,3.6080775260925293,12.10917854309082,-0.09269607067108154,0.2522035539150238,-0.045889899134635925
1.4793626070022583,3.550649642944336,11.920145034790039,0.1471378356218338,0.09032903611660004,-0.027564482763409615
1.2852448225021362,3.3903305530548096,10.275378227233887,0.261442631483078,-0.07093463838100433,0.009697199799120426
1.0028917789459229,2.98085880279541,9.262616157531738,0.32046574354171753,-0.1790546029806137,0.014583977870643139
0.8688937425613403,2.7224340438842773,6.942774772644043,0.31176117062568665,-0.21570543944835663,-0.0067956759594380856
0.7707880139350891,2.7391836643218994,6.73938512802124,0.11919157207012177,-0.12346750497817993,-0.012293301522731781
1.2254242897033691,2.894717216491699,7.285247802734375,-0.12308572232723236,-0.17477867007255554,-0.02817532978951931
1.6444673538208008,3.1627132892608643,8.03210735321045,-0.2852656841278076,-0.1020878478884697,-0.04405735805630684
1.7736797332763672,3.629612922668457,8.68325424194336,-0.3728458881378174,0.018249060958623886,-0.01901262067258358
1.7856439352035522,3.684647798538208,9.226723670959473,-0.4853181540966034,0.06284090876579285,0.02435753494501114
1.6468602418899536,3.6631124019622803,11.075180053710938,-0.4846309423446655,0.0426829531788826,0.02924431301653385
1.3019945621490479,3.423830032348633,13.028619766235352,-0.16721943020820618,0.03840702027082443,0.03474193811416626
1.3357932567596436,2.9377880096435547,12.066107749938965,0.23410721123218536,-0.0361163429915905,0.013362283818423748
0.9119645357131958,2.7846474647521973,10.668100357055664,0.4136963188648224,-0.08009734749794006,-0.03061871975660324
0.9837492108345032,2.679363250732422,8.908478736877441,0.5050179958343506,-0.11125055700540543,0.020692450925707817
1.0316057205200195,2.533101797103882,6.926024913787842,0.3968980014324188,-0.10697462409734726,0.05062396824359894
1.4793626070022583,2.5522444248199463,6.514160633087158,-0.16660858690738678,-0.031229566782712936,0.06039752438664436
1.74496591091156,3.019144058227539,8.075178146362305,-0.3411581814289093,0.027411770075559616,0.03352024406194687
1.8693926334381104,3.505186080932617,9.442377090454102,-0.4039227366447449,0.09032903611660004,-0.022066857665777206
1.994118571281433,3.667897939682007,11.187642097473145,-0.3573456406593323,0.13125580549240112,-0.055052608251571655
1.9797616004943848,3.6104702949523926,12.128320693969727,-0.1721825748682022,0.08849649876356125,-0.05932854115962982
1.6205391883850098,3.28983211517334,11.548958778381348,0.0713164210319519,0.006032116711139679,-0.0361163429915905
1.3091731071472168,3.090928554534912,10.122238159179688,0.23662695288658142,-0.07337802648544312,-0.03978142887353897
0.9478568434715271,2.9377880096435547,8.889336585998535,0.3049654960632324,-0.08131904155015945,-0.025121092796325684
0.8425726890563965,2.8564319610595703,8.31715202331543,0.3049654960632324,-0.07826480269432068,-0.013514995574951172
1.40279221534729,2.9449665546417236,7.666005611419678,-0.12125317752361298,-0.06421531736850739,0.011529741808772087
1.8335003852844238,3.057429075241089,8.901300430297852,-0.22433365881443024,0.06100837141275406,0.0029778804164379835
2.0347964763641357,3.1555347442626953,10.692028999328613,-0.17775654792785645,0.18378867208957672,-0.036727190017700195
1.8167506456375122,3.1004998683929443,11.3718900680542,-0.018707197159528732,0.2137201875448227,-0.05932854115962982
1.740180253982544,3.026322364807129,10.371091842651367,0.06948387622833252,0.19417306780815125,-0.08620581775903702
1.441077470779419,2.7415764331817627,9.233902931213379,-0.059710320085287094,0.31328830122947693,-0.17294612526893616
1.2038888931274414,2.9665019512176514,9.032905578613281,-0.23800136148929596,0.3303920030593872,-0.2596864402294159
0.2512463629245758,3.1316065788269043,8.115856170654297,-0.3019876182079315,0.22838051617145538,-0.2193705290555954
0.1983051747083664,3.040679454803467,7.867002487182617,-0.33619505167007446,0.21921780705451965,-0.024510245770215988
0.9478568434715271,2.789433002471924,7.862216949462891,-0.29083964228630066,0.1856212168931961,0.06406260281801224
0.9909276962280273,2.8755745887756348,8.271688461303711,-0.26785650849342346,0.25831204652786255,0.035352785140275955
0.9957132935523987,3.0693931579589844,8.704790115356445,-0.349251925945282,0.2613662779331207,0.03352024406194687
1.038784146308899,3.2706894874572754,8.80798053741455,-0.5033381581306458,0.1856212168931961,0.06100837141275406
1.0411769151687622,3.244368314743042,10.12463092803955,-0.6107708811759949,0.13064496219158173,0.09093988686800003
1.0148558616638184,2.9377880096435547,12.997513771057129,-0.4188121557235718,0.06467345356941223,0.08849649876356125
0.7923234105110168,2.2459630966186523,13.885848999023438,0.1552315652370453,0.05062396824359894,0.0811663269996643
1.0004990100860596,2.5833511352539062,11.65693473815918,0.5745782256126404,-0.2590755820274353,0.05306735634803772
1.2445669174194336,2.463710069656372,9.231510162353516,0.639175295829773,-0.06055023521184921,0.08544225990772247
1.012463092803955,2.4110679626464844,8.810373306274414,0.546631932258606,0.13003410398960114,0.07078192383050919
0.5264210104942322,2.3201406002044678,6.6006011962890625,0.18630841374397278,0.14897038042545319,0.1074327602982521
0.88803631067276,1.95852530002594,6.279664039611816,-0.23929941654205322,0.19234053790569305,0.12331479042768478
0.9143573641777039,1.9417755603790283,6.67717170715332,-0.35978904366493225,0.16790664196014404,0.08727480471134186
0.9167501926422119,2.1311075687408447,7.572386264801025,-0.3423798978328705,0.13919681310653687,0.02557922899723053
0.7369893789291382,2.394318103790283,9.001798629760742,-0.2554105222225189,0.023746687918901443,-0.0067956759594380856
1.1368898153305054,3.0526435375213623,11.398210525512695,-0.149199441075325,-0.06604786217212677,-0.01779092662036419
1.350150227546692,3.2180473804473877,12.082857131958008,-0.07834116369485855,-0.11369394510984421,-0.04161396995186806
1.5152549743652344,3.220440149307251,12.377472877502441,-0.00259610079228878,-0.12468919903039932,-0.062993623316288
1.563111424446106,2.9066812992095947,11.831610679626465,0.13408097624778748,-0.10025530308485031,-0.057496000081300735
1.3908281326293945,2.901895761489868,10.651350975036621,0.2378486543893814,-0.06788039952516556,-0.035505495965480804
0.7731808423995972,2.9377880096435547,9.226723670959473,0.2844257652759552,-0.05566345527768135,-0.02145601063966751
0.48813581466674805,2.650649309158325,8.108677864074707,0.22479179501533508,-0.04222481697797775,0.0017561858985573053
0.39960137009620667,2.418246269226074,7.407281398773193,0.09743013978004456,-0.08498412370681763,-0.01901262067258358
0.550349235534668,2.4517459869384766,7.45992374420166,-0.07711946964263916,-0.07704310864210129,-0.03245126083493233
0.9071788787841797,2.703291416168213,8.55882740020752,-0.21692712604999542,-0.04650074616074562,-0.05138752609491348
0.9789635539054871,2.7487549781799316,9.3490571975708,-0.22998400032520294,-0.004963133949786425,-0.04650074616074562
1.1368898153305054,2.9210381507873535,9.238688468933105,-0.2734304964542389,-0.006184828467667103,-0.01046075951308012
1.2134602069854736,2.964108943939209,9.602696418762207,-0.39895960688591003,-0.008017370477318764,0.011529741808772087
0.88803631067276,2.8827531337738037,11.577971458435059,-0.3312319219112396,-0.022066857665777206,0.021303297951817513
0.6340979933738708,2.535494804382324,12.796516418457031,0.047111593186855316,-0.053830914199352264,0.07200361788272858
0.8736793398857117,2.430210590362549,11.630613327026367,0.4186594486236572,-0.1020878478884697,0.059175826609134674
0.7202396392822266,2.4661028385162354,10.761421203613281,0.48760882019996643,-0.11247225105762482,0.03718532621860504
0.7010970115661621,2.478066921234131,10.055238723754883,0.48508909344673157,-0.10636378079652786,0.0420721061527729
1.0483554601669312,2.415853500366211,8.453543663024902,0.41239824891090393,-0.08559497445821762,0.07750124484300613
1.074676513671875,2.29142689704895,6.787241458892822,0.168899267911911,0.0017561858985573053,0.07505785673856735
1.2852448225021362,2.178964138031006,6.7178497314453125,-0.18401773273944855,-0.008017370477318764,0.05673243850469589
1.43389892578125,2.1981067657470703,7.742575645446777,-0.2883199155330658,0.0011453386396169662,0.015194825828075409
1.414756417274475,2.281855583190918,9.075976371765137,-0.22311195731163025,0.14469444751739502,-0.03061871975660324
1.3235300779342651,2.9210381507873535,10.780563354492188,-0.14484715461730957,0.12820157408714294,-0.055052608251571655
1.3235300779342651,3.119642496109009,11.776576042175293,-0.03489464893937111,0.13980767130851746,-0.05688514932990074
0.7947162389755249,2.870789051055908,8.915657043457031,0.2241809368133545,0.03352024406194687,-0.011682453565299511
0.5312066078186035,2.6937201023101807,8.158926963806152,0.14469444751739502,-0.0019088976550847292,-0.006184828467667103
0.6101697683334351,2.525923490524292,7.821538925170898,0.05337277799844742,-0.056274302303791046,-0.01046075951308012
0.797109067440033,2.734398126602173,8.01775074005127,-0.07467607408761978,-0.022066857665777206,-0.022066857665777206
0.9909276962280273,2.760719060897827,8.884550094604492,-0.18585027754306793,0.011529741808772087,-0.03367295488715172
1.1249257326126099,2.7798616886138916,9.475876808166504,-0.20883341133594513,0.04146125912666321,-0.03245126083493233
1.1464611291885376,2.7726831436157227,9.51176929473877,-0.22189027070999146,0.06284090876579285,-0.0165692325681448
1.0459625720977783,2.782254457473755,10.227521896362305,-0.2504473626613617,0.07689040154218674,-0.011071606539189816
0.5216353535652161,2.791825771331787,11.982358932495117,-0.0883437842130661,0.04085041210055351,0.006032116711139679
0.5910272002220154,2.3751754760742188,12.150155067443848,0.2546469569206238,-0.07337802648544312,0.06467345356941223
0.6269195079803467,2.5235304832458496,10.622636795043945,0.4515688419342041,-0.16989189386367798,0.045737188309431076
0.8162516355514526,2.509173631668091,9.291330337524414,0.4316399395465851,-0.1668376624584198,0.05978667363524437
0.9646066427230835,2.3512473106384277,7.811967849731445,0.3167243003845215,-0.1008661538362503,0.0426829531788826
0.976570725440979,2.36081862449646,7.206284523010254,0.20616094768047333,-0.06971294432878494,0.02924431301653385
1.160818099975586,2.525923490524292,6.6915283203125,-0.03176405653357506,-0.14667969942092896,0.04879142343997955
1.445863127708435,2.525923490524292,7.5173516273498535,-0.17035003006458282,0.04023956134915352,0.030466007068753242
1.1703894138336182,2.696112871170044,8.918049812316895,-0.2423536479473114,0.10315682739019394,-0.022066857665777206
1.2086745500564575,2.8755745887756348,9.404091835021973,-0.2591519355773926,0.07261446863412857,-0.03306210786104202
1.191924810409546,3.1866414546966553,10.179665565490723,-0.24548424780368805,0.018249060958623886,-0.04100312292575836
1.31156587600708,3.2324042320251465,12.157333374023438,-0.174625962972641,-0.05444176122546196,-0.012293301522731781
1.1679965257644653,2.7774689197540283,12.399008750915527,0.22479179501533508,0.0005344913806766272,0.013973130844533443
1.0914262533187866,2.8731818199157715,10.658529281616211,0.4143071472644806,-0.08315158635377884,0.0005344913806766272
0.7851449251174927,2.6602206230163574,9.10229778289795,0.4204919934272766,-0.13629528880119324,0.0011453386396169662
0.7731808423995972,2.501995086669922,8.283653259277344,0.3913240134716034,-0.1289651244878769,0.020692450925707817
0.8665009140968323,2.4589242935180664,6.9930243492126465,0.23410721123218536,-0.08192989230155945,0.045737188309431076
1.0052846670150757,2.3656044006347656,6.7345991134643555,0.0023670331574976444,-0.07276718318462372,0.024968381971120834
1.1392827033996582,2.648256540298462,7.244569778442383,-0.17714570462703705,0.015194825828075409,-0.012904148548841476
1.1153544187545776,2.760719060897827,8.5133638381958,-0.2864873707294464,0.07261446863412857,-0.03245126083493233
1.1632108688354492,3.0000014305114746,9.016156196594238,-0.31565532088279724,0.013973130844533443,-0.0361163429915905
1.1464611291885376,3.16749906539917,9.073583602905273,-0.4101075828075409,-0.055052608251571655,-0.02023431472480297
1.1632108688354492,3.13639235496521,10.507781982421875,-0.5020400881767273,-0.12041326612234116,0.0011453386396169662
1.0316057205200195,3.169891834259033,13.332807540893555,-0.2516690790653229,-0.13568444550037384,0.005421269219368696
1.0722836256027222,2.758326292037964,13.770694732666016,0.35650572180747986,-0.1020878478884697,0.031076854094862938
1.1440683603286743,2.8396823406219482,11.225927352905273,0.6459710001945496,-0.09720107167959213,-0.015958385542035103
1.0244271755218506,2.6673989295959473,9.676874160766602,0.577021598815918,-0.06604786217212677,-0.014736690558493137
0.9478568434715271,2.344068765640259,7.3043904304504395,0.44034451246261597,-0.055052608251571655,0.019470756873488426
0.9119645357131958,2.226820468902588,5.84147834777832,0.11048699915409088,-0.0752105712890625,0.054899897426366806
1.165603756904602,2.1287147998809814,6.195915222167969,-0.1882936656475067,-0.11735902726650238,0.07566870748996735
1.374078392982483,2.250748872756958,7.392924785614014,-0.2890070974826813,-0.02145601063966751,0.03352024406194687
1.4937195777893066,2.657827854156494,9.420842170715332,-0.31260108947753906,0.03779617324471474,-0.019623467698693275
1.7306089401245117,3.1435706615448,11.922537803649902,-0.19829629361629486,0.12026055157184601,-0.06788039952516556
1.9462621212005615,3.354438304901123,12.751052856445312,0.011682453565299511,0.14286190271377563,-0.0623827762901783
1.7330018281936646,3.07417893409729,11.771790504455566,0.2079934924840927,0.07078192383050919,-0.048333290964365005
1.532004714012146,3.090928554534912,10.854741096496582,0.28938889503479004,0.013973130844533443,-0.047111593186855316
0.7513462901115417,3.033500909805298,8.30997371673584,0.3533751368522644,-0.013514995574951172,-0.020845163613557816
0.48095735907554626,2.7224340438842773,7.309175968170166,0.24159009754657745,-0.062993623316288,-0.0025197449140250683
0.6628118753433228,2.674577474594116,6.928418159484863,0.07009471952915192,-0.09414683282375336,0.005421269219368696
1.0172487497329712,2.9832515716552734,7.505387306213379,-0.14110571146011353,-0.02023431472480297,-0.0067956759594380856
1.2732807397842407,3.0622148513793945,8.360222816467285,-0.3082487881183624,0.11781716346740723,-7.635590736754239e-05
1.4817553758621216,2.9186453819274902,10.406984329223633,-0.5318952798843384,0.21860696375370026,0.009697199799120426
1.2924233675003052,2.954537868499756,11.798110961914062,-0.46164780855178833,0.23204560577869415,0.006642963737249374
0.5216353535652161,2.9377880096435547,13.502697944641113,-0.049173206090927124,0.20883341133594513,0.03718532621860504
0.7345965504646301,2.5139594078063965,12.221940040588379,0.3701734244823456,0.06528430432081223,0.0946049690246582
0.42831525206565857,2.6626133918762207,10.514960289001465,0.517998456954956,-0.043446511030197144,0.011529741808772087
0.6029912829399109,2.557030200958252,8.381758689880371,0.5391490459442139,-0.05077667906880379,0.08727480471134186
0.921535849571228,2.3105692863464355,6.305984973907471,0.31802234053611755,0.053678203374147415,0.1220930963754654
1.129711389541626,2.3392832279205322,6.389733791351318,-0.04230117425322533,0.08055548369884491,0.10621106624603271
1.2780663967132568,2.494816780090332,7.697112083435059,-0.23677967488765717,0.08360971510410309,0.07933378964662552
1.6612170934677124,2.535494804382324,9.37298583984375,-0.2715979516506195,0.19356222450733185,0.014583977870643139
1.4793626070022583,3.2108688354492188,11.5585298538208,-0.18462859094142914,0.2772482931613922,-0.052609220147132874
1.4841482639312744,3.261118173599243,11.965608596801758,-0.001985253533348441,0.2137201875448227,-0.044668205082416534
1.347757339477539,3.2659037113189697,11.111071586608887,0.14965757727622986,0.14897038042545319,0.02008160389959812
1.2469596862792969,3.090928554534912,10.062417030334473,0.2602209448814392,0.1599656194448471,0.09765920788049698
0.9789635539054871,3.002394199371338,8.726325035095215,0.30740886926651,0.18134528398513794,0.1220930963754654
0.4953143000602722,2.5378875732421875,7.615457057952881,-0.04107947647571564,-0.040392275899648666,0.010918894782662392
0.605384111404419,3.433401346206665,9.241081237792969,-0.2591519355773926,-0.22486814856529236,-0.0037414394319057465
0.4905286431312561,3.5410783290863037,9.413662910461426,-0.2566322088241577,-0.16317257285118103,0.06467345356941223
0.6460621356964111,3.344866991043091,9.926026344299316,-0.21196399629116058,-0.03245126083493233,0.12270393967628479
0.7995018362998962,3.2252259254455566,11.276176452636719,-0.1274380087852478,0.08422056585550308,0.10376767814159393
0.5120640397071838,3.220440149307251,12.085249900817871,0.03901786729693413,0.03229855000972748,0.09704835712909698
0.4546363055706024,2.844467878341675,11.197213172912598,0.2384594976902008,-0.05810684710741043,0.19478392601013184
0.5383850932121277,2.688934564590454,8.767302513122559,0.41736137866973877,-0.05199837312102318,0.28641101717948914
0.07148557901382446,2.8396823406219482,8.044071197509766,0.3167243003845215,-0.16072918474674225,0.36459946632385254
0.9095717072486877,2.2603201866149902,7.0648088455200195,0.09681928902864456,-0.20409934222698212,0.3817031681537628
1.7353945970535278,2.119143486022949,6.873383045196533,-0.023059483617544174,-0.022066857665777206,0.2748049199581146
1.5439687967300415,1.994417667388916,7.278069019317627,-0.20073968172073364,0.19661645591259003,0.10437852889299393
1.8335003852844238,2.377568483352661,10.292128562927246,-0.41262730956077576,0.19234053790569305,-0.022066857665777206
1.6588243246078491,3.177070379257202,12.442079544067383,-0.31504446268081665,0.1220930963754654,-0.025121092796325684
1.6301103830337524,3.1579277515411377,12.504292488098145,0.07383616268634796,0.1477486789226532,-0.030007870867848396
1.3381860256195068,3.2491540908813477,10.457531929016113,0.3248180150985718,0.09888090193271637,-0.045889899134635925
0.7995018362998962,3.251546859741211,8.82951545715332,0.3222982883453369,0.02557922899723053,-0.045889899134635925
0.7417750358581543,2.9282166957855225,8.173283576965332,0.27946263551712036,0.012751436792314053,-0.05138752609491348
0.4331009089946747,2.9377880096435547,7.855038642883301,0.22853323817253113,0.0023670331574976444,-0.06726955622434616
0.14805589616298676,2.9210381507873535,7.290033340454102,0.07566870748996735,-0.07643226534128189,-0.058717694133520126
0.4019941985607147,3.040679454803467,7.6875410079956055,-0.16721943020820618,-0.052609220147132874,-0.0025197449140250683
0.6508477330207825,2.947359323501587,8.554041862487793,-0.32252734899520874,0.02802261710166931,0.023746687918901443
1.2684950828552246,2.5689942836761475,9.3490571975708,-0.3343625068664551,0.14408360421657562,0.015805672854185104
1.4673985242843628,2.791825771331787,9.739087104797363,-0.2945810854434967,0.15080291032791138,-0.01901262067258358
0.5288137793540955,2.9904301166534424,12.113964080810547,0.11048699915409088,0.10254598408937454,-0.07398887723684311
0.3613162338733673,2.8013970851898193,11.285747528076172,0.3384857475757599,0.008475505746901035,-0.0361163429915905
0.7899305820465088,2.2220349311828613,9.681659698486328,0.4906630516052246,-0.01901262067258358,-0.009849912486970425
0.5551348328590393,2.6602206230163574,7.514958381652832,0.5056288242340088,-0.023288551717996597,-0.01779092662036419
-0.0649053156375885,3.119642496109009,5.891727447509766,0.18195612728595734,0.035352785140275955,0.021914144977927208
0.7465606927871704,2.5474588871002197,7.409674644470215,-0.264725923538208,-0.04161396995186806,0.06589514762163162
1.0962119102478027,2.243570327758789,9.116654396057129,-0.34673216938972473,-0.06116108223795891,-0.0031305921729654074
