accX,accY,accZ,gyroX,gyroY,gyroZ
-2.3082497119903564,2.4059906005859375,10.609684944152832,-0.500089168548584,-0.709162175655365,0.3723659813404083
-1.8710685968399048,2.3066887855529785,9.93735408782959,-0.3703588545322418,-0.6344620585441589,0.4922526478767395
-1.470001459121704,2.024517774581909,9.301091194152832,-0.5684013962745667,-0.6410419940948486,0.490140825510025
-0.807956874370575,1.5655876398086548,8.820459365844727,-0.7701265215873718,-0.3556631803512573,0.5087634921073914
-1.350521206855774,-0.7080994844436646,6.459862232208252,-1.395285964012146,-0.13781119883060455,0.697573184967041
-0.5048317909240723,1.128147840499878,8.838693618774414,-1.8607478141784668,-0.5315923690795898,0.49185124039649963
-0.5140446424484253,2.258718490600586,11.076908111572266,-1.50484037399292,-0.848997950553894,0.30431559681892395
-0.2885874807834625,1.6052451133728027,12.640033721923828,-0.7573158144950867,-0.9146223664283752,0.09356710314750671
-0.19972430169582367,0.5008861422538757,13.59398078918457,0.10250318795442581,-0.40308380126953125,-0.09171704947948456
-0.6154534816741943,-1.0285298824310303,13.430744171142578,0.8218406438827515,0.0959232971072197,0.034697145223617554
-1.5725594758987427,-0.32473036646842957,10.846174240112305,1.2108221054077148,-0.023020893335342407,0.3654893934726715
-1.3568323850631714,1.1859533786773682,8.761388778686523,1.124672770500183,-0.3867475092411041,0.7413809299468994
0.12888465821743011,2.049043893814087,8.070326805114746,0.7894647717475891,-0.7139094471931458,0.8862607479095459
0.8990897536277771,2.122852325439453,8.3631010055542,0.4135383069515228,-0.8272686004638672,0.7872307300567627
0.3796820640563965,1.990491271018982,8.887678146362305,0.14536847174167633,-0.8665734529495239,0.7538425922393799
0.893267035484314,1.9982198476791382,10.291686058044434,0.1843591332435608,-0.5561665892601013,0.8437270522117615
1.1408275365829468,1.9613012075424194,10.625208854675293,0.40308380126953125,-0.48378780484199524,0.6943443417549133
1.051427960395813,2.0663204193115234,10.28750228881836,0.5294630527496338,-0.4380950927734375,0.6273934841156006
1.0825717449188232,2.134497880935669,9.769290924072266,0.5215392708778381,-0.47598618268966675,0.6323502659797668
1.1471481323242188,2.0106887817382812,9.116918563842773,0.39957568049430847,-0.5039812922477722,0.642211377620697
1.6458125114440918,2.371169328689575,8.207945823669434,0.014381512999534607,-0.010157816112041473,0.6693861484527588
1.6171873807907104,2.652411460876465,9.091798782348633,-0.21177825331687927,0.25708699226379395,0.692354679107666
1.7213256359100342,2.730778455734253,9.628463745117188,-0.35908403992652893,0.25010567903518677,0.7311009764671326
1.5808147192001343,2.2891345024108887,9.840858459472656,-0.3781255781650543,0.22629939019680023,0.7338062524795532
1.3921420574188232,1.7612417936325073,10.554348945617676,-0.2203478217124939,0.591457188129425,0.7141188979148865
1.1455775499343872,1.9271503686904907,10.273049354553223,0.10178760439157486,0.8610931038856506,0.6994232535362244
0.983116626739502,2.271982431411743,9.869760513305664,0.147445410490036,0.9108873605728149,0.68886399269104
0.9425684213638306,1.8717771768569946,9.551332473754883,0.1466251164674759,0.8837125301361084,0.7318339943885803
0.6739102602005005,1.5578782558441162,9.200456619262695,0.11683233827352524,0.8652644157409668,0.7696552872657776
0.31989407539367676,1.72461998462677,9.02892780303955,-0.004433136433362961,0.7941247820854187,0.8407076597213745
0.24231235682964325,1.898764729499817,9.256625175476074,-0.07553785294294357,0.8122762441635132,0.9015148878097534
0.14506946504116058,2.1000499725341797,9.82010555267334,-0.1627694070339203,0.8681442141532898,1.0176665782928467
0.046342168003320694,1.9967162609100342,10.072454452514648,-0.11154399067163467,0.8484917879104614,1.0787705183029175
-0.11668381094932556,1.6335254907608032,10.012004852294922,-0.0688532367348671,0.7412413358688354,1.1590557098388672
-0.11478760093450546,1.4111137390136719,10.086522102355957,-0.08292059600353241,0.6339384913444519,1.1912569999694824
0.01971864514052868,1.037579894065857,10.40827465057373,-0.12130038440227509,0.4856029450893402,1.2283278703689575
-0.08824069052934647,1.0633127689361572,10.31234359741211,-0.13590878248214722,0.4876450002193451,1.2260065078735352
-0.3322385549545288,1.4934359788894653,9.660613059997559,-0.056094881147146225,0.758554995059967,1.2562006711959839
-0.5610093474388123,1.620137095451355,9.834125518798828,-0.006248278543353081,0.8460483551025391,1.2859586477279663
-0.5525529980659485,1.6513670682907104,10.214813232421875,0.03234095126390457,0.7221997976303101,1.239340901374817
-0.492525577545166,1.7282304763793945,10.206461906433105,0.050736721605062485,0.681900143623352,1.2069475650787354
-0.6559250354766846,1.9956245422363281,9.820785522460938,0.03757693991065025,0.6122964024543762,1.1153701543807983
-0.7512621283531189,1.8877705335617065,9.365714073181152,-0.04225442185997963,0.5127777457237244,1.04276442527771
-0.7926435470581055,1.7867639064788818,9.355390548706055,-0.1347568780183792,0.267279714345932,1.0193943977355957
-0.7352688908576965,1.793573021888733,9.764894485473633,-0.16168729960918427,0.16144295036792755,1.0285050868988037
-0.8149479031562805,1.8859221935272217,9.915529251098633,-0.1457175314426422,0.2468768209218979,1.0354340076446533
-1.038183331489563,1.9204752445220947,9.94776439666748,-0.014468779787421227,0.4413239657878876,1.0528699159622192
-1.1150659322738647,1.951935052871704,9.676137924194336,0.09208357334136963,0.4878544211387634,1.04730224609375
-1.2125003337860107,2.1657373905181885,9.309518814086914,-0.09665632992982864,0.016632987186312675,1.0144901275634766
-1.1157267093658447,2.2110164165496826,9.671463966369629,-0.07681193947792053,0.07365289330482483,0.9664062857627869
-1.0672392845153809,2.3071675300598145,9.70007038116455,0.02439970336854458,0.1889318972826004,0.9262811541557312
-1.1983745098114014,2.1575300693511963,9.774683952331543,-0.09969320893287659,0.20116664469242096,0.947696328163147
-1.1723926067352295,2.0808773040771484,9.992879867553711,-0.08463101834058762,0.2502802014350891,0.9265604019165039
-1.1061499118804932,2.1719048023223877,9.81264591217041,-0.056897733360528946,0.2814517915248871,0.9135751128196716
-1.0799764394760132,1.9455857276916504,9.497923851013184,0.033283427357673645,0.169907808303833,0.9526705145835876
-0.9241043329238892,2.0048470497131348,9.527801513671875,0.066811203956604,0.15795229375362396,0.9645562171936035
-0.705992579460144,2.499824285507202,9.684296607971191,0.1881115883588791,0.24921555817127228,0.8494343161582947
-0.6632896065711975,2.617887020111084,9.271078109741211,0.12337732315063477,0.183730810880661,0.8099724054336548
-0.6286981701850891,2.527855396270752,9.18531608581543,0.04197516664862633,0.07826056331396103,0.737488865852356
-0.5883702635765076,2.3906102180480957,9.3082914352417,0.02857103943824768,-0.03228859230875969,0.6768561601638794
-0.5687569379806519,2.425776243209839,9.437685012817383,0.055606190115213394,-0.07738789916038513,0.6593504548072815
-0.5273372530937195,2.5368099212646484,9.49057674407959,0.1290670931339264,-0.07675957679748535,0.6388079524040222
-0.4974384903907776,2.2992188930511475,10.10144329071045,-0.20833995938301086,0.20055578649044037,0.6907140612602234
-0.275812029838562,2.2176339626312256,10.178786277770996,-0.12123057246208191,0.009826203808188438,0.6416877508163452
-0.19403567910194397,2.2877936363220215,10.352872848510742,-0.012845623306930065,0.023282691836357117,0.5457644462585449
-0.3438839614391327,2.501260757446289,9.99028491973877,0.23633503913879395,0.02197369560599327,0.4279547333717346
-0.4346337914466858,2.498588800430298,9.040946006774902,0.3752807080745697,-0.025621432811021805,0.38402479887008667
-0.44965022802352905,2.7815163135528564,8.759992599487305,0.3470412790775299,-0.09669124335050583,0.34609878063201904
-0.24806801974773407,3.3332746028900146,8.950465202331543,0.1431693583726883,0.1471487134695053,0.3597821593284607
-0.4312435984611511,3.136624336242676,9.49613094329834,-0.004171337001025677,0.30599111318588257,0.4063475430011749
-0.5275862812995911,3.129451274871826,8.664270401000977,-0.03960151970386505,0.26277676224708557,0.412491112947464
-0.6418184041976929,2.534348487854004,9.462737083435059,-0.027122415602207184,0.3292214572429657,0.40570178627967834
-0.8058499693870544,2.5666704177856445,10.18875503540039,0.015009831637144089,0.4346219003200531,0.3934321105480194
-0.8042218685150146,3.2571771144866943,10.609684944152832,0.0913156270980835,0.5867273211479187,0.3661002516746521
-0.4955997169017792,3.515185832977295,10.027654647827148,0.03792600333690643,0.6374640464782715,0.2851867973804474
-0.5127422213554382,2.958007335662842,9.427227020263672,-0.06375687569379807,0.6443057656288147,0.19634954631328583
-1.0363445281982422,2.9722671508789062,9.080431938171387,-0.1350884884595871,0.4893903136253357,0.22980749607086182
-1.0200543403625488,3.000767707824707,9.027145385742188,-0.1627344936132431,0.3376339375972748,0.28841567039489746
-0.8058307766914368,2.6318883895874023,9.019149780273438,-0.17130406200885773,0.11875220388174057,0.3313158452510834
-1.3067935705184937,2.7658965587615967,8.829060554504395,-0.16261231899261475,-0.13212142884731293,0.22657863795757294
-0.6048136353492737,2.9658315181732178,9.36617374420166,-0.16776104271411896,-0.11758282780647278,0.33423054218292236
0.03362416848540306,3.1234562397003174,9.607989311218262,-0.17067573964595795,0.01869247667491436,0.31239649653434753
-0.034112583845853806,3.1302366256713867,9.490863800048828,-0.18528415262699127,0.08883725851774216,0.27235862612724304
-0.10278785973787308,3.089726686477661,9.3631010055542,-0.2442413717508316,0.15776030719280243,0.21959732472896576
-0.10896490514278412,3.0116279125213623,9.359671592712402,-0.32934361696243286,0.20802579820156097,0.18011797964572906
-0.34252405166625977,2.528209924697876,9.859648704528809,-0.5336344242095947,0.45750316977500916,0.18067649006843567
-0.5603772401809692,2.280247211456299,10.014639854431152,-0.4239579141139984,0.36714744567871094,0.17736035585403442
-0.8367734551429749,2.2993719577789307,9.909486770629883,-0.2968979477882385,0.2724458873271942,0.21640338003635406
-0.9318328499794006,2.313124418258667,9.65139102935791,-0.1710946261882782,0.23024383187294006,0.3170565068721771
-0.8768427968025208,2.174346923828125,9.609137535095215,-0.10522589832544327,0.23972097039222717,0.3450166881084442
-0.908618688583374,2.290120840072632,9.556025505065918,-0.037489671260118484,0.21010273694992065,0.365262508392334
-0.9195936918258667,2.386329412460327,9.353801727294922,-0.015009831637144089,0.16858135163784027,0.3784397542476654
-0.7762767672538757,2.500159502029419,8.957590103149414,0.007417649496346712,-0.011728612706065178,0.3712140917778015
-0.6971532106399536,2.4547173976898193,9.031110763549805,0.01616174913942814,-0.22595033049583435,0.3608991801738739
-0.6509929895401001,2.4427177906036377,9.216181755065918,0.01532399095594883,-0.2998999357223511,0.35444146394729614
-0.434461385011673,2.342381477355957,9.644916534423828,-0.001029744278639555,-0.3110700249671936,0.31838294863700867
-0.23359745740890503,2.3230843544006348,9.701170921325684,-0.047368235886096954,-0.23802800476551056,0.2854835093021393
-0.17459475994110107,2.3236589431762695,9.680475234985352,-0.07422885298728943,-0.18730872869491577,0.27289968729019165
-0.37961503863334656,2.2099437713623047,9.57178020477295,-0.10702358931303024,-0.14706143736839294,0.274173766374588
-0.3790787160396576,2.052922487258911,9.821465492248535,-0.11110766232013702,-0.2479763776063919,0.26888543367385864
-0.16878163814544678,2.004377603530884,10.022348403930664,-0.1319468915462494,-0.23872613906860352,0.24202480912208557
-0.23172998428344727,1.7617110013961792,10.00865364074707,-0.049933869391679764,-0.11845549941062927,0.1664869636297226
-0.22886651754379272,1.9508625268936157,9.393410682678223,0.24525366723537445,-0.5909859538078308,0.23253022134304047
-0.4165527820587158,1.9879151582717896,10.160072326660156,0.33075734972953796,-0.5692740678787231,0.3459591567516327
0.24183350801467896,2.794454574584961,8.992323875427246,-0.13721778988838196,0.08569566905498505,0.4346393346786499
0.04541321471333504,2.249103307723999,8.810077667236328,-0.3294658064842224,0.07120943069458008,0.42530182003974915
-0.530526340007782,1.9355300664901733,9.799323081970215,-0.14641566574573517,-0.13843952119350433,0.5262167453765869
-0.1342380940914154,2.5799245834350586,10.602167129516602,0.05564109608530998,-0.09436995536088943,0.626817524433136
0.2063993364572525,2.735940456390381,10.064984321594238,0.09581857919692993,0.1727875918149948,0.5964662432670593
-0.12302365154027939,2.3915774822235107,9.03287410736084,-0.0036477381363511086,0.2649409770965576,0.5774770975112915
-0.47258666157722473,2.282057285308838,8.901909828186035,-0.09787806123495102,0.20952677726745605,0.6036919355392456
-0.5407256484031677,2.2946889400482178,9.202803611755371,-0.14205235242843628,0.18277087807655334,0.6233617663383484
-0.443597674369812,2.2661213874816895,9.622478485107422,-0.1273392289876938,0.21664771437644958,0.6336068511009216
-0.37452974915504456,2.196363925933838,9.691086769104004,-0.10663961619138718,0.27492424845695496,0.6272364258766174
-0.3839628994464874,2.090090036392212,9.749438285827637,-0.09424778074026108,0.23343779146671295,0.6404485702514648
-0.3477817177772522,2.135618209838867,9.855721473693848,-0.04743804782629013,0.2537010610103607,0.6561740040779114
-0.47926169633865356,2.408001661300659,9.584516525268555,-0.043214350938797,0.7439116835594177,0.6995454430580139
-0.4553675651550293,2.380430221557617,8.933321952819824,-0.1284387856721878,1.1491596698760986,0.7049908638000488
-0.899654746055603,2.0125274658203125,9.765852928161621,-0.04138175770640373,0.44889867305755615,0.6317917108535767
-0.9507853388786316,2.166771650314331,10.202048301696777,0.021293016150593758,-0.00427605677396059,0.6437996029853821
-0.4829775094985962,2.622560501098633,9.867999076843262,-0.03703588619828224,0.32157692313194275,0.6666459441184998
-0.359704852104187,2.5513665676116943,9.170577049255371,-0.14957471191883087,0.8177391290664673,0.6508856415748596
-0.9462267756462097,2.3323450088500977,9.471299171447754,-0.16200146079063416,0.6294355392456055,0.6471157073974609
-0.9558802247047424,2.220095157623291,9.74427604675293,-0.08023278415203094,0.2960253059864044,0.6748490333557129
-0.5924404263496399,2.4145619869232178,9.61584186553955,-0.02387610450387001,0.2223723977804184,0.660223126411438
-0.6338313817977905,2.4406490325927734,9.515199661254883,0.0006108652451075613,0.25853562355041504,0.6662271022796631
-0.7006966471672058,2.452045440673828,9.565707206726074,0.004869468510150909,0.35435420274734497,0.7069107294082642
-0.7750988006591797,2.6244375705718994,9.608908653259277,0.029705503955483437,0.4575904309749603,0.7213794589042664
-0.8302133679389954,2.634148597717285,9.574049949645996,0.04120722413063049,0.4976457357406616,0.7283957004547119
-0.8408914804458618,2.631495714187622,9.300554275512695,0.009826203808188438,0.5857499241828918,0.7350105047225952
-0.9683012962341309,2.683018922805786,9.26216983795166,-0.07583455741405487,0.512219250202179,0.709231972694397
-1.1496669054031372,2.611403465270996,9.676827430725098,-0.12245229631662369,0.31585222482681274,0.683715283870697
-1.118647575378418,2.560110092163086,10.371097564697266,-0.11143927276134491,0.32820916175842285,0.673871636390686
-1.4124640226364136,2.4140448570251465,10.459816932678223,-0.04872959107160568,0.4231725335121155,0.672806978225708
-1.7654746770858765,2.237400531768799,10.292375564575195,0.03303908184170723,0.49696505069732666,0.7022855877876282
-1.7939465045928955,2.3671374320983887,10.025230407714844,0.0809483677148819,0.4602956771850586,0.7113263607025146
-1.5504850149154663,2.5827114582061768,9.75698471069336,0.12636183202266693,0.40769144892692566,0.6752678751945496
-1.5872886180877686,2.5595929622650146,8.568196296691895,0.17104226350784302,0.37318629026412964,0.6251245737075806
-1.2993906736373901,2.2546579837799072,9.64686107635498,0.16076228022575378,-0.1420348882675171,0.5515763759613037
-0.8868026733398438,2.5669002532958984,9.546774864196777,-0.04715879634022713,-0.14608405530452728,0.46158722043037415
-0.7408329844474792,2.316121816635132,9.547674179077148,-0.09862855821847916,-0.061941735446453094,0.4175874888896942
-0.9128037095069885,1.7073817253112793,9.529239654541016,-0.05215043947100639,-0.015411256812512875,0.45317474007606506
-0.9508332014083862,1.7597860097885132,9.666502952575684,0.035360369831323624,-0.04194026067852974,0.5218709111213684
-1.5350375175476074,2.0364599227905273,9.429927825927734,0.020629791542887688,-0.07415904104709625,0.44743260741233826
-1.240512490272522,1.9988901615142822,9.795886993408203,0.03879866749048233,-0.14608405530452728,0.377951055765152
-1.010381817817688,2.0163774490356445,9.80358600616455,0.07211700081825256,-0.018814649432897568,0.31035444140434265
-1.1149221658706665,2.0167222023010254,9.517909049987793,0.07887142896652222,0.15831881761550903,0.2863038182258606
-1.4431289434432983,2.1469571590423584,9.513216018676758,-0.11332422494888306,-0.020559977740049362,0.15592771768569946
-1.2584210634231567,2.1406078338623047,9.828840255737305,-0.13746212422847748,-0.00839503388851881,0.09344492852687836
-1.2527899742126465,2.2470827102661133,9.863365173339844,-0.12123057246208191,0.050649452954530716,0.042324233800172806
-1.3800369501113892,2.3525137901306152,9.66622543334961,-0.10409143567085266,0.12191125005483627,0.012793263420462608
-1.6632806062698364,2.760179281234741,8.56106185913086,0.07309439033269882,0.04789183288812637,-0.13494886457920074
-1.6560213565826416,2.811673641204834,8.51626205444336,0.00040142572834156454,0.0033859387040138245,-0.13089969754219055
-1.6361973285675049,2.668921947479248,8.750749588012695,-0.10841985046863556,0.025761060416698456,-0.13782864809036255
-1.7266311645507812,2.524953842163086,9.318558692932129,-0.19708257913589478,0.06620033830404282,-0.16350243985652924
-1.7980166673660278,2.3296635150909424,9.57770824432373,-0.10995574295520782,0.03497639670968056,-0.2825688123703003
-1.6802411079406738,2.2809367179870605,9.828503608703613,-0.055972710251808167,-0.11016517877578735,-0.3344574570655823
-1.5286881923675537,2.414466142654419,9.65471363067627,0.02848377265036106,-0.15687018632888794,-0.3847578465938568
-1.5237464904785156,2.622004985809326,9.119140625,0.10695377737283707,-0.10452777147293091,-0.40653952956199646
-1.5517491102218628,2.751857042312622,8.78077220916748,0.11863002926111221,-0.10208430886268616,-0.4133288860321045
-1.498818039894104,2.7468292713165283,8.731673240661621,0.05777039751410484,-0.13932962715625763,-0.4495618939399719
-1.6648799180984497,2.6852407455444336,8.97414779663086,-0.01909390278160572,-0.20066049695014954,-0.5054647922515869
-1.7214021682739258,2.704174041748047,9.20357894897461,-0.03672172874212265,-0.23656192421913147,-0.5293932557106018
-1.704882264137268,2.737903594970703,9.560449600219727,-0.02295107953250408,-0.2523746192455292,-0.5679475665092468
-1.5288892984390259,2.7968297004699707,9.644678115844727,0.010524335317313671,-0.1843242198228836,-0.6183701753616333
-1.8760101795196533,2.6034834384918213,9.348381996154785,0.03384193405508995,-0.24839526414871216,-0.7561638951301575
-1.7907670736312866,2.576735496520996,9.601190567016602,0.028815384954214096,-0.31925562024116516,-0.7964810132980347
-1.7640669345855713,2.5564231872558594,9.808834075927734,0.08695230633020401,-0.3418925404548645,-0.8319984674453735
-1.7149091958999634,2.566220283508301,9.480780601501465,0.22245965898036957,-0.36913713812828064,-0.9320581555366516
-1.660215973854065,2.542651653289795,9.540213584899902,0.23541000485420227,-0.46500808000564575,-0.9857444763183594
-1.5159701108932495,2.4487414360046387,9.732391357421875,0.1707804650068283,-0.3771132826805115,-1.1268194913864136
-1.2956269979476929,1.6086832284927368,11.145927429199219,0.12637929618358612,-0.3801676034927368,-1.3277766704559326
-1.2723265886306763,1.596549391746521,10.781291007995605,0.2489013969898224,-0.22586305439472198,-1.347062587738037
-1.3142155408859253,1.6393194198608398,9.943042755126953,0.3833441138267517,-0.10355038195848465,-1.3172698020935059
-1.2846232652664185,1.580536961555481,9.24631118774414,0.416470468044281,-0.1273217648267746,-1.2828868627548218
-1.1932892799377441,1.615511417388916,8.90272331237793,0.35494759678840637,-0.26825711131095886,-1.2710883617401123
-1.1263952255249023,1.6159615516662598,9.005358695983887,0.28557077050209045,-0.3739018738269806,-1.2680165767669678
-0.9860471487045288,1.5979093313217163,9.353158950805664,0.2695311903953552,-0.3694862127304077,-1.259778618812561
-0.8762203454971313,1.5584720373153687,9.419220924377441,0.2664943337440491,-0.35845571756362915,-1.249725580215454
-0.7098329067230225,1.4401506185531616,9.577831268310547,0.2200860232114792,-0.44657739996910095,-1.2518024444580078
-0.7227998971939087,1.3311282396316528,9.889335632324219,0.15248940885066986,-0.48720866441726685,-1.2589409351348877
-0.6707786917686462,1.347456693649292,10.206778526306152,0.11440633237361908,-0.4481481909751892,-1.2413480281829834
-1.0242490768432617,1.591866374015808,8.957244873046875,0.16435766220092773,-0.28358110785484314,-1.0242290496826172
-1.016989827156067,1.778958797454834,8.774940490722656,0.1549328714609146,-0.2664245069026947,-1.0048035383224487
-1.0078822374343872,1.6782586574554443,8.84717845916748,0.12391837686300278,-0.342119425535202,-0.9882228970527649
-0.9709349274635315,1.602621078491211,9.207151412963867,0.07796385884284973,-0.44118431210517883,-0.9943315386772156
-0.9543479084968567,1.5715539455413818,9.619710922241211,0.02724459022283554,-0.43875831365585327,-1.0150660276412964
-0.8888617157936096,1.5283147096633911,9.954822540283203,0.026162484660744667,-0.3770434856414795,-1.0089573860168457
-0.9088197946548462,1.5367518663406372,10.033169746398926,0.05829399824142456,-0.27457520365715027,-0.972846508026123
-0.9152553677558899,1.6631464958190918,9.905252456665039,0.08768533915281296,-0.2001892626285553,-0.9157742261886597
-0.9456425905227661,1.8079286813735962,9.718466758728027,0.06431538611650467,-0.18339920043945312,-0.8810596466064453
-0.9020010828971863,1.8351938724517822,9.81851577758789,-0.034522611647844315,-0.21153390407562256,-0.8552287817001343
-0.841628909111023,1.8189228773117065,10.34013557434082,-0.02267182618379593,-0.2788163423538208,-0.842330813407898
-0.9495882391929626,1.8919364213943481,9.433614730834961,0.1275661140680313,0.07648032903671265,-0.7838971614837646
-1.2029426097869873,1.9646052122116089,8.5188570022583,0.1287354826927185,-0.11971213668584824,-0.715532660484314
-1.044618844985962,1.9086670875549316,9.628866195678711,0.07237880676984787,-0.6263812184333801,-0.73172926902771
-1.0661954879760742,2.09934139251709,10.098072052001953,0.10435323417186737,-0.4380601942539215,-0.7256031632423401
-1.1308484077453613,1.8442438840866089,9.572391510009766,0.0734434574842453,-0.1673421710729599,-0.6779382228851318
-0.9828101992607117,1.7584644556045532,9.956786155700684,-0.08333947509527206,-0.4231725335121155,-0.6936985850334167
-0.06817728281021118,1.2288095951080322,10.435827255249023,-0.0570373609662056,-0.08618436008691788,-0.6764721870422363
-0.07667191326618195,1.2135920524597168,10.416329383850098,0.10206685215234756,-0.0013089969288557768,-0.6782873272895813
-0.16205871105194092,1.234325885772705,9.89291763305664,0.17177531123161316,-0.011728612706065178,-0.7114485502243042
-0.2026452273130417,1.2142432928085327,9.692160606384277,0.16393877565860748,-0.04214970022439957,-0.7312057018280029
-0.1365939825773239,1.2168865203857422,9.805004119873047,0.15456636250019073,-0.07269296050071716,-0.7457792162895203
-0.012928688898682594,1.3433290719985962,9.884480476379395,0.17151349782943726,-0.011623892933130264,-0.7606668472290039
-0.09789411723613739,1.329097867012024,9.695464134216309,0.21549579501152039,0.08026769012212753,-0.7759559154510498
-0.22468145191669464,1.4496986865997314,9.40848445892334,0.19198621809482574,0.14180800318717957,-0.7966206073760986
-0.5690155029296875,1.5205574035644531,9.443516731262207,0.14480996131896973,0.06916739791631699,-0.7904072403907776
-0.69181889295578,1.4228931665420532,9.601581573486328,0.1662251502275467,0.1226791962981224,-0.7000864744186401
-0.5973532795906067,1.4446804523468018,10.055474281311035,0.04141666367650032,-0.1731192022562027,-0.72469562292099
-0.7886213064193726,1.0225251913070679,10.7395658493042,-0.21088813245296478,-0.0694117471575737,-0.7801796197891235
-0.9572975635528564,1.4181334972381592,11.139388084411621,-0.27289968729019165,0.2039068192243576,-0.8344942927360535
-0.9789890050888062,1.4748090505599976,10.128785133361816,0.07585200667381287,0.10756464302539825,-0.7891680598258972
-0.8926253914833069,1.9962948560714722,9.46452808380127,0.36128315329551697,0.07096508890390396,-0.697433590888977
-0.7864760756492615,2.4745988845825195,9.11562728881836,0.5978800058364868,0.2344326227903366,-0.6903475522994995
-1.0364689826965332,2.861999750137329,8.66054630279541,0.7074866890907288,0.23439772427082062,-0.7093890905380249
-1.0726597309112549,3.073570728302002,8.507268905639648,0.5890311598777771,0.1307949721813202,-0.7541044354438782
-1.5182303190231323,2.748217821121216,9.083937644958496,0.09112364053726196,-0.20886355638504028,-0.8998743295669556
-1.5927090644836426,2.171952724456787,10.226401329040527,-0.060213860124349594,-0.2728124260902405,-0.9329657554626465
-1.073828101158142,2.871394634246826,10.804697036743164,-0.03947934880852699,0.016353735700249672,-0.9784490466117859
-1.4323455095291138,2.3464229106903076,10.577640533447266,0.09286896884441376,0.16697564721107483,-1.0041053295135498
-1.558864712715149,2.2029430866241455,10.40528678894043,0.16697564721107483,0.21409954130649567,-1.0239148139953613
-1.9834907054901123,2.154264211654663,9.900425910949707,0.36192893981933594,0.10300933569669724,-1.0517703294754028
-2.299908399581909,2.4459259510040283,9.761935234069824,0.5960299372673035,-0.09628981351852417,-1.0100743770599365
-2.125093460083008,2.759537696838379,9.295823097229004,0.7475594282150269,-0.1598721593618393,-0.9461778998374939
-1.9883270263671875,2.8959784507751465,9.056403160095215,0.7534586191177368,-0.12264428287744522,-0.9402088522911072
-1.9748237133026123,3.0007870197296143,8.725715637207031,0.6657732725143433,-0.13327334821224213,-0.9600008726119995
-2.0954339504241943,2.9426462650299072,8.560210227966309,0.4616395831108093,-0.12493066489696503,-0.9846972823143005
-2.2418251037597656,2.8671042919158936,8.814330101013184,0.2583436369895935,-0.13809044659137726,-1.0025346279144287
-2.33381986618042,2.6205973625183105,9.747590065002441,0.2814517915248871,-0.13100440800189972,-0.9969844222068787
-2.3015077114105225,2.73018479347229,9.393564224243164,0.4300491213798523,-0.14248867332935333,-0.9810495972633362
-2.243213653564453,2.8063204288482666,8.992486953735352,0.5402143001556396,-0.19058994948863983,-0.9768432974815369
-2.158095121383667,2.8762502670288086,8.558446884155273,0.548347532749176,-0.19821704924106598,-0.9844006299972534
-1.98610520362854,2.988250970840454,8.14638614654541,0.41781437397003174,-0.15774285793304443,-1.0012255907058716
-2.0113401412963867,2.9599130153656006,8.134634971618652,0.32567843794822693,-0.18477800488471985,-1.0159387588500977
-2.144361972808838,2.8960165977478027,8.482044219970703,0.14913839101791382,-0.23031364381313324,-1.0530095100402832
-2.073139190673828,2.8308560848236084,8.903767585754395,0.048031460493803024,-0.10618583112955093,-1.0927157402038574
-2.4668033123016357,2.817458152770996,8.980881690979004,0.022427480667829514,-0.0570373609662056,-1.0897661447525024
-2.58083438873291,2.6828274726867676,7.396368503570557,-0.015184364281594753,-0.019826939329504967,-1.0780898332595825
-3.0926475524902344,3.0688493251800537,6.935752868652344,-0.20573940873146057,-0.0691150352358818,-1.019045352935791
-3.0089848041534424,2.661480665206909,10.460477828979492,-0.14151129126548767,-0.6800326108932495,-1.0216808319091797
-2.827073335647583,3.227144241333008,10.78197193145752,0.08386307209730148,-0.47918015718460083,-0.9877516627311707
