accX,accY,accZ,gyroX,gyroY,gyroZ
-1.010484218597412,2.768233060836792,9.552651405334473,-0.20419061183929443,0.036454882472753525,0.22507141530513763
-0.9577924013137817,2.705960988998413,9.52630615234375,-0.17542622983455658,0.09345100075006485,0.21175459027290344
-0.960187554359436,2.722726583480835,9.49038028717041,-0.169566810131073,0.10996389389038086,0.19524168968200684
-1.0512006282806396,2.8257150650024414,9.497565269470215,-0.1972658634185791,0.08865693211555481,0.17127135396003723
-1.0559908151626587,2.775418519973755,9.590972900390625,-0.24254314601421356,0.013017220422625542,0.17073868215084076
-0.9793481826782227,2.7466773986816406,9.61013412475586,-0.2579907178878784,-0.02107391692698002,0.17340205609798431
-0.4452453553676605,2.5742316246032715,9.655640602111816,-0.3980839252471924,-0.05623039975762367,0.12066732347011566
-0.3805782198905945,2.4233415126800537,10.026878356933594,-0.4401652216911316,-0.0908542200922966,0.09243559837341309
-0.2512438893318176,2.246105670928955,10.316682815551758,-0.41512954235076904,-0.1185532733798027,0.05781178176403046
-0.21771275997161865,2.164673089981079,10.362189292907715,-0.3863651752471924,-0.12068397551774979,0.031710751354694366
-0.23447832465171814,2.030548572540283,10.517868995666504,-0.3144541382789612,-0.10843246430158615,-0.029546765610575676
-0.21052753925323486,1.8892388343811035,10.632833480834961,-0.2233668863773346,-0.08286411315202713,-0.09400032460689545
-0.24166354537010193,1.8197814226150513,10.66157341003418,-0.17276285588741302,-0.06901458650827408,-0.12968949973583221
-0.30633071064949036,1.7215832471847534,10.762166976928711,-0.058237917721271515,-0.03492344170808792,-0.21118861436843872
-0.5362584590911865,1.690447211265564,10.783722877502441,0.08398605138063431,0.013017220422625542,-0.30121055245399475
-1.0607810020446777,1.8509174585342407,10.307101249694824,0.2512456774711609,0.06894799321889877,-0.37578487396240234
-1.3769314289093018,2.0808451175689697,10.1226806640625,0.26136648654937744,0.018876640126109123,-0.3693928122520447
-1.3146593570709229,2.6029725074768066,9.789764404296875,0.3172973394393921,-0.02959670126438141,-0.3379650413990021
-1.3386101722717285,2.775418519973755,9.47840404510498,0.3364735245704651,0.024736052379012108,-0.3092006742954254
-1.3769314289093018,2.8712215423583984,9.159858703613281,0.24645163118839264,0.08599356561899185,-0.21971140801906586
-1.194905400276184,2.9358887672424316,9.375415802001953,0.15429902076721191,0.07906880229711533,-0.15312713384628296
-0.9577924013137817,2.921518325805664,9.571812629699707,0.11434847116470337,0.06575195491313934,-0.10838253051042557
-0.8955203294754028,2.8544559478759766,9.624504089355469,0.11328312009572983,0.06734997034072876,-0.09506567567586899
-0.7733712196350098,2.732307195663452,9.658035278320312,0.12340393662452698,0.08492821455001831,-0.07482405751943588
-0.8021122217178345,2.69877552986145,9.686776161193848,0.13192671537399292,0.07906880229711533,-0.05191907286643982
-0.7422351837158203,2.686800241470337,9.708332061767578,0.13831880688667297,0.03006279096007347,-0.003445737063884735
-0.5937403440475464,2.624528408050537,9.643665313720703,0.16814853250980377,-0.010420436039566994,0.04982166737318039
-0.4093191623687744,2.5909972190856934,9.396971702575684,0.20330503582954407,-0.015214502811431885,0.08764152228832245
-0.22729310393333435,2.5742316246032715,9.083215713500977,0.2065010666847229,-0.005626369267702103,0.10575243830680847
-0.13867512345314026,2.5454907417297363,8.898795127868652,0.15856041014194489,-0.013616479933261871,0.09882767498493195
0.043350961059331894,2.6652445793151855,9.13830280303955,0.02912062406539917,-0.0594264455139637,0.05621375888586044
0.11280828714370728,2.739492177963257,9.169438362121582,0.014738422818481922,-0.06688389182090759,0.04129888117313385
0.19184592366218567,2.8808016777038574,9.253266334533691,-0.002307143062353134,-0.06635121256113052,0.0034790262579917908
0.19663608074188232,3.0245065689086914,9.298773765563965,-0.01722201704978943,-0.07327597588300705,-0.011435847729444504
0.16070988774299622,3.0412721633911133,9.435293197631836,-0.03586561232805252,-0.08073341846466064,-0.006109107285737991
0.2301671952009201,3.0532474517822266,9.578997611999512,-0.03533293306827545,-0.08606015890836716,0.01945924572646618
0.30680975317955017,3.0436675548553467,9.650849342346191,-0.01828736439347267,-0.10363839566707611,0.03330877423286438
0.416983425617218,3.0005557537078857,9.658035278320312,0.015271098352968693,-0.18513751029968262,0.017861222848296165
0.3906375467777252,2.9191231727600098,9.471219062805176,0.04297014698386192,-0.20804250240325928,-0.00024969223886728287
0.27088356018066406,2.957444429397583,9.169438362121582,0.01580377295613289,-0.2000523805618286,-0.00024969223886728287
0.2900441884994507,2.8879871368408203,9.181415557861328,-0.025212127715349197,-0.18780088424682617,0.01999192126095295
0.318785160779953,2.8999626636505127,9.162254333496094,-0.04864979535341263,-0.1835394948720932,0.02904737927019596
0.352316290140152,2.9358887672424316,9.162254333496094,-0.05717257410287857,-0.1782127469778061,0.03224342316389084
0.2804638743400574,2.947864294052124,9.111957550048828,-0.0694240853190422,-0.1611671894788742,0.04556027799844742
0.4002178907394409,3.031691789627075,9.09519100189209,-0.09339441359043121,-0.13453349471092224,0.08071675896644592
0.46488499641418457,3.067617893218994,9.133512496948242,-0.10830928385257721,-0.12281466275453568,0.09616430848836899
0.644516110420227,3.1059393882751465,9.195785522460938,-0.12269148230552673,-0.1222819983959198,0.11693860590457916
0.8936043977737427,3.1969525814056396,8.946696281433105,-0.15198856592178345,-0.18247413635253906,0.090304896235466
0.9558764696121216,3.283175468444824,8.793411254882812,-0.23987977206707,-0.2373395711183548,0.08923954516649246
1.1498777866363525,3.1801869869232178,9.042500495910645,-0.34641456604003906,-0.25651586055755615,0.11480790376663208
1.5091397762298584,3.1610262393951416,9.428107261657715,-0.3959532380104065,-0.24586233496665955,0.1366475373506546
1.5522512197494507,3.1059393882751465,9.595763206481934,-0.3922245502471924,-0.2298821210861206,0.1291901022195816
1.7414625883102417,3.00295090675354,9.784975051879883,-0.3480125665664673,-0.16596126556396484,0.11374256014823914
1.8181052207946777,2.787393808364868,9.868803024291992,-0.3267056345939636,-0.10257305204868317,0.09137023985385895
1.7821789979934692,2.677219867706299,10.014902114868164,-0.32617294788360596,-0.07913539558649063,0.08124943822622299
1.7510429620742798,2.3131678104400635,10.280755996704102,-0.29634320735931396,-0.027998678386211395,0.07325932383537292
1.7797839641571045,1.9706714153289795,10.40050983428955,-0.23881442844867706,-0.0008323027286678553,0.04556027799844742
1.8755871057510376,1.7982257604599,10.43643569946289,-0.17009946703910828,-0.01308380626142025,-0.021556653082370758
1.947439432144165,1.7694848775863647,10.412485122680664,-0.09659045934677124,-0.024269960820674896,-0.10731717944145203
1.942649483680725,1.7646945714950562,10.350213050842285,-0.055041879415512085,-0.032260071486234665,-0.15259447693824768
1.8851673603057861,1.8509174585342407,10.120285987854004,0.02006516419351101,-0.03545611724257469,-0.2319629043340683
1.707931399345398,2.0329437255859375,9.856826782226562,0.06800583004951477,-0.03172739967703819,-0.287893682718277
1.6576348543167114,2.1790435314178467,9.693961143493652,0.0861167386174202,-0.02533530816435814,-0.30706995725631714
1.5833873748779297,2.308377981185913,9.567021369934082,0.09463953226804733,-0.027466006577014923,-0.32198482751846313
1.5019546747207642,2.3371188640594482,9.531095504760742,0.09304150938987732,-0.023737287148833275,-0.3262462019920349
1.4708186388015747,2.4137613773345947,9.46882438659668,0.0786593109369278,-0.02107391692698002,-0.3278442323207855
1.3366941213607788,2.432921886444092,9.552651405334473,0.05362363159656525,-0.00669171754270792,-0.32944226264953613
1.166643500328064,2.461662769317627,9.485589981079102,0.056819673627614975,0.0023637411650270224,-0.32358285784721375
0.9678517580032349,2.543095588684082,9.461638450622559,0.014205750077962875,0.02526872791349888,-0.2815016210079193
0.9439009428024292,2.5933923721313477,9.789764404296875,0.01154237985610962,0.0870589092373848,-0.22663617134094238
0.905579686164856,2.6029725074768066,9.856826782226562,0.057352349162101746,0.11635598540306091,-0.20000246167182922
0.8816289901733398,2.650874137878418,9.737071990966797,0.10369499772787094,0.13446690142154694,-0.17976084351539612
0.7331340312957764,2.840085744857788,9.602948188781738,0.11541382223367691,0.14405503869056702,-0.10465379804372787
0.82414710521698,2.8879871368408203,9.777789115905762,0.13725346326828003,0.11582331359386444,-0.019425958395004272
0.905579686164856,3.0053458213806152,9.684380531311035,0.19851095974445343,0.12860749661922455,0.02372063882648945
0.9247404336929321,3.0508527755737305,9.440083503723145,0.226742684841156,0.15950261056423187,0.06846525520086288
0.9199502468109131,3.031691789627075,9.3275146484375,0.18572679162025452,0.1515124887228012,0.11587324738502502
0.9271354675292969,3.010136127471924,9.344279289245605,0.11594650149345398,0.10836587846279144,0.16328124701976776
0.982222318649292,2.7538628578186035,9.473614692687988,0.04030677676200867,0.06894799321889877,0.19737237691879272
1.0109632015228271,2.4209465980529785,9.574207305908203,-0.023614108562469482,0.01621326617896557,0.17500007152557373
0.8768388032913208,2.138327121734619,9.638874053955078,-0.0678260549902916,-0.05782843008637428,0.09936035424470901
0.5606882572174072,2.066474676132202,9.691566467285156,-0.09765579551458359,-0.15157905220985413,-0.006109107285737991
0.08167224377393723,2.19101881980896,9.849641799926758,-0.07847953587770462,-0.20804250240325928,-0.07748742401599884
-0.45722076296806335,2.4760334491729736,9.686776161193848,0.07013653218746185,-0.15530776977539062,-0.04872302711009979
-0.6033205986022949,2.5814168453216553,9.37302017211914,0.14471089839935303,-0.03918483480811119,0.03597214072942734
-0.6416418552398682,2.7370970249176025,9.164648056030273,0.14098218083381653,0.043379638344049454,0.12599405646324158
-0.7278647422790527,2.8089494705200195,9.14309310913086,0.07066920399665833,0.05935985967516899,0.20642785727977753
-0.8069024085998535,2.832900285720825,9.157463073730469,0.02432655729353428,0.03911825641989708,0.2533031404018402
-0.7278647422790527,2.7993693351745605,9.274822235107422,-0.054509200155735016,0.014615243300795555,0.3518478572368622
-0.6703828573226929,2.705960988998413,9.34188461303711,-0.07475081086158752,0.02633407525718212,0.3944617509841919
-0.5434436798095703,2.607762575149536,9.466428756713867,-0.07421813905239105,0.10037575662136078,0.44879451394081116
-0.5530239343643188,2.5862069129943848,9.483194351196289,-0.06090128421783447,0.1461857408285141,0.46370938420295715
-0.6224813461303711,2.6125526428222656,9.406551361083984,-0.04598641395568848,0.21596604585647583,0.48927775025367737
-0.5961353778839111,2.5909972190856934,9.370626449584961,-0.06249931454658508,0.21010662615299225,0.5031272768974304
-0.5290732383728027,2.5862069129943848,9.46882438659668,-0.12375684082508087,0.12008470296859741,0.5143134593963623
-0.4620109498500824,2.5478856563568115,9.52630615234375,-0.1530539095401764,0.028464768081903458,0.5143134593963623
-0.34944212436676025,2.5095643997192383,9.46882438659668,-0.13867171108722687,0.036454882472753525,0.51484614610672
-0.28717008233070374,2.4856138229370117,9.440083503723145,-0.1269528865814209,0.08386285603046417,0.5089867115020752
-0.41171422600746155,2.435317039489746,9.396971702575684,-0.10937464237213135,0.19359372556209564,0.49140843749046326
-0.5602091550827026,2.399390935897827,9.370626449584961,-0.12748555839061737,0.24313241243362427,0.49726781249046326
-0.45003554224967957,2.183833360671997,9.629294395446777,-0.22816094756126404,0.17495013773441315,0.529761016368866
-0.24405863881111145,2.0616846084594727,9.772998809814453,-0.23881442844867706,0.19199571013450623,0.5079213976860046
-0.11951448023319244,2.0137829780578613,9.921494483947754,-0.22975897789001465,0.21756407618522644,0.4812876582145691
-0.10514399409294128,1.9443256855010986,10.084359169006348,-0.1748935431241989,0.27456018328666687,0.39712515473365784
-0.20094719529151917,1.987437129020691,10.22806453704834,-0.10511323064565659,0.33049094676971436,0.32681214809417725
-0.24645370244979858,2.0353386402130127,10.371768951416016,-0.036930955946445465,0.3629840612411499,0.2788715064525604
-0.27998483180999756,2.1335370540618896,10.402905464172363,0.0323166660964489,0.3448731601238251,0.22773480415344238
-0.3278864324092865,2.2293403148651123,10.29991626739502,0.1063583567738533,0.30492258071899414,0.1792614609003067
-0.2751946747303009,2.3227481842041016,10.093939781188965,0.1564297080039978,0.24952448904514313,0.12705941498279572
-0.3183061182498932,2.5981826782226562,9.88796329498291,0.19105352461338043,0.18400561809539795,0.004011699929833412
-0.3973437547683716,2.660454511642456,9.828085899353027,0.19797828793525696,0.15790456533432007,-0.04179826378822327
-0.6272714138031006,2.677219867706299,9.681985855102539,0.19957631826400757,0.08812425285577774,-0.11211123317480087
-0.842828631401062,2.7706284523010254,9.665221214294434,0.1825307458639145,0.03911825641989708,-0.13714691996574402
-0.8571990728378296,2.761047840118408,9.658035278320312,0.1841287612915039,0.03858557716012001,-0.12542809545993805
-0.847618818283081,2.722726583480835,9.559837341308594,0.19265155494213104,0.03485685959458351,-0.1280914694070816
-1.0416203737258911,2.758652687072754,9.480798721313477,0.17454063892364502,-0.032260071486234665,-0.14566969871520996
-1.0967071056365967,2.832900285720825,9.519121170043945,0.14843960106372833,-0.053567033261060715,-0.1318201869726181
-1.0416203737258911,2.8089494705200195,9.61971378326416,0.14790692925453186,-0.032260071486234665,-0.11264392733573914
-0.9745581150054932,2.777813673019409,9.590972900390625,0.14577624201774597,-0.045044247061014175,-0.11797065287828445
-1.0631760358810425,2.938283681869507,9.440083503723145,0.14630891382694244,-0.17768007516860962,-0.1504637748003006
-1.094312071800232,3.1849770545959473,9.145488739013672,0.05202560871839523,-0.1984543800354004,-0.18082618713378906
-1.1661643981933594,2.8640363216400146,8.996993064880371,0.02539190463721752,-0.2059118002653122,-0.14726772904396057
-0.9434220790863037,2.794579029083252,9.315539360046387,0.03817608207464218,-0.029064027592539787,-0.12915682792663574
-0.725469708442688,2.6748251914978027,9.72509765625,0.09623756259679794,0.17175410687923431,-0.13235285878181458
-0.7494205236434937,2.866431474685669,9.60534381866455,0.13245940208435059,0.057761844247579575,-0.24208369851112366
-0.9027056694030762,2.8281102180480957,9.617318153381348,0.04989491030573845,-0.032260071486234665,-0.28842633962631226
-0.9793481826782227,2.9334936141967773,9.842455863952637,0.13352474570274353,-0.008822414092719555,-0.13501623272895813
-0.7398401498794556,2.8808016777038574,9.626899719238281,0.178802028298378,-0.009887762367725372,-0.07748742401599884
-0.5338633060455322,2.7730231285095215,9.413737297058105,0.18093271553516388,-0.0684819146990776,-0.04499430954456329
-0.2488487958908081,2.6748251914978027,9.234106063842773,0.1511029750108719,-0.15317706763744354,-0.037536874413490295
-0.1602308303117752,2.650874137878418,9.195785522460938,0.12979602813720703,-0.18620285391807556,-0.04925570636987686
-0.014130957424640656,2.595787286758423,9.183809280395508,0.10422766208648682,-0.21283656358718872,-0.09240230917930603
-0.02610635757446289,2.605367660522461,9.028128623962402,0.09943360090255737,-0.18407216668128967,-0.13501623272895813
-0.028501436114311218,2.622133255004883,8.944300651550293,0.07173454761505127,-0.11162851005792618,-0.15632317960262299
-0.011735886335372925,2.6652445793151855,9.109562873840332,0.02432655729353428,-0.040782857686281204,-0.16431330144405365
0.08406732231378555,2.7826037406921387,9.44726848602295,-0.00976458191871643,-0.01787787303328514,-0.17549945414066315
0.12238860130310059,2.8376903533935547,9.614923477172852,-0.007633883506059647,-0.04291355237364769,-0.19574105739593506
0.04814112186431885,2.8616414070129395,9.569416999816895,-0.0007091239094734192,-0.07434132695198059,-0.21598267555236816
-0.045267000794410706,2.8616414070129395,9.557441711425781,-0.004970517009496689,-0.08446213603019714,-0.21811336278915405
-0.15304560959339142,2.9718148708343506,9.64126968383789,-0.018820039927959442,-0.11056315898895264,-0.20266582071781158
-0.10753907263278961,3.0053458213806152,9.792160034179688,-0.00923190638422966,-0.12920674681663513,-0.15365982055664062
-0.004550635814666748,2.9813952445983887,9.751443862915039,0.02006516419351101,-0.14305627346038818,-0.10944787412881851
-0.02610635757446289,3.153841018676758,9.449663162231445,0.04989491030573845,-0.1819414645433426,-0.09186963737010956
0.21100656688213348,3.264014720916748,8.970647811889648,0.02059783786535263,-0.018943220376968384,-0.04073292016983032
0.23495735228061676,2.950259208679199,8.80299186706543,-0.024146780371665955,-0.03865215927362442,-0.00770712923258543
0.34273597598075867,2.940678834915161,9.167043685913086,-0.1067112609744072,-0.05623039975762367,0.001348329707980156
0.4529096782207489,2.911937952041626,9.662825584411621,-0.1658380925655365,-0.11216118186712265,-0.0039784107357263565
0.33076056838035583,2.9071478843688965,9.914308547973633,-0.16317471861839294,-0.2021830826997757,-0.016229912638664246
0.40979817509651184,2.950259208679199,9.883172988891602,-0.13920438289642334,-0.22721877694129944,-0.0023803887888789177
0.47446537017822266,2.9454689025878906,9.782580375671387,-0.08061022311449051,-0.17927810549736023,0.012534484267234802
0.4433293044567108,2.957444429397583,9.550256729125977,-0.02254876121878624,-0.10363839566707611,0.03384144604206085
0.5295522212982178,2.9167280197143555,9.464034080505371,-0.029473520815372467,-0.0759393498301506,0.07539001852273941
0.7091832160949707,2.9334936141967773,9.495169639587402,-0.09605778008699417,-0.14731766283512115,0.10362174361944199
0.7642700672149658,2.8017640113830566,9.588577270507812,-0.10351521521806717,-0.12547802925109863,0.11853662133216858
0.7954061031341553,2.715541124343872,9.753838539123535,-0.07634884119033813,-0.06262249499559402,0.13025546073913574
0.8193569183349609,3.058037757873535,8.77664566040039,-0.06995674967765808,-0.03385809436440468,0.1441049873828888
0.7019978761672974,2.6796152591705322,8.977831840515137,-0.12642019987106323,-0.045576922595500946,0.19524168968200684
0.9965927600860596,2.765838146209717,9.519121170043945,-0.17808958888053894,0.05243510380387306,0.21175459027290344
1.1426926851272583,2.55267596244812,10.120285987854004,-0.15731529891490936,0.12221541255712509,0.2016337662935257
0.9343206882476807,2.5933923721313477,9.974185943603516,-0.07794685661792755,0.010886525735259056,0.16328124701976776
0.9534813165664673,2.7538628578186035,9.780184745788574,-0.05557455122470856,-0.02959670126438141,0.16008521616458893
0.9918026924133301,2.80415940284729,9.768209457397461,-0.04225769639015198,-0.03758681192994118,0.16381390392780304
0.9031846523284912,2.830505132675171,9.614923477172852,-0.02201608568429947,-0.014149154536426067,0.16221590340137482
0.8576781749725342,2.85685133934021,9.600553512573242,-0.03959432989358902,-0.028531353920698166,0.17766346037387848
0.9199502468109131,2.7562577724456787,9.717911720275879,-0.04119235277175903,-0.014681828208267689,0.2181466668844223
1.04928457736969,2.7442822456359863,9.832876205444336,-0.0055031925439834595,0.03805289790034294,0.23892097175121307
1.1139516830444336,2.7083561420440674,9.86640739440918,0.03338201344013214,0.08173216879367828,0.24478037655353546
1.1331123113632202,2.658059597015381,9.86640739440918,0.04190480336546898,0.0907876268029213,0.24424771964550018
1.0732353925704956,2.540700674057007,9.890358924865723,0.04030677676200867,0.07054601609706879,0.23732294142246246
1.0301239490509033,2.5023791790008545,9.950235366821289,0.03391468897461891,0.04391231760382652,0.23519225418567657
1.0037779808044434,2.4281318187713623,10.022087097167969,0.034980036318302155,-0.018943220376968384,0.23998631536960602
1.0971860885620117,2.3754398822784424,10.089149475097656,0.0637444406747818,-0.0482402928173542,0.25277048349380493
1.2097549438476562,2.3658595085144043,9.99334716796875,0.1303286850452423,-0.06102447584271431,0.24957440793514252
1.2720270156860352,2.507169485092163,9.576602935791016,0.2065010666847229,-0.06422051787376404,0.21175459027290344
1.2600514888763428,2.876011610031128,9.356254577636719,0.17826934158802032,-0.05995911732316017,0.17286938428878784
1.2624465227127075,3.012531280517578,9.339489936828613,0.17081192135810852,-0.0594264455139637,0.17500007152557373
1.2983728647232056,3.0795934200286865,9.303563117980957,0.16814853250980377,-0.0482402928173542,0.184588223695755
1.3678301572799683,2.9550492763519287,9.3275146484375,0.15429902076721191,0.01621326617896557,0.20269913971424103
1.4348924160003662,2.9334936141967773,9.40894603729248,0.1548316925764084,0.0684153139591217,0.18405553698539734
1.4277071952819824,3.0173213481903076,9.370626449584961,0.1527009904384613,0.06894799321889877,0.16168321669101715
1.3630400896072388,2.9454689025878906,9.286797523498535,0.12446927279233932,0.028464768081903458,0.1329188197851181
1.2744220495224,2.8448755741119385,9.406551361083984,0.0823880285024643,0.024203376844525337,0.10735046863555908
1.2265204191207886,2.777813673019409,9.763419151306152,0.07759396731853485,0.036454882472753525,0.08071675896644592
1.202569603919983,2.7802083492279053,9.921494483947754,0.09996627271175385,0.03911825641989708,0.06313851475715637
1.1211369037628174,2.9095427989959717,9.95981502532959,0.18199807405471802,0.018343964591622353,0.03490679711103439
1.1163467168807983,2.9813952445983887,9.842455863952637,0.22248129546642303,0.0023637411650270224,0.027449360117316246
1.1115566492080688,3.074803113937378,9.423317909240723,0.2549744248390198,-0.011485784314572811,0.035439468920230865
1.2169400453567505,3.0771985054016113,9.231711387634277,0.22354663908481598,-0.008289739489555359,0.048223644495010376
1.2552614212036133,3.0628278255462646,9.226921081542969,0.19424957036972046,-0.013616479933261871,0.042896904051303864
1.3175334930419922,3.0628278255462646,9.346674919128418,0.13885147869586945,-0.05676307901740074,-0.008772478438913822
1.0636550188064575,3.0460622310638428,9.29398250579834,0.1026296466588974,-0.11802059412002563,-0.0838795155286789
0.8912092447280884,2.9861855506896973,9.24368667602539,0.08345337957143784,-0.1371968537569046,-0.1078498512506485
0.6612815856933594,2.9263083934783936,9.284402847290039,0.053090956062078476,-0.14199092984199524,-0.13821226358413696
0.44572436809539795,3.048457384109497,9.423317909240723,0.05149293318390846,-0.12867407500743866,-0.16058456897735596
0.16550004482269287,3.443645715713501,9.387391090393066,0.09357418119907379,-0.0908542200922966,-0.1595192402601242
-0.0979587733745575,3.4915473461151123,8.913165092468262,0.2895982265472412,0.33794838190078735,-0.05831116437911987
-0.028501436114311218,3.453226089477539,8.580248832702637,0.36417263746261597,0.5973606705665588,0.0551484078168869
0.4050080478191376,3.319101572036743,8.470075607299805,0.23473279178142548,0.48603177070617676,0.11054650694131851
0.7666651010513306,3.1849770545959473,8.61378002166748,-0.0640973374247551,-0.0077570658177137375,0.04236423224210739
0.7906159162521362,3.1586313247680664,9.088006973266602,-0.3938225507736206,-0.5223202109336853,-0.049788378179073334
0.7690601348876953,3.036482095718384,9.509540557861328,-0.4646682143211365,-0.6038192510604858,-0.07961813360452652
0.6469111442565918,3.0412721633911133,9.873591423034668,-0.3176501989364624,-0.35292989015579224,-0.09826171398162842
0.4409342408180237,3.1155197620391846,9.49277400970459,0.15216831862926483,0.3054552376270294,0.0008156551048159599
0.4768604338169098,3.101149320602417,8.704792976379395,0.22354663908481598,0.4364930987358093,0.01945924572646618
0.49123090505599976,3.1059393882751465,8.438939094543457,0.057352349162101746,0.3145107328891754,-0.013033869676291943
0.4768604338169098,3.074803113937378,8.546717643737793,-0.055041879415512085,0.2239561527967453,-0.03966757655143738
0.4265637695789337,2.9694199562072754,8.999387741088867,-0.21644210815429688,0.08386285603046417,-0.10891519486904144
0.16070988774299622,3.0149264335632324,9.430501937866211,-0.2579907178878784,0.048173706978559494,-0.17549945414066315
-0.023711279034614563,3.0221118927001953,9.607738494873047,-0.2382817417383194,0.07427473366260529,-0.1930776983499527
-0.2392684519290924,3.093964099884033,9.691566467285156,-0.14666181802749634,0.14512039721012115,-0.21438464522361755
-0.6775680780410767,3.264014720916748,9.511935234069824,-0.07581616938114166,0.18240757286548615,-0.25859662890434265
-1.49668550491333,3.364607810974121,9.207759857177734,-0.08646964281797409,0.1073005199432373,-0.26978275179862976
-2.0858750343322754,3.247249126434326,8.879633903503418,-0.1807529628276825,-0.009887762367725372,-0.16005189716815948
-1.963726282119751,3.067617893218994,9.193389892578125,-0.3064640164375305,-0.02107391692698002,0.016795875504612923
-1.4751298427581787,3.036482095718384,9.940655708312988,-0.2851570248603821,0.13819563388824463,0.14889903366565704
-1.1685595512390137,3.0173213481903076,10.134655952453613,-0.20898468792438507,0.24899180233478546,0.18565356731414795
-0.838038444519043,2.9813952445983887,10.026878356933594,-0.036930955946445465,0.42743760347366333,0.18618622422218323
-1.0080891847610474,2.9909756183624268,9.686776161193848,0.01686912029981613,0.4354276955127716,0.16328124701976776
-1.027249813079834,3.074803113937378,9.665221214294434,-0.07315278798341751,0.25431856513023376,0.15795451402664185
-0.9027056694030762,3.149050712585449,10.275965690612793,-0.0955251082777977,0.06255590170621872,0.1979050487279892
-0.914681077003479,3.127495050430298,10.268780708312988,-0.02681015431880951,0.12168272584676743,0.22134272754192352
-0.7470254898071289,3.05564284324646,10.043643951416016,0.08292070031166077,0.1978551298379898,0.2623586058616638
-0.5434436798095703,2.950259208679199,9.84485149383545,0.10369499772787094,0.14139167964458466,0.25436848402023315
-0.5147026777267456,2.9454689025878906,9.650849342346191,0.10902173072099686,0.08546088635921478,0.2090912014245987
-0.5386534929275513,3.0412721633911133,9.46882438659668,0.0861167386174202,0.010886525735259056,0.17819611728191376
-0.5075173377990723,3.0221118927001953,9.46882438659668,0.057352349162101746,-0.03172739967703819,0.16168321669101715
-0.5194927453994751,3.0221118927001953,9.49277400970459,0.0600157231092453,-0.029064027592539787,0.14996439218521118
-0.5961353778839111,3.05564284324646,9.365835189819336,0.07706128805875778,-0.02213926427066326,0.12439604103565216
-0.7398401498794556,3.0604329109191895,9.27961254119873,0.0637444406747818,-0.03172739967703819,0.1052197590470314
-0.8859400749206543,3.093964099884033,9.291587829589844,0.04510084539651871,-0.032260071486234665,0.10042570531368256
-0.9769532680511475,3.1227049827575684,9.289193153381348,0.04083945229649544,-0.02213926427066326,0.10468708723783493
-0.9937187433242798,3.146656036376953,9.284402847290039,0.034980036318302155,-0.008289739489555359,0.1275920867919922
-0.8955203294754028,3.1442606449127197,9.286797523498535,0.022195860743522644,-0.0024303256068378687,0.14303962886333466
-0.842828631401062,3.108334541320801,9.301168441772461,-0.002307143062353134,-0.01734519936144352,0.1403762698173523
-0.8595942258834839,3.0963592529296875,9.411341667175293,-0.027875497937202454,-0.024269960820674896,0.13984358310699463
-0.8140877485275269,3.031691789627075,9.50475025177002,-0.03533293306827545,-0.037054140120744705,0.14357231557369232
-0.7494205236434937,3.0053458213806152,9.538281440734863,-0.03533293306827545,-0.048772964626550674,0.14676834642887115
-0.5242830514907837,2.931098461151123,9.61971378326416,-0.03107154369354248,-0.0631551668047905,0.14250695705413818
-0.4524305760860443,2.9191231727600098,9.643665313720703,-0.011895276606082916,-0.07807004451751709,0.11427523195743561
-0.4859617054462433,2.9358887672424316,9.61971378326416,-0.001774471253156662,-0.08499480783939362,0.09989303350448608
-0.5673943758010864,3.010136127471924,9.51432991027832,0.012607728131115437,-0.08552747964859009,0.08284745365381241
-0.6943336725234985,3.010136127471924,9.555047035217285,0.017934467643499374,-0.05516505613923073,0.0775207132101059
-0.7326549291610718,3.029296875,9.576602935791016,0.03284934163093567,-0.049838315695524216,0.08284745365381241
-0.7518155574798584,3.048457384109497,9.600553512573242,0.04297014698386192,-0.048772964626550674,0.08444547653198242
-0.6560124158859253,3.1442606449127197,9.502354621887207,-0.0055031925439834595,0.028464768081903458,0.042896904051303864
-0.6368517875671387,3.113124370574951,9.593368530273438,-0.0140259750187397,0.043379638344049454,0.04183156043291092
-0.5506289005279541,3.093964099884033,9.787368774414062,-0.004970517009496689,0.08546088635921478,0.042896904051303864
-0.5338633060455322,3.0700130462646484,9.832876205444336,0.013140401802957058,0.10623517632484436,0.04502759873867035
-0.44764044880867004,3.036482095718384,9.796950340270996,0.04989491030573845,0.14192435145378113,0.05781178176403046
-0.2847749888896942,2.9694199562072754,9.74665355682373,0.07439792156219482,0.17708083987236023,0.07805338501930237
-0.10993415117263794,2.9167280197143555,9.751443862915039,0.0914434865117073,0.17867885529994965,0.08551082760095596
-0.04287191480398178,2.904752731323242,9.686776161193848,0.10689103603363037,0.18027687072753906,0.08551082760095596
0.0050296783447265625,2.9191231727600098,9.557441711425781,0.13885147869586945,0.1797441989183426,0.08338013291358948
0.02179523929953575,2.993370771408081,9.329909324645996,0.1564297080039978,0.16589468717575073,0.07698804140090942
-0.004550635814666748,3.0149264335632324,9.24368667602539,0.1548316925764084,0.15577387809753418,0.07432467490434647
-0.011735886335372925,3.067617893218994,9.092796325683594,0.14044949412345886,0.12860749661922455,0.08071675896644592
0.04095587879419327,3.0604329109191895,8.944300651550293,0.1212732344865799,0.09345100075006485,0.08870687335729599
-0.006945721805095673,3.019716501235962,8.273679733276367,0.1100870817899704,0.005559785291552544,0.08178211003541946
0.29722943902015686,2.8808016777038574,8.139554977416992,-0.04438839107751846,-0.009887762367725372,0.07805338501930237
0.44811949133872986,2.9095427989959717,8.527557373046875,-0.2233668863773346,-0.03971750661730766,0.03863551467657089
0.4960210919380188,2.713146209716797,10.364583015441895,-0.1956678330898285,-0.005626369267702103,-0.046059660613536835
0.5774538516998291,2.849665880203247,9.978975296020508,-0.06516268104314804,-0.019475894048810005,-0.07748742401599884
0.5894292593002319,2.85685133934021,9.734678268432617,-0.019885387271642685,0.00023304461501538754,-0.10145775973796844
0.4960210919380188,3.1322853565216064,9.686776161193848,0.061081066727638245,0.08972227573394775,-0.1169053167104721
0.8361223936080933,3.0269017219543457,8.903585433959961,-0.2308243215084076,-0.07807004451751709,-0.10518647730350494
1.027728796005249,2.8472707271575928,9.878382682800293,-0.3400225043296814,-0.19312763214111328,-0.1355489194393158
0.8816289901733398,2.883197069168091,10.275965690612793,-0.28142833709716797,-0.31724071502685547,-0.19467571377754211
1.1379024982452393,2.9358887672424316,9.911913871765137,-0.21111539006233215,-0.43442898988723755,-0.2170480340719223
1.0133583545684814,2.921518325805664,9.626899719238281,-0.21537676453590393,-0.5132647156715393,-0.2639233469963074
0.864863395690918,3.137075424194336,9.538281440734863,-0.19673317670822144,-0.4514745771884918,-0.2617926597595215
0.6996029615402222,3.1753969192504883,9.523910522460938,-0.18927574157714844,-0.4077953100204468,-0.24581241607666016
0.5367374420166016,3.2137179374694824,9.60534381866455,-0.18022029101848602,-0.3502665162086487,-0.17496676743030548
0.5606882572174072,3.117914915084839,9.705936431884766,-0.15944600105285645,-0.3108486533164978,-0.09719637036323547
0.6996029615402222,2.9550492763519287,9.6460599899292,-0.11416870355606079,-0.22135935723781586,0.01626320369541645
0.7427144050598145,2.8975672721862793,9.772998809814453,-0.10564591735601425,-0.19366030395030975,0.06526921689510345
0.8169617652893066,2.8544559478759766,9.811320304870605,-0.09392707794904709,-0.18620285391807556,0.090304896235466
0.9750370979309082,2.732307195663452,9.796950340270996,-0.050247810781002045,-0.16276520490646362,0.13398417830467224
1.1498777866363525,2.607762575149536,9.626899719238281,-0.015091318637132645,-0.13986022770404816,0.15475845336914062
1.3271137475967407,2.5862069129943848,9.545465469360352,-0.024679452180862427,-0.17554937303066254,0.14996439218521118
1.722301959991455,2.5574660301208496,9.567021369934082,-0.08753499388694763,-0.23467621207237244,0.07645536959171295
1.7510429620742798,2.6484789848327637,9.636479377746582,-0.028408169746398926,-0.13613151013851166,0.06047515571117401
1.7821789979934692,2.6556642055511475,9.464034080505371,0.057352349162101746,-0.00029962905682623386,0.05461573600769043
1.7438578605651855,2.741887331008911,9.207759857177734,0.0802573412656784,0.08918960392475128,0.06420386582612991
1.7893643379211426,2.6652445793151855,9.262846946716309,0.06587512791156769,0.12434609979391098,0.07485734671354294
1.8444510698318481,2.5191450119018555,9.442477226257324,0.04243747517466545,0.14565306901931763,0.061007820069789886
1.8731920719146729,2.4999840259552,9.600553512573242,0.039774104952812195,0.12860749661922455,0.013067157939076424
1.8588215112686157,2.5311200618743896,9.761024475097656,0.05575432628393173,0.09877774119377136,-0.03966757655143738
1.6744004487991333,2.562256336212158,9.806529998779297,0.10156428813934326,0.10623517632484436,-0.08867358416318893
1.5426709651947021,2.562256336212158,9.787368774414062,0.13139404356479645,0.1147579699754715,-0.10252311080694199
1.3462743759155273,2.5646512508392334,9.600553512573242,0.17613865435123444,0.10889855027198792,-0.10731717944145203
1.207359790802002,2.8712215423583984,9.430501937866211,0.15376634895801544,0.04657568410038948,-0.08494486659765244
1.2097549438476562,3.036482095718384,9.540677070617676,0.10689103603363037,-0.028531353920698166,-0.04020024836063385
1.3654351234436035,3.012531280517578,9.677196502685547,0.0786593109369278,-0.0983116552233696,0.00028298143297433853
1.4492628574371338,2.974210023880005,9.734678268432617,0.0823880285024643,-0.11588990688323975,0.008273093029856682
1.4660283327102661,2.921518325805664,9.729887962341309,0.12020789086818695,-0.0945829451084137,0.004011699929833412
1.46842360496521,2.947864294052124,9.521515846252441,0.13725346326828003,-0.1057690903544426,-0.0018477141857147217
1.166643500328064,2.883197069168091,9.214945793151855,0.29652297496795654,0.33208897709846497,0.02958005480468273
1.2169400453567505,3.0795934200286865,9.00178337097168,0.30025172233581543,0.48230302333831787,0.04662562906742096
1.3654351234436035,2.8424806594848633,9.09519100189209,0.1265999674797058,0.25272053480148315,0.03703749179840088
1.3390891551971436,2.643688917160034,9.291587829589844,-0.1360083520412445,-0.2096405178308487,-0.05138640105724335
1.2193351984024048,2.4999840259552,9.787368774414062,-0.33948981761932373,-0.5484212040901184,-0.16591131687164307
0.9367157220840454,2.52632999420166,10.419671058654785,-0.29687589406967163,-0.5260488986968994,-0.2649886906147003
0.5271570682525635,2.741887331008911,10.340633392333984,-0.01722201704978943,-0.2357415407896042,-0.2841649651527405
0.34992119669914246,2.832900285720825,10.060408592224121,0.12766532599925995,-0.08606015890836716,-0.2564659118652344
0.1678951233625412,2.9622344970703125,9.521515846252441,0.30131709575653076,0.11262726783752441,-0.15472516417503357
0.3020195960998535,2.974210023880005,9.121537208557129,0.30557847023010254,0.11955201625823975,-0.05351709574460983
0.4241686761379242,2.921518325805664,9.042500495910645,0.19478224217891693,-0.008289739489555359,-0.011435847729444504
0.7331340312957764,2.8520607948303223,9.368230819702148,0.0861167386174202,-0.15264439582824707,-0.03221013396978378
0.5822439193725586,2.6724298000335693,9.430501937866211,0.053090956062078476,-0.21177121996879578,-0.09133695811033249
0.43853914737701416,2.6269233226776123,9.406551361083984,0.034980036318302155,-0.17022264003753662,-0.11370926350355148
0.2301671952009201,3.0077412128448486,9.449663162231445,0.048829562962055206,-0.04770762100815773,-0.1430063396692276
-0.02610635757446289,3.1035444736480713,9.147882461547852,0.20756642520427704,0.336883008480072,-0.11637263745069504
-0.004550635814666748,3.0915687084198,8.819756507873535,0.19797828793525696,0.43436235189437866,-0.10998054593801498
0.10322795808315277,3.0460622310638428,8.853287696838379,0.014205750077962875,0.1776135116815567,-0.15472516417503357
-0.0356866791844368,3.0269017219543457,9.334699630737305,-0.23561839759349823,-0.18673554062843323,-0.22397278249263763
-0.09556367993354797,2.9622344970703125,10.00771713256836,-0.3602641224861145,-0.41951414942741394,-0.265521377325058
-0.1506505161523819,2.921518325805664,10.39093017578125,-0.3181828260421753,-0.4541379511356354,-0.29055705666542053
-0.38297325372695923,2.8688266277313232,10.41487979888916,-0.11097265779972076,-0.24319897592067719,-0.26605406403541565
-0.5961353778839111,2.928703546524048,10.005322456359863,0.11914253979921341,-0.002962997416034341,-0.20692721009254456
-0.5817649364471436,2.9334936141967773,9.708332061767578,0.19318421185016632,0.07374206185340881,-0.16750934720039368
-0.3901585042476654,2.9167280197143555,9.092796325683594,0.21076247096061707,0.08492821455001831,-0.12755879759788513
-0.2488487958908081,2.967024564743042,8.836522102355957,0.09570488333702087,-0.024802636355161667,-0.14353901147842407
-0.1865767240524292,3.048457384109497,8.977831840515137,-0.024146780371665955,-0.12441268563270569,-0.18242420256137848
-0.30633071064949036,3.146656036376953,9.090401649475098,-0.0566398948431015,-0.058361101895570755,-0.2117212861776352
-0.40213391184806824,3.189767360687256,9.114351272583008,-0.04811711609363556,0.0833301842212677,-0.18508759140968323
-0.3925536274909973,3.1610262393951416,9.135907173156738,-0.054509200155735016,0.13713029026985168,-0.16271527111530304
-0.33267658948898315,3.108334541320801,9.36344051361084,-0.10404788702726364,0.14405503869056702,-0.12755879759788513
-0.23687338829040527,3.029296875,9.61971378326416,-0.1455964595079422,0.044444989413022995,-0.12329740077257156
-0.5123076438903809,2.9790000915527344,9.590972900390625,-0.008166559040546417,-0.040250182151794434,-0.0801507979631424
-0.47638139128685,2.9813952445983887,9.437687873840332,-0.016689345240592957,-0.07007993012666702,-0.0540497750043869
-0.45003554224967957,2.928703546524048,9.303563117980957,-0.041725024580955505,-0.0684819146990776,-0.03913489729166031
-0.5218878984451294,2.8784070014953613,9.406551361083984,-0.08167557418346405,-0.037054140120744705,-0.028481418266892433
-0.5745795965194702,2.859246015548706,9.550256729125977,-0.0955251082777977,-0.020008569583296776,-0.0226220041513443
-0.6392468214035034,2.8616414070129395,9.753838539123535,-0.08380627632141113,0.0028964148368686438,-0.0029130633920431137
-0.6248763799667358,2.8903822898864746,9.794554710388184,-0.06463000923395157,0.014615243300795555,0.009871114045381546
-0.6033205986022949,2.931098461151123,9.73946762084961,-0.02681015431880951,0.03805289790034294,0.034374117851257324
-0.5889501571655273,2.911937952041626,9.705936431884766,-0.015091318637132645,0.04710835590958595,0.05994247645139694
-0.6033205986022949,2.883197069168091,9.689170837402344,-0.015091318637132645,0.03698755428195,0.07059594988822937
-0.4069240987300873,2.8784070014953613,9.51432991027832,0.0030195945873856544,0.019941983744502068,0.12705941498279572
-0.3973437547683716,2.8520607948303223,9.516725540161133,0.007813661359250546,0.03538953885436058,0.1329188197851181
-0.44045522809028625,2.840085744857788,9.483194351196289,0.007813661359250546,0.02526872791349888,0.13718022406101227
-0.3207012116909027,2.715541124343872,9.413737297058105,-0.025212127715349197,0.0007657182868570089,0.1457030028104782
-0.2727995812892914,2.6652445793151855,9.574207305908203,-0.030006196349859238,0.03805289790034294,0.1366475373506546
-0.3015405535697937,2.6891956329345703,9.71072769165039,-0.00923190638422966,0.056163813918828964,0.11534057557582855
-0.2392684519290924,2.758652687072754,9.670010566711426,0.014738422818481922,0.020474659278988838,0.09616430848836899
-0.19136688113212585,2.811344623565674,9.574207305908203,0.02059783786535263,0.0023637411650270224,0.08551082760095596
-0.15304560959339142,2.8376903533935547,9.495169639587402,0.013140401802957058,0.020474659278988838,0.06313851475715637
-0.21052753925323486,2.9143331050872803,9.555047035217285,0.0008888989686965942,0.10410447418689728,0.043962255120277405
-0.16741608083248138,2.967024564743042,9.648455619812012,-0.0071012116968631744,0.133401557803154,0.047690972685813904
-0.14346528053283691,2.967024564743042,9.638874053955078,-0.010297253727912903,0.13979364931583405,0.04982166737318039
-0.023711279034614563,3.0149264335632324,9.64126968383789,-0.023081433027982712,0.1424570083618164,0.0514196902513504
-0.006945721805095673,3.0077412128448486,9.698752403259277,-0.03586561232805252,0.14458772540092468,0.05408306419849396
0.09364764392375946,2.9550492763519287,9.847247123718262,-0.04225769639015198,0.14725108444690704,0.06739991158246994
0.3115999102592468,2.8520607948303223,9.955025672912598,-0.015091318637132645,0.14032632112503052,0.08391280472278595
0.48404568433761597,2.739492177963257,9.931074142456055,0.03870875760912895,0.10357179492712021,0.08391280472278595
0.6469111442565918,2.6748251914978027,9.629294395446777,0.08132267743349075,0.024736052379012108,0.07698804140090942
0.7690601348876953,2.6173431873321533,9.34188461303711,0.06907117366790771,-0.06368784606456757,0.061007820069789886
0.8720486164093018,2.5670464038848877,9.210155487060547,0.02539190463721752,-0.1371968537569046,0.03490679711103439
0.9295305013656616,2.562256336212158,9.198180198669434,0.009411683306097984,-0.15370973944664001,0.01945924572646618
1.032518982887268,2.631713628768921,9.255661964416504,0.007813661359250546,-0.1222819983959198,-0.01729525998234749
1.0923960208892822,2.722726583480835,9.202970504760742,0.034980036318302155,-0.049838315695524216,-0.04765768349170685
1.1211369037628174,2.7706284523010254,9.037710189819336,0.034980036318302155,-0.010953109711408615,-0.0726933628320694
1.1426926851272583,2.849665880203247,9.099981307983398,-0.020950734615325928,-0.027466006577014923,-0.09719637036323547
1.2313106060028076,2.9263083934783936,9.315539360046387,-0.07315278798341751,-0.06049179658293724,-0.10465379804372787
1.3175334930419922,2.866431474685669,9.538281440734863,-0.08167557418346405,-0.06102447584271431,-0.10092509537935257
1.3989661931991577,2.820924997329712,9.626899719238281,-0.052911177277565,-0.032260071486234665,-0.10731717944145203
1.3295087814331055,2.9071478843688965,9.629294395446777,-0.1306815892457962,-0.18993158638477325,-0.10145775973796844
1.360644817352295,2.813739776611328,9.818506240844727,-0.14612914621829987,-0.24000294506549835,-0.09027160704135895
1.090000867843628,2.8999626636505127,9.84006118774414,-0.058237917721271515,-0.14412161707878113,-0.10518647730350494
0.6037997007369995,3.110729694366455,8.700002670288086,0.08132267743349075,-0.12281466275453568,-0.07056266814470291
0.6876275539398193,3.0771985054016113,8.908374786376953,-0.030006196349859238,-0.02586798369884491,0.031710751354694366
1.032518982887268,2.9550492763519287,8.910770416259766,-0.10830928385257721,-0.12015129625797272,0.07272665947675705
1.5115349292755127,2.8424806594848633,9.571812629699707,-0.22176887094974518,-0.20910783112049103,0.09616430848836899
1.7127217054367065,2.5838119983673096,10.266386032104492,-0.21058271825313568,-0.20697714388370514,0.05727910250425339
1.4348924160003662,2.5933923721313477,10.46996784210205,-0.08860033005475998,-0.21443459391593933,0.014132505282759666
1.3414843082427979,2.6628496646881104,10.00771713256836,0.047764215618371964,-0.20324842631816864,0.03224342316389084
1.3582497835159302,2.7466773986816406,9.49038028717041,0.11434847116470337,-0.1558404415845871,0.06473653763532639
1.4037563800811768,2.777813673019409,9.291587829589844,0.11328312009572983,-0.12441268563270569,0.08284745365381241
1.4612382650375366,2.7897887229919434,9.21255111694336,0.06800583004951477,-0.09138689190149307,0.11161185801029205
1.621708631515503,2.8736166954040527,9.265242576599121,0.01207505352795124,-0.12547802925109863,0.12119999527931213
1.7031413316726685,2.8616414070129395,9.337095260620117,-0.010297253727912903,-0.15530776977539062,0.11480790376663208
1.7127217054367065,2.8424806594848633,9.250870704650879,-0.004437845200300217,-0.14731766283512115,0.10681778937578201
1.7055363655090332,2.8520607948303223,9.085611343383789,-0.0140259750187397,-0.07860271632671356,0.09936035424470901
1.5881776809692383,2.6724298000335693,9.648455619812012,-0.0715547725558281,0.029530119150877,0.09083756804466248
1.621708631515503,2.6173431873321533,9.789764404296875,-0.03959432989358902,0.02633407525718212,0.08178211003541946
1.626498818397522,2.6029725074768066,9.828085899353027,-0.012960627675056458,0.03538953885436058,0.07698804140090942
1.6169184446334839,2.562256336212158,9.837666511535645,0.01686912029981613,0.05563114210963249,0.07112862914800644
1.6241037845611572,2.5359103679656982,9.775394439697266,0.07066920399665833,0.10357179492712021,0.05621375888586044
1.528300404548645,2.622133255004883,9.701146125793457,0.12819799780845642,0.13766296207904816,0.047690972685813904
1.6097333431243896,2.670034646987915,9.442477226257324,0.14044949412345886,0.08918960392475128,0.0700632780790329
1.7151167392730713,2.7179365158081055,9.169438362121582,0.10742370784282684,0.058827195316553116,0.07272665947675705
1.8085249662399292,2.6796152591705322,9.214945793151855,0.04723154008388519,0.057229164987802505,0.05994247645139694
1.7797839641571045,2.6460840702056885,9.406551361083984,0.014738422818481922,0.05563114210963249,0.021057268604636192
1.698351263999939,2.6652445793151855,9.49277400970459,0.015271098352968693,0.05456579849123955,-0.006641780957579613
1.4348924160003662,2.7730231285095215,9.487984657287598,0.031251318752765656,0.035922203212976456,-0.04659233242273331
1.2959778308868408,2.8448755741119385,9.428107261657715,0.03391468897461891,0.02580139972269535,-0.0503210574388504
1.2169400453567505,3.058037757873535,9.643665313720703,0.014738422818481922,0.031128134578466415,0.030645402148365974
1.3007680177688599,3.0891740322113037,9.749049186706543,0.039241429418325424,0.04923905059695244,0.051952362060546875
1.4396826028823853,3.101149320602417,9.670010566711426,0.1250019669532776,0.11955201625823975,0.07805338501930237
1.3414843082427979,3.0604329109191895,9.353860855102539,0.18359610438346863,0.1999858319759369,0.09190291911363602
1.4181268215179443,2.820924997329712,9.437687873840332,0.07972465455532074,0.12541145086288452,0.16008521616458893
1.5738071203231812,2.8879871368408203,9.586182594299316,0.10689103603363037,0.1328689008951187,0.1702060103416443
1.698351263999939,2.8999626636505127,9.401762008666992,0.17454063892364502,0.18720164895057678,0.17073868215084076
1.6887708902359009,2.9143331050872803,9.258056640625,0.19638027250766754,0.21063929796218872,0.1680753231048584
1.6456594467163086,2.9191231727600098,8.953882217407227,0.17986737191677094,0.1978551298379898,0.16700996458530426
1.5833873748779297,2.8903822898864746,8.927536010742188,0.07652860879898071,0.12860749661922455,0.17233671247959137
1.621708631515503,2.8352954387664795,9.202970504760742,-0.027875497937202454,0.032726164907217026,0.17233671247959137
1.6384742259979248,2.8520607948303223,9.732283592224121,-0.03533293306827545,0.0332588367164135,0.16115054488182068
1.4971644878387451,2.8784070014953613,9.658035278320312,0.10795637965202332,0.10623517632484436,0.1313208043575287
1.2408908605575562,2.9191231727600098,9.38499641418457,0.13885147869586945,0.11742132902145386,0.12812475860118866
1.1498777866363525,2.9454689025878906,9.452058792114258,0.08931279182434082,0.07906880229711533,0.14144161343574524
1.1786189079284668,2.983790159225464,9.729887962341309,0.05468897894024849,0.015680594369769096,0.14676834642887115
1.1690385341644287,2.9981608390808105,9.852036476135254,0.061613742262125015,-0.0013649764005094767,0.14357231557369232
1.1810139417648315,3.00295090675354,9.921494483947754,0.08451872318983078,-0.002962997416034341,0.13611488044261932
1.0708402395248413,3.0173213481903076,9.914308547973633,0.1527009904384613,0.010353850200772285,0.12279801070690155
0.9103699922561646,3.1418654918670654,9.684380531311035,0.19584760069847107,-0.00029962905682623386,0.11640593409538269
0.747504472732544,3.153841018676758,9.418527603149414,0.1692138910293579,-0.03385809436440468,0.13931091129779816
0.7307388782501221,3.1586313247680664,9.404157638549805,0.13086137175559998,-0.050370991230010986,0.15742182731628418
0.6660717725753784,3.1442606449127197,9.602948188781738,0.08984546363353729,-0.0445115752518177,0.1771307736635208
0.2756737172603607,3.201742649078369,9.296378135681152,0.23366743326187134,0.34007909893989563,0.24691106379032135
0.8912092447280884,2.9071478843688965,9.147882461547852,-0.11843009293079376,-0.32469815015792847,0.07592269778251648
0.44572436809539795,2.950259208679199,9.46882438659668,-0.2936798334121704,-0.6602827906608582,-0.08121614903211594
0.13436400890350342,3.0915687084198,9.631689071655273,-0.3091273903846741,-0.7156808972358704,-0.1206340342760086
-0.31351596117019653,3.247249126434326,9.622109413146973,-0.17382818460464478,-0.49941521883010864,-0.07588940858840942
-0.617691159248352,3.1777915954589844,9.20057487487793,0.0323166660964489,-0.1558404415845871,0.05248503386974335
-0.3901585042476654,3.1682116985321045,8.575459480285645,0.12819799780845642,0.08546088635921478,0.17819611728191376
-0.10993415117263794,3.038877010345459,8.244937896728516,0.03764340654015541,0.11209459602832794,0.21761400997638702
0.043350961059331894,2.9191231727600098,8.292840003967285,-0.17169751226902008,-0.05782843008637428,0.16754263639450073
-0.006945721805095673,2.8424806594848633,8.735929489135742,-0.3677215576171875,-0.2112385332584381,0.0940336138010025
-0.13867512345314026,2.75146746635437,9.246082305908203,-0.4220542907714844,-0.18993158638477325,0.05781178176403046
0.0050296783447265625,2.813739776611328,9.662825584411621,-0.21644210815429688,0.24952448904514313,0.06473653763532639
0.08406732231378555,2.9239132404327393,9.61013412475586,-0.15731529891490936,0.345938503742218,0.047690972685813904
0.10801812261343002,3.012531280517578,9.595763206481934,-0.16477273404598236,0.33581769466400146,0.03384144604206085
0.17508035898208618,3.1155197620391846,9.864011764526367,-0.21857281029224396,0.24526312947273254,0.01146913506090641
0.13675907254219055,2.813739776611328,10.455596923828125,-0.21111539006233215,0.08173216879367828,-0.020491305738687515
-0.021316200494766235,2.667639970779419,10.35739803314209,-0.04705176502466202,0.04657568410038948,-0.04073292016983032
0.024190321564674377,2.533515453338623,10.10112476348877,0.022728534415364265,-0.05782843008637428,-0.05618046969175339
-0.004550635814666748,2.6652445793151855,9.801740646362305,0.053090956062078476,-0.16649392247200012,-0.11370926350355148
-0.20573735237121582,3.0053458213806152,9.442477226257324,0.08984546363353729,-0.0759393498301506,-0.15472516417503357
-0.7278647422790527,3.0077412128448486,9.025734901428223,0.3673686385154724,0.5877725481987,-0.09080427885055542
-0.9745581150054932,3.1155197620391846,8.316790580749512,0.4318222403526306,0.8961908221244812,-0.04499430954456329
-1.1589791774749756,3.1586313247680664,8.089258193969727,0.20010897517204285,0.6458340287208557,0.02372063882648945
-0.8787548542022705,3.012531280517578,8.580248832702637,-0.2531965970993042,-0.035988789051771164,0.05674643814563751
-0.4883567988872528,2.75146746635437,9.681985855102539,-0.6585615873336792,-0.750304639339447,0.01999192126095295
-0.04047684371471405,2.454477548599243,10.956168174743652,-0.783207356929779,-1.1045329570770264,-0.027416067197918892
0.16070988774299622,2.389810562133789,11.056761741638184,-0.6905220150947571,-1.0805625915527344,-0.05564779043197632
-0.2727995812892914,2.435317039489746,10.769352912902832,-0.2979412078857422,-0.603286623954773,-0.0801507979631424
-0.4452453553676605,2.5646512508392334,10.374164581298828,0.15376634895801544,0.013549895957112312,-0.008772478438913822
-0.31351596117019653,2.533515453338623,9.42092227935791,0.3860122561454773,0.383225679397583,0.11107917875051498
0.0050296783447265625,2.703566074371338,8.779041290283203,0.32209134101867676,0.3683107793331146,0.12972278892993927
0.17987051606178284,2.8065545558929443,8.812572479248047,0.12393660843372345,0.22555416822433472,0.08817420154809952
0.21100656688213348,2.7730231285095215,9.090401649475098,-0.04811711609363556,0.11742132902145386,0.02904737927019596
0.08646240085363388,2.69877552986145,9.528700828552246,-0.1306815892457962,0.10516983270645142,-0.0039784107357263565
0.09125256538391113,2.6891956329345703,9.744257926940918,-0.1306815892457962,0.14139167964458466,-0.006641780957579613
0.06730175763368607,2.562256336212158,9.947839736938477,-0.0640973374247551,0.2441977560520172,-0.004511084873229265
0.17029020190238953,2.480823516845703,9.801740646362305,0.0008888989686965942,0.2963998019695282,-0.018893282860517502
0.1415492445230484,2.7442822456359863,9.533491134643555,-0.0033724941313266754,0.17441748082637787,0.0008156551048159599
0.3642916977405548,2.794579029083252,9.519121170043945,-0.02734282612800598,0.17441748082637787,0.04715830087661743
0.4624899625778198,2.768233060836792,9.670010566711426,-0.025744803249835968,0.21223732829093933,0.07698804140090942
0.5319472551345825,2.605367660522461,9.655640602111816,0.014738422818481922,0.2575145959854126,0.09722965210676193
0.5535030364990234,2.507169485092163,9.497565269470215,0.04030677676200867,0.29533445835113525,0.08817420154809952
0.6037997007369995,2.497589111328125,9.495169639587402,0.022728534415364265,0.2836156189441681,0.08977221697568893
1.1019762754440308,2.3874154090881348,9.454453468322754,-0.06303199380636215,0.10996389389038086,0.04129888117313385
1.2313106060028076,2.3969955444335938,9.480798721313477,-0.06569535285234451,0.11049656569957733,0.021057268604636192
1.2983728647232056,2.3946006298065186,9.473614692687988,-0.036930955946445465,0.18986500799655914,-0.014631892554461956
1.3247188329696655,2.4401071071624756,9.413737297058105,-0.02254876121878624,0.24206706881523132,-0.017827939242124557
1.4947693347930908,2.5119597911834717,9.507145881652832,-0.023081433027982712,0.2963998019695282,0.01146913506090641
1.784574031829834,2.4281318187713623,9.660429954528809,-0.0214834101498127,0.263374000787735,0.02958005480468273
2.1031196117401123,2.3131678104400635,9.64126968383789,-0.0140259750187397,0.20797593891620636,-0.016762588173151016
2.045637845993042,2.2772417068481445,9.507145881652832,-0.030006196349859238,0.15630656480789185,-0.11583996564149857
1.0660500526428223,1.8700780868530273,10.338238716125488,-0.32031357288360596,-0.3998052179813385,-0.6245436668395996
0.6732569932937622,1.9443256855010986,10.254409790039062,-0.20951735973358154,-0.2948684096336365,-0.6362625360488892
0.43135392665863037,2.0880305767059326,10.096335411071777,-0.10351521521806717,-0.17341868579387665,-0.60004061460495
0.34992119669914246,2.2868220806121826,9.957420349121094,-0.033202238380908966,-0.11802059412002563,-0.5467732548713684
0.2948343753814697,2.4496874809265137,9.734678268432617,0.002486920915544033,-0.1260107010602951,-0.47912368178367615
0.27806878089904785,2.480823516845703,9.552651405334473,-0.018820039927959442,-0.14625230431556702,-0.40135324001312256
0.3451310396194458,2.432921886444092,9.955025672912598,-0.037463631480932236,-0.0519690103828907,-0.18508759140968323
0.35710644721984863,2.298797607421875,9.957420349121094,-0.0055031925439834595,-0.026933331042528152,-0.12329740077257156
0.44572436809539795,2.207784414291382,9.935864448547363,0.008879008702933788,-0.041315529495477676,-0.0615072101354599
0.6325407028198242,2.0976107120513916,9.86640739440918,0.01207505352795124,-0.08819085359573364,-0.025818046182394028
0.82414710521698,2.0688698291778564,9.842455863952637,0.01207505352795124,-0.09138689190149307,-0.010370499454438686
0.9798271656036377,1.9922270774841309,9.859221458435059,0.036045387387275696,-0.03012937679886818,-0.011435847729444504
1.0397042036056519,2.001807689666748,9.926283836364746,0.07333257049322128,0.03006279096007347,-0.025818046182394028
1.125927209854126,2.0952157974243164,9.883172988891602,0.10103161633014679,0.022605353966355324,-0.04552698880434036
1.0420993566513062,2.2221550941467285,9.916704177856445,0.12233857810497284,0.030595462769269943,-0.06470325589179993
0.8409125804901123,2.389810562133789,9.969395637512207,0.17187726497650146,0.10250645875930786,-0.05831116437911987
0.4529096782207489,2.6796152591705322,9.049684524536133,0.2469843178987503,0.21862941980361938,-0.0263507217168808
0.7666651010513306,2.507169485092163,9.006573677062988,0.16282179951667786,0.24686114490032196,0.005077047273516655
1.1762237548828125,2.4233415126800537,9.332304954528809,0.006215640343725681,0.056163813918828964,-0.005043759010732174
1.135507345199585,2.370649814605713,9.99574089050293,-0.05397652089595795,-0.023737287148833275,-0.02794874645769596
0.9941977262496948,2.279636859893799,10.47475814819336,-0.006035864353179932,-0.06102447584271431,-0.0226220041513443
0.9606665372848511,2.5023791790008545,9.607738494873047,0.07439792156219482,-0.10843246430158615,-0.0689646452665329
0.6037997007369995,2.6820101737976074,9.679591178894043,0.10529301315546036,-0.09191957116127014,-0.04446163773536682
0.5079964995384216,2.7993693351745605,9.471219062805176,0.1580277383327484,-0.024269960820674896,0.02372063882648945
0.5247620344161987,2.7921841144561768,9.183809280395508,0.1601584255695343,0.05190242454409599,0.11320988833904266
0.6612815856933594,2.7299118041992188,9.246082305908203,0.09677022695541382,0.08492821455001831,0.18618622422218323
0.8073815107345581,2.6460840702056885,9.578997611999512,0.047764215618371964,0.05989253893494606,0.2218753844499588
0.8624682426452637,2.569441556930542,9.64126968383789,0.048296887427568436,0.0076904818415641785,0.23093083500862122
0.8600732088088989,2.471243143081665,9.61971378326416,0.053090956062078476,-0.02107391692698002,0.2256041020154953
0.8433077335357666,2.3874154090881348,9.531095504760742,0.05362363159656525,-0.04717494174838066,0.21654865145683289
0.8528879880905151,2.3562796115875244,9.502354621887207,0.047764215618371964,-0.05676307901740074,0.21015654504299164
0.8720486164093018,2.4137613773345947,9.61971378326416,0.039774104952812195,-0.06155714765191078,0.1957743763923645
0.9031846523284912,2.4305267333984375,9.691566467285156,0.08345337957143784,-0.012018457055091858,0.18192483484745026
0.8672584295272827,2.4137613773345947,9.432897567749023,0.14790692925453186,0.04657568410038948,0.16860798001289368
0.7810355424880981,2.5311200618743896,9.10716724395752,0.12606731057167053,0.05243510380387306,0.1552911400794983
0.8169617652893066,2.5359103679656982,9.066451072692871,0.07706128805875778,0.03538953885436058,0.1515624225139618
0.8313323259353638,2.4904041290283203,9.267638206481934,-0.04705176502466202,-0.006159042939543724,0.12652674317359924
0.7762454748153687,2.435317039489746,9.545465469360352,-0.12588752806186676,-0.05143633857369423,0.07645536959171295
0.5990095138549805,2.377835273742676,9.667614936828613,-0.15678264200687408,-0.1020403802394867,0.006142396479845047
0.2732786238193512,2.4401071071624756,9.643665313720703,-0.15145587921142578,-0.16010183095932007,-0.05298442393541336
-0.16262592375278473,2.569441556930542,9.298773765563965,-0.14879252016544342,-0.17874543368816376,-0.07162801921367645
-0.3183061182498932,2.6556642055511475,9.21255111694336,-0.1509232074022293,-0.10789979994297028,-0.03700420260429382
-0.40452900528907776,2.6820101737976074,9.224526405334473,-0.1493251919746399,-0.06422051787376404,-0.013033869676291943
-0.679963231086731,2.6939854621887207,9.291587829589844,-0.14293310046195984,0.0012983919586986303,0.048223644495010376
-0.653617262840271,2.4496874809265137,9.226921081542969,-0.20632131397724152,-0.05889377370476723,0.1979050487279892
-0.5218878984451294,2.2676613330841064,9.38499641418457,-0.27077484130859375,-0.08446213603019714,0.2575645446777344
-0.4691961705684662,2.1047959327697754,9.56223201751709,-0.2990065813064575,-0.06049179658293724,0.2884596288204193
-0.49075189232826233,2.047314167022705,9.576602935791016,-0.32084619998931885,-0.0631551668047905,0.2863289415836334
-0.5386534929275513,1.9634861946105957,9.761024475097656,-0.3661234974861145,-0.09564828872680664,0.28792697191238403
-0.6224813461303711,1.9994124174118042,9.95981502532959,-0.3405551314353943,-0.04184820502996445,0.30816859006881714
-0.6440370082855225,1.9754616022109985,10.06519889831543,-0.30433332920074463,0.019409311935305595,0.32627949118614197
-0.5673943758010864,1.9658814668655396,10.139446258544922,-0.22389957308769226,0.10463714599609375,0.3550439178943634
-0.3278864324092865,1.9419305324554443,10.026878356933594,-0.14985787868499756,0.11955201625823975,0.35238051414489746
-0.2823799252510071,1.9323502779006958,9.947839736938477,-0.1253548562526703,0.13766296207904816,0.34332507848739624
-0.15783575177192688,1.9371404647827148,10.098730087280273,-0.1029825434088707,0.1850709617137909,0.34918448328971863
-0.0716128796339035,1.9060043096542358,10.182558059692383,-0.08061022311449051,0.2053125649690628,0.35291317105293274
-0.006945721805095673,1.8461273908615112,10.220878601074219,-0.054509200155735016,0.21862941980361938,0.3518478572368622
0.16550004482269287,1.7383487224578857,10.240038871765137,-0.008699234575033188,0.2074432671070099,0.33000820875167847
0.32118022441864014,1.7239782810211182,10.204113006591797,0.017401793971657753,0.16589468717575073,0.28739428520202637
0.40979817509651184,1.7191882133483887,10.153816223144531,0.02539190463721752,0.13766296207904816,0.2570318579673767
0.4433293044567108,1.7311633825302124,10.1226806640625,0.03657805919647217,0.08546088635921478,0.18192483484745026
0.4600948691368103,1.7239782810211182,10.026878356933594,0.039774104952812195,0.03432418033480644,0.09350094944238663
0.2828589677810669,1.8317569494247437,10.079569816589355,0.04563351720571518,-0.008822414092719555,0.0029463516548275948
0.050536200404167175,1.9371404647827148,10.010111808776855,0.07759396731853485,-0.029064027592539787,-0.05351709574460983
-0.05245223641395569,1.9898321628570557,9.990951538085938,0.11328312009572983,-0.014149154536426067,-0.07961813360452652
-0.10274891555309296,2.1311419010162354,9.868803024291992,0.15323367714881897,-0.0018976519349962473,-0.10092509537935257
-0.1410701870918274,2.164673089981079,9.806529998779297,0.16228912770748138,-0.007224392145872116,-0.11104589700698853
-0.22489801049232483,2.2149696350097656,9.631689071655273,0.1548316925764084,-0.027998678386211395,-0.12596078217029572
-0.39494866132736206,2.2125744819641113,9.595763206481934,0.11807718873023987,-0.045044247061014175,-0.12169938534498215
-0.43806013464927673,2.200599431991577,9.789764404296875,0.07546326518058777,-0.06581854075193405,-0.09400032460689545
-0.33986184000968933,2.138327121734619,10.036458015441895,0.06853850185871124,-0.11535722762346268,-0.07855278253555298
-0.2727995812892914,2.1239566802978516,10.1131010055542,0.08079000562429428,-0.14785033464431763,-0.0801507979631424
-0.21052753925323486,2.0880305767059326,10.026878356933594,0.11168510466814041,-0.20431378483772278,-0.10358846187591553
-0.2775897681713104,2.399390935897827,9.44726848602295,0.2874675393104553,0.12807482481002808,-0.08494486659765244
-0.44764044880867004,2.3155629634857178,9.119142532348633,0.3471270799636841,0.22182545065879822,-0.07482405751943588
-0.17220623791217804,2.279636859893799,8.688028335571289,0.3045130968093872,0.28787699341773987,-0.06683395057916641
0.06011652201414108,2.073660135269165,8.788620948791504,0.05042758584022522,0.05190242454409599,-0.12702612578868866
0.08406732231378555,2.028153419494629,9.49038028717041,-0.23348768055438995,-0.33428627252578735,-0.24155104160308838
-0.18418163061141968,2.0808451175689697,10.366978645324707,-0.34854525327682495,-0.5526825785636902,-0.3283769190311432
-0.17220623791217804,2.164673089981079,10.663969039916992,-0.2750362753868103,-0.49195778369903564,-0.32944226264953613
-0.3039356768131256,2.246105670928955,10.515473365783691,0.05788502097129822,-0.10417107492685318,-0.31026598811149597
-0.4260846674442291,2.2964022159576416,9.672405242919922,0.3151665925979614,0.25485122203826904,-0.2639233469963074
-0.3733929693698883,2.2676613330841064,9.152673721313477,0.295457661151886,0.3507325351238251,-0.23835499584674835
-0.19855213165283203,2.3850204944610596,9.22213077545166,0.11807718873023987,0.2090412825345993,-0.2649886906147003
-0.14825543761253357,2.4760334491729736,9.586182594299316,-0.037463631480932236,0.043379638344049454,-0.2990798354148865
-0.1865767240524292,2.5023791790008545,9.964605331420898,-0.07475081086158752,0.009821178391575813,-0.3017432391643524
-0.28956514596939087,2.504774332046509,10.184952735900879,0.0014215745031833649,0.10410447418689728,-0.25167185068130493
-0.10514399409294128,2.3922054767608643,10.10112476348877,0.10209696739912033,0.20584525167942047,-0.17017270624637604
0.32357531785964966,2.234130382537842,9.792160034179688,0.15376634895801544,0.1903976947069168,-0.12436273694038391
0.4193785488605499,2.0808451175689697,9.595763206481934,0.12180590629577637,0.08812425285577774,-0.15099644660949707
0.3786621391773224,2.0425238609313965,9.60534381866455,0.036045387387275696,-0.023204613476991653,-0.1877509355545044
0.4217735826969147,2.037733793258667,9.789764404296875,0.04723154008388519,-0.012551132589578629,-0.18402224779129028
0.47446537017822266,2.028153419494629,9.701146125793457,0.12287125736474991,0.04977172985672951,-0.17336876690387726
0.5582931637763977,2.1862287521362305,9.576602935791016,0.18146540224552155,0.1238134428858757,-0.15259447693824768
0.2732786238193512,2.255686044692993,9.111957550048828,0.26882392168045044,0.04497766122221947,-0.1579212099313736
0.2541179955005646,2.7011709213256836,8.52037239074707,0.22834071516990662,0.25431856513023376,-0.1078498512506485
0.5415276288986206,2.3419089317321777,8.20661735534668,0.015271098352968693,0.09931042045354843,-0.03593885898590088
0.9894075393676758,2.363464593887329,8.84610366821289,-0.24520649015903473,-0.049838315695524216,-0.010903173126280308
1.3007680177688599,2.1934139728546143,9.804136276245117,-0.3922245502471924,-0.10789979994297028,-0.029546765610575676
1.0852106809616089,2.0976107120513916,10.431645393371582,-0.3400225043296814,-0.1632978767156601,-0.08760824054479599
1.1858041286468506,2.226944923400879,10.156211853027344,-0.1807529628276825,-0.13506615161895752,-0.12169938534498215
0.9031846523284912,2.2964022159576416,9.564626693725586,-0.09818848222494125,-0.07487399876117706,-0.15525782108306885
0.793010950088501,2.4496874809265137,9.859221458435059,-0.23029163479804993,-0.12867407500743866,-0.09080427885055542
0.9606665372848511,2.4496874809265137,10.036458015441895,-0.18394900858402252,-0.09618096053600311,-0.04925570636987686
1.0205435752868652,2.425736427307129,10.043643951416016,-0.10351521521806717,-0.02959670126438141,-0.015697240829467773
0.9678517580032349,2.3371188640594482,9.98137092590332,-0.06090128421783447,0.00023304461501538754,0.02958005480468273
1.054074764251709,2.207784414291382,10.06519889831543,-0.07208744436502457,-0.062089819461107254,0.07219398021697998
1.2169400453567505,2.0808451175689697,10.125075340270996,-0.07262012362480164,-0.13613151013851166,0.09563163667917252
1.2935826778411865,2.0257585048675537,10.060408592224121,-0.06196664273738861,-0.15477509796619415,0.09616430848836899
1.3223236799240112,1.9012141227722168,9.986161231994629,-0.03959432989358902,-0.14252358675003052,0.08018409460783005
1.3319038152694702,1.8868435621261597,9.983766555786133,-0.030006196349859238,-0.12388001382350922,0.06739991158246994
1.2983728647232056,1.9155845642089844,10.050827980041504,-0.0033724941313266754,-0.10257305204868317,0.03757016360759735
1.202569603919983,1.9419305324554443,9.904728889465332,0.03764340654015541,-0.10470374673604965,0.009871114045381546
1.0468894243240356,1.9467207193374634,9.576602935791016,0.05522165074944496,-0.08872352540493011,0.006675070151686668
0.9846174716949463,1.9107944965362549,9.51432991027832,0.027522601187229156,-0.07114528119564056,0.02958005480468273
1.0708402395248413,1.9107944965362549,9.653244972229004,0.0014215745031833649,-0.05303436145186424,0.05035434663295746
1.099581241607666,1.929955005645752,9.789764404296875,0.01633644476532936,-0.024269960820674896,0.04982166737318039
1.068445086479187,2.030548572540283,9.813715934753418,0.06480978429317474,0.018876640126109123,0.05088701844215393
1.0229387283325195,2.0497090816497803,9.782580375671387,0.09091081470251083,0.05136976018548012,0.05834445357322693
0.915160059928894,2.0616846084594727,9.6460599899292,0.1287306547164917,0.10676784813404083,0.09083756804466248
0.941506028175354,2.0976107120513916,9.531095504760742,0.11594650149345398,0.11582331359386444,0.12652674317359924
1.054074764251709,2.1790435314178467,10.172977447509766,0.08132267743349075,0.07534008473157883,0.1494317203760147
0.8983944654464722,2.3419089317321777,9.59815788269043,0.2618991732597351,0.36937612295150757,0.18884959816932678
0.7498996257781982,2.373044967651367,9.406551361083984,0.2970556616783142,0.41784948110580444,0.21548330783843994
0.9295305013656616,2.3299336433410645,9.042500495910645,0.226742684841156,0.383225679397583,0.2628912925720215
1.2169400453567505,2.2508959770202637,9.150278091430664,0.01207505352795124,0.10463714599609375,0.2533031404018402
1.3007680177688599,2.32753849029541,9.576602935791016,-0.1732955127954483,-0.17554937303066254,0.19843773543834686
1.41094172000885,2.3035876750946045,10.024482727050781,-0.21910548210144043,-0.2794208228588104,0.18778425455093384
1.3726202249526978,2.2676613330841064,10.175372123718262,-0.15678264200687408,-0.20910783112049103,0.184588223695755
1.279212236404419,2.253290891647339,10.194533348083496,0.06694048643112183,0.12168272584676743,0.214417964220047
1.2169400453567505,2.2125744819641113,9.897543907165527,0.23153676092624664,0.33421966433525085,0.2538358271121979
1.3510645627975464,2.1479074954986572,9.545465469360352,0.19851095974445343,0.2553838789463043,0.2554338276386261
1.4372873306274414,2.1143763065338135,9.545465469360352,0.12287125736474991,0.13819563388824463,0.23146352171897888
1.4612382650375366,2.083240270614624,9.873591423034668,-0.02681015431880951,-0.10150770097970963,0.15102975070476532
0.43135392665863037,2.631713628768921,8.896400451660156,0.43874698877334595,0.4423524737358093,0.18192483484745026
0.941506028175354,2.2053892612457275,8.752695083618164,-0.0055031925439834595,0.07320938259363174,0.17606543004512787
1.1115566492080688,2.1215615272521973,9.737071990966797,-0.38743048906326294,-0.5079379677772522,0.021589944139122963
0.7738503217697144,2.234130382537842,10.455596923828125,-0.40394335985183716,-0.6954392194747925,-0.111578568816185
0.33076056838035583,2.3323285579681396,10.395719528198242,-0.08646964281797409,-0.3587892949581146,-0.10465379804372787
0.06251160055398941,2.425736427307129,9.770604133605957,0.23206943273544312,0.0332588367164135,-0.013566543348133564
0.02898048236966133,2.516749620437622,9.416131973266602,0.31676459312438965,0.14139167964458466,0.04183156043291092
0.42895883321762085,2.516749620437622,8.62814998626709,0.12233857810497284,-0.03865215927362442,0.15795451402664185
0.43853914737701416,2.4041807651519775,8.97543716430664,-0.08007755875587463,-0.19419297575950623,0.1366475373506546
-0.13628004491329193,2.155092716217041,9.715517044067383,-0.07901220768690109,-0.09777898341417313,0.11427523195743561
-0.16262592375278473,2.1239566802978516,9.499959945678711,-0.04438839107751846,-0.023204613476991653,0.15422579646110535
-0.0716128796339035,2.1311419010162354,9.430501937866211,-0.09605778008699417,-0.03439076989889145,0.1664772927761078
-0.15783575177192688,2.3227481842041016,10.07717514038086,-0.19779852032661438,-0.07380864769220352,0.08391280472278595
-0.3207012116909027,2.3155629634857178,10.196928024291992,-0.14080241322517395,-0.010953109711408615,0.08391280472278595
-0.4524305760860443,2.2700562477111816,10.39093017578125,-0.08327360451221466,0.030595462769269943,0.09563163667917252
-0.37578803300857544,2.6125526428222656,9.61013412475586,0.04989491030573845,0.14139167964458466,0.12812475860118866
-0.6272714138031006,2.255686044692993,9.588577270507812,0.06321176886558533,0.13233621418476105,0.17766346037387848
-0.3542323410511017,2.282032012939453,9.571812629699707,-0.0012417994439601898,0.10996389389038086,0.20216645300388336
-0.08837844431400299,2.0592894554138184,9.868803024291992,-0.08913302421569824,0.03538953885436058,0.18352286517620087
-0.054847314953804016,2.246105670928955,10.24962043762207,-0.0694240853190422,-0.07753737270832062,0.10308907181024551
0.019400160759687424,2.3131678104400635,10.014902114868164,0.05415630340576172,0.014082567766308784,0.08284745365381241
-0.06203256547451019,2.377835273742676,9.581392288208008,0.14684158563613892,0.1365976184606552,0.06367119401693344
-0.054847314953804016,2.4760334491729736,9.270031929016113,0.12340393662452698,0.1760154813528061,0.04928899556398392
-0.10035383701324463,2.2676613330841064,10.00771713256836,0.05841769650578499,-0.010953109711408615,-0.017827939242124557
-0.08837844431400299,2.253290891647339,9.861617088317871,0.0989009216427803,-0.00669171754270792,-0.011435847729444504
0.03856080397963524,2.1982040405273438,9.696356773376465,0.09623756259679794,-0.05676307901740074,-0.016229912638664246
0.08646240085363388,2.1598827838897705,9.523910522460938,0.07173454761505127,-0.12547802925109863,-0.055115118622779846
-0.038081757724285126,2.236525297164917,9.466428756713867,0.031251318752765656,-0.16169984638690948,-0.10092509537935257
-0.20573735237121582,2.2964022159576416,9.624504089355469,0.01367307547479868,-0.14358894526958466,-0.10731717944145203
-0.1602308303117752,2.2508959770202637,9.538281440734863,0.048829562962055206,-0.08872352540493011,-0.09932707250118256
-0.18178656697273254,2.2676613330841064,9.49277400970459,0.04456816986203194,-0.08819085359573364,-0.10731717944145203
-0.23687338829040527,2.3754398822784424,9.890358924865723,0.02432655729353428,-0.10523641854524612,-0.12436273694038391
-0.5218878984451294,2.607762575149536,9.444872856140137,0.13938415050506592,0.17867885529994965,-0.10465379804372787
0.17508035898208618,2.100005626678467,9.540677070617676,-0.2681114673614502,-0.32682886719703674,-0.15206179022789001
0.17029020190238953,2.1479074954986572,9.955025672912598,-0.32244426012039185,-0.4072626233100891,-0.20959056913852692
0.0050296783447265625,2.361069440841675,10.48433780670166,-0.224964901804924,-0.30658721923828125,-0.250606507062912
-0.059637486934661865,2.3299336433410645,10.309496879577637,0.0323166660964489,0.032726164907217026,-0.21118861436843872
-0.04287191480398178,2.4305267333984375,9.787368774414062,0.15962576866149902,0.21170465648174286,-0.18135885894298553
0.2660934031009674,2.452082395553589,9.459242820739746,0.1415148377418518,0.19519175589084625,-0.17177073657512665
0.4888358414173126,2.3874154090881348,9.622109413146973,-0.0055031925439834595,0.04657568410038948,-0.1930776983499527
0.5487128496170044,2.3107728958129883,10.175372123718262,-0.1732955127954483,-0.09405026584863663,-0.25540056824684143
0.5391324758529663,2.24371075630188,10.405301094055176,-0.15891331434249878,-0.09138689190149307,-0.2639233469963074
0.5463177561759949,2.2700562477111816,10.77414321899414,-0.03213689103722572,-0.0482402928173542,-0.2596619725227356
0.352316290140152,2.4472923278808594,9.744257926940918,0.3615092635154724,0.5201229453086853,-0.19041432440280914
0.5367374420166016,2.4305267333984375,8.620965957641602,0.4451390504837036,0.6431707143783569,-0.13821226358413696
1.3103482723236084,1.9275599718093872,9.569416999816895,-0.5072821974754333,-0.6730669140815735,-0.33689969778060913
1.145087718963623,1.894028902053833,10.376559257507324,-0.4529494047164917,-0.5569440126419067,-0.38270965218544006
0.8816289901733398,2.020968198776245,10.35739803314209,-0.0917963832616806,-0.049838315695524216,-0.34808585047721863
0.8816289901733398,2.183833360671997,9.629294395446777,0.18679213523864746,0.35126522183418274,-0.25167185068130493
0.9510862827301025,2.253290891647339,9.224526405334473,0.20916445553302765,0.3981405198574066,-0.21491733193397522
1.2408908605575562,2.380230188369751,8.879633903503418,0.022728534415364265,0.22289082407951355,-0.18828362226486206
1.3750152587890625,2.353884220123291,9.296378135681152,-0.2553272843360901,-0.07700469344854355,-0.21438464522361755
1.4013612270355225,2.325143337249756,9.6460599899292,-0.3432185649871826,-0.18460482358932495,-0.23143021762371063
1.3462743759155273,2.298797607421875,10.165792465209961,-0.35919874906539917,-0.24373166263103485,-0.24421440064907074
1.207359790802002,2.200599431991577,10.366978645324707,-0.22389957308769226,-0.1297394186258316,-0.2154499888420105
1.1570631265640259,2.1215615272521973,10.15860652923584,-0.07581616938114166,-0.02160659059882164,-0.16591131687164307
1.2576565742492676,1.9970173835754395,9.842455863952637,-0.01828736439347267,-0.014149154536426067,-0.12915682792663574
1.3678301572799683,1.9826469421386719,9.768209457397461,-0.02254876121878624,-0.04664226993918419,-0.12489541620016098
1.3774105310440063,2.0425238609313965,9.933469772338867,-0.03053887188434601,-0.15850381553173065,-0.15525782108306885
1.2648416757583618,2.018573045730591,10.091545104980469,0.023261208087205887,-0.09724631160497665,-0.12862414121627808
1.1905943155288696,2.1407220363616943,9.636479377746582,0.044035498052835464,-0.07860271632671356,-0.10838253051042557
1.1426926851272583,2.064079523086548,9.164648056030273,0.22248129546642303,0.1850709617137909,-0.029546765610575676
1.2289155721664429,2.0401289463043213,8.98022747039795,0.09091081470251083,0.040716271847486496,-0.024220023304224014
1.4612382650375366,2.0257585048675537,9.171833992004395,-0.0715547725558281,-0.14039289951324463,-0.04819035530090332
1.6097333431243896,2.0521042346954346,9.361045837402344,-0.1786222755908966,-0.2634406089782715,-0.1003924086689949
1.3582497835159302,2.138327121734619,9.849641799926758,-0.13121427595615387,-0.13879486918449402,-0.11317659914493561
1.3247188329696655,2.1047959327697754,9.677196502685547,0.009411683306097984,0.07001333683729172,-0.06470325589179993
1.3750152587890625,2.030548572540283,9.396971702575684,0.05468897894024849,0.17441748082637787,-0.032742805778980255
1.41094172000885,2.054499387741089,9.29398250579834,-0.03053887188434601,0.11156190931797028,-0.04446163773536682
1.3654351234436035,2.109586238861084,9.576602935791016,-0.154651939868927,-0.0034956748131662607,-0.06576859951019287
1.307953119277954,2.135932207107544,9.98137092590332,-0.18714503943920135,-0.049305643886327744,-0.07429138571023941
1.202569603919983,2.1766483783721924,10.117890357971191,-0.10777661204338074,0.009288502857089043,-0.055115118622779846
1.1881991624832153,2.1574878692626953,10.012506484985352,-0.00017644837498664856,0.11795400083065033,-0.004511084873229265
1.3247188329696655,2.100005626678467,9.679591178894043,0.05362363159656525,0.1664273589849472,0.053017713129520416
1.4947693347930908,2.0880305767059326,9.854432106018066,-0.024146780371665955,0.032726164907217026,0.06526921689510345
1.4492628574371338,2.0353386402130127,9.919099807739258,0.005150291137397289,0.02633407525718212,0.06580188870429993
1.3845957517623901,2.0353386402130127,9.873591423034668,0.07279989123344421,0.07320938259363174,0.08124943822622299
1.4277071952819824,2.0760550498962402,9.684380531311035,0.1340574026107788,0.11422528326511383,0.1126771941781044
1.5953627824783325,2.0592894554138184,9.401762008666992,0.15323367714881897,0.1387283205986023,0.13931091129779816
1.650449514389038,2.037733793258667,9.365835189819336,0.11807718873023987,0.11742132902145386,0.13718022406101227
1.6025480031967163,2.0329437255859375,9.406551361083984,0.07386524975299835,0.06681729853153229,0.12492869794368744
1.564226746559143,2.0760550498962402,9.473614692687988,0.05895036831498146,0.04977172985672951,0.12013465166091919
1.4181268215179443,2.171858310699463,9.588577270507812,0.052558280527591705,0.06788264214992523,0.1366475373506546
1.2840023040771484,2.073660135269165,9.72509765625,0.04456816986203194,0.10623517632484436,0.17659808695316315
1.2241252660751343,2.001807689666748,9.84006118774414,0.0323166660964489,0.10623517632484436,0.18725158274173737
1.094791054725647,2.018573045730591,10.161002159118652,0.00994435790926218,0.03219348564743996,0.17606543004512787
0.8265421390533447,2.21736478805542,10.192138671875,0.002486920915544033,-0.05782843008637428,0.15795451402664185
0.4672801196575165,2.0425238609313965,10.199323654174805,-0.019885387271642685,-0.07860271632671356,0.17979414761066437
0.2205868810415268,1.8604978322982788,10.39332389831543,-0.03107154369354248,-0.08765818178653717,0.2016337662935257
0.08646240085363388,1.8700780868530273,10.498708724975586,0.01580377295613289,-0.11908594518899918,0.21122190356254578
0.11280828714370728,1.9539059400558472,10.177767753601074,0.10529301315546036,-0.1446542888879776,0.21122190356254578
0.13436400890350342,2.174253463745117,9.749049186706543,0.17081192135810852,-0.11802059412002563,0.1941763311624527
-0.3542323410511017,2.3371188640594482,9.016154289245605,0.2304714024066925,0.15044714510440826,0.30976662039756775
-0.10514399409294128,2.1694631576538086,8.937116622924805,0.11701185256242752,0.1722867786884308,0.35078248381614685
0.12957383692264557,1.786250352859497,9.303563117980957,-0.03053887188434601,0.08546088635921478,0.3369329571723938
-0.47638139128685,2.0808451175689697,10.10831069946289,-0.09019836038351059,-0.10310572385787964,0.1441049873828888
-0.5602091550827026,2.1766483783721924,9.864011764526367,0.014205750077962875,0.028997447341680527,0.16754263639450073
-0.5170978307723999,2.3299336433410645,9.631689071655273,0.07439792156219482,0.1259441375732422,0.18991495668888092
-0.45003554224967957,2.471243143081665,9.425712585449219,0.06960385292768478,0.1483164280653,0.19364367425441742
-0.4715912640094757,2.514354705810547,9.365835189819336,0.04456816986203194,0.1349995881319046,0.1904476135969162
-0.5290732383728027,2.5383052825927734,9.509540557861328,-0.02201608568429947,0.10410447418689728,0.19524168968200684
-0.5266780853271484,2.4137613773345947,9.768209457397461,-0.05397652089595795,0.10570250451564789,0.21921202540397644
-0.4236896336078644,2.255686044692993,10.005322456359863,-0.03639828786253929,0.14512039721012115,0.24318234622478485
-0.25363895297050476,2.037733793258667,10.081963539123535,-0.0071012116968631744,0.15257784724235535,0.24637837707996368
-0.08598335087299347,1.9179798364639282,10.189743041992188,0.010477031581103802,0.10357179492712021,0.2090912014245987
-0.006945721805095673,1.9443256855010986,10.022087097167969,0.04723154008388519,-0.028531353920698166,0.13078813254833221
0.019400160759687424,2.0065977573394775,9.837666511535645,0.07226721942424774,-0.04770762100815773,0.0849781483411789
-0.028501436114311218,2.0521042346954346,9.715517044067383,0.10582568496465683,0.0039617642760276794,0.05355038493871689
-0.08119319379329681,2.1239566802978516,9.660429954528809,0.1175445169210434,0.024736052379012108,0.043962255120277405
-0.12909479439258575,2.1766483783721924,9.540677070617676,0.11701185256242752,0.027399418875575066,0.04183156043291092
-0.06921778619289398,2.2149696350097656,9.423317909240723,0.0951722040772438,-0.009355087764561176,0.03863551467657089
-0.07400794327259064,2.2293403148651123,9.270031929016113,0.04936223849654198,-0.040250182151794434,0.022655291482806206
-0.11711940169334412,2.1886236667633057,9.411341667175293,-0.020418062806129456,-0.06368784606456757,0.00028298143297433853
-0.16741608083248138,2.1886236667633057,9.670010566711426,-0.05877058953046799,-0.07647202163934708,-0.016762588173151016
-0.16741608083248138,2.1766483783721924,9.804136276245117,-0.05717257410287857,-0.07647202163934708,-0.0226220041513443
-0.1338849514722824,2.2053892612457275,9.907124519348145,-0.019352715462446213,-0.06741656363010406,-0.03061211295425892
-0.12669971585273743,2.24371075630188,9.763419151306152,0.02006516419351101,-0.05303436145186424,-0.03806954622268677
-0.29914548993110657,2.334723949432373,9.629294395446777,0.14950494468212128,0.0796014666557312,-0.041265591979026794
-0.4596158564090729,2.406576156616211,9.37302017211914,0.249114990234375,0.31397807598114014,0.006675070151686668
-0.33267658948898315,2.3754398822784424,9.114351272583008,0.2379288524389267,0.3038572371006012,0.02372063882648945
-0.054847314953804016,2.262871265411377,8.843708038330078,0.06960385292768478,0.07320938259363174,0.004544373601675034
0.10083287954330444,2.2149696350097656,8.848498344421387,-0.19992922246456146,-0.26930004358291626,-0.07002998888492584
0.2397475242614746,2.111981153488159,9.313143730163574,-0.31658482551574707,-0.4019359052181244,-0.10998054593801498
0.20861148834228516,1.9682765007019043,10.058013916015625,-0.40980279445648193,-0.5095360279083252,-0.19520840048789978
0.12238860130310059,2.0257585048675537,10.493918418884277,-0.2553272843360901,-0.37104079127311707,-0.2356916218996048
-0.009340792894363403,2.0353386402130127,10.115494728088379,0.031783994287252426,-0.015747176483273506,-0.2394203394651413
-0.26082417368888855,2.183833360671997,9.27242660522461,0.13352474570274353,0.13713029026985168,-0.23143021762371063
-0.08837844431400299,2.1239566802978516,9.20057487487793,-0.03266957029700279,-0.050370991230010986,-0.24421440064907074
0.009819842875003815,2.119166374206543,9.665221214294434,-0.16637074947357178,-0.16915729641914368,-0.29801449179649353
0.00023952871561050415,2.1215615272521973,9.90233325958252,-0.17436087131500244,-0.16436323523521423,-0.3262462019920349
-0.15783575177192688,2.155092716217041,10.216089248657227,-0.10458055883646011,-0.06049179658293724,-0.36246806383132935
-0.23687338829040527,2.1598827838897705,10.252015113830566,-0.054509200155735016,-0.0034956748131662607,-0.3667294681072235
-0.5554190874099731,2.4137613773345947,9.590972900390625,0.19211886823177338,0.15204516053199768,-0.37525221705436707
-0.5434436798095703,2.64129376411438,9.361045837402344,0.2784121036529541,0.5068060755729675,-0.30866795778274536
-0.3183061182498932,2.5862069129943848,8.949091911315918,0.2432555854320526,0.49348920583724976,-0.29055705666542053
0.06490667909383774,2.454477548599243,8.841312408447266,-0.01349329948425293,0.2979978024959564,-0.302808552980423
0.6660717725753784,2.234130382537842,10.172977447509766,-0.4145968556404114,-0.2037810981273651,-0.44023847579956055
0.6972078084945679,2.2221550941467285,10.687918663024902,-0.3117907643318176,-0.15051370859146118,-0.5142801403999329
0.6421209573745728,2.001807689666748,10.417275428771973,-0.15944600105285645,0.040716271847486496,-0.5228028893470764
0.3355507254600525,1.898819088935852,9.629294395446777,0.2453862726688385,0.566998302936554,-0.5110840797424316
0.2828589677810669,1.8293617963790894,9.284402847290039,0.16122378408908844,0.36245137453079224,-0.48072171211242676
0.26130324602127075,1.838942050933838,9.231711387634277,-0.027875497937202454,0.06042521074414253,-0.4460979104042053
0.43853914737701416,1.8054109811782837,9.6460599899292,-0.16104401648044586,-0.09990968555212021,-0.42372557520866394
0.5870341062545776,1.9060043096542358,9.928679466247559,-0.13334496319293976,-0.05729575827717781,-0.400287926197052
0.6540963649749756,1.9467207193374634,9.830480575561523,-0.03906165063381195,0.05563114210963249,-0.39016708731651306
0.5798488855361938,1.9491157531738281,9.665221214294434,-0.012427955865859985,0.0870589092373848,-0.3816443085670471
0.5822439193725586,1.9634861946105957,9.389785766601562,-0.053443849086761475,0.06255590170621872,-0.3560759723186493
0.6421209573745728,1.9395354986190796,9.61971378326416,-0.16903413832187653,-0.045044247061014175,-0.3427591323852539
0.563083291053772,2.044919013977051,10.290336608886719,-0.1120380163192749,-0.03066204860806465,-0.3305075764656067
0.3020195960998535,2.2029943466186523,9.763419151306152,0.023261208087205887,0.06628461927175522,-0.29002439975738525
0.23256227374076843,2.399390935897827,8.676053047180176,-0.0715547725558281,-0.02640065737068653,-0.1169053167104721
0.6708619594573975,2.085635185241699,9.210155487060547,-0.29314714670181274,-0.22295737266540527,-0.047125011682510376
0.9367157220840454,1.8293617963790894,10.520264625549316,-0.3645254373550415,-0.29167234897613525,-0.06257255375385284
0.9103699922561646,1.735953688621521,10.793303489685059,-0.2505332827568054,-0.29753175377845764,-0.07482405751943588
