accX,accY,accZ,gyroX,gyroY,gyroZ
-2.710991144180298,3.8627848625183105,8.77664566040039,-0.4003278315067291,-0.9556804895401001,-0.08752833306789398
-3.0606729984283447,3.7741668224334717,8.611385345458984,-0.4141773581504822,-1.1032311916351318,0.021137170493602753
-2.471482992172241,3.687943696975708,8.721558570861816,-0.535627007484436,-1.4089860916137695,0.34713369607925415
-0.7733712196350098,3.642437219619751,10.1131010055542,-0.4892844259738922,-1.1479759216308594,0.47870421409606934
-2.188863515853882,4.866323471069336,9.38499641418457,-0.22507809102535248,-0.6770919561386108,0.31410789489746094
-1.784095048904419,4.154984474182129,9.98137092590332,-0.18725824356079102,-0.2738577127456665,0.37163668870925903
-0.40452900528907776,3.1227049827575684,10.115494728088379,-0.1190759539604187,-0.29889339208602905,0.3849535584449768
-0.9003105163574219,3.7741668224334717,10.041248321533203,0.07002332806587219,-0.15453872084617615,0.3162385821342468
-0.7422351837158203,4.099897861480713,9.648455619812012,0.21757404506206512,-0.17531299591064453,0.3998684585094452
-1.7673295736312866,5.012423515319824,8.951486587524414,0.290017694234848,-0.06718018651008606,0.36151590943336487
-1.30268394947052,3.3789784908294678,8.723954200744629,0.276700884103775,0.1501508355140686,0.4701814353466034
-0.8500138521194458,3.496337413787842,8.714373588562012,0.1829502284526825,0.14375875890254974,0.43289420008659363
-0.7158894538879395,4.408863067626953,9.167043685913086,0.09292832016944885,0.235378697514534,0.40785855054855347
-0.5530239343643188,4.1142683029174805,8.968252182006836,0.12488876283168793,0.27000248432159424,0.3535257875919342
-0.3973437547683716,3.949007749557495,8.597014427185059,0.1014510989189148,0.235378697514534,0.2555137574672699
-0.25363895297050476,4.008884429931641,8.62575626373291,0.05617380514740944,0.2055489420890808,0.20757310092449188
-0.3350716829299927,4.372937202453613,9.006573677062988,-0.00881242472678423,0.1448241025209427,0.1202145367860794
-0.33986184000968933,4.305874347686768,8.977831840515137,-0.002420339733362198,0.11819037795066833,0.07706794142723083
-0.5697895288467407,4.152589797973633,8.680842399597168,0.006102446466684341,0.08409923315048218,-0.025205470621585846
-1.3577708005905151,4.032835483551025,9.176624298095703,-0.07806005328893661,0.03296253830194473,-0.06568869948387146
-1.2619677782058716,4.054391384124756,9.119142532348633,-0.06580854952335358,0.0872952863574028,-0.03958766907453537
-1.036830186843872,4.107083320617676,9.181415557861328,-0.06687389314174652,0.19596080482006073,-0.007627229206264019
-0.9841383695602417,4.183725357055664,8.850893020629883,-0.04183821380138397,0.20235291123390198,-0.07367880642414093
-1.4224379062652588,4.121453762054443,8.929930686950684,-0.059949129819869995,0.0446813628077507,-0.12108680605888367
-1.4511789083480835,3.9993042945861816,8.8604736328125,-0.10309574007987976,0.0484100803732872,0.04723820090293884
-1.1733497381210327,4.099897861480713,9.258056640625,-0.12120665609836578,-0.016576150432229042,0.05096691846847534
-1.0607810020446777,4.1046881675720215,9.425712585449219,-0.10469376295804977,-0.022435566410422325,0.039780762046575546
-1.094312071800232,4.023254871368408,9.540677070617676,-0.0413055457174778,0.015384295955300331,0.008885666728019714
-1.5350067615509033,3.9705634117126465,9.219735145568848,0.07108867913484573,0.12937654554843903,0.06534911692142487
-1.2954987287521362,4.107083320617676,9.131117820739746,0.09079762548208237,0.05799821764230728,0.08665607869625092
-1.144608736038208,4.119058609008789,9.123932838439941,0.10837586224079132,0.08463191241025925,0.07813328504562378
-1.1853251457214355,4.1046881675720215,8.937116622924805,0.11476795375347137,0.15973898768424988,0.06002238020300865
-1.283523440361023,4.131033897399902,8.757485389709473,0.09825506061315536,0.15441222488880157,0.048303548246622086
-1.2452020645141602,4.143009185791016,8.810176849365234,0.021549992263317108,0.002067441353574395,0.014745082706212997
-1.324239730834961,4.121453762054443,8.743114471435547,-0.007214405573904514,0.045214034616947174,0.0030262526124715805
-1.4080674648284912,4.140614032745361,8.77664566040039,-0.0487629771232605,0.06598833203315735,0.008352993056178093
-1.4871050119400024,4.111873149871826,8.841312408447266,-0.07486401498317719,0.03828927129507065,0.021669846028089523
-1.4439936876296997,4.087922096252441,8.879633903503418,-0.08658283948898315,0.0271031204611063,0.030192628502845764
-1.3553757667541504,4.119058609008789,9.068845748901367,-0.10203038901090622,0.05267147719860077,0.03392134979367256
-1.180534839630127,4.111873149871826,9.150278091430664,-0.09084422886371613,0.11126561462879181,0.014745082706212997
-1.2715479135513306,4.097502708435059,9.147882461547852,-0.07433133572340012,0.1464221179485321,-0.016150012612342834
-1.4152528047561646,4.090317249298096,9.255661964416504,-0.04609961062669754,0.11392898857593536,-0.03053221106529236
-1.5565624237060547,4.051995754241943,8.74551010131836,-0.04237089306116104,-0.1332317441701889,-0.014019316993653774
-1.3601658344268799,4.059181213378906,9.135907173156738,-0.08072341978549957,-0.07303959876298904,-0.0044311839155852795
-1.4751298427581787,4.03523063659668,9.171833992004395,-0.05408971756696701,0.04308333992958069,-0.01881338283419609
-1.5565624237060547,4.037625789642334,8.982623100280762,-0.030652061104774475,0.07717447727918625,-0.0017678141593933105
-1.5661427974700928,4.028045654296875,8.870054244995117,-0.04077287018299103,0.00526348315179348,0.01527775451540947
-1.5254265069961548,4.037625789642334,8.896400451660156,-0.051959022879600525,-0.06291878968477249,0.021137170493602753
-1.283523440361023,4.071156978607178,9.088006973266602,-0.07006993889808655,-0.11352283507585526,0.021669846028089523
-1.350585699081421,4.037625789642334,9.133512496948242,-0.03810949623584747,-0.022968240082263947,-0.0038985097780823708
-1.374536395072937,3.968168258666992,9.020943641662598,-0.02852136641740799,0.0484100803732872,-0.00549653172492981
-1.5254265069961548,3.946612596511841,9.056870460510254,-0.038642171770334244,0.09368737787008286,0.014212407171726227
-1.4176479578018188,4.05678653717041,9.12872314453125,-0.0450342558324337,0.15867362916469574,0.03605204448103905
-1.4607594013214111,4.049601078033447,8.944300651550293,-0.027456015348434448,0.14375875890254974,0.018473800271749496
-1.5589574575424194,3.9969091415405273,8.783831596374512,-0.06261251121759415,0.028168469667434692,0.009418342262506485
-1.537401795387268,3.9825387001037598,8.817362785339355,-0.09404027462005615,-0.043742530047893524,0.006754972040653229
-1.5445870161056519,3.9801435470581055,8.822152137756348,-0.10682445019483566,-0.07037623226642609,0.005156949162483215
-1.5278215408325195,3.9729583263397217,8.743114471435547,-0.1430462896823883,-0.10500004142522812,0.009951014071702957
-1.4224379062652588,3.893920660018921,8.781436920166016,-0.19205230474472046,-0.10872876644134521,0.014212407171726227
-1.491895318031311,3.766981601715088,9.27961254119873,-0.19631370902061462,-0.1369604766368866,-0.024672795087099075
-1.4128577709197998,3.6903388500213623,9.375415802001953,-0.19791172444820404,-0.19395659863948822,0.012081712484359741
-1.2116708755493164,3.671178102493286,9.42092227935791,-0.047164954245090485,-0.01604347676038742,0.006754972040653229
-1.1589791774749756,3.7118945121765137,9.538281440734863,-0.012008474208414555,0.004198137670755386,0.0030262526124715805
-1.3218446969985962,3.697524070739746,9.322723388671875,0.03966091200709343,0.013253593817353249,-0.00549653172492981
-1.446388840675354,3.7286601066589355,9.135907173156738,0.05244508758187294,0.03083183616399765,0.004091600887477398
-1.4415987730026245,3.7118945121765137,9.083215713500977,0.0476510226726532,0.03509323298931122,0.009951014071702957
-1.374536395072937,3.723870038986206,9.073636054992676,0.030072778463363647,0.03828927129507065,0.019539151340723038
-1.2739430665969849,3.7574009895324707,9.104771614074707,0.019951971247792244,-0.0011286025401204824,0.02433321624994278
-1.226041316986084,3.7621910572052,9.088006973266602,0.01835395023226738,-0.04107915610074997,0.021137170493602753
-1.2619677782058716,3.766981601715088,9.016154289245605,0.013027208857238293,-0.10233667492866516,0.007820319384336472
-1.30268394947052,3.7478208541870117,8.992202758789062,-0.006681730039417744,-0.09008517116308212,0.002493578940629959
-1.3434003591537476,3.7286601066589355,8.98022747039795,-0.03651147708296776,-0.04107915610074997,0.005689622834324837
-1.350585699081421,3.7478208541870117,9.008968353271484,-0.05036100000143051,-0.02403358742594719,0.008352993056178093
-1.3386101722717285,3.7023143768310547,9.104771614074707,-0.07113528996706009,-0.017641499638557434,0.026463910937309265
-1.3362151384353638,3.6903388500213623,9.430501937866211,-0.04237089306116104,0.1592063009738922,-0.010823272168636322
-1.113472580909729,3.7023143768310547,9.717911720275879,0.007167793810367584,0.2002222090959549,-0.0028331615030765533
-1.6691312789916992,3.7214748859405518,8.961067199707031,0.08334018290042877,0.07078239321708679,-0.0427837148308754
-1.4727346897125244,3.7478208541870117,9.404157638549805,0.05617380514740944,0.04414869099855423,-0.0028331615030765533
-1.4415987730026245,3.678363561630249,9.365835189819336,0.11530062556266785,0.2241925299167633,0.0003628823906183243
-1.4415987730026245,3.8555996417999268,8.680842399597168,0.15205512940883636,0.3557630181312561,-0.006561879999935627
-1.7050575017929077,3.8723649978637695,8.834128379821777,0.0716213583946228,0.19329744577407837,-0.0278688445687294
-1.6284148693084717,3.831648588180542,9.643665313720703,0.05670648440718651,0.051606133580207825,0.004624275490641594
-1.5302165746688843,3.86757493019104,9.42092227935791,0.3161187469959259,0.6561911702156067,-0.04012034460902214
-1.7960705757141113,4.03523063659668,8.688028335571289,0.3406217694282532,0.7089259028434753,-0.059296607971191406
-2.2942471504211426,3.9825387001037598,9.183809280395508,0.2623186409473419,0.43087008595466614,-0.05343719571828842
-2.2295799255371094,4.080737113952637,9.329909324645996,0.3475464880466461,0.4543077051639557,-0.00549653172492981
-2.615187883377075,4.296294212341309,8.551508903503418,0.2719067931175232,0.47348397970199585,0.04777087643742561
-2.524174928665161,4.3489861488342285,8.240147590637207,0.28522366285324097,0.35309964418411255,0.073871910572052
-2.4259767532348633,4.329825401306152,8.048541069030762,0.22716215252876282,0.19915686547756195,0.07973131537437439
-2.263111114501953,4.399282455444336,8.218592643737793,0.17336209118366241,0.18797068297863007,0.08186200261116028
-2.380470037460327,4.478320598602295,8.448519706726074,0.11849667876958847,0.2742638885974884,0.055760983377695084
-2.8618810176849365,4.380122184753418,8.230567932128906,0.08547087758779526,0.24123810231685638,0.052032265812158585
-2.5720763206481934,4.478320598602295,8.62575626373291,0.03699754178524017,0.15814094245433807,0.07546992599964142
-2.208024263381958,4.523827075958252,8.891609191894531,0.06735996156930923,0.17944791913032532,0.05256493762135506
-2.5289649963378906,4.50227165222168,8.664076805114746,0.12435609102249146,0.22472521662712097,-0.00016979128122329712
-2.7804484367370605,4.499876499176025,8.529953002929688,0.1382056176662445,0.235378697514534,0.003558926284313202
-2.7780532836914062,4.552567958831787,8.350321769714355,0.14140164852142334,0.2465648353099823,0.02859460934996605
-2.605607748031616,4.612444877624512,8.223382949829102,0.12275806069374084,0.17465385794639587,0.03551936894655228
-2.615187883377075,4.622025489807129,8.280864715576172,0.09665703773498535,0.07024971395730972,0.005689622834324837
-2.8499059677124023,4.657951831817627,7.74197244644165,0.09133029729127884,-0.043209850788116455,0.0030262526124715805
-2.9864253997802734,4.657951831817627,7.689280033111572,0.0439223051071167,-0.09647726267576218,0.004091600887477398
-2.8163743019104004,4.59567928314209,8.01740550994873,-0.07539668679237366,-0.05546135455369949,0.026463910937309265
-2.622373104095459,4.605259895324707,8.10123348236084,-0.1281314194202423,-0.007520692422986031,0.01900647208094597
-2.4738781452178955,4.569333553314209,8.35750675201416,-0.16382057964801788,-0.0868891254067421,-0.0028331615030765533
-2.531360149383545,4.566938400268555,8.496421813964844,-0.16648395359516144,-0.052797988057136536,-0.038522325456142426
-2.7373368740081787,4.542987823486328,8.369482040405273,-0.16222256422042847,-0.0757029727101326,-0.05130649730563164
-2.7780532836914062,4.504666328430176,8.283259391784668,-0.1691473424434662,-0.12470898777246475,-0.04757777974009514
-2.6750648021698,4.468739986419678,8.359902381896973,-0.20164044201374054,-0.247756689786911,-0.041718367487192154
-2.488248586654663,4.423233985900879,8.822152137756348,-0.21495729684829712,-0.27811911702156067,-0.04065301641821861
-2.497828722000122,4.428023815155029,8.925140380859375,-0.16275523602962494,-0.15880011022090912,-0.05130649730563164
-2.6008172035217285,4.408863067626953,8.77664566040039,-0.1318601369857788,-0.11192480474710464,-0.05183917284011841
-2.612792730331421,4.404073238372803,8.618570327758789,-0.11002049595117569,-0.11245748400688171,-0.04012034460902214
-2.713386297225952,4.36575174331665,8.738324165344238,-0.10416107624769211,-0.1667902171611786,-0.03585895150899887
-2.567286252975464,4.3489861488342285,8.925140380859375,-0.06207983195781708,-0.19928334653377533,-0.015617338009178638
-2.5121994018554688,4.363356590270996,8.814967155456543,-0.025857996195554733,-0.09115051478147507,-0.0044311839155852795
-2.6343486309051514,4.353776454925537,8.664076805114746,-0.007747081108391285,-0.055994026362895966,0.008352993056178093
-2.6367435455322266,4.329825401306152,8.666472434997559,-0.0034856870770454407,-0.09487923979759216,0.018473800271749496
-2.4547173976898193,4.337010860443115,8.551508903503418,0.002373727038502693,-0.17478033900260925,0.027529258280992508
-2.387655019760132,4.351381301879883,8.37906265258789,-0.00508370716124773,-0.20461007952690125,0.022202517837285995
-2.404420852661133,4.337010860443115,8.422174453735352,-0.06314517557621002,-0.2536160945892334,0.01154903694987297
-2.1505422592163086,4.341800689697266,8.491630554199219,-0.09404027462005615,-0.146015927195549,0.030192628502845764
-2.0331833362579346,4.3226399421691895,8.355112075805664,-0.09989969432353973,-0.08422575891017914,0.02326786518096924
-2.1313817501068115,4.296294212341309,8.285654067993164,-0.15636315941810608,-0.06611483544111252,-0.014551990665495396
-2.1649129390716553,4.214861869812012,8.448519706726074,-0.2192186713218689,-0.17158429324626923,-0.03958766907453537
-2.3038275241851807,4.190910816192627,8.769460678100586,-0.24425433576107025,-0.2184595912694931,-0.05716591700911522
-2.188863515853882,4.174145698547363,8.973042488098145,-0.23519891500473022,-0.146015927195549,-0.03585895150899887
-2.13617205619812,4.128638744354248,9.114351272583008,-0.20110775530338287,-0.07730099558830261,-0.029466863721609116
-2.17209792137146,4.119058609008789,9.109562873840332,-0.17713743448257446,-0.09434656798839569,-0.034793607890605927
-2.191258668899536,4.116663455963135,9.035314559936523,-0.13985024392604828,-0.1811724156141281,-0.028934188187122345
-2.263111114501953,4.068761348724365,8.98022747039795,-0.12014131247997284,-0.2296457439661026,-0.02360745146870613
-2.270296573638916,4.018465042114258,9.066451072692871,-0.10895515233278275,-0.16572488844394684,0.001960904337465763
-2.107430934906006,4.020860195159912,9.035314559936523,-0.07965806871652603,-0.03362172096967697,0.030725304037332535
-1.9804916381835938,4.001699447631836,8.771855354309082,-0.05462239682674408,0.002067441353574395,0.02433321624994278
-1.9493556022644043,3.9873287677764893,8.599410057067871,-0.05835111439228058,-0.030425675213336945,0.012081712484359741
-2.0236032009124756,4.011279582977295,8.474865913391113,-0.11108583956956863,-0.1683882474899292,-0.007094553671777248
-2.1697030067443848,3.9705634117126465,8.886819839477539,-0.17234337329864502,-0.26586759090423584,0.001960904337465763
-2.1481473445892334,3.949007749557495,9.006573677062988,-0.1744740605354309,-0.255214124917984,0.014745082706212997
-1.982886791229248,3.884340524673462,9.229315757751465,-0.15316709876060486,-0.1316337287425995,0.02859460934996605
-1.9517507553100586,3.8819453716278076,9.255661964416504,-0.11215119808912277,-0.018706846982240677,0.020604494959115982
-1.9325900077819824,3.8987109661102295,9.202970504760742,-0.09883434325456619,-0.023500913754105568,0.021137170493602753
-1.7625393867492676,3.9106862545013428,9.140698432922363,-0.04982832819223404,-0.046938568353652954,0.007820319384336472
-1.8487621545791626,3.893920660018921,8.999387741088867,-0.027456015348434448,-0.05919007211923599,-0.011355946771800518
-1.963726282119751,3.8723649978637695,9.008968353271484,-0.025325320661067963,-0.06291878968477249,-0.016682688146829605
-2.002047538757324,3.8603897094726562,8.973042488098145,-0.01999858021736145,-0.06558216363191605,-0.017748035490512848
-1.9493556022644043,3.8795502185821533,8.913165092468262,-0.025857996195554733,-0.05066729336977005,-0.012953968718647957
-1.9301950931549072,3.884340524673462,9.099981307983398,-0.03651147708296776,-0.03149102255702019,-0.010823272168636322
-1.9780964851379395,3.884340524673462,9.13830280303955,-0.010410447604954243,-0.03788311034440994,-0.008159901946783066
-1.9493556022644043,3.877155303955078,9.035314559936523,0.004504423588514328,-0.03149102255702019,-0.0038985097780823708
-1.9254047870635986,3.8699698448181152,8.817362785339355,0.003439076244831085,-0.01977219618856907,0.002493578940629959
-1.815231204032898,3.8723649978637695,8.905980110168457,-0.025325320661067963,-0.03149102255702019,0.006222296506166458
-1.8415770530700684,3.850809335708618,9.020943641662598,-0.02905404195189476,-0.038948461413383484,-0.006561879999935627
-1.9038491249084473,3.8699698448181152,8.999387741088867,-0.016802534461021423,-0.04587322473526001,-0.015084664337337017
-1.906244158744812,3.884340524673462,8.896400451660156,-0.017335209995508194,-0.04853659123182297,-0.009757923893630505
-1.855947494506836,3.8603897094726562,8.836522102355957,-0.03810949623584747,-0.034154392778873444,-0.006561879999935627
-1.8751081228256226,3.8603897094726562,8.87484359741211,-0.06474319845438004,-0.046938568353652954,-0.008159901946783066
-1.9397752285003662,3.8340439796447754,9.090401649475098,-0.0764620304107666,-0.0794316902756691,-0.002300487831234932
-1.956540822982788,3.8292534351348877,9.059266090393066,-0.06421052664518356,-0.021370217204093933,0.009951014071702957
-1.855947494506836,3.802907705307007,9.042500495910645,-0.06314517557621002,0.008992204442620277,0.02433321624994278
-1.7146376371383667,3.802907705307007,9.140698432922363,-0.05835111439228058,-0.011782083660364151,0.020604494959115982
-1.7793049812316895,3.8005125522613525,9.150278091430664,-0.0413055457174778,-0.021902890875935555,0.003558926284313202
-1.860737681388855,3.7645864486694336,9.152673721313477,-0.02053125575184822,0.002067441353574395,0.010483689606189728
-1.7960705757141113,3.802907705307007,9.157463073730469,-0.01360649336129427,0.010590223595499992,0.016875777393579483
-1.6906869411468506,3.8196732997894287,9.04489517211914,0.003971749916672707,0.015916967764496803,0.01101636327803135
-1.726613163948059,3.838834047317505,8.973042488098145,0.007167793810367584,0.004198137670755386,0.001960904337465763
-1.7697246074676514,3.8172783851623535,8.927536010742188,0.003439076244831085,-0.01391278114169836,-0.006029206328094006
-1.7098475694656372,3.8005125522613525,9.035314559936523,-0.023194625973701477,-0.027229633182287216,-0.016682688146829605
-1.6978721618652344,3.802907705307007,8.939512252807617,-0.021596599370241165,-0.017108824104070663,-0.024140123277902603
-1.8272064924240112,3.7981176376342773,8.915560722351074,-0.03704415261745453,-0.025098934769630432,-0.034793607890605927
-1.8487621545791626,3.776561975479126,8.98022747039795,-0.05355704575777054,-0.03362172096967697,-0.028401516377925873
-1.7793049812316895,3.7717716693878174,9.078425407409668,-0.06261251121759415,-0.025631610304117203,-0.020944077521562576
-1.72182297706604,3.7813520431518555,9.207759857177734,-0.05515507608652115,-0.02083754353225231,-0.019878730177879333
-1.7793049812316895,3.7741668224334717,9.181415557861328,-0.030119389295578003,-0.016576150432229042,-0.029999535530805588
-1.9254047870635986,3.7574009895324707,8.965856552124023,-0.022129278630018234,-0.02030486986041069,-0.033195581287145615
-1.7481689453125,3.7645864486694336,9.22213077545166,-0.047697633504867554,-0.05865740031003952,-0.0102905984967947
-1.7984654903411865,3.7526111602783203,9.301168441772461,-0.021063927561044693,-0.008053366094827652,-0.009757923893630505
-1.8391820192337036,3.7526111602783203,9.167043685913086,0.013027208857238293,0.00046941847540438175,0.0008955569937825203
-1.843972086906433,3.7645864486694336,9.121537208557129,0.019951971247792244,-0.001661278074607253,0.005156949162483215
-1.8751081228256226,3.740635395050049,8.996993064880371,0.017288601025938988,-0.006455344147980213,0.017408452928066254
-1.7912802696228027,3.7574009895324707,9.157463073730469,0.00983116403222084,-0.03788311034440994,0.02433321624994278
-1.7409836053848267,3.7478208541870117,9.13830280303955,0.02740940824151039,-0.013380106538534164,0.025931235402822495
-1.738588571548462,3.7550058364868164,9.047289848327637,0.033268824219703674,0.007394183427095413,0.02486588805913925
-1.7314033508300781,3.7885372638702393,8.889214515686035,0.027942083775997162,0.007394183427095413,0.025398563593626022
-1.630810022354126,3.7741668224334717,8.865263938903809,0.000775706022977829,-0.02030486986041069,0.016875777393579483
-1.7098475694656372,3.778956651687622,9.09519100189209,-0.03171740844845772,-0.043742530047893524,-0.015084664337337017
-1.7409836053848267,3.7550058364868164,9.066451072692871,-0.026923343539237976,-0.030958350747823715,-0.01881338283419609
-1.757749080657959,3.7621910572052,8.946696281433105,-0.03651147708296776,-0.07250692695379257,-0.01188862044364214
-1.6978721618652344,3.7621910572052,8.996993064880371,-0.055687740445137024,-0.09914062917232513,-0.007627229206264019
-1.6643409729003906,3.7454257011413574,9.035314559936523,-0.067406564950943,-0.09487923979759216,-0.007094553671777248
-1.6643409729003906,3.7286601066589355,8.905980110168457,-0.07806005328893661,-0.15507139265537262,-0.009757923893630505
-1.5158460140228271,3.5753748416900635,9.34907054901123,-0.154232457280159,-0.30102410912513733,-0.017215359956026077
-1.2452020645141602,3.661597967147827,9.772998809814453,-0.11055316776037216,-0.2221883088350296,-0.014551990665495396
-1.563747763633728,3.6280667781829834,9.617318153381348,0.08547087758779526,0.051606133580207825,-0.033195581287145615
-1.626019835472107,3.6568078994750977,9.602948188781738,0.11530062556266785,0.054802171885967255,-0.02254210039973259
-1.6356000900268555,3.6831536293029785,9.435293197631836,0.1754927933216095,0.0446813628077507,0.0030262526124715805
-1.6212295293807983,3.70470929145813,9.303563117980957,0.19626706838607788,0.07717447727918625,0.01634310558438301
-1.7050575017929077,3.7430307865142822,9.097586631774902,0.20478986203670502,0.19010138511657715,0.0573590062558651
-1.757749080657959,3.7813520431518555,8.951486587524414,0.19786511361598969,0.23964007198810577,0.08931945264339447
-1.6882919073104858,3.8292534351348877,8.618570327758789,0.17069871723651886,0.19329744577407837,0.09837490320205688
-3.2211430072784424,4.643580913543701,8.862868309020996,0.10411448031663895,0.1592063009738922,0.13779278099536896
-3.3911936283111572,3.968168258666992,8.836522102355957,0.1142352744936943,0.21726778149604797,0.26883062720298767
-1.7960705757141113,2.9191231727600098,8.795806884765625,0.06735996156930923,0.16932709515094757,0.5751182436943054
-0.6679877042770386,3.8723649978637695,8.460494995117188,-0.04450158774852753,-0.018706846982240677,0.37643077969551086
-0.8667794466018677,4.272343635559082,8.201827049255371,-0.12440270185470581,0.1224517896771431,0.2704286277294159
-0.2751946747303009,3.6735734939575195,8.932326316833496,-0.2229473888874054,0.20075486600399017,0.27469003200531006
-0.7278647422790527,3.831648588180542,9.315539360046387,-0.20270580053329468,-0.07144158333539963,0.05149959400296211
-1.1781398057937622,3.7909324169158936,9.195785522460938,-0.1505037397146225,-0.06291878968477249,-0.01881338283419609
-1.2859184741973877,3.7526111602783203,9.190995216369629,-0.15103639662265778,-0.026164283975958824,-0.024672795087099075
-1.4056724309921265,3.695129156112671,9.20057487487793,-0.15369977056980133,0.03296253830194473,-0.04917580634355545
-1.5924886465072632,3.6999192237854004,9.277217864990234,-0.13985024392604828,0.06865169107913971,-0.06728672236204147
-1.594883918762207,3.731055498123169,9.289193153381348,-0.10788979381322861,-0.004324648529291153,-0.06728672236204147
-1.6356000900268555,3.7382407188415527,9.238896369934082,-0.09084422886371613,-0.04853659123182297,-0.06728672236204147
-1.6164395809173584,3.6807587146759033,9.238896369934082,-0.08285412192344666,-0.05492868274450302,-0.06195998191833496
-1.5781182050704956,3.7454257011413574,9.485589981079102,-0.07379865646362305,0.04894275218248367,-0.03585895150899887
-1.5278215408325195,3.7190797328948975,9.432897567749023,-0.01626986265182495,0.1448241025209427,-0.02627081796526909
-1.5709329843521118,3.6831536293029785,9.250870704650879,0.013559882529079914,0.13097457587718964,-0.028401516377925873
-1.9182195663452148,3.6831536293029785,8.807781219482422,0.03912823647260666,-0.11671887338161469,-0.038522325456142426
-1.8679229021072388,3.6352522373199463,9.083215713500977,-0.010943126864731312,-0.20088136196136475,-0.024672795087099075
-1.568537950515747,3.6807587146759033,9.686776161193848,-0.018400557339191437,-0.06611483544111252,0.013147059828042984
-1.7864902019500732,3.642437219619751,9.519121170043945,0.07481739670038223,0.16400036215782166,0.009418342262506485
-1.630810022354126,3.7118945121765137,9.078425407409668,0.11476795375347137,0.25348961353302,0.04510750249028206
-1.5397969484329224,3.7621910572052,8.994598388671875,0.10624516755342484,0.14695480465888977,0.04137878865003586
-1.537401795387268,3.7526111602783203,9.059266090393066,0.0977223813533783,0.0010020921472460032,0.021669846028089523
-1.7457739114761353,3.750215768814087,9.00178337097168,0.09559168666601181,0.0521387979388237,0.00728764571249485
-1.820021152496338,3.7621910572052,8.87484359741211,0.08919960260391235,0.09954679757356644,0.012081712484359741
-1.712242603302002,3.778956651687622,8.74551010131836,0.047118350863456726,0.11605969071388245,0.03551936894655228
-1.4128577709197998,3.8292534351348877,8.862868309020996,0.004504423588514328,0.09794876724481583,0.043509479612112045
-1.4775248765945435,3.824463367462158,8.934720993041992,-0.01360649336129427,0.07504378259181976,0.00728764571249485
-1.6595510244369507,3.7981176376342773,9.016154289245605,-0.029586713761091232,0.08143587410449982,-0.019878730177879333
-1.7433786392211914,3.8005125522613525,9.226921081542969,-0.01573718711733818,0.20608162879943848,0.012081712484359741
-1.738588571548462,3.8196732997894287,9.195785522460938,0.02314801514148712,0.17145779728889465,-0.004963858053088188
-1.7242181301116943,3.824463367462158,9.253266334533691,0.03167080134153366,0.13683399558067322,-0.010823272168636322
-2.047553777694702,3.822068214416504,9.27961254119873,0.09186296910047531,0.06066158413887024,-0.022009428590536118
-2.0858750343322754,3.850809335708618,9.097586631774902,0.12595410645008087,0.06758634746074677,0.006222296506166458
-2.0307884216308594,3.857994318008423,8.965856552124023,0.13181352615356445,0.07504378259181976,0.019539151340723038
-1.9804916381835938,3.850809335708618,8.87484359741211,0.1275521218776703,0.07078239321708679,0.02433321624994278
-1.9182195663452148,3.8819453716278076,8.805386543273926,0.1014510989189148,0.008459530770778656,0.02433321624994278
-1.8296016454696655,3.9082911014556885,8.750299453735352,0.08174216002225876,-0.055994026362895966,0.018473800271749496
-1.810441017150879,3.903501033782959,8.680842399597168,0.046052999794483185,-0.057059384882450104,0.007820319384336472
-1.7984654903411865,3.913081407546997,8.788620948791504,0.007167793810367584,-0.05492868274450302,-0.00016979128122329712
-1.855947494506836,3.9154763221740723,8.858078002929688,-0.013073817826807499,-0.051732636988162994,-0.009757923893630505
-1.8224164247512817,3.9154763221740723,8.894004821777344,-0.02372729778289795,-0.04906927049160004,-0.008159901946783066
-1.8535524606704712,3.8987109661102295,8.884425163269043,-0.03597880154848099,-0.05226530879735947,-0.012953968718647957
-1.9301950931549072,3.8915257453918457,8.963461875915527,-0.051959022879600525,-0.052797988057136536,-0.0102905984967947
-1.963726282119751,3.893920660018921,8.886819839477539,-0.05728576332330704,-0.05919007211923599,0.006222296506166458
-1.8631327152252197,3.896315813064575,8.870054244995117,-0.07060261815786362,-0.1556040644645691,0.017941124737262726
-1.702662467956543,3.8795502185821533,9.109562873840332,-0.07486401498317719,-0.0682455375790596,0.02486588805913925
-1.6427853107452393,3.8532042503356934,9.066451072692871,-0.05941645801067352,-0.01604347676038742,0.001960904337465763
-1.7002671957015991,3.8460192680358887,9.042500495910645,-0.05622041970491409,-0.05119996517896652,-0.009757923893630505
-1.7649345397949219,3.805302858352661,9.018548965454102,-0.05781843513250351,-0.07090890407562256,-0.01242129411548376
-1.757749080657959,3.812488317489624,8.977831840515137,-0.059949129819869995,-0.06984355300664902,-0.010823272168636322
-1.6547608375549316,3.7981176376342773,9.028128623962402,-0.07166796177625656,-0.05439601093530655,-0.008159901946783066
-1.6164395809173584,3.8076977729797363,8.989808082580566,-0.07379865646362305,-0.02030486986041069,-0.014551990665495396
-1.6475754976272583,3.786142110824585,8.927536010742188,-0.07486401498317719,-0.016576150432229042,-0.022009428590536118
-1.7242181301116943,3.7717716693878174,8.958671569824219,-0.09723632037639618,-0.056526705622673035,-0.026803497225046158
-1.685896873474121,3.769376516342163,9.008968353271484,-0.11055316776037216,-0.09594458341598511,-0.02733616903424263
-1.6739214658737183,3.7454257011413574,8.83891773223877,-0.14091560244560242,-0.1273723542690277,-0.024140123277902603
-1.6451804637908936,3.7286601066589355,8.963461875915527,-0.18299685418605804,-0.1758456826210022,-0.017215359956026077
-1.5613526105880737,3.687943696975708,9.60534381866455,-0.18512755632400513,-0.10872876644134521,0.013147059828042984
-1.6451804637908936,3.577770233154297,9.3275146484375,-0.02372729778289795,-0.0027266235556453466,-0.020411405712366104
-1.855947494506836,3.5945358276367188,9.162254333496094,-0.02798869088292122,-0.016576150432229042,-0.0315975584089756
-1.542191982269287,3.659203052520752,9.552651405334473,-0.04556693136692047,0.06066158413887024,0.012081712484359741
-1.5924886465072632,3.6735734939575195,9.485589981079102,0.028474755585193634,0.10114482045173645,0.01634310558438301
-1.649970531463623,3.6376471519470215,9.188599586486816,0.07854611426591873,0.11872304975986481,0.010483689606189728
-1.6643409729003906,3.6472272872924805,9.008968353271484,0.07428472489118576,0.133637934923172,0.00728764571249485
-1.7242181301116943,3.6496224403381348,8.970647811889648,0.04498765245079994,0.16346770524978638,0.004091600887477398
-1.5972789525985718,3.707104444503784,8.973042488098145,0.02740940824151039,0.21087567508220673,0.01527775451540947
-1.614044427871704,3.7118945121765137,8.886819839477539,0.005569771863520145,0.27319854497909546,0.007820319384336472
-1.5110559463500977,3.6999192237854004,8.908374786376953,-0.01999858021736145,0.28065598011016846,-0.016150012612342834
-1.7409836053848267,3.6807587146759033,8.872447967529297,-0.03544612601399422,0.251891553401947,-0.06036195904016495
-1.9517507553100586,3.659203052520752,8.946696281433105,-0.06953727453947067,0.24070541560649872,-0.05077382177114487
-1.712242603302002,3.7118945121765137,9.169438362121582,-0.07806005328893661,0.13310527801513672,-0.029999535530805588
-1.542191982269287,3.697524070739746,9.358650207519531,-0.06207983195781708,0.04894275218248367,-0.0390549972653389
-1.9086391925811768,3.687943696975708,10.089149475097656,0.010896512307226658,-0.051732636988162994,-0.09392042458057404
-2.3637044429779053,3.6831536293029785,10.06519889831543,0.17815615236759186,0.014851616695523262,-0.0853976458311081
-2.459507703781128,3.714289665222168,9.564626693725586,0.28948503732681274,0.1501508355140686,-0.02627081796526909
-2.2559258937835693,3.7885372638702393,9.12872314453125,0.3390237092971802,0.23218263685703278,0.016875777393579483
-2.36130952835083,3.812488317489624,8.529953002929688,0.3528732657432556,0.15973898768424988,0.025931235402822495
-2.3996307849884033,3.81488299369812,7.957529544830322,0.28042957186698914,-0.18756450712680817,0.061620403081178665
-1.6954771280288696,3.9801435470581055,8.450915336608887,0.009298490360379219,0.11978839337825775,0.05842434987425804
-1.72182297706604,3.949007749557495,8.764670372009277,-0.04929565638303757,-0.001661278074607253,0.007820319384336472
-1.7864902019500732,3.9418225288391113,9.13830280303955,-0.06261251121759415,0.006328834220767021,-0.02307477593421936
-1.8535524606704712,4.001699447631836,9.147882461547852,-0.025857996195554733,0.1299092322587967,-0.037456970661878586
-1.9780964851379395,3.975353479385376,9.09519100189209,-0.0061490582302212715,0.1650657057762146,-0.04384906217455864
-2.1050357818603516,3.9969091415405273,10.084359169006348,0.1014510989189148,0.003132788697257638,-0.04917580634355545
-2.2391602993011475,3.9418225288391113,10.067593574523926,0.3033345639705658,0.0271031204611063,-0.05556789040565491
-2.4834582805633545,4.0064897537231445,9.008968353271484,0.4684635102748871,-0.02030486986041069,-0.055035222321748734
-2.5529158115386963,4.068761348724365,8.618570327758789,0.43597039580345154,-0.009651388972997665,0.001960904337465763
-2.253530502319336,4.25557804107666,8.537137985229492,0.39069312810897827,0.013253593817353249,0.05096691846847534
-2.0068376064300537,4.346591472625732,8.120393753051758,0.2420770227909088,-0.004857322201132774,0.039248090237379074
-1.937380313873291,4.428023815155029,8.345531463623047,0.16963337361812592,0.03509323298931122,0.027529258280992508
-1.9086391925811768,4.404073238372803,8.355112075805664,0.13021551072597504,0.10753689706325531,0.004624275490641594
-2.0236032009124756,4.363356590270996,8.161110877990723,0.08493820577859879,0.08303389698266983,-0.03053221106529236
-2.119406223297119,4.375331878662109,8.07967758178711,0.04871637001633644,0.03988729417324066,-0.042251039296388626
-2.1289865970611572,4.380122184753418,8.125184059143066,0.003971749916672707,-0.0155108030885458,-0.04864313080906868
-2.200839042663574,4.423233985900879,8.151530265808105,-0.0764620304107666,-0.11991491913795471,-0.05769858509302139
-2.035578489303589,4.406467914581299,8.599410057067871,-0.14411163330078125,-0.11725155264139175,-0.06835206598043442
-2.1673078536987305,4.389702796936035,8.834128379821777,-0.15103639662265778,-0.004857322201132774,-0.0816689282655716
-2.1697030067443848,4.389702796936035,8.97543716430664,-0.12600073218345642,-0.029360327869653702,-0.07474416494369507
-2.1601226329803467,4.40167760848999,9.040104866027832,-0.10735711455345154,-0.07517030090093613,-0.07527683675289154
-2.224789619445801,4.382517337799072,9.121537208557129,-0.06314517557621002,-0.1406891942024231,-0.08113624155521393
-2.3900504112243652,4.34419584274292,9.013758659362793,-0.0034856870770454407,-0.19022786617279053,-0.07367880642414093
-2.4666929244995117,4.334615707397461,8.853287696838379,0.037530217319726944,-0.25042006373405457,-0.032662905752658844
-2.4211864471435547,4.274738788604736,9.01136302947998,0.055108461529016495,-0.15134267508983612,0.081329345703125
-2.1146161556243896,4.461555004119873,9.21255111694336,0.07055600732564926,-0.10180400311946869,0.11808384954929352
-1.9038491249084473,4.504666328430176,9.190995216369629,0.1382056176662445,0.014851616695523262,0.14738091826438904
-1.9110342264175415,4.461555004119873,8.886819839477539,0.1754927933216095,0.06705367565155029,0.1314007043838501
-2.354124069213867,4.40167760848999,8.618570327758789,0.2053225189447403,0.09688341617584229,0.11115908622741699
-1.4871050119400024,4.583703994750977,8.580248832702637,0.179221510887146,0.11126561462879181,0.1298026740550995
-1.3793264627456665,4.638791084289551,8.510791778564453,0.16324128210544586,0.18690535426139832,0.03711739182472229
-1.6164395809173584,4.693877696990967,8.352716445922852,0.14992442727088928,0.2561529576778412,-0.037456970661878586
-1.7290081977844238,4.64837121963501,8.139554977416992,0.11743132770061493,0.29983222484588623,-0.08379961550235748
-1.9134292602539062,4.657951831817627,7.785083770751953,0.03486684337258339,0.32806396484375,-0.13866505026817322
-1.9757015705108643,4.631605625152588,8.51318645477295,-0.11374922096729279,0.43459874391555786,-0.1706254929304123
-2.5457305908203125,4.612444877624512,8.759881019592285,-0.06953727453947067,0.4596344232559204,-0.1908670961856842
-2.7253613471984863,4.624420166015625,8.783831596374512,0.02314801514148712,0.35150161385536194,-0.1780829280614853
-2.5744714736938477,4.4831109046936035,8.436545372009277,0.08760157227516174,0.20821231603622437,-0.1391977071762085
-2.4403467178344727,4.50227165222168,7.868910789489746,0.04552032798528671,0.11020027101039886,-0.14985120296478271
-2.5720763206481934,4.475925445556641,8.127579689025879,-0.05728576332330704,-0.04267717897891998,-0.16902746260166168
-2.505013942718506,4.50227165222168,8.115604400634766,-0.09084422886371613,-0.11299016326665878,-0.14612248539924622
-2.3397538661956787,4.523827075958252,7.555155277252197,-0.16808198392391205,0.03615857660770416,-0.1594393253326416
-2.576866865158081,4.411258220672607,7.535995006561279,-0.3486585021018982,0.06439030170440674,-0.18660569190979004
-2.658299207687378,4.377727031707764,8.120393753051758,-0.4749022126197815,-0.1497446447610855,-0.17861559987068176
-2.677459955215454,4.284318923950195,8.83891773223877,-0.4946111738681793,-0.2909032702445984,-0.1541125774383545
-2.603212594985962,4.162169933319092,9.241291046142578,-0.43441903591156006,-0.2445606291294098,-0.1317402869462967
-2.5720763206481934,4.083132266998291,9.320328712463379,-0.3598446249961853,-0.13216641545295715,-0.12321749329566956
-2.6894354820251465,4.049601078033447,9.435293197631836,-0.3225574493408203,-0.10606539249420166,-0.11735808849334717
-2.840325355529785,4.023254871368408,9.521515846252441,-0.21442461013793945,-0.1758456826210022,-0.08273427188396454
-2.8594858646392822,4.037625789642334,9.444872856140137,-0.10842246562242508,-0.25042006373405457,-0.04491441324353218
-2.7780532836914062,4.0256500244140625,9.179019927978516,-0.07806005328893661,-0.2333744764328003,-0.026803497225046158
-2.622373104095459,4.044810771942139,8.968252182006836,-0.04982832819223404,-0.16199615597724915,0.0014282306656241417
-2.5481255054473877,4.049601078033447,8.769460678100586,-0.03278275951743126,-0.1556040644645691,0.02007182314991951
-2.4187912940979004,4.013674736022949,8.616175651550293,-0.030652061104774475,-0.2237863391637802,0.039248090237379074
-2.234370231628418,4.018465042114258,8.465286254882812,-0.05408971756696701,-0.26746562123298645,0.0424441322684288
-2.1050357818603516,3.9897239208221436,8.434149742126465,-0.10948782414197922,-0.3090142011642456,0.026996586471796036
-1.956540822982788,3.994513988494873,8.470075607299805,-0.17181070148944855,-0.27492305636405945,0.014212407171726227
-1.9182195663452148,3.994513988494873,8.676053047180176,-0.22507809102535248,-0.23284180462360382,-0.01828071102499962
-1.9206146001815796,3.9106862545013428,8.75508975982666,-0.23679691553115845,-0.3127429187297821,-0.04811045527458191
-1.9301950931549072,3.81488299369812,8.647311210632324,-0.25117912888526917,-0.464555025100708,-0.07101544737815857
-1.9230097532272339,3.7526111602783203,8.55629825592041,-0.29432573914527893,-0.5417927503585815,-0.07527683675289154
-1.8463671207427979,3.7358453273773193,8.786225318908691,-0.36623671650886536,-0.4831986129283905,-0.06355800479650497
-1.815231204032898,3.6759681701660156,8.999387741088867,-0.40352392196655273,-0.4352579414844513,-0.05769858509302139
-1.8248114585876465,3.6041159629821777,9.004179000854492,-0.40671995282173157,-0.46189165115356445,-0.04438173770904541
-1.6882919073104858,3.4915473461151123,8.728744506835938,-0.4285596013069153,-0.5583056807518005,-0.025205470621585846
-1.3889068365097046,3.388558864593506,9.763419151306152,-0.36410602927207947,-0.7873554229736328,0.008352993056178093
-1.180534839630127,3.110729694366455,9.782580375671387,-0.33267825841903687,-0.42460447549819946,0.03392134979367256
-1.1374235153198242,3.093964099884033,10.031667709350586,-0.31669801473617554,-0.09168319404125214,0.06534911692142487
-1.180534839630127,3.1394705772399902,10.220878601074219,-0.1691473424434662,-0.0155108030885458,0.09464620053768158
-0.9649777412414551,3.2041378021240234,10.21369457244873,-0.02852136641740799,-0.09700993448495865,0.11275710165500641
-0.8595942258834839,3.201742649078369,10.13705062866211,0.03220347687602043,-0.05546135455369949,0.10796304047107697
-0.8404334783554077,3.1873719692230225,9.921494483947754,0.1142352744936943,0.11872304975986481,0.056293655186891556
-0.9745581150054932,3.1777915954589844,9.847247123718262,0.14619570970535278,0.18690535426139832,0.03658471629023552
-0.9817432165145874,3.1610262393951416,9.509540557861328,0.19733242690563202,0.290776789188385,0.04191146045923233
-0.9530023336410522,3.2496440410614014,9.179019927978516,0.2031918317079544,0.29024407267570496,0.02859460934996605
-1.1110775470733643,3.326286792755127,8.922744750976562,0.17496012151241302,0.1943627893924713,-0.017215359956026077
-1.216461181640625,3.316706418991089,8.898795127868652,0.1531204879283905,0.10647155344486237,-0.03585895150899887
-1.3481905460357666,3.292755603790283,9.119142532348633,0.1142352744936943,0.004730811342597008,-0.03213023394346237
-1.3457953929901123,3.352632522583008,9.193389892578125,0.10038575530052185,0.09262203425168991,-0.0017678141593933105
-1.333820104598999,3.398139238357544,8.939512252807617,0.03486684337258339,0.2316499799489975,0.005156949162483215
-1.30268394947052,3.4388554096221924,9.078425407409668,-0.005616382695734501,0.0835665613412857,-0.020411405712366104
-1.3697463274002075,3.407719373703003,9.214945793151855,-0.017335209995508194,-0.04267717897891998,-0.04917580634355545
-1.4487838745117188,3.345447540283203,9.382601737976074,-0.01573718711733818,-0.038948461413383484,-0.04384906217455864
-1.4631544351577759,3.326286792755127,9.476009368896484,-0.006681730039417744,-0.017641499638557434,-0.028401516377925873
-1.436808466911316,3.319101572036743,9.53588581085205,0.006635120138525963,0.010590223595499992,-0.01188862044364214
-1.3793264627456665,3.3670032024383545,9.557441711425781,0.046052999794483185,0.07557646185159683,0.012614384293556213
-1.4272282123565674,3.4101145267486572,9.6460599899292,0.08334018290042877,0.11872304975986481,0.008885666728019714
-1.4727346897125244,3.4220898151397705,9.567021369934082,0.13767294585704803,0.1059388816356659,0.013147059828042984
-1.4176479578018188,3.446040630340576,9.296378135681152,0.1717640608549118,0.08143587410449982,0.018473800271749496
-1.4320183992385864,3.5490293502807617,9.291587829589844,0.2069205641746521,0.08782796561717987,0.012614384293556213
-1.5350067615509033,3.5370538234710693,9.346674919128418,0.21757404506206512,0.13576863706111908,0.022202517837285995
-1.4871050119400024,3.6352522373199463,9.150278091430664,0.2330215722322464,0.16240234673023224,0.034454021602869034
-1.465549349784851,3.7094995975494385,9.090401649475098,0.22396612167358398,0.14056269824504852,0.020604494959115982
-1.4344134330749512,3.723870038986206,9.004179000854492,0.22130276262760162,0.10380817204713821,0.008885666728019714
-1.5158460140228271,3.7621910572052,8.8604736328125,0.20265917479991913,0.08516459167003632,0.0003628823906183243
-1.6379953622817993,3.7645864486694336,8.925140380859375,0.16910070180892944,0.0723804235458374,-0.00549653172492981
-1.6332050561904907,3.7717716693878174,9.018548965454102,0.14885908365249634,0.037223927676677704,0.0014282306656241417
-1.5924886465072632,3.81488299369812,9.032919883728027,0.14513036608695984,0.021243704482913017,0.005156949162483215
-1.518241286277771,3.8987109661102295,8.896400451660156,0.13927096128463745,0.04787740856409073,0.004624275490641594
-1.5493773221969604,3.9058961868286133,8.80299186706543,0.11263725906610489,0.04894275218248367,-0.009757923893630505
-1.6068590879440308,3.896315813064575,8.82454776763916,0.07588274776935577,0.00046941847540438175,-0.022009428590536118
-1.6092543601989746,3.9178714752197266,9.02333927154541,0.05723915994167328,-0.04747124761343002,-0.024672795087099075
-1.6020690202713013,3.92026686668396,9.109562873840332,0.05990252643823624,-0.04267717897891998,-0.024140123277902603
-1.568537950515747,3.9370322227478027,9.02333927154541,0.07108867913484573,-0.008053366094827652,-0.029999535530805588
-1.6284148693084717,3.9274518489837646,8.934720993041992,0.06363124400377274,0.028168469667434692,-0.03106488659977913
-1.6284148693084717,3.965772867202759,8.829337120056152,0.0476510226726532,0.008459530770778656,-0.025205470621585846
-1.626019835472107,3.994513988494873,8.915560722351074,0.02208266779780388,-0.030425675213336945,-0.025205470621585846
-1.7433786392211914,3.9609827995300293,9.169438362121582,0.019951971247792244,-0.051732636988162994,-0.01188862044364214
-1.702662467956543,3.975353479385376,9.145488739013672,0.05297776311635971,-0.05066729336977005,0.020604494959115982
-1.7361934185028076,3.9082911014556885,9.073636054992676,0.07215403020381927,-0.048003919422626495,0.039248090237379074
-1.7864902019500732,3.946612596511841,9.159858703613281,0.08067681640386581,-0.06984355300664902,0.06215306743979454
-1.8224164247512817,4.013674736022949,9.186203956604004,0.08973228186368942,-0.08475843071937561,0.08346003293991089
-1.815231204032898,4.037625789642334,9.219735145568848,0.12275806069374084,-0.09860794991254807,0.136727437376976
-1.55416738986969,4.04002046585083,9.147882461547852,0.16377395391464233,-0.13642780482769012,0.17667798697948456
-1.4607594013214111,4.121453762054443,9.025734901428223,0.1770908236503601,-0.14281989634037018,0.1830700784921646
-1.3553757667541504,4.1501946449279785,9.00178337097168,0.18241754174232483,-0.25787749886512756,0.14525023102760315
-1.094312071800232,4.011279582977295,9.157463073730469,0.20159383118152618,-0.4315292537212372,0.12713930010795593
0.09364764392375946,3.22808837890625,8.963461875915527,0.1904076635837555,-0.5721551775932312,0.056293655186891556
-0.14825543761253357,4.904644966125488,8.8604736328125,0.14992442727088928,-0.758058488368988,-0.21909882128238678
-0.8284581899642944,4.693877696990967,9.277217864990234,0.2756354808807373,-0.37666380405426025,-0.18287700414657593
-0.5985304117202759,3.939427137374878,9.186203956604004,0.3384910523891449,-0.1923585832118988,-0.23880775272846222
-1.0703612565994263,4.05678653717041,9.267638206481934,0.34648117423057556,-0.10180400311946869,-0.35493069887161255
-1.614044427871704,4.516641616821289,9.035314559936523,0.35819998383522034,0.12937654554843903,-0.31071874499320984
-1.7673295736312866,4.514246940612793,8.64012622833252,0.36565741896629333,0.3264659643173218,-0.19619382917881012
-1.820021152496338,4.5717291831970215,8.230567932128906,0.2862889766693115,0.2593490183353424,-0.08113624155521393
-1.7002671957015991,4.550172805786133,8.312000274658203,0.2031918317079544,0.19862417876720428,0.0008955569937825203
-1.563747763633728,4.562148571014404,8.486842155456543,0.16537198424339294,0.24976086616516113,0.0424441322684288
-1.2859184741973877,4.76333475112915,8.632941246032715,0.13607491552829742,0.41435715556144714,0.07919862866401672
-1.3769314289093018,4.720223426818848,8.52037239074707,0.1254214346408844,0.49905237555503845,0.0499015673995018
-1.626019835472107,4.725013732910156,8.347926139831543,0.11583329737186432,0.38506007194519043,0.027529258280992508
-1.599673867225647,4.777705669403076,8.127579689025879,0.0753500759601593,0.25082623958587646,0.03658471629023552
-1.55416738986969,4.708248138427734,8.201827049255371,0.04338962957262993,0.2092776596546173,0.03338867425918579
-1.5278215408325195,4.734594345092773,8.762275695800781,-0.012541146017611027,0.26201239228248596,0.021137170493602753
-1.4487838745117188,4.854348182678223,9.076031684875488,0.021549992263317108,0.3499036133289337,0.005689622834324837
-1.4248331785202026,4.8351874351501465,8.762275695800781,0.09346099197864532,0.2913094460964203,-0.03372825309634209
-1.7745147943496704,4.770520210266113,8.486842155456543,0.110506571829319,0.11233097314834595,-0.08486497402191162
-1.8008606433868408,4.794471263885498,8.204221725463867,0.1030491292476654,0.07024971395730972,-0.08752833306789398
-2.0068376064300537,4.806446075439453,8.187456130981445,0.0401935875415802,0.002067441353574395,-0.07261346280574799
-1.9086391925811768,4.770520210266113,8.316790580749512,-0.004551035352051258,-0.1295030415058136,-0.045979760587215424
-1.956540822982788,4.768125057220459,8.376667976379395,-0.03810949623584747,-0.05492868274450302,-0.025205470621585846
-1.956540822982788,4.7369890213012695,8.297630310058594,-0.07592936605215073,0.05320414900779724,0.009418342262506485
-1.7433786392211914,4.823211669921875,8.290444374084473,-0.11428189277648926,0.03562591224908829,0.02486588805913925
-1.6595510244369507,4.818421840667725,8.668867111206055,-0.13718686997890472,-0.0757029727101326,0.01154903694987297
-1.7002671957015991,4.787286281585693,8.884425163269043,-0.10522642731666565,-0.11032678186893463,-0.0028331615030765533
-1.8655277490615845,4.70585298538208,8.666472434997559,-0.01573718711733818,-0.06984355300664902,0.014212407171726227
-1.738588571548462,4.7106428146362305,8.55629825592041,-0.009345100261271,-0.10393469780683517,0.02806193381547928
-1.604464054107666,4.713038444519043,8.489236831665039,-0.023194625973701477,-0.10659807175397873,0.031257979571819305
-1.6356000900268555,4.748964309692383,8.53474235534668,-0.04183821380138397,-0.09328122437000275,0.01581043004989624
-1.6643409729003906,4.698668003082275,8.503606796264648,-0.04982832819223404,-0.06931088119745255,0.010483689606189728
-1.5517723560333252,4.717828750610352,8.676053047180176,-0.09190957248210907,-0.056526705622673035,0.008885666728019714
-1.6116493940353394,4.708248138427734,8.73353385925293,-0.08871353417634964,-0.003791974624618888,0.004091600887477398
-1.7793049812316895,4.629210472106934,8.585039138793945,-0.08338678628206253,-0.035219743847846985,0.01101636327803135
-1.8751081228256226,4.641185760498047,8.549113273620605,-0.09670364111661911,-0.059722743928432465,0.03338867425918579
-2.035578489303589,4.6914825439453125,8.41498851776123,-0.11747793853282928,-0.06238611787557602,0.06694713234901428
-2.2032339572906494,4.566938400268555,8.254518508911133,-0.2059018462896347,-0.06984355300664902,0.1351294219493866
-2.1313817501068115,4.439999580383301,8.347926139831543,-0.24585236608982086,-0.07144158333539963,0.15217499434947968
-1.9685161113739014,4.368146896362305,8.539533615112305,-0.2991198003292084,-0.0906178429722786,0.18040670454502106
-1.712242603302002,4.370542049407959,8.726348876953125,-0.3246881365776062,-0.19555461406707764,0.19106020033359528
-1.5661427974700928,4.478320598602295,8.254518508911133,-0.34386444091796875,-0.3159389793872833,0.21982458233833313
-0.8643842935562134,3.8891305923461914,8.091652870178223,-0.7156708836555481,-0.8656586408615112,0.730659008026123
-0.7182844877243042,4.238812446594238,8.666472434997559,-0.8935839533805847,-1.0696728229522705,0.6571499705314636
0.09843780100345612,3.630462169647217,9.088006973266602,-0.9015741348266602,-1.0137419700622559,0.7056233286857605
0.9941977262496948,3.4101145267486572,9.301168441772461,-0.8893225789070129,-0.8859001994132996,0.6640747785568237
1.2576565742492676,3.4675962924957275,9.413737297058105,-0.8882572650909424,-0.8044010996818542,0.5751182436943054
1.3845957517623901,3.472386598587036,9.95981502532959,-0.8307284712791443,-0.6248899698257446,0.3295554518699646
1.3654351234436035,3.3047311305999756,10.184952735900879,-0.6821123957633972,-0.3979707658290863,0.1260739415884018
1.2169400453567505,3.256829261779785,10.352608680725098,-0.529767632484436,-0.05812472850084305,-0.02254210039973259
0.2397475242614746,3.2759902477264404,10.64001750946045,-0.36304065585136414,0.2337806671857834,-0.13440366089344025
-0.4883567988872528,3.189767360687256,10.601696014404297,-0.17926813662052155,0.19010138511657715,-0.12534819543361664
-0.6608024835586548,3.0795934200286865,10.163397789001465,-0.03810949623584747,0.054269492626190186,-0.055035222321748734
-0.5218878984451294,2.9861855506896973,9.962210655212402,0.0439223051071167,0.06652099639177322,-0.00549653172492981
-0.442850261926651,3.1251003742218018,9.852036476135254,0.1014510989189148,0.06865169107913971,0.021137170493602753
-0.18178656697273254,3.1682116985321045,9.772998809814453,0.15205512940883636,0.07184774428606033,0.057891685515642166
0.08646240085363388,3.1801869869232178,9.401762008666992,0.1920056790113449,0.10167748481035233,0.06907783448696136
0.18945084512233734,3.2232983112335205,9.207759857177734,0.19253835082054138,0.14375875890254974,0.0648164451122284
0.27806878089904785,3.316706418991089,9.140698432922363,0.15471850335597992,0.18956872820854187,0.034454021602869034
0.10322795808315277,3.3047311305999756,9.322723388671875,0.13341154158115387,0.09901411831378937,-0.019878730177879333
-0.014130957424640656,3.3143112659454346,9.344279289245605,0.12968280911445618,0.03615857660770416,-0.041718367487192154
-0.1243046224117279,3.264014720916748,9.270031929016113,0.11743132770061493,0.04361601173877716,-0.05610056594014168
-0.09316858649253845,3.3047311305999756,9.193389892578125,0.09452633559703827,0.18264394998550415,-0.036924298852682114
-0.10753907263278961,3.3310768604278564,8.877239227294922,0.07108867913484573,0.1853073388338089,-0.05663324147462845
-0.2584291100502014,3.381373405456543,8.944300651550293,0.038062889128923416,0.16772907972335815,-0.12321749329566956
-0.4356650412082672,3.3837687969207764,9.296378135681152,-0.024792645126581192,0.02230905555188656,-0.14132840931415558
-0.7542107105255127,3.417299747467041,9.825691223144531,-0.05142635107040405,-0.18436844646930695,-0.08699566125869751
-0.27040454745292664,3.364607810974121,9.205365180969238,0.024746038019657135,0.050540775060653687,0.010483689606189728
-0.059637486934661865,3.4508309364318848,9.516725540161133,-0.008279752917587757,0.07184774428606033,0.006754972040653229
-0.059637486934661865,3.4316701889038086,9.629294395446777,0.033268824219703674,0.00526348315179348,-0.028934188187122345
-0.17220623791217804,3.3574225902557373,9.495169639587402,0.08120948821306229,0.0271031204611063,-0.05663324147462845
-0.4165043830871582,3.3574225902557373,9.13830280303955,0.06949065625667572,0.21780045330524445,-0.045979760587215424
-0.47638139128685,3.4101145267486572,8.965856552124023,0.03699754178524017,0.23431332409381866,-0.0353262796998024
-0.608110785484314,3.5442392826080322,9.071240425109863,-0.005616382695734501,0.11552700400352478,-0.0353262796998024
-0.5937403440475464,3.3693981170654297,9.270031929016113,-0.06261251121759415,-0.09008517116308212,-0.008692576549947262
-0.48356667160987854,3.3933489322662354,9.23650074005127,-0.059949129819869995,-0.11192480474710464,0.01101636327803135
-0.19376197457313538,3.4364607334136963,9.313143730163574,-0.0690045952796936,-0.0330890454351902,0.017408452928066254
-0.1338849514722824,3.417299747467041,9.538281440734863,-0.07592936605215073,0.04361601173877716,-0.006029206328094006
-0.2033422887325287,3.4220898151397705,9.679591178894043,-0.038642171770334244,0.07451111078262329,-0.03372825309634209
-0.5506289005279541,3.388558864593506,9.123932838439941,0.04552032798528671,0.2092776596546173,-0.06728672236204147
-0.65840744972229,3.407719373703003,9.286797523498535,-0.017867881804704666,0.1501508355140686,-0.05237184837460518
-0.6943336725234985,3.4316701889038086,9.555047035217285,-0.037576824426651,-0.039481133222579956,-0.019878730177879333
-0.3614175617694855,3.4292752742767334,9.231711387634277,0.02314801514148712,0.054269492626190186,0.03711739182472229
-0.15304560959339142,3.4388554096221924,9.499959945678711,-0.02425997331738472,0.026570448651909828,0.01101636327803135
-0.5745795965194702,3.400534152984619,9.358650207519531,0.04552032798528671,0.050008103251457214,-0.05982928350567818
-0.6488271951675415,3.4292752742767334,9.310749053955078,0.03859556466341019,0.021243704482913017,-0.037989649921655655
-0.6679877042770386,3.424484968185425,9.329909324645996,0.03167080134153366,0.008459530770778656,-0.019878730177879333
-0.5386534929275513,3.4196951389312744,9.27242660522461,0.02634406089782715,0.023907074704766273,0.0008955569937825203
-0.481171578168869,3.4675962924957275,9.260452270507812,0.014625230804085732,0.03882195055484772,-0.002300487831234932
-0.5362584590911865,3.4652016162872314,9.337095260620117,0.00983116403222084,0.029766492545604706,-0.012953968718647957
-0.6057157516479492,3.4652016162872314,9.375415802001953,0.01782127469778061,0.008992204442620277,-0.008692576549947262
-0.6033205986022949,3.4484360218048096,9.36344051361084,0.023680690675973892,0.0026001150254160166,-0.0007024649530649185
-0.5099124908447266,3.462806463241577,9.267638206481934,0.025811385363340378,0.006328834220767021,0.014212407171726227
-0.49314698576927185,3.441250801086426,9.2484769821167,0.012494534254074097,0.002067441353574395,0.006222296506166458
-0.5099124908447266,3.4580163955688477,9.246082305908203,-0.0018876641988754272,0.0026001150254160166,-0.0044311839155852795
-0.49554207921028137,3.4556210041046143,9.29398250579834,-0.006681730039417744,0.010590223595499992,-0.006029206328094006
-0.5027272701263428,3.4604110717773438,9.296378135681152,-0.010410447604954243,0.03083183616399765,-0.00549653172492981
-0.541048526763916,3.4388554096221924,9.337095260620117,-0.01360649336129427,0.024972425773739815,-0.010823272168636322
-0.5745795965194702,3.4652016162872314,9.356254577636719,-0.012541146017611027,0.0015347658190876245,-0.014019316993653774
-0.5673943758010864,3.4580163955688477,9.370626449584961,-0.010410447604954243,-0.018174173310399055,-0.013486643321812153
-0.5506289005279541,3.453226089477539,9.308353424072266,-0.00508370716124773,-0.009651388972997665,-0.011355946771800518
-0.5266780853271484,3.4508309364318848,9.37302017211914,-0.010410447604954243,0.00952487625181675,-0.010823272168636322
-0.43806013464927673,3.469991683959961,9.37781047821045,-0.012008474208414555,0.00952487625181675,-0.010823272168636322
-0.3470470905303955,3.462806463241577,9.061659812927246,0.012494534254074097,0.0835665613412857,-0.0278688445687294
-0.5123076438903809,3.5442392826080322,8.970647811889648,-0.0008223187178373337,0.12884387373924255,-0.07367880642414093
-0.730259895324707,3.472386598587036,9.586182594299316,-0.07912540435791016,-0.0330890454351902,-0.07474416494369507
-0.847618818283081,3.434065341949463,9.734678268432617,-0.03970751911401749,-0.12843769788742065,-0.03213023394346237
-0.7590007781982422,3.307126045227051,9.265242576599121,0.012494534254074097,-0.09541191160678864,0.02326786518096924
-0.5362584590911865,3.534658670425415,8.965856552124023,-0.004551035352051258,-0.060255423188209534,0.034454021602869034
-0.32309624552726746,3.522683620452881,9.461638450622559,-0.05728576332330704,-0.004324648529291153,0.017941124737262726
-0.29914548993110657,3.4388554096221924,9.73946762084961,-0.017335209995508194,-0.013380106538534164,-0.017748035490512848
-0.32549136877059937,3.4196951389312744,9.698752403259277,0.023680690675973892,-0.008053366094827652,-0.036924298852682114
-0.5290732383728027,3.4580163955688477,9.365835189819336,0.07268670201301575,0.03456055372953415,-0.06089462712407112
-0.5314682722091675,3.4388554096221924,9.167043685913086,0.06096787378191948,0.09954679757356644,-0.05663324147462845
-0.6296665668487549,3.4364607334136963,9.119142532348633,0.029007431119680405,0.10966759920120239,-0.06142730265855789
-0.6991238594055176,3.4771766662597656,9.11674690246582,-0.0008223187178373337,0.08463191241025925,-0.05343719571828842
-0.6967287063598633,3.462806463241577,9.29398250579834,-0.022129278630018234,0.03083183616399765,-0.04012034460902214
-0.5242830514907837,3.472386598587036,9.317934036254883,-0.010943126864731312,0.04787740856409073,-0.046512432396411896
-0.5913451910018921,3.522683620452881,9.543071746826172,-0.013073817826807499,0.051073454320430756,-0.05716591700911522
-0.7590007781982422,3.587350606918335,9.47840404510498,0.13394421339035034,0.2092776596546173,-0.037989649921655655
-0.797322154045105,3.570585012435913,9.61971378326416,0.17282940447330475,0.15707559883594513,-0.036924298852682114
-0.847618818283081,3.5945358276367188,9.449663162231445,0.2292928695678711,0.07770714908838272,-0.03639162704348564
-0.7542107105255127,3.678363561630249,8.958671569824219,0.2479364424943924,0.13789933919906616,-0.03372825309634209
-0.7877417802810669,3.671178102493286,9.104771614074707,0.19733242690563202,0.08942598104476929,-0.046512432396411896
-0.7829517126083374,3.759796380996704,9.10716724395752,0.18188488483428955,0.07078239321708679,-0.04917580634355545
-0.6967287063598633,3.7741668224334717,8.982623100280762,0.16910070180892944,0.13203993439674377,-0.05610056594014168
-0.7757663726806641,3.778956651687622,9.013758659362793,0.13927096128463745,0.23857475817203522,-0.08646298944950104
-0.7781615257263184,3.903501033782959,9.375415802001953,0.12329073995351791,0.30143025517463684,-0.1205541342496872
-0.9745581150054932,3.896315813064575,9.519121170043945,0.1627086102962494,0.30143025517463684,-0.14399178326129913
-1.1062874794006348,3.9082911014556885,9.246082305908203,0.24367506802082062,0.4186185598373413,-0.1466551572084427
-1.6188346147537231,3.8460192680358887,9.574207305908203,0.253795862197876,0.5006503462791443,-0.15624329447746277
-1.7745147943496704,3.8460192680358887,9.442477226257324,0.3406217694282532,0.5789534449577332,-0.04864313080906868
-1.3817216157913208,4.097502708435059,8.951486587524414,0.403477281332016,0.6727040410041809,0.05469563230872154
-1.3146593570709229,4.272343635559082,8.33595085144043,0.10358180105686188,0.21034300327301025,0.20704041421413422
-1.1302382946014404,4.320245265960693,8.47726058959961,0.0364648662507534,0.13044190406799316,0.15590369701385498
-1.2236462831497192,4.260368347167969,8.549113273620605,0.002906401641666889,-0.07783366739749908,0.09944024682044983
-1.2859184741973877,4.274738788604736,8.587434768676758,-0.03917485103011131,-0.08901982009410858,0.07014317810535431
-1.1709545850753784,4.274738788604736,8.66168212890625,-0.09350759536027908,0.08196854591369629,0.03179065138101578
-1.436808466911316,4.2699480056762695,8.826942443847656,-0.11854329705238342,0.06385762244462967,-0.054502543061971664
-1.7242181301116943,4.1597747802734375,8.98022747039795,-0.11215119808912277,-0.025098934769630432,-0.06355800479650497
-1.6475754976272583,4.2699480056762695,8.551508903503418,-0.06261251121759415,0.007394183427095413,-0.006561879999935627
-1.2691528797149658,4.234022617340088,9.047289848327637,-0.1766047477722168,-0.12417630851268768,-0.04917580634355545
-1.599673867225647,4.133429050445557,9.23650074005127,-0.13665421307086945,0.0446813628077507,-0.09711647033691406
-1.8511574268341064,4.068761348724365,9.152673721313477,-0.10575909912586212,0.1224517896771431,-0.10084518790245056
-2.0571343898773193,4.068761348724365,8.894004821777344,-0.0801907479763031,0.12724585831165314,-0.05077382177114487
-1.8128360509872437,4.121453762054443,9.052080154418945,-0.09350759536027908,0.014318941161036491,0.009418342262506485
-1.563747763633728,4.097502708435059,9.202970504760742,-0.06687389314174652,0.007394183427095413,0.01101636327803135
-1.542191982269287,4.0615763664245605,8.985017776489258,-0.030652061104774475,0.11020027101039886,-0.016682688146829605
-1.7769098281860352,4.087922096252441,8.685632705688477,-0.03704415261745453,0.14375875890254974,-0.02254210039973259
-1.956540822982788,3.9633781909942627,8.783831596374512,-0.08232145011425018,0.09315469861030579,0.004624275490641594
-1.8535524606704712,3.896315813064575,9.23650074005127,-0.1116185113787651,0.19063407182693481,0.07227388024330139
-1.4607594013214111,4.176540374755859,9.329909324645996,-0.10788979381322861,0.47295132279396057,0.11808384954929352
-1.810441017150879,4.262763023376465,9.226921081542969,-0.0008223187178373337,0.5933356285095215,0.017408452928066254
-2.495434045791626,3.913081407546997,8.941905975341797,0.06363124400377274,0.2886461019515991,-0.025738146156072617
-2.2918522357940674,4.001699447631836,9.449663162231445,0.07481739670038223,0.1703924536705017,0.09145013988018036
-1.9182195663452148,4.102292537689209,9.547861099243164,0.15951256453990936,0.2742638885974884,0.10956105589866638
-2.0212080478668213,4.245997905731201,9.119142532348633,0.27297213673591614,0.21353906393051147,0.10423432290554047
-2.0762946605682373,4.212466716766357,8.429359436035156,0.2942790985107422,-0.09221586585044861,0.08399270474910736
-2.0212080478668213,4.245997905731201,8.474865913391113,0.2532632052898407,-0.17105160653591156,0.08452537655830383
-2.009232521057129,4.274738788604736,8.70958423614502,0.194136381149292,-0.03575241565704346,0.07600259780883789
-2.2032339572906494,4.212466716766357,8.508397102355957,0.18028685450553894,0.19596080482006073,0.06215306743979454
-1.9661211967468262,4.2699480056762695,8.517977714538574,0.13873827457427979,0.2636103928089142,0.0648164451122284
-1.8942687511444092,4.404073238372803,8.537137985229492,0.12968280911445618,0.2018202245235443,0.053630281239748
-1.9541456699371338,4.435208797454834,8.568273544311523,0.11636597663164139,0.015916967764496803,0.022735193371772766
-1.9014540910720825,4.380122184753418,8.865263938903809,0.12382341176271439,0.08463191241025925,0.025931235402822495
-1.8751081228256226,4.526222229003906,8.61378002166748,0.18614627420902252,0.25508761405944824,0.05895702913403511
-1.982886791229248,4.504666328430176,8.551508903503418,0.1477937400341034,0.26254504919052124,0.01581043004989624
-2.33496356010437,4.554962635040283,8.443729400634766,0.11316993087530136,0.24123810231685638,0.008885666728019714
-2.236765146255493,4.392097473144531,8.951486587524414,0.1142352744936943,0.27532923221588135,0.0573590062558651
-2.4211864471435547,4.351381301879883,8.867659568786621,0.1627086102962494,0.1980915069580078,0.03285599872469902
-2.3924453258514404,4.559752941131592,8.431754112243652,0.2181067019701004,0.06385762244462967,0.034986697137355804
-2.3277781009674072,4.581308841705322,8.403013229370117,0.1717640608549118,0.12511515617370605,0.029659956693649292
-2.4307665824890137,4.753754138946533,8.323975563049316,0.050314392894506454,0.03509323298931122,0.025398563593626022
-2.5265696048736572,4.655556678771973,8.438939094543457,0.04072625935077667,0.037223927676677704,0.01900647208094597
-2.2679011821746826,4.7465691566467285,8.211406707763672,0.03539952263236046,0.058530889451503754,0.03605204448103905
-1.8942687511444092,4.806446075439453,8.218592643737793,-0.0002896413207054138,-0.034687068313360214,0.009418342262506485
-2.3014321327209473,4.7465691566467285,8.429359436035156,-0.025857996195554733,-0.10073865950107574,-0.059296607971191406
-2.4307665824890137,4.6914825439453125,8.400618553161621,-0.025857996195554733,-0.10926143825054169,-0.05130649730563164
-2.1768882274627686,4.799261093139648,8.501212120056152,-0.050893671810626984,-0.05333065986633301,-0.0353262796998024
-2.236765146255493,4.76333475112915,8.67126178741455,-0.0338481068611145,-0.04267717897891998,-0.04970847815275192
-2.414000988006592,4.744174480438232,8.664076805114746,-0.012008474208414555,-0.04534054920077324,-0.054502543061971664
-2.6702747344970703,4.708248138427734,8.654497146606445,0.014625230804085732,-0.0192395206540823,-0.0315975584089756
-2.459507703781128,4.777705669403076,8.75508975982666,0.03859556466341019,0.03402788192033768,0.014745082706212997
-2.270296573638916,4.823211669921875,8.743114471435547,0.05617380514740944,0.06598833203315735,0.020604494959115982
-2.047553777694702,4.830397605895996,8.220987319946289,0.07801344245672226,0.06811901926994324,0.012081712484359741
-2.3205931186676025,4.772915363311768,8.029380798339844,0.03433417156338692,-0.1257743239402771,-0.011355946771800518
-2.143357038497925,4.739384174346924,8.798201560974121,-0.014671840704977512,-0.12311096489429474,-0.016150012612342834
-2.227185010910034,4.739384174346924,8.884425163269043,0.050847068428993225,0.13789933919906616,-0.054502543061971664
-2.2679011821746826,4.847163200378418,7.921603202819824,0.08866692334413528,0.07078239321708679,-0.06888473778963089
-3.0582776069641113,4.514246940612793,8.060517311096191,0.014625230804085732,-0.2925013303756714,-0.09392042458057404
-2.9888203144073486,4.617234706878662,7.907232284545898,-0.002420339733362198,-0.4943847954273224,-0.026803497225046158
-0.7949270009994507,3.7741668224334717,8.61378002166748,-0.04663228243589401,-0.73089200258255,-0.02254210039973259
-1.3002889156341553,5.474673748016357,8.49881649017334,-0.023194625973701477,-0.6035829186439514,-0.27929097414016724
-1.9086391925811768,4.851953029632568,9.600553512573242,-0.061547160148620605,-0.3463013768196106,-0.23507903516292572
-1.6284148693084717,4.799261093139648,9.823295593261719,0.14672839641571045,-0.1369604766368866,-0.1093679666519165
-1.7146376371383667,5.5010199546813965,8.585039138793945,0.36139604449272156,-0.22059029340744019,-0.7299332022666931
-3.352872371673584,5.06272029876709,8.47726058959961,0.36192870140075684,0.2833193242549896,-0.6068854928016663
-3.2762300968170166,4.8447675704956055,8.117999076843262,0.366190105676651,0.3557630181312561,-0.344809889793396
-3.415144681930542,4.89985466003418,7.485698223114014,0.2996058464050293,0.2055489420890808,-0.21909882128238678
-3.5851950645446777,4.885483741760254,7.605452537536621,0.15045711398124695,0.22685591876506805,-0.07154811173677444
-3.089413642883301,4.8711137771606445,7.9886651039123535,0.050314392894506454,0.11765770614147186,0.11222442984580994
-2.5744714736938477,4.873508930206299,8.022195816040039,0.033801496028900146,0.07557646185159683,0.1463155895471573
-2.0403685569763184,5.022003173828125,7.780292987823486,0.003439076244831085,0.1059388816356659,0.09837490320205688
-1.9661211967468262,4.981287002563477,6.815075874328613,-0.08605016022920609,0.21833311021327972,0.025931235402822495
-2.3660993576049805,5.0339789390563965,7.744366645812988,-0.2671593427658081,0.07504378259181976,0.0008955569937825203
-2.205629348754883,5.01481819152832,8.134764671325684,-0.30710989236831665,-0.15240801870822906,0.006222296506166458
-2.073899745941162,4.947756290435791,8.872447967529297,-0.2671593427658081,-0.2461586445569992,-0.009757923893630505
