accX,accY,accZ,gyroX,gyroY,gyroZ
-2.2102885246276855,4.187678813934326,8.940706253051758,-0.5470036268234253,-0.7928158044815063,-0.13927727937698364
-1.9264991283416748,4.0130839347839355,9.454472541809082,-0.4017398953437805,-0.646295428276062,-0.12749630212783813
-1.778719425201416,4.226388454437256,9.074617385864258,-0.25134485960006714,-0.530091404914856,-0.16969835758209229
-1.7758846282958984,4.315969944000244,8.829527854919434,-0.2028072625398636,-0.5503023266792297,-0.21069614589214325
-1.7269279956817627,4.150798797607422,8.296063423156738,-0.16540485620498657,-0.6333974599838257,-0.2695835530757904
-1.797987937927246,3.68367075920105,8.131877899169922,-0.1814967840909958,-0.7620282173156738,-0.2145707756280899
-1.8428553342819214,3.8032562732696533,8.530436515808105,-0.17409659922122955,-0.8015947937965393,-0.11384782940149307
-1.5910810232162476,3.981490135192871,8.620485305786133,-0.18044959008693695,-0.8045269846916199,-0.10648253560066223
-1.4475438594818115,4.028914451599121,8.447376251220703,-0.25356143712997437,-0.7831117510795593,-0.14124949276447296
-1.4215811491012573,3.729179620742798,8.273077011108398,-0.3865031599998474,-0.8062199354171753,-0.13720032572746277
-1.3706517219543457,3.6054186820983887,8.360207557678223,-0.5383816957473755,-0.8484569191932678,-0.020577432587742805
-1.259168028831482,3.672858476638794,8.434925079345703,-0.6374815106391907,-0.9172927141189575,0.06075491011142731
-0.8979883790016174,3.76289963722229,9.107122421264648,-0.7274183034896851,-1.001242995262146,0.08965755999088287
-0.6046795845031738,3.4809775352478027,9.758316040039062,-0.7613649964332581,-0.9325119853019714,0.050736721605062485
-0.8973180055618286,3.0330607891082764,9.952839851379395,-0.7421314716339111,-0.6464524865150452,0.14915584027767181
-0.853638231754303,2.5860249996185303,9.510486602783203,-0.7382568120956421,-0.3776543438434601,0.36742672324180603
-1.3831877708435059,2.7100160121917725,9.318299293518066,-0.679631233215332,-0.2871764600276947,0.6690370440483093
-1.3930518627166748,2.871394634246826,9.192902565002441,-0.5337914824485779,-0.42504003643989563,0.9913644790649414
0.10409988462924957,2.7653985023498535,9.288305282592773,0.0012217304902151227,-1.1631921529769897,1.4558663368225098
0.7193426489830017,3.7387278079986572,9.88948917388916,0.6907315254211426,0.8191877603530884,-1.0854202508926392
-1.1504234075546265,4.297467231750488,9.05260181427002,0.5907241106033325,0.9808750152587891,-1.0126575231552124
-2.2012288570404053,4.414256572723389,8.504837036132812,0.5018170475959778,0.8558570742607117,-0.6539574265480042
-1.4171854257583618,3.887742757797241,7.779440879821777,0.050300389528274536,0.5148372054100037,0.3280520737171173
-1.2985478639602661,4.073753356933594,8.426852226257324,-0.030019663274288177,0.4852887988090515,0.39994218945503235
-1.0224007368087769,4.511020660400391,9.012847900390625,-0.02949606440961361,0.605925977230072,0.38006290793418884
-1.0581700801849365,4.583976745605469,8.94491958618164,-0.013683381490409374,0.820147693157196,0.28438395261764526
-1.453874111175537,4.13326358795166,8.77753734588623,0.046355944126844406,0.8862083554267883,0.23251275718212128
-1.654374122619629,3.9799866676330566,9.253273010253906,0.1828756034374237,0.9476613998413086,0.30195942521095276
-1.8017516136169434,4.1195878982543945,9.125872611999512,0.3350508511066437,1.149735689163208,0.3776718080043793
-1.8433915376663208,4.584713935852051,8.339829444885254,0.34002503752708435,1.2708091735839844,0.3655592203140259
-2.059272050857544,4.919960021972656,7.719528675079346,0.18104299902915955,1.216930866241455,0.29368653893470764
-2.3866262435913086,4.973953723907471,7.487367630004883,0.012775810435414314,1.0256601572036743,0.2560746967792511
-2.413517951965332,4.9549055099487305,7.913142681121826,-0.0015009831404313445,0.7511897087097168,0.2209586799144745
-2.4331791400909424,4.93536901473999,7.794476509094238,0.09007643908262253,0.4910483956336975,0.13901548087596893
-2.720090627670288,5.116983413696289,6.939009189605713,0.11627383530139923,0.21074850857257843,0.07988371700048447
-2.2129030227661133,4.464391231536865,8.539034843444824,-0.09894271194934845,-0.6905918717384338,-0.09478883445262909
-2.264234781265259,4.3358988761901855,8.52511978149414,-0.10334094613790512,-0.4709770977497101,-0.08260643482208252
-1.3964036703109741,4.5059638023376465,9.039031982421875,-0.05510004609823227,-0.20607101917266846,-0.045954518020153046
-1.4916354417800903,4.538448333740234,8.56617546081543,-0.02609267272055149,-0.14676474034786224,-0.0529881976544857
-1.591550350189209,4.567878246307373,8.199153900146484,-0.03406882658600807,-0.24228660762310028,-0.07501424849033356
-1.51349937915802,4.60050630569458,8.393716812133789,-0.04876450076699257,-0.3819129467010498,-0.11067132651805878
-1.3533560037612915,4.554049015045166,8.763392448425293,-0.0279427208006382,-0.3425208628177643,-0.14063863456249237
-0.27190467715263367,4.031921863555908,9.43155574798584,0.01595230959355831,-0.20313887298107147,0.017121680080890656
-0.057192686945199966,4.020812511444092,9.579679489135742,0.09697049111127853,0.17294467985630035,-0.047507863491773605
-0.12359826266765594,4.034947872161865,9.647665977478027,0.15700982511043549,0.6767688393592834,-0.12524482607841492
-1.5872024297714233,4.0234270095825195,9.4739990234375,-0.12037535756826401,1.8636800050735474,0.24410174787044525
-3.4645822048187256,4.425404071807861,8.29541015625,0.2899864614009857,1.0824880599975586,0.1391027420759201
-3.7143356800079346,4.562917232513428,7.613187789916992,0.3176673650741577,1.0618233680725098,0.11369074881076813
-3.88264799118042,4.802443027496338,6.63751220703125,0.20945696532726288,0.857637345790863,0.06244787946343422
-4.6064629554748535,4.496971607208252,5.974289417266846,0.12112584710121155,-0.2946988344192505,0.031154127791523933
-4.1905517578125,4.678126335144043,8.256509780883789,0.029338983818888664,-0.3338291347026825,0.12053243815898895
-3.971501588821411,4.834477424621582,8.292250633239746,0.005951572675257921,-0.1221032366156578,0.021066123619675636
-4.297917366027832,4.097177982330322,6.950023651123047,-0.06754424422979355,-0.27380725741386414,0.0039618974551558495
-4.227958679199219,4.037830352783203,6.989507675170898,-0.11508700996637344,-0.40256020426750183,0.05682792142033577
-3.6383819580078125,4.477252960205078,7.718254566192627,-0.1422617882490158,-0.44228389859199524,0.11417943984270096
-3.378218412399292,4.821941375732422,8.1181058883667,-0.1307949721813202,-0.31668999791145325,0.011222466826438904
-3.796370506286621,3.8109943866729736,8.592808723449707,0.033056534826755524,0.37192967534065247,0.2699151635169983
-3.5465211868286133,4.5740647315979,7.8158040046691895,0.06529276818037033,0.5755572319030762,0.33341023325920105
-3.4368093013763428,5.075180530548096,6.839362621307373,-0.0011868239380419254,0.5578595995903015,0.22530455887317657
-3.6481025218963623,4.8209547996521,7.224206447601318,-0.08009316027164459,0.4320911467075348,0.11091567575931549
-3.9367473125457764,4.332125663757324,8.09131908416748,-0.00930260494351387,0.41170570254325867,0.14133676886558533
-3.9411239624023438,4.580873966217041,7.158883094787598,0.19090411067008972,0.20715312659740448,0.16509069502353668
-4.108909606933594,4.967652320861816,6.828914165496826,0.18095573782920837,-0.32267647981643677,0.12908455729484558
-3.639301300048828,4.833586692810059,7.887744903564453,0.053441982716321945,-0.2402271181344986,0.11623892933130264
-3.730424642562866,5.007587432861328,7.111295700073242,-0.02382374368607998,-0.33080971240997314,0.012060225009918213
-3.9544548988342285,4.5527753829956055,6.229549884796143,-0.17233380675315857,-0.9696525931358337,0.009267698042094707
-3.563960552215576,4.567314147949219,8.097372055053711,-0.15831881761550903,-0.9848194718360901,0.01802925020456314
-2.9160513877868652,4.908754825592041,8.518311500549316,-0.06621779501438141,-0.8010188341140747,-0.0630936548113823
-3.009089946746826,5.158604145050049,7.479313373565674,-0.0809483677148819,-0.9023177623748779,-0.24471262097358704
-3.283149480819702,4.433046340942383,8.02766227722168,-0.06747443228960037,-1.0722429752349854,-0.28119000792503357
-3.3419127464294434,3.697432518005371,8.542683601379395,0.047944195568561554,-1.1416547298431396,-0.13468705117702484
-2.95599627494812,4.216610431671143,8.32817268371582,0.09019861370325089,-0.9981886744499207,-0.004642575979232788
-2.3705086708068848,4.712631702423096,8.630952835083008,-0.04052654653787613,-0.7780677676200867,-0.005986479111015797
-2.143164873123169,4.791314601898193,8.634095191955566,-0.13205161690711975,-0.5654866695404053,-0.032271139323711395
-2.0309534072875977,4.840941429138184,7.980362415313721,-0.3183306157588959,-0.2928487956523895,-0.1221206858754158
-2.1970534324645996,4.8787031173706055,7.746065616607666,-0.4227885603904724,-0.3744603991508484,-0.2002067118883133
-1.801042914390564,4.288168430328369,7.697118759155273,-0.36707764863967896,-0.6417575478553772,-0.2292490005493164
-2.5326056480407715,4.182995796203613,8.308425903320312,-0.23802800476551056,-1.0676352977752686,-0.2589195966720581
-2.4837350845336914,4.347055912017822,8.777900695800781,-0.024417156353592873,-1.2182397842407227,-0.12835150957107544
-1.894215703010559,4.1712260246276855,9.480156898498535,0.06647959351539612,-1.0061124563217163,-0.09283406287431717
-1.6231058835983276,3.9835588932037354,9.052400588989258,0.054332099854946136,-0.5713509917259216,-0.039671335369348526
-1.722752571105957,4.057510852813721,8.28262710571289,-0.05174901336431503,-0.32815679907798767,0.0031241392716765404
-1.82571280002594,4.350139617919922,8.037948608398438,-0.11988666653633118,-0.4051956236362457,0.033737216144800186
-1.1616953611373901,4.247275352478027,8.806495666503906,0.11576768755912781,-0.3156777024269104,-0.08171631395816803
-1.2483175992965698,4.210854530334473,8.65377426147461,0.06262241303920746,-0.18303267657756805,-0.059463366866111755
-1.2964314222335815,4.181243419647217,8.616531372070312,-0.0028623400721699,-0.058276545256376266,-0.022113321349024773
-1.2770575284957886,4.3635663986206055,8.501293182373047,-0.04401720315217972,0.011309733614325523,0.0026703537441790104
-1.2510181665420532,4.404105186462402,8.343467712402344,-0.055658549070358276,-0.04649557173252106,-0.01310742273926735
-1.205786943435669,4.29987096786499,8.524535179138184,-0.023596851155161858,-0.1264665573835373,-0.02068215236067772
-1.1305803060531616,4.331915378570557,8.751276016235352,0.009442231617867947,-0.12805481255054474,-0.040631264448165894
-1.1866333484649658,4.248951435089111,8.566550254821777,0.007155850064009428,-0.07070329040288925,-0.06239552050828934
-1.2567163705825806,4.23797607421875,8.366336822509766,-0.03223622962832451,-0.054768431931734085,-0.04684463515877724
-1.1079024076461792,4.268928527832031,8.50716495513916,-0.048956483602523804,-0.05248204991221428,-0.03548254445195198
-1.117440938949585,4.334864616394043,8.66582202911377,-0.04120722413063049,-0.06435029208660126,-0.051487211138010025
-1.088509440422058,4.289863586425781,8.796037673950195,-0.01953023485839367,-0.06244787946343422,-0.06016149744391441
-1.1074906587600708,4.250790119171143,8.842897415161133,0.011676252819597721,-0.029356438666582108,-0.06698573380708694
-1.2057294845581055,4.2525811195373535,8.634563446044922,0.020629791542887688,-0.023108160123229027,-0.0751887857913971
-1.279576301574707,4.252992630004883,8.550987243652344,0.004136430099606514,-0.02972295694053173,-0.07389724254608154
-1.1962484121322632,4.290926456451416,8.644628524780273,-0.012601276859641075,-0.03827507048845291,-0.06724753230810165
-1.1808489561080933,4.268679618835449,8.715766906738281,-0.002687806962057948,-0.022357666864991188,-0.07162830978631973
-1.245377540588379,4.261908531188965,8.656571388244629,0.00045378561480902135,-0.017872171476483345,-0.08621926605701447
-1.3453305959701538,4.186845779418945,8.576728820800781,0.0057246801443398,-0.030892327427864075,-0.08164650201797485
-1.3623582124710083,4.146173000335693,8.476737976074219,0.003036872949451208,-0.05373868718743324,-0.06778858602046967
-1.311840534210205,4.111198425292969,8.422514915466309,-0.0270700566470623,-0.07232644408941269,-0.04743804782629013
-1.113964557647705,4.185638904571533,8.835044860839844,-0.12781046330928802,0.026773350313305855,-0.04899139329791069
-1.169854760169983,4.1682281494140625,8.855252265930176,-0.1460316926240921,0.08279842138290405,-0.05394812673330307
-1.1036503314971924,4.1371612548828125,8.945330619812012,-0.14479251205921173,0.12681561708450317,-0.058835048228502274
-1.177075743675232,4.071751594543457,8.886712074279785,-0.11958996206521988,0.18182839453220367,-0.07131415605545044
-1.3014880418777466,4.042369842529297,8.708486557006836,-0.08419468253850937,0.15339699387550354,-0.07520623505115509
-1.294745922088623,4.043940544128418,8.810040473937988,-0.04757767543196678,0.07377506792545319,-0.07159340381622314
-1.182074785232544,3.991450071334839,9.1104154586792,0.010733774863183498,0.10976375639438629,-0.07855726778507233
-1.187361240386963,3.9348511695861816,9.001126289367676,0.035325463861227036,0.25649359822273254,-0.0826587900519371
-1.334824800491333,3.9533822536468506,8.648200988769531,0.0007853981805965304,0.36398839950561523,-0.07609635591506958
-1.5699259042739868,3.8476927280426025,8.88895320892334,-0.07347836345434189,0.27344071865081787,-0.07637561112642288
-1.5590083599090576,3.5305376052856445,9.720162391662598,-0.013142329640686512,0.524645984172821,-0.0067544239573180676
-1.5854977369308472,3.5612120628356934,9.503046035766602,0.04354596510529518,0.8538848757743835,0.06161012127995491
-1.6059250831604004,3.8576812744140625,8.897562026977539,0.04951499029994011,1.0341424942016602,0.07471754401922226
-1.80490243434906,4.18856954574585,8.324514389038086,0.0035604715812951326,1.0688570737838745,0.0223227608948946
-2.098402738571167,4.024710178375244,8.64112377166748,-0.05948081985116005,1.0655409097671509,-0.01745329238474369
-2.4445180892944336,3.6895124912261963,9.368252754211426,-0.054332099854946136,1.3009859323501587,0.033126350492239
-2.6257879734039307,3.897693157196045,8.68832778930664,0.018709929659962654,1.4404726028442383,0.02834414690732956
-2.9996089935302734,4.49216365814209,7.180325508117676,0.09154251962900162,1.0474942922592163,-0.02045525796711445
-3.2853522300720215,4.440813064575195,7.3267645835876465,0.0956440418958664,0.5521697998046875,-0.11890928447246552
-3.1756882667541504,3.809845209121704,9.049823760986328,0.04743804782629013,0.21404717862606049,0.21692697703838348
-3.1145689487457275,3.8843910694122314,8.971485137939453,0.1301666498184204,0.5510178804397583,0.2557780146598816
-3.23354172706604,4.158297061920166,9.090256690979004,0.21849776804447174,0.8398175239562988,0.3190985321998596
-3.2337522506713867,4.328936576843262,8.87503719329834,0.2955191433429718,1.0945483446121216,0.3370230793952942
-3.773730993270874,4.531160831451416,9.0329008102417,0.34229397773742676,1.6460723876953125,0.3202155530452728
-3.661931276321411,4.274674415588379,7.8066582679748535,0.3237934708595276,1.72209894657135,0.3519631028175354
-3.9541866779327393,4.7293524742126465,7.543008804321289,0.3608991801738739,1.7260782718658447,0.33306118845939636
-3.915371894836426,4.858879089355469,7.417619705200195,0.36255723237991333,1.797217845916748,0.28220227360725403
-4.075898170471191,5.037534236907959,6.94563627243042,0.33337533473968506,1.8494032621383667,0.19284142553806305
-5.769700050354004,5.188694477081299,4.920534610748291,-0.0409105159342289,-0.27028167247772217,-0.13727015256881714
-5.629305362701416,4.790270805358887,6.717306137084961,-0.011536626145243645,-0.4905073344707489,-0.017016960307955742
-5.344231605529785,5.003957748413086,6.536745071411133,0.022113321349024773,-0.6119648218154907,-0.03242821618914604
-5.352496147155762,4.94734001159668,5.4983415603637695,-0.03764675185084343,-1.031768798828125,-0.11651817709207535
-5.034948348999023,5.1695027351379395,6.07612943649292,-0.16788321733474731,-1.4470350742340088,-0.21120229363441467
-4.637903690338135,5.046000003814697,7.092199802398682,-0.26338765025138855,-1.4925183057785034,-0.29246482253074646
-4.3697052001953125,5.017154693603516,6.855681419372559,-0.3148224949836731,-1.5050148963928223,-0.3988775312900543
-4.063668727874756,4.7460832595825195,5.9332051277160645,-0.3646341860294342,-1.8417761325836182,-0.4369082748889923
-3.5637786388397217,4.697844982147217,7.862433433532715,-0.39177405834198,-2.1882240772247314,-0.45987680554389954
-2.9446094036102295,3.9609575271606445,9.303033828735352,-0.3088185489177704,-1.8460521697998047,-0.464833527803421
-3.296250581741333,3.5493175983428955,9.182548522949219,-0.1488940417766571,-1.6124922037124634,-0.3062005639076233
-3.650726556777954,3.8934409618377686,9.0455904006958,-0.11960741132497787,-1.3521589040756226,-0.15488052368164062
-3.6315250396728516,4.212425231933594,9.194414138793945,-0.16950637102127075,-0.9663364291191101,0.010821041651070118
-2.595984935760498,4.084958076477051,9.379582405090332,-0.034749504178762436,-0.27953192591667175,0.05544910952448845
-2.422146797180176,4.11923360824585,9.091378211975098,0.07703883200883865,-0.08948303014039993,0.045692719519138336
-2.4325664043426514,4.085657119750977,8.434915542602539,0.14587461948394775,-0.06373942643404007,0.05869542434811592
-1.94391930103302,4.357006549835205,8.372543334960938,-0.02413790300488472,-0.3972718417644501,0.0763406977057457
-1.775051474571228,4.353204250335693,8.599627494812012,-0.06777113676071167,-0.3407406210899353,0.07735299319028854
-1.677205204963684,4.290284633636475,8.358627319335938,-0.15659093856811523,-0.25047218799591064,0.08354891091585159
-1.542861819267273,4.309697151184082,8.769309997558594,-0.11962486803531647,-0.32220524549484253,0.07997098565101624
-1.3899681568145752,4.3248186111450195,9.081198692321777,-0.06408849358558655,-0.21928316354751587,0.061453044414520264
-1.3479546308517456,4.2499470710754395,8.971945762634277,-0.03508111834526062,-0.14243632555007935,0.058800142258405685
-1.4076756238937378,4.206506729125977,8.59179401397705,0.006126105785369873,-0.057159531861543655,0.0656767413020134
-1.4472852945327759,4.3499674797058105,8.309279441833496,0.0010122909443452954,-0.10953686386346817,0.052377332001924515
-1.21193528175354,4.181157112121582,8.901172637939453,-0.056269414722919464,0.001518436474725604,0.02188642881810665
-1.2744622230529785,4.1826701164245605,8.734957695007324,-0.01661553420126438,0.09040805697441101,0.02502802200615406
-1.304839849472046,4.319647312164307,8.492942810058594,0.047019168734550476,0.07456046342849731,0.014521139673888683
-1.3492571115493774,4.413365840911865,8.282769203186035,0.09096655994653702,-0.05143485218286514,-0.02595304511487484
-1.3333404064178467,4.396003246307373,8.321365356445312,0.10040879249572754,-0.17746508121490479,-0.07342600077390671
-1.2366529703140259,4.378659725189209,8.662757873535156,0.10930997133255005,-0.22430971264839172,-0.12117820978164673
-1.2758796215057373,4.217788219451904,8.75174617767334,0.14266321063041687,-0.1909739226102829,-0.13348278403282166
-1.3844135999679565,4.115355014801025,8.504386901855469,0.17667968571186066,-0.16891296207904816,-0.10278243571519852
-1.366725206375122,4.2663140296936035,8.331411361694336,0.17303194105625153,-0.21251128613948822,-0.08012806624174118
-1.2897756099700928,4.361804485321045,8.430960655212402,0.11878710985183716,-0.23375195264816284,-0.06862634420394897
-1.133223533630371,4.470855236053467,8.455381393432617,0.008587019518017769,-0.14943508803844452,-0.03394665569067001
-1.0017530918121338,4.5300211906433105,8.500248908996582,-0.04742059484124184,-0.08829620480537415,-0.05679301545023918
-1.101620078086853,4.454134464263916,8.484169006347656,-0.07023204863071442,-0.04743804782629013,-0.08494517207145691
-1.2347759008407593,4.274952411651611,8.540069580078125,-0.04902629926800728,-0.06775368005037308,-0.0705811157822609
-1.2294129133224487,4.28584098815918,8.64658260345459,-0.013247049413621426,-0.08799950033426285,-0.03307398781180382
-1.1576251983642578,4.403846740722656,8.680694580078125,0.017523106187582016,-0.1117534339427948,-0.02860594540834427
-1.0607366561889648,4.336061954498291,8.832975387573242,0.04689699783921242,-0.11538371443748474,-0.04543092101812363
-1.115171194076538,4.244699001312256,8.93703842163086,0.06288421154022217,-0.055292028933763504,-0.03680899366736412
-1.2210332155227661,4.205012798309326,8.87864875793457,0.055431656539440155,0.022113321349024773,-0.0035604715812951326
-1.272422432899475,4.2471604347229,8.794918060302734,0.041346848011016846,0.04769985005259514,0.043964844197034836
-1.235752820968628,4.325594425201416,8.75646686553955,0.04656538367271423,0.04211479425430298,0.08058185130357742
-1.113543152809143,4.430853366851807,8.718963623046875,0.06829473376274109,0.0590444877743721,0.08176867663860321
-1.0614548921585083,4.521200656890869,8.608438491821289,0.07305948436260223,0.05656611919403076,0.05302310362458229
-1.1135048866271973,4.52443790435791,8.601198196411133,0.0642455667257309,0.04668755829334259,0.034697145223617554
-1.1390844583511353,4.518528938293457,8.605019569396973,0.06373942643404007,0.0469493567943573,0.03672172874212265
-1.0607845783233643,4.572101593017578,8.54405403137207,0.06777113676071167,0.07347836345434189,0.035814154893159866
-1.0607749223709106,4.600602149963379,8.502462387084961,0.06637486815452576,0.08686503767967224,0.01891936920583248
-1.106188178062439,4.581141948699951,8.34114933013916,0.05970771238207817,0.08573057502508163,0.00031415926059708
-1.080618143081665,4.576257705688477,8.587159156799316,0.08306021988391876,0.03508111834526062,0.01624901592731476
-1.1428865194320679,4.5885162353515625,8.431756019592285,0.08126252889633179,0.07126179337501526,-0.0008552113431505859
-1.268323540687561,4.515377998352051,8.249480247497559,0.058887407183647156,0.04583234712481499,0.009861109778285027
-1.3080193996429443,4.549394607543945,8.294883728027344,0.02727949619293213,-0.00013962633966002613,0.023753931745886803
-1.2784844636917114,4.635193347930908,8.369976043701172,0.05461135134100914,0.01104793418198824,0.02502802200615406
-1.256658911705017,4.630366802215576,8.376363754272461,0.0377340167760849,0.00830776710063219,0.033335790038108826
-1.204896330833435,4.638316631317139,8.473404884338379,0.03707079216837883,0.008848818950355053,0.0374373123049736
-1.1342098712921143,4.67850923538208,8.448036193847656,0.042411502450704575,0.03363249450922012,0.03626793995499611
-1.1328308582305908,4.729965686798096,8.377761840820312,0.04242895543575287,0.04899139329791069,0.028152160346508026
-1.1440452337265015,4.758533000946045,8.319075584411621,0.027803095057606697,0.055920347571372986,0.011746065691113472
-1.2398229837417603,4.711108684539795,8.30696964263916,0.006213372107595205,0.03956661373376846,0.0030717793852090836
-1.3000131845474243,4.696140289306641,8.380989074707031,0.0033684854861348867,0.025167647749185562,0.00830776710063219
-1.2277944087982178,4.7408447265625,8.373184204101562,0.03782128542661667,0.02843141369521618,-0.003298672381788492
-1.2693482637405396,4.683412551879883,8.275376319885254,0.03410373255610466,0.017872171476483345,-0.012688543647527695
-1.2693195343017578,4.643927574157715,8.243025779724121,0.028623400256037712,0.008953538723289967,-0.009878563694655895
-1.272460699081421,4.653609752655029,8.253646850585938,0.00815068744122982,-0.00930260494351387,0.0021118484437465668
-1.2574059963226318,4.682857036590576,8.305092811584473,-0.00013962633966002613,-0.0119555052369833,0.005846852902323008
-1.235637903213501,4.71457576751709,8.434198379516602,-0.009424777701497078,-0.0003490658418741077,0.005550147034227848
-1.2731214761734009,4.656310081481934,8.39785385131836,0.024120450019836426,-0.02298598550260067,0.00593411922454834
-1.2245957851409912,4.769211292266846,8.327971458435059,0.030613074079155922,-0.017784904688596725,0.01310742273926735
-1.1847180128097534,4.842253684997559,8.285680770874023,0.007871435023844242,-0.028675759211182594,0.0008726646192371845
-1.1622220277786255,4.831038951873779,8.308645248413086,-0.005078908056020737,-0.031171580776572227,-0.007679448463022709
-1.1975988149642944,4.738000392913818,8.358445167541504,-0.028797931969165802,-0.02604031190276146,-0.023352505639195442
-1.2576836347579956,4.695115566253662,8.430482864379883,-0.03113667294383049,-0.021188296377658844,-0.018797196447849274
-1.2385300397872925,4.689216136932373,8.440461158752441,-0.011501720175147057,-0.017872171476483345,-0.009407324716448784
-1.2157946825027466,4.711827278137207,8.408656120300293,0.01731366664171219,-0.020612338557839394,-0.012095131911337376
-1.2331862449645996,4.732484340667725,8.30119514465332,0.03698352724313736,-0.029880037531256676,-0.014590952545404434
-1.2187539339065552,4.76371431350708,8.23830509185791,0.04115486517548561,-0.06005677953362465,-0.020001472905278206
-1.1568782329559326,4.725790023803711,8.265953063964844,0.04398229718208313,-0.09693558514118195,-0.03441789373755455
-1.138634443283081,4.716787815093994,8.343725204467773,0.05019566789269447,-0.040596358478069305,-0.01855284906923771
-1.1371978521347046,4.757565975189209,8.32413101196289,0.032882001250982285,-0.031869713217020035,-0.010192723013460636
-1.1503851413726807,4.761195659637451,8.429476737976074,0.018186330795288086,-0.02042035199701786,-0.005515240598469973
-1.1446199417114258,4.753265857696533,8.467247009277344,0.02560397982597351,0.02373647689819336,0.0038746309000998735
-1.0656591653823853,4.740605354309082,8.522210121154785,0.04893903061747551,0.06361725181341171,0.001029744278639555
-0.9205130338668823,4.804760456085205,8.667384147644043,0.09318313002586365,0.1655968427658081,-0.02045525796711445
-1.1170674562454224,4.808648586273193,8.423932075500488,0.14355333149433136,0.2928836941719055,-0.03300417587161064
-1.375200629234314,4.6379804611206055,8.168546676635742,0.19348719716072083,0.2842792272567749,-0.00031415926059708
-1.4987989664077759,4.383716106414795,8.83437442779541,0.29822441935539246,0.3121521472930908,0.08450884371995926
-1.6236709356307983,4.216217517852783,9.01899528503418,0.4812570810317993,0.5316970944404602,0.24593433737754822
-1.4349886178970337,5.130591869354248,8.304231643676758,0.5730788707733154,0.634392261505127,0.2894802987575531
-1.349937081336975,5.675866603851318,7.30461311340332,0.42523202300071716,0.4407130777835846,0.14135421812534332
-1.5999970436096191,5.428411483764648,7.184788227081299,0.19666369259357452,0.3003711700439453,0.037454765290021896
-1.8989466428756714,4.993596076965332,7.830418109893799,0.06141813471913338,0.21706660091876984,0.09327039122581482
-1.748092770576477,4.66262149810791,9.119820594787598,0.13498376309871674,0.366362065076828,0.25349161028862
-1.484184741973877,4.761846542358398,9.2087984085083,0.32248449325561523,0.6452482342720032,0.3505668342113495
-1.6938785314559937,5.37920618057251,8.036128044128418,0.4046894907951355,0.7614697217941284,0.30309388041496277
-2.1640326976776123,5.620943546295166,7.113891124725342,0.3164805471897125,0.547823965549469,0.23980823159217834
-2.153143882751465,5.643546104431152,7.378306865692139,0.18668042123317719,0.2942974269390106,0.2018996924161911
-2.013418197631836,5.521737575531006,7.882104396820068,0.12248720973730087,0.2387435883283615,0.163066104054451
-1.9963810443878174,5.338054656982422,8.115941047668457,0.12313298135995865,0.2799158990383148,0.1748121827840805
-1.5911097526550293,5.424293518066406,8.746077537536621,0.1886351853609085,0.4515690505504608,0.20923006534576416
-1.662150502204895,5.7291998863220215,8.13416576385498,0.2511877715587616,0.6511648893356323,0.16020376980304718
-2.0965640544891357,5.999170303344727,7.316526889801025,0.19493582844734192,0.6043900847434998,0.09032078832387924
-2.1177000999450684,5.864500999450684,7.583614349365234,0.13350023329257965,0.5204572081565857,0.047682393342256546
-2.2941813468933105,5.61008358001709,7.812999248504639,0.14816099405288696,0.5787686109542847,0.051801372319459915
-2.7078897953033447,5.64210844039917,6.4652252197265625,0.13264502584934235,0.510473906993866,0.06890559941530228
-3.103689670562744,5.889027118682861,5.807930946350098,0.09286896884441376,0.24783675372600555,0.12548917531967163
-2.301938533782959,5.929058074951172,7.270174980163574,0.031084313988685608,-0.06506587564945221,0.10072295367717743
-2.464926242828369,5.8359527587890625,6.603610038757324,-0.045029494911432266,-0.23537510633468628,-0.09142034500837326
-2.8535914421081543,5.552287578582764,6.517514705657959,-0.14594443142414093,-0.5132315158843994,-0.05810201168060303
-2.47212815284729,5.655985355377197,7.30087947845459,-0.1915498822927475,-0.653329074382782,-0.0011519172694534063
-2.1217989921569824,5.671116828918457,7.572744846343994,-0.20889845490455627,-0.6338337659835815,-0.00823795422911644
-2.0874948501586914,5.611855506896973,7.309775352478027,-0.19799014925956726,-0.6474124193191528,-0.007906341925263405
-1.7507359981536865,5.661827087402344,7.8395256996154785,-0.12166690081357956,-0.801280677318573,-0.032759830355644226
-1.537326455116272,5.609375,8.469106674194336,-0.05506513640284538,-0.758781909942627,-0.06066764518618584
-1.2721542119979858,5.26976203918457,8.75549030303955,0.0625002384185791,-0.4207639694213867,-0.07398450374603271
-1.4685553312301636,5.187545299530029,8.634803771972656,0.07848745584487915,-0.006230825558304787,0.003054326167330146
-1.6321942806243896,5.219886302947998,8.576422691345215,0.03162536770105362,0.37339574098587036,0.12084659934043884
-1.7280868291854858,5.145962715148926,8.673982620239258,0.04581489413976669,0.6974161267280579,0.2413964867591858
-1.7404600381851196,5.5208563804626465,8.264659881591797,0.10409143567085266,0.869976818561554,0.3078411817550659
-1.6441078186035156,5.8819499015808105,7.75420618057251,0.14568263292312622,0.8334121704101562,0.2560397982597351
-2.5139307975769043,5.728088855743408,7.42634391784668,0.1656317412853241,1.0846173763275146,0.15645131468772888
-2.832991600036621,5.883893966674805,7.185410976409912,0.149208202958107,1.1706446409225464,0.16673129796981812
-2.6597952842712402,5.843010902404785,6.423384189605713,0.0791855901479721,1.0437592267990112,0.13948671519756317
-2.8422908782958984,6.07059383392334,6.510313034057617,0.018727382645010948,0.769463300704956,0.06716027110815048
-3.1989214420318604,6.289079189300537,4.3461079597473145,-0.026808258146047592,0.4070107936859131,0.02364921197295189
-2.2999658584594727,5.846085071563721,7.2627434730529785,-0.13201670348644257,-0.4896171987056732,-0.19956094026565552
-2.366706609725952,5.6842942237854,7.224579811096191,-0.21607175469398499,-0.5672494769096375,-0.2756747603416443
-2.4726643562316895,5.280430793762207,8.184731483459473,-0.19406315684318542,-0.5804616212844849,-0.2174505740404129
-2.1779861450195312,5.182096004486084,8.115760803222656,-0.14423400163650513,-0.3055722415447235,-0.11531390249729156
-2.1265299320220947,5.07188606262207,8.155244827270508,-0.0982096791267395,-0.3170565068721771,-0.10403907299041748
-2.0924460887908936,5.102254390716553,8.184061050415039,-0.05845107510685921,-0.33342769742012024,-0.09557422995567322
-1.947472333908081,5.069089889526367,8.286925315856934,-0.07398450374603271,-0.2514670491218567,-0.09290387481451035
-1.9226492643356323,5.024327754974365,8.306720733642578,-0.1241452693939209,-0.09253735840320587,-0.08450884371995926
-1.9680145978927612,5.069913387298584,8.162187576293945,-0.14940018951892853,-0.016510814428329468,-0.07138396799564362
-2.003793478012085,5.039832592010498,8.042611122131348,-0.1351059377193451,-0.07452555745840073,-0.07098253816366196
-1.9388915300369263,4.759337425231934,8.254412651062012,-0.1160818487405777,-0.11908381432294846,-0.11171852797269821
-1.999110460281372,4.6735005378723145,8.22310733795166,-0.08384561538696289,-0.12121311575174332,-0.08578293025493622
-1.9208009243011475,4.703696250915527,8.18247127532959,0.03228859230875969,-0.18313740193843842,-0.06997025012969971
-1.780031442642212,4.737339496612549,8.176562309265137,0.02125811018049717,-0.1976061761379242,-0.06461209058761597
-1.6587315797805786,4.622666835784912,8.434438705444336,0.014835298992693424,-0.15922638773918152,-0.050649452954530716
-1.6875768899917603,4.564334869384766,8.61328411102295,0.018832102417945862,0.004747295752167702,-0.01014036312699318
-2.2044084072113037,5.210223197937012,7.512180805206299,0.02258456125855446,0.6759136319160461,0.15966272354125977
-2.165545701980591,5.453263282775879,7.324303150177002,-0.002775073517113924,0.23090705275535583,0.047944195568561554
-2.1710236072540283,5.0785136222839355,7.695155620574951,0.03755948692560196,-0.14699162542819977,-0.04824090003967285
-2.201765298843384,4.9441986083984375,8.146041870117188,0.1247212290763855,-0.32445672154426575,-0.07408922910690308
-2.1406843662261963,4.8505473136901855,7.973639488220215,0.17992599308490753,-0.38585740327835083,-0.0844041258096695
-1.9090118408203125,4.576353549957275,8.639055252075195,0.11782717704772949,-0.11040952801704407,0.014695672318339348
-1.7629081010818481,4.652096748352051,8.732553482055664,0.0858178362250328,0.07965682446956635,0.0293738916516304
-1.9200060367584229,4.6662702560424805,8.272799491882324,0.0024434609804302454,0.36742672324180603,0.05412266030907631
-2.2257838249206543,4.830962657928467,7.811216831207275,-0.06244787946343422,0.3597297966480255,0.09834930300712585
-2.0698447227478027,5.018974304199219,8.03345775604248,-0.05052728205919266,0.20783381164073944,0.09210102260112762
-1.9427701234817505,4.962749004364014,8.637934684753418,0.038292523473501205,0.18729127943515778,0.05115560069680214
-2.0829267501831055,4.763340473175049,8.374563217163086,0.11170107126235962,0.22942352294921875,0.04588470607995987
-2.083577871322632,4.931385040283203,7.844237804412842,-0.06841690838336945,-0.09018116444349289,0.024748768657445908
-2.106083393096924,4.92473840713501,7.961275577545166,-0.04591961205005646,-0.12917181849479675,0.022532200440764427
-2.03749418258667,5.058124542236328,7.595643043518066,-0.020525071769952774,-0.2509608864784241,0.00015707963029854
-1.9666929244995117,5.059062957763672,7.776577472686768,-0.045989423990249634,-0.3637964427471161,-0.03747221827507019
-1.9215383529663086,4.9167609214782715,8.170060157775879,-0.06230825558304787,-0.3617369532585144,-0.0492531917989254
-1.8423572778701782,4.8080549240112305,8.255791664123535,-0.0645248219370842,-0.296671062707901,-0.03644247353076935
-1.7751471996307373,4.90331506729126,8.406204223632812,-0.07117452472448349,-0.2030690610408783,-0.04012512043118477
-1.6895498037338257,4.7761640548706055,8.587111473083496,-0.07138396799564362,-0.06890559941530228,-0.046617742627859116
-1.6784119606018066,4.708934783935547,8.668763160705566,-0.04202752932906151,0.11091567575931549,-0.03033382259309292
-1.7917438745498657,4.659518718719482,8.680675506591797,-0.03661700710654259,0.31691688299179077,-0.011152653954923153
-1.8347245454788208,4.738823890686035,8.35534381866455,-0.04120722413063049,0.4095938801765442,0.007435102481395006
-1.967746376991272,4.964951515197754,7.631594181060791,-0.11676252633333206,0.42465606331825256,-0.024818582460284233
-2.5937247276306152,5.186511039733887,7.056823253631592,-0.16402603685855865,0.016859879717230797,-0.06557202339172363
-2.1235132217407227,4.731124401092529,9.197392463684082,-0.06606071442365646,-0.15645131468772888,-0.04482005536556244
-2.1949753761291504,4.710725784301758,8.884594917297363,0.21214477717876434,-0.20395918190479279,-0.031119219958782196
-2.338521957397461,4.456442356109619,7.784937858581543,0.33649948239326477,-0.37370988726615906,0.02591813914477825
-2.20743465423584,4.788517951965332,8.12126636505127,0.28441885113716125,-0.47254788875579834,0.07391469180583954
-1.9446088075637817,4.864098072052002,8.5606689453125,0.13878858089447021,-0.22619466483592987,0.073722705245018
-1.8416295051574707,4.787541389465332,8.651361465454102,0.0207345113158226,0.04574507847428322,0.11042698472738266
-1.9175256490707397,4.807633399963379,8.4079008102417,0.032445669174194336,0.1878148764371872,0.15721926093101501
-1.8391011953353882,4.957261562347412,8.06086540222168,0.13987068831920624,0.09834930300712585,0.15386822819709778
-1.8433245420455933,5.112884521484375,7.767488956451416,0.20758946239948273,-0.05372123420238495,0.129643052816391
-1.7126299142837524,5.228515148162842,7.679468631744385,0.18476055562496185,-0.09489355236291885,0.09972811490297318
-1.5803933143615723,5.313518524169922,7.646572113037109,0.07356562465429306,-0.0394618958234787,0.053791046142578125
-1.5493069887161255,5.259218215942383,7.718838691711426,-0.03691371530294418,0.03349286690354347,0.014852751977741718
-1.583907961845398,5.208441734313965,7.80260705947876,-0.06448991596698761,0.05372123420238495,0.0036128314677625895
-1.6457358598709106,5.104045391082764,8.033917427062988,-0.06215117499232292,0.06532767415046692,-0.0032463124953210354
-1.724610447883606,5.052646636962891,8.168806076049805,-0.0031066860537976027,0.06672393530607224,0.004694935865700245
-1.7470872402191162,5.076837539672852,8.128678321838379,0.02600540593266487,0.05319763720035553,0.005462880712002516
-1.7905659675598145,5.102972507476807,8.040207862854004,0.04878195375204086,0.024836035445332527,-0.0010995573829859495
-1.822581171989441,5.095224857330322,7.948030948638916,0.040369465947151184,0.01507964450865984,-0.007592182140797377
-1.8902604579925537,5.092936038970947,7.918927192687988,0.027454029768705368,-0.03364994749426842,-0.012810716405510902
-1.9108409881591797,5.0625104904174805,8.042506217956543,0.018273597583174706,-0.07810348272323608,-0.02085668407380581
-1.9323409795761108,5.02037239074707,8.263596534729004,0.01120501384139061,-0.08681267499923706,-0.012322024442255497
-1.8409208059310913,5.0343546867370605,8.305466651916504,0.011850785464048386,-0.043703045696020126,-0.00376991112716496
-1.8619227409362793,5.061581611633301,8.130976676940918,0.013700834475457668,-0.037978366017341614,-0.01120501384139061
-1.8740086555480957,5.0518035888671875,8.065691947937012,0.013072515837848186,-0.07099999487400055,-0.016702800989151
-1.8831161260604858,4.995453834533691,8.144289016723633,0.018395770341157913,-0.07679449021816254,-0.011815878562629223
-1.8904615640640259,5.001774311065674,8.136866569519043,0.02488839440047741,-0.05824163556098938,0.006248278543353081
-1.7561277151107788,5.147274971008301,7.8582963943481445,-0.005044001620262861,-0.03906046971678734,0.007173303049057722
-1.6463391780853271,5.169339656829834,7.938118934631348,-0.017208946868777275,-0.04387757554650307,-0.009128072299063206
-1.7222929000854492,5.065383434295654,8.21015739440918,-0.02644173800945282,0.007435102481395006,-0.03207915276288986
-1.7373284101486206,5.02776575088501,8.240134239196777,-0.03171263262629509,0.024085544049739838,-0.02710496261715889
-1.7573822736740112,5.020908832550049,8.155531883239746,0.015795229002833366,-0.009529497474431992,-0.011850785464048386
-1.760772466659546,5.043184757232666,8.112588882446289,0.04340633749961853,-0.03822271153330803,-0.01202531810849905
-1.6939167976379395,5.090379238128662,8.07988452911377,0.04105014353990555,-0.030141836032271385,-0.018971728160977364
-1.6893965005874634,5.086079120635986,8.067368507385254,0.023457225412130356,-0.009337511844933033,-0.02480112947523594
-1.7352981567382812,5.054925918579102,8.075373649597168,-0.013718287460505962,0.039653878659009933,-0.027663469314575195
-1.8263543844223022,4.992006301879883,8.099777221679688,-0.02897246554493904,0.05579817667603493,-0.02033308520913124
-1.8714420795440674,4.917603969573975,8.169524192810059,0.0005235987482592463,0.03865904361009598,-0.00376991112716496
-1.7974708080291748,5.044276237487793,8.072548866271973,-0.008779006078839302,0.15020303428173065,0.03497639670968056
-1.8942826986312866,4.9261369705200195,8.150620460510254,-0.005654866807162762,0.1705012172460556,0.06731735169887543
-1.8466764688491821,5.011446952819824,8.147247314453125,0.043249256908893585,0.14041173458099365,0.10330604016780853
-1.6620930433273315,5.2660369873046875,8.128573417663574,0.08482300490140915,0.11948523670434952,0.08766788989305496
-1.6597563028335571,5.400983810424805,8.047333717346191,0.10100220143795013,0.09742427617311478,0.0286583062261343
-1.8481416702270508,5.366114616394043,7.945024013519287,0.09213592857122421,0.04984660446643829,-0.018727382645010948
-1.9167977571487427,5.238034248352051,7.9725189208984375,0.08576548099517822,-0.001518436474725604,-0.031293753534555435
-1.9185311794281006,5.158747673034668,7.942687034606934,0.07443828880786896,-0.027715828269720078,-0.03307398781180382
-2.0011982917785645,5.139623165130615,7.953815460205078,0.05976007506251335,-0.03502875939011574,-0.022427480667829514
-1.9833853244781494,5.103470325469971,8.070395469665527,0.05921902135014534,-0.03651228919625282,-0.0015882495790719986
-1.9556604623794556,5.047120571136475,8.14632797241211,0.0700051560997963,-0.011938052251935005,0.005846852902323008
-1.9325612783432007,5.012500286102295,8.163386344909668,0.08196066319942474,0.041521381586790085,0.025132741779088974
-1.8743246793746948,4.992676258087158,8.290470123291016,0.08983209729194641,0.16381660103797913,0.05297074094414711
-1.8954510688781738,5.069453716278076,8.025287628173828,0.08171631395816803,0.3047519326210022,0.07630579173564911
-1.9411420822143555,5.203787803649902,7.95297384262085,0.0521329827606678,0.3320837914943695,0.07822565734386444
-1.907019853591919,5.199487686157227,8.297478675842285,0.05124286562204361,0.4395786225795746,0.06312856078147888
-2.1017067432403564,5.024731159210205,8.298035621643066,0.06867870688438416,0.5636017322540283,0.09738937020301819
-2.02314829826355,5.289978981018066,8.183889389038086,0.10250318795442581,0.7671071290969849,0.2114291787147522
-2.0013418197631836,5.289834976196289,8.64258861541748,0.11929325759410858,0.9987123012542725,0.19394098222255707
-2.37838077545166,5.071378707885742,8.544330596923828,0.10875146836042404,1.368093729019165,0.239668607711792
-2.770732879638672,5.264590740203857,7.66129207611084,0.07552039623260498,1.5113154649734497,0.29359927773475647
-3.1884636878967285,5.898383617401123,5.674066066741943,0.06684610992670059,1.163820505142212,0.23378685116767883
-3.5690267086029053,5.9895453453063965,4.9466118812561035,0.019547687843441963,0.025813419371843338,0.14938272535800934
-3.0767693519592285,5.838127613067627,7.954179286956787,0.12424998730421066,-0.24956463277339935,0.08536405116319656
-2.8260388374328613,6.199765682220459,7.324178695678711,0.25389304757118225,-0.31613147258758545,-0.09171704947948456
-3.3088631629943848,5.561873912811279,5.31400728225708,0.06187192350625992,-0.60030597448349,-0.23739968240261078
-3.3262834548950195,5.359362602233887,5.1882829666137695,-0.0967959612607956,-0.776654064655304,-0.21809634566307068
-2.9071927070617676,5.384204864501953,6.107531547546387,-0.41720351576805115,-0.9801070690155029,-0.1388758420944214
-2.4595632553100586,5.513798236846924,7.737149715423584,-0.5161287784576416,-0.9740682244300842,-0.1638689637184143
-2.1516401767730713,4.86965274810791,8.803997993469238,0.013212142512202263,-0.46622979640960693,-0.1745852828025818
-2.31002140045166,4.937264919281006,8.208118438720703,0.06592108309268951,-0.27408650517463684,-0.055606190115213394
-2.1900241374969482,5.179539203643799,7.884881496429443,-0.026738444343209267,-0.143431156873703,0.02609267272055149
-2.026538372039795,5.366947650909424,8.250906944274902,-0.10442304611206055,-0.006265731994062662,0.033021628856658936
-2.068800926208496,5.24082088470459,8.463339805603027,-0.04831071197986603,0.07812093943357468,0.00010471975838299841
-2.2485287189483643,5.099735736846924,8.320924758911133,0.055344391614198685,0.10468484461307526,0.01127482671290636
-2.7094221115112305,5.684945583343506,7.384407043457031,0.0033684854861348867,1.288716197013855,0.24548055231571198
-3.12184739112854,6.257781982421875,4.593850612640381,0.049637164920568466,0.8458563685417175,0.13756684958934784
-3.455608606338501,6.2008957862854,4.993681907653809,0.069725900888443,0.33688345551490784,0.0676838681101799
-3.0176899433135986,5.756828784942627,7.10720682144165,0.06187192350625992,-0.23174481093883514,0.030770154669880867
-2.848965883255005,5.899848937988281,7.691267490386963,0.17064084112644196,-0.27293458580970764,-0.08299040794372559
-2.968034267425537,5.843163967132568,7.080085277557373,0.19034560024738312,-0.28995153307914734,-0.14243632555007935
-2.2414228916168213,5.1992387771606445,8.245246887207031,-0.06300638616085052,-0.3009645640850067,-0.08546877652406693
-2.238118886947632,5.2470173835754395,8.05949592590332,-0.0844041258096695,-0.1860520988702774,-0.043598324060440063
-2.19467830657959,5.2772321701049805,8.117674827575684,-0.08370599150657654,-0.14395475387573242,-0.029600784182548523
-2.1760993003845215,5.207484245300293,8.164620399475098,-0.047595128417015076,-0.11531390249729156,-0.008970992639660835
-2.20131516456604,5.294594764709473,8.025727272033691,0.01160643994808197,-0.13690362870693207,-0.0002617993741296232
-2.1602020263671875,5.350954532623291,7.953997611999512,0.05803219601511955,-0.18512707948684692,-0.00954695139080286
-2.1165125370025635,5.256479263305664,7.937593460083008,0.061505403369665146,-0.15629422664642334,-0.025324726477265358
-2.1260223388671875,5.226235866546631,7.8461527824401855,0.019722219556570053,-0.08532914519309998,-0.012147491797804832
-2.116914749145508,5.265442848205566,7.825294494628906,-0.02860594540834427,-0.04988151043653488,-0.0021642083302140236
-2.090214729309082,5.297132968902588,7.829652309417725,-0.049008846282958984,-0.043423790484666824,0.00094247778179124
-2.0234546661376953,5.347554683685303,8.006449699401855,-0.025935592129826546,-0.047542769461870193,-0.01607448235154152
-2.04782772064209,5.282097339630127,7.969042778015137,0.006579891312867403,-0.038693949580192566,-0.03883357718586922
-2.0553836822509766,5.298397064208984,7.861178874969482,0.018360864371061325,-0.03324852138757706,-0.04401720315217972
-1.9495121240615845,5.363576412200928,8.03055477142334,0.004904375411570072,0.002286381321027875,-0.056932639330625534
-1.916539192199707,5.304104804992676,8.005663871765137,-0.011658798903226852,0.09714502841234207,-0.07237880676984787
-2.136451482772827,5.287728309631348,7.763859272003174,-0.02719222940504551,0.08791223168373108,-0.06829473376274109
-2.1403205394744873,5.3187665939331055,7.837821006774902,-0.029304077848792076,0.015044738538563251,-0.06037093698978424
-2.1279664039611816,5.287967681884766,8.00504207611084,-0.01754055917263031,-0.0013788101496174932,-0.06199409440159798
-2.142207145690918,5.221926212310791,7.977479934692383,-1.7453292457503267e-05,0.02652900479733944,-0.05811946466565132
-2.2530107498168945,5.217290878295898,7.854676246643066,0.010437068529427052,0.013840461149811745,-0.04663519561290741
-2.2708523273468018,5.211889743804932,7.835494041442871,0.014364060014486313,-0.009529497474431992,-0.03537782281637192
-2.255855083465576,5.199028015136719,7.809885501861572,0.02237512171268463,-0.034697145223617554,-0.029251718893647194
-2.277259111404419,5.23624324798584,7.787552356719971,0.017331119626760483,-0.044313911348581314,-0.0322536826133728
-2.2854857444763184,5.244450569152832,7.795711994171143,0.006003932561725378,-0.05019566789269447,-0.037227872759103775
-2.2622523307800293,5.265988826751709,7.839008808135986,0.0021642083302140236,-0.0362853966653347,-0.05532693862915039
-2.125476360321045,5.421640872955322,8.026043891906738,-0.009407324716448784,0.008761553093791008,-0.112922802567482
-2.0594444274902344,5.188368797302246,7.866292953491211,-0.034121185541152954,0.09388125687837601,-0.16378170251846313
-2.312904119491577,5.209188938140869,7.50486421585083,-0.07628834247589111,0.03984586521983147,-0.14009757339954376
-2.1916425228118896,5.440832614898682,7.7170000076293945,-0.10297442227602005,-0.05544910952448845,-0.15048228204250336
-2.0160422325134277,5.468969345092773,8.127969741821289,-0.090425506234169,-0.08227481693029404,-0.2191784530878067
-2.3419601917266846,4.887772083282471,8.034184455871582,-0.23335051536560059,-0.2532298266887665,-0.21156881749629974
-2.3283610343933105,4.884659767150879,8.067779541015625,-0.11918853223323822,-0.2624277174472809,-0.21094049513339996
-2.3808324337005615,4.754941940307617,7.971264362335205,-0.04499458894133568,-0.32646384835243225,-0.17933258414268494
-2.244305372238159,4.751474857330322,8.059064865112305,0.06398376822471619,-0.34088024497032166,0.00890117883682251
-2.071214199066162,4.831077575683594,8.078448295593262,0.025883233174681664,-0.29244735836982727,0.02019345946609974
-1.925206184387207,4.896917819976807,8.175702095031738,-0.01687733456492424,-0.246562659740448,0.017348572611808777
-1.882215976715088,4.783576488494873,8.615888595581055,-0.03090978041291237,-0.011746065691113472,0.013665927574038506
-1.9525384902954102,4.782743453979492,8.4950590133667,-0.019338248297572136,0.11936306953430176,0.04265584796667099
-1.8659065961837769,4.654308795928955,8.848050117492676,-0.023980824276804924,0.37693876028060913,0.1201135590672493
-1.8462837934494019,4.566623687744141,9.28127670288086,0.018151424825191498,0.6518281102180481,0.19228293001651764
-1.8243815898895264,4.68717622756958,9.512690544128418,0.06873106211423874,1.0685080289840698,0.28038713335990906
-1.6783640384674072,4.985743045806885,9.24931812286377,0.07897614687681198,1.534825086593628,0.3033382296562195
-1.8549987077713013,5.292717933654785,8.244826316833496,0.011030481196939945,1.9006634950637817,0.22359412908554077
-3.6641149520874023,5.454556465148926,6.19553279876709,0.05911429971456528,-0.2370331585407257,-0.13088223338127136
-3.3818767070770264,5.338772773742676,7.450602054595947,0.2851344347000122,-0.5790653228759766,-0.1517912894487381
-3.371227502822876,5.237766265869141,7.313395023345947,0.3499908745288849,-0.7209082245826721,-0.20552997291088104
-3.548139810562134,4.781009674072266,6.850088596343994,0.33546972274780273,-0.9989392161369324,-0.23289673030376434
-3.5012900829315186,4.799895286560059,6.802884578704834,0.14791665971279144,-1.087078332901001,-0.14088298380374908
-3.047090768814087,4.995894432067871,7.527886867523193,-0.09049531817436218,-0.9490576982498169,-0.09855873882770538
-2.323850393295288,4.599376201629639,8.800769805908203,-0.18095573782920837,-0.6355093121528625,-0.16809265315532684
-2.3339922428131104,4.438648700714111,8.732871055603027,-0.07939502596855164,-0.39420005679130554,-0.08656833320856094
-2.396069049835205,4.578355312347412,8.201290130615234,-0.0038746309000998735,-0.28469809889793396,-0.018168877810239792
-1.753503680229187,5.1284565925598145,8.000225067138672,-0.019373154267668724,0.002809980185702443,0.0021642083302140236
-1.819344162940979,5.064406871795654,7.8970441818237305,-0.11273081600666046,-0.013823007233440876,-0.0013089969288557768
-1.8614246845245361,5.012855052947998,8.153779029846191,-0.17271777987480164,-0.035325463861227036,-0.009791296906769276
-1.9670473337173462,4.836192607879639,8.235909461975098,-0.14971433579921722,-0.09133307635784149,0.007853982038795948
-1.8974238634109497,4.992599964141846,8.594062805175781,0.06789331138134003,-0.21233674883842468,-0.01630137488245964
-1.7564820051193237,4.98785924911499,8.369765281677246,0.08127998560667038,-0.16034339368343353,-0.029112091287970543
-1.7852507829666138,4.974691390991211,8.140477180480957,-0.02373647689819336,0.039706241339445114,0.020804325118660927
-1.6757782697677612,5.018964767456055,8.296167373657227,-0.013840461149811745,0.04447098821401596,0.020053833723068237
-1.6041821241378784,4.920553684234619,8.211747169494629,0.019024088978767395,0.07670722156763077,-0.0007504915702156723
-1.7805198431015015,4.970898628234863,7.865307807922363,0.028728120028972626,0.023806290701031685,0.00020943951676599681
-1.7413603067398071,4.953880786895752,7.616654396057129,-0.011065387167036533,0.06632251292467117,-0.007906341925263405
-1.9749386310577393,4.987122058868408,7.509922027587891,-0.12707741558551788,-0.08388052135705948,-0.0014486232539638877
-1.8026134967803955,4.8529510498046875,8.43874740600586,-0.15142476558685303,-0.13985323905944824,-0.007435102481395006
-1.8787683248519897,4.771806716918945,8.855040550231934,-0.03396410867571831,-0.12051498144865036,-0.006126105785369873
-1.7755208015441895,4.824833393096924,8.35483455657959,0.08407250791788101,-0.17863444983959198,0.025848325341939926
-1.7160296440124512,4.900537967681885,7.875909328460693,0.06899286806583405,-0.203348308801651,0.004869468510150909
-1.8023741245269775,4.894523620605469,8.2342529296875,0.006457718089222908,-0.2647838890552521,-0.008813912980258465
-1.6947020292282104,4.793689727783203,8.295353889465332,-0.019146261736750603,-0.18048450350761414,0.029740409925580025
-1.6067966222763062,4.896180629730225,8.466548919677734,-0.01012290921062231,-0.13604842126369476,0.08168140798807144
-1.3501956462860107,5.059809684753418,8.528002738952637,0.010873401537537575,-0.07686430215835571,0.07223917543888092
-1.3423713445663452,5.024509906768799,8.484036445617676,0.03347541391849518,-0.01788962446153164,0.032794736325740814
-1.4777395725250244,4.926242351531982,8.353074073791504,0.05619960278272629,0.004380776546895504,0.025900686159729958
-1.4790993928909302,5.205990314483643,8.165904998779297,-0.1742885857820511,-0.16948892176151276,-0.116361103951931
-1.2769138813018799,5.092888355255127,8.307000160217285,-0.24294982850551605,-0.26431265473365784,-0.1906946748495102
-1.2452434301376343,4.938586711883545,8.48320198059082,-0.2678382396697998,-0.2382025420665741,-0.21132446825504303
-1.2601162195205688,4.689340591430664,8.354470252990723,-0.28438395261764526,-0.136502206325531,-0.21708405017852783
-1.5484833717346191,4.59183931350708,8.165080070495605,-0.2652725875377655,-0.20069541037082672,-0.20861920714378357
-1.639281153678894,4.563290596008301,8.552682876586914,-0.18226473033428192,-0.3263416588306427,-0.17699383199214935
-1.3791558742523193,4.55501651763916,8.889373779296875,-0.058939769864082336,-0.33252012729644775,-0.15936601161956787
-1.2198361158370972,4.362225532531738,8.88157844543457,0.042062435299158096,-0.23198916018009186,-0.15510740876197815
-1.2567068338394165,4.287392616271973,8.641641616821289,0.09950122237205505,-0.09941395372152328,-0.09222319722175598
-1.3530495166778564,4.456279754638672,8.336896896362305,0.10606365650892258,-0.05508258938789368,0.005654866807162762
-1.2159000635147095,4.6473846435546875,8.390968322753906,0.08515461534261703,-0.07754497975111008,0.05103342607617378
-1.0254077911376953,4.7153706550598145,8.349950790405273,0.05916666239500046,-0.012409291230142117,0.03881612420082092
-0.981708824634552,4.843776226043701,8.15799331665039,-0.012723450548946857,0.0656592845916748,0.011763518676161766
-1.0214334726333618,4.7845916748046875,8.097679138183594,-0.12409290671348572,0.12423253804445267,0.006684611085802317
-1.6679444313049316,4.909319877624512,7.984365463256836,-0.31262338161468506,0.2960602045059204,-0.006387905217707157
-1.5265429019927979,4.57261848449707,8.54981803894043,-0.16193164885044098,-0.17009979486465454,-0.04680972918868065
-1.3071670532226562,4.415760040283203,9.356290817260742,-0.005864306353032589,-0.10920525342226028,-0.07208209484815598
-1.4422383308410645,4.40985107421875,8.637608528137207,0.06063273921608925,-0.06276203691959381,-0.10194467753171921
-1.6823097467422485,4.167356967926025,7.884057998657227,0.05143485218286514,-0.18165387213230133,-0.11278317868709564
-1.6964738368988037,4.277537822723389,8.21424674987793,0.02068215236067772,-0.3344748914241791,-0.057159531861543655
-1.538724660873413,4.43122673034668,8.732027053833008,0.02019345946609974,-0.28963738679885864,-0.03698352724313736
-1.4104145765304565,4.327012062072754,9.051663398742676,0.028675759211182594,-0.17964674532413483,-0.026912976056337357
-1.3372286558151245,4.268277168273926,8.939240455627441,0.06777113676071167,0.006771877408027649,0.01532399095594883
-1.424013614654541,4.271054744720459,8.452566146850586,0.11150908470153809,0.009512044489383698,0.006562437862157822
-1.5861107110977173,4.227690696716309,8.360236167907715,0.149208202958107,-0.08529423922300339,0.013962633907794952
-1.2741366624832153,4.41925573348999,8.664260864257812,0.15510740876197815,-0.02143264375627041,0.05806710571050644
-1.1676138639450073,4.4644389152526855,8.543095588684082,0.09833184629678726,0.12835150957107544,0.055972710251808167
-1.2434333562850952,4.4591240882873535,8.327157974243164,0.05230751633644104,0.23460716009140015,0.06630505621433258
-1.395608901977539,4.394748687744141,8.36518669128418,0.05726425349712372,0.24298474192619324,0.0861319974064827
-1.4084992408752441,4.356901168823242,8.64428424835205,0.12576842308044434,0.28852036595344543,0.12973032891750336
-1.4637094736099243,4.146814823150635,8.823917388916016,0.2598969638347626,0.41975167393684387,0.21134191751480103
-1.5056942701339722,3.8058133125305176,9.326153755187988,0.47373470664024353,0.5631130337715149,0.3756123185157776
-1.3507797718048096,3.6540017127990723,10.272342681884766,0.8263435959815979,0.8613199591636658,0.6057165265083313
-0.9921188354492188,4.53618860244751,10.12857437133789,1.1582528352737427,1.3909401893615723,0.7180982828140259
-1.2506734132766724,5.329061985015869,7.880715847015381,1.1696324348449707,1.7138609886169434,0.6245136857032776
-2.3057215213775635,5.317004680633545,7.042879104614258,0.8109846711158752,1.6203287839889526,0.5149244666099548
-2.543264627456665,5.554107189178467,7.932334899902344,0.7365638613700867,1.617414116859436,0.5497263669967651
-2.240436315536499,5.916148662567139,7.6633124351501465,0.7997098565101624,1.5717039108276367,0.5273686647415161
-2.1550590991973877,6.730848789215088,6.2152419090271,0.7323924899101257,1.380311131477356,0.3424336016178131
-2.583554267883301,7.17791223526001,4.9647698402404785,0.47567203640937805,1.0032850503921509,0.07635815441608429
-3.059636354446411,6.961648941040039,5.084508419036865,0.1224173903465271,0.5823988914489746,-0.09998991340398788
-3.2461063861846924,6.241089820861816,6.292632102966309,-0.10435323417186737,0.4256683588027954,-0.12770573794841766
-3.447669506072998,5.874661922454834,7.153682708740234,-0.15214034914970398,0.3709173798561096,-0.06515314429998398
-3.493408203125,5.819614410400391,7.692234516143799,-0.07510151714086533,0.366327166557312,0.04398229718208313
-3.331665515899658,6.0432233810424805,7.727994441986084,0.06815510988235474,0.38152897357940674,0.09927432984113693
-3.2906672954559326,6.165097713470459,7.44076681137085,0.1480388194322586,0.38004544377326965,0.08004079759120941
-3.5806243419647217,6.169810771942139,6.5915913581848145,0.15076154470443726,0.6086661219596863,-0.03361504152417183
-3.7512924671173096,6.180248260498047,5.36020565032959,0.10510372370481491,0.5178741216659546,-0.05993460491299629
-4.172260284423828,6.362303256988525,4.8908843994140625,-0.12049753218889236,0.2045176774263382,-0.02972295694053173
-3.794541358947754,6.2728657722473145,6.05805778503418,-0.18327702581882477,0.07646287232637405,-0.05311036854982376
