accX,accY,accZ,gyroX,gyroY,gyroZ
-1.5155540704727173,5.735895156860352,7.6860456466674805,-0.6296858787536621,-0.693200409412384,-0.21597599983215332
-1.7404793500900269,6.360720634460449,6.728318214416504,-0.6987928748130798,-0.7826799750328064,-0.21171505749225616
-1.9824535846710205,6.162116527557373,6.931707859039307,-0.8500559329986572,-0.6356778144836426,-0.08175663650035858
-1.7333009243011475,5.5229339599609375,9.01705265045166,-0.638207733631134,0.009720250964164734,0.1716356724500656
-1.3360923528671265,5.338387489318848,9.493523597717285,-0.35698622465133667,0.053394805639982224,0.23235395550727844
-1.0462616682052612,5.182853698730469,9.385847091674805,-0.05459319427609444,0.0768299326300621,0.24513675272464752
-1.012762188911438,5.173282623291016,8.816056251525879,0.1659100502729416,0.08109086751937866,0.24939768016338348
-0.9912267923355103,5.302495002746582,8.267800331115723,0.22449785470962524,0.12689588963985443,0.25898477435112
-0.8404789566993713,4.996213912963867,7.946863174438477,0.12117026001214981,0.067242830991745,0.26324570178985596
-0.7229315638542175,5.419743061065674,7.932506084442139,-0.07376738637685776,-0.058454662561416626,0.1950708031654358
-0.9984052777290344,5.132604598999023,8.059326171875,-0.20785360038280487,-0.11171631515026093,0.21317975223064423
-0.9457631707191467,5.383851051330566,8.061718940734863,-0.28241991996765137,-0.2628462612628937,0.25259336829185486
-0.05742774158716202,4.82841682434082,7.903792381286621,-0.3452686667442322,-0.15112993121147156,0.31757259368896484
0.579362154006958,4.2825541496276855,8.962018013000488,-0.362312376499176,-0.1553908735513687,0.18654893338680267
0.9385846853256226,4.048057556152344,9.244669914245605,-0.3324858546257019,-0.3342168629169464,0.05565842613577843
0.6942176818847656,4.483850479125977,8.90937614440918,-0.2770937383174896,-0.5451329946517944,-0.20425842702388763
-0.9744769930839539,5.233103275299072,8.619544982910156,-0.20039696991443634,-0.4844147264957428,-0.19999749958515167
-1.2759727239608765,5.475077152252197,8.459226608276367,-0.10452599078416824,-0.41623979806900024,0.0588541254401207
-0.5410770177841187,5.144568920135498,8.471190452575684,0.00399462366476655,-0.20865251123905182,0.2483324557542801
-0.02871387079358101,4.826024055480957,8.626724243164062,0.11477886140346527,0.067242830991745,0.2568543255329132
0.12442677468061447,4.646562576293945,8.420941352844238,0.14993155002593994,0.172700896859169,0.20039696991443634
0.263509601354599,4.6178483963012695,8.09521770477295,0.1552577167749405,0.3122464418411255,0.021570969372987747
0.16510476171970367,4.558028221130371,8.044968605041504,0.12969212234020233,0.2930722236633301,-0.05725627392530441
0.06939185410737991,4.493422031402588,7.444071292877197,-0.12156971544027328,0.29520270228385925,-0.24154159426689148
-0.5913262963294983,4.514957427978516,7.970791339874268,-0.44327008724212646,0.1396786868572235,-0.337412565946579
-0.8476574420928955,4.888237476348877,8.914161682128906,-0.5647066831588745,0.06404713541269302,-0.3107817471027374
-1.501197099685669,5.065605640411377,9.629914283752441,-0.36870378255844116,0.13435252010822296,-0.2074541300535202
-1.6639090776443481,5.20678186416626,9.74506950378418,-0.006657706573605537,0.1844184696674347,-0.028494983911514282
-1.659123420715332,5.26899528503418,9.558130264282227,0.17230144143104553,0.18974463641643524,0.05459319427609444
-0.9553344249725342,4.8690948486328125,9.182157516479492,0.43647924065589905,0.15033100545406342,0.1822880059480667
-0.1986042857170105,4.861916542053223,8.69372272491455,0.5556522011756897,0.006524552125483751,0.11531147360801697
-0.3113660514354706,4.981856822967529,8.38265609741211,0.569500207901001,-0.019041040912270546,0.05991935729980469
-0.5721837282180786,5.247459888458252,7.719544887542725,0.5089150667190552,0.006524552125483751,0.029027599841356277
-0.5626124143600464,5.247459888458252,7.3746795654296875,0.35019534826278687,0.07150376588106155,0.031158065423369408
-0.7755736112594604,5.26899528503418,7.4847493171691895,0.1552577167749405,0.07256899774074554,0.021570969372987747
-0.8189435601234436,5.302495002746582,7.671688556671143,0.06364767253398895,0.04593817517161369,0.026897134259343147
-0.5697908997535706,5.201996326446533,8.147860527038574,-0.06098458915948868,0.006524552125483751,0.030092833563685417
-0.5458626747131348,5.1876397132873535,8.282156944274902,-0.09174319356679916,0.026763979345560074,-0.008255556225776672
-0.6918248534202576,5.158925533294678,8.284550666809082,-0.07057169079780579,0.028894444927573204,-0.009320789016783237
-0.6296114325523376,5.079962253570557,8.37547779083252,0.013581721112132072,-0.008388710208237171,-0.002929390873759985
-0.8189435601234436,5.197210788726807,8.581260681152344,0.14034445583820343,-0.07869409024715424,-0.00719032296910882
-0.8500502705574036,5.340780258178711,8.349156379699707,0.14993155002593994,-0.12769481539726257,-0.014646953903138638
-0.9577272534370422,5.414957523345947,8.267800331115723,0.05725627392530441,-0.18095645308494568,-0.009320789016783237
-0.36640095710754395,4.938786029815674,8.696115493774414,-0.021570969372987747,-0.16497796773910522,-0.025299284607172012
-0.40229329466819763,5.101497650146484,8.641080856323242,0.08388710021972656,-0.04993279650807381,-0.10306129604578018
-0.6774678826332092,5.13021183013916,8.531010627746582,0.1552577167749405,-0.026497671380639076,-0.12117026001214981
-0.8333004713058472,5.168497085571289,8.432905197143555,0.22236739099025726,-0.055258963257074356,-0.11797455698251724
-0.7444669604301453,5.374279499053955,8.011468887329102,0.28947708010673523,-0.11810771375894547,-0.09560466557741165
-0.5554339289665222,5.333601474761963,7.846364498138428,0.28947708010673523,-0.031823836266994476,-0.06364767253398895
-0.612861692905426,5.245067119598389,8.023433685302734,0.3011946380138397,0.12583065032958984,0.005592473316937685
-0.7612167000770569,5.245067119598389,7.999505043029785,0.3235645294189453,0.2142449915409088,0.03648423030972481
-1.0342975854873657,5.3455657958984375,7.906185150146484,0.2596505582332611,0.026763979345560074,0.03541899845004082
-0.9912267923355103,5.50139856338501,7.6474609375,0.18827994167804718,-0.07656362652778625,0.04287562891840935
-0.7133602499961853,5.7047882080078125,8.08803939819336,0.09986559301614761,0.20252743363380432,0.0588541254401207
-0.8165507316589355,5.467898845672607,8.509475708007812,0.14567062258720398,0.29520270228385925,0.11424624174833298
-0.9266205430030823,5.506184101104736,8.653044700622559,0.24686774611473083,0.3122464418411255,0.10998530685901642
-1.072582721710205,5.623432159423828,8.442476272583008,0.38215234875679016,0.28241991996765137,0.13661614060401917
-0.6631109714508057,5.618646621704102,8.04975414276123,0.4854799509048462,0.28241991996765137,0.1451379954814911
-0.701396107673645,5.85792875289917,7.808079242706299,0.483349472284317,0.29413747787475586,0.05991935729980469
-0.8668000102043152,5.891428470611572,7.3746795654296875,0.38534805178642273,0.2472672164440155,0.006657706573605537
-1.0893324613571167,5.989833354949951,7.350750923156738,0.3161078989505768,0.18761417269706726,-0.0007989247678779066
-1.1324033737182617,5.946463584899902,7.57806921005249,0.2607157826423645,0.0991998240351677,0.026897134259343147
-0.9385846853256226,5.78853702545166,8.006683349609375,0.25325915217399597,-0.07549838721752167,0.008788172155618668
-1.0342975854873657,6.200401782989502,7.934898853302002,0.3065207898616791,-0.38215234875679016,-0.09134373068809509
-1.0534402132034302,5.994618892669678,7.439285755157471,0.3246297538280487,-0.6367430686950684,-0.16271434724330902
-1.0055837631225586,5.963212966918945,7.350750923156738,0.2926727831363678,-0.868830680847168,-0.19360610842704773
-0.9194421172142029,6.15972375869751,7.439285755157471,0.27456381916999817,-0.9945281744003296,-0.20532366633415222
-0.5075774788856506,6.174080848693848,7.57806921005249,0.23515018820762634,-1.0584421157836914,-0.2276935577392578
-0.7755736112594604,5.908178329467773,7.551748275756836,0.22343263030052185,-0.7986584305763245,-0.21491076052188873
-0.6798607110977173,6.3152570724487305,7.178467750549316,0.2404763549566269,-0.6729609370231628,-0.12543119490146637
-0.45972105860710144,6.492326259613037,7.11356258392334,0.21384553611278534,-0.6250254511833191,-0.07430000603199005
-0.15553347766399384,6.514160633087158,7.0393853187561035,0.11903978884220123,-0.6271559596061707,-0.0018641578499227762
0.10767702013254166,6.293721675872803,7.053741931915283,0.03382114693522453,-0.6154384016990662,0.029027599841356277
0.1459621787071228,6.341578006744385,7.089634418487549,-0.025831900537014008,-0.5003932118415833,0.021570969372987747
0.19621145725250244,6.396613121032715,7.0633134841918945,-0.06418029218912125,-0.4300878345966339,0.011983871459960938
0.3496512174606323,6.358327865600586,7.2574310302734375,-0.15352670848369598,-0.2703028917312622,0.0023967742454260588
0.4453641176223755,6.355935096740723,7.934898853302002,-0.15565717220306396,-0.07869409024715424,-0.013581721112132072
0.2512463629245758,6.3463640213012695,8.147860527038574,-0.10346075892448425,-0.043541401624679565,-0.027429750189185143
-0.11006984114646912,6.2913289070129395,8.056933403015137,0.021038351580500603,-0.025432437658309937,-0.030625449493527412
-0.16510476171970367,6.312864303588867,7.815258026123047,0.07430000603199005,-0.06591129302978516,-0.021038351580500603
-0.15314064919948578,6.269793510437012,7.698009490966797,0.07536523789167404,-0.11597724258899689,-0.018907885998487473
-0.12681959569454193,6.320042610168457,7.558926582336426,0.04340824484825134,-0.21504391729831696,-0.009320789016783237
-0.05024927482008934,6.413362979888916,7.317251682281494,0.014646953903138638,-0.28841185569763184,0.027962366119027138
0.08374879509210587,6.422934055328369,7.386643409729004,-0.006657706573605537,-0.28628137707710266,0.04394086077809334
0.10289137065410614,6.365506649017334,7.671688556671143,-0.017310036346316338,-0.26604193449020386,0.06098458915948868
0.24167509377002716,6.226722717285156,7.815258026123047,0.03808208182454109,-0.24487043917179108,0.06204982474446297
0.20817556977272034,6.4947190284729,7.834400653839111,0.19999749958515167,-0.055258963257074356,-0.028494983911514282
0.4692923426628113,6.578766822814941,7.393822193145752,0.2063889056444168,-0.13195574283599854,-0.025299284607172012
1.2161520719528198,6.774978160858154,5.828018665313721,0.16910573840141296,-0.1692388951778412,-0.04873441159725189
0.20099709928035736,6.413362979888916,7.81765079498291,-0.23341917991638184,0.14926578104496002,-0.13608351349830627
0.27786654233932495,6.358327865600586,8.356334686279297,-0.10452599078416824,0.2983984053134918,-0.029560215771198273
0.2560320198535919,6.300900459289551,7.601997375488281,0.012516488321125507,0.3218335211277008,0.07163692265748978
0.2826521694660187,6.509375095367432,6.754639148712158,-0.08854749798774719,0.2770937383174896,0.12063764035701752
0.3233301639556885,6.4325056076049805,6.464808464050293,-0.20785360038280487,0.26324570178985596,0.11637670546770096
0.490827739238739,6.128616809844971,8.24387264251709,-0.599859356880188,0.635944128036499,0.07483261823654175
-0.49322056770324707,5.697609901428223,8.394619941711426,-0.45498764514923096,0.7637720704078674,0.08335448056459427
0.17706887423992157,5.936892032623291,8.147860527038574,-0.4262263774871826,0.7818810343742371,0.1716356724500656
-0.5171487927436829,5.805286884307861,7.997112274169922,-0.3218335211277008,0.46444159746170044,0.04394086077809334
-0.5506483316421509,5.66411018371582,7.829614639282227,-0.22383208572864532,0.38028818368911743,0.09400681406259537
-0.19621145725250244,5.707180976867676,7.5637125968933105,-0.18015754222869873,0.4122451841831207,0.13661614060401917
-0.6367899179458618,5.805286884307861,8.181658744812012,-0.151396244764328,0.37709248065948486,0.12383333593606949
-0.6678966283798218,5.924928188323975,8.418548583984375,-0.17057043313980103,0.3090507388114929,0.12809427082538605
-0.6080760359764099,5.891428470611572,8.662615776062012,-0.17483137547969818,0.16098333895206451,0.12063764035701752
-0.3041875660419464,5.597111225128174,8.45444107055664,-0.008788172155618668,0.14287437498569489,0.13555090129375458
-0.014356935396790504,5.621039390563965,7.829614639282227,0.1126483902335167,0.16843996942043304,0.06524552404880524
-0.5315057039260864,5.85075044631958,7.420143127441406,0.09560466557741165,0.2142449915409088,0.015179570764303207
-0.766002357006073,5.939284801483154,7.4847493171691895,-0.010918638668954372,0.14607007801532745,0.020505735650658607
-0.7830511927604675,5.944070339202881,7.546962738037109,-0.05672365799546242,0.0778951644897461,0.026897134259343147
-0.5051847100257874,5.848357677459717,7.741080284118652,-0.11730878800153732,-0.033954303711652756,0.04394086077809334
-0.3281157910823822,5.793322563171387,7.827221870422363,-0.1311568170785904,-0.058454662561416626,0.027962366119027138
-0.3616153299808502,5.778965950012207,7.88704252243042,-0.11837401986122131,-0.028628136962652206,0.029027599841356277
-0.41904306411743164,5.755037784576416,8.071290016174316,-0.10985215753316879,-0.04993279650807381,0.029027599841356277
-0.41904306411743164,5.692824363708496,8.147860527038574,-0.08322133123874664,-0.03928046673536301,0.019440501928329468
-0.41186460852622986,5.640182018280029,8.138288497924805,-0.04074516147375107,-0.021171506494283676,0.018375270068645477
-0.4573282301425934,5.695217132568359,8.116753578186035,-0.015179570764303207,-0.07443315535783768,0.024766668677330017
-0.2584248483181,5.666502952575684,7.872685432434082,-0.03648423030972481,-0.0936073511838913,0.03648423030972481
-0.2706880569458008,5.678467273712158,7.820043563842773,-0.09600412845611572,-0.06271559745073318,0.0077229393646121025
-0.385543555021286,5.647360324859619,7.992326736450195,-0.13754820823669434,-0.023301972076296806,-0.00399462366476655
-0.3807578980922699,5.542076110839844,8.109575271606445,-0.06098458915948868,-0.029693370684981346,0.00133154122158885
-0.40229329466819763,5.577968597412109,8.068897247314453,-0.026897134259343147,-0.035019535571336746,0.013049104250967503
-0.3640081584453583,5.582754135131836,7.958827018737793,-0.016244804486632347,-0.031823836266994476,0.016244804486632347
-0.2273181527853012,5.649753570556641,7.87986421585083,-0.026897134259343147,0.008655018173158169,0.0034620072692632675
-0.368793785572052,5.597111225128174,7.946863174438477,-0.0375494658946991,0.034220609813928604,-0.021038351580500603
-0.4860421121120453,5.582754135131836,8.009076118469238,-0.03222329914569855,0.010785484686493874,-0.025299284607172012
-0.5027918815612793,5.621039390563965,7.980362415313721,-0.024766668677330017,-0.03608476743102074,-0.00719032296910882
-0.46450668573379517,5.609075546264648,8.061718940734863,-0.04074516147375107,-0.014780107885599136,0.014114337973296642
-0.385543555021286,5.5707902908325195,8.215158462524414,-0.06204982474446297,0.0033288532868027687,0.025831900537014008
-0.31854450702667236,5.554040431976318,8.248658180236816,-0.04181039705872536,-0.004127778112888336,0.025831900537014008
-0.28983065485954285,5.542076110839844,8.24147891998291,-0.017310036346316338,-0.016910573467612267,0.019440501928329468
-0.28504499793052673,5.585147380828857,8.200801849365234,-0.009853405877947807,-0.027562905102968216,0.011983871459960938
-0.3041875660419464,5.573183059692383,8.100004196166992,-0.009853405877947807,-0.041410934180021286,-0.0007989247678779066
-0.33050861954689026,5.5085768699646,8.044968605041504,0.0018641578499227762,-0.03608476743102074,-0.002929390873759985
-0.4381856322288513,5.470291614532471,8.157431602478027,0.027429750189185143,-0.06804175674915314,-0.0018641578499227762
-0.41904306411743164,5.503791332244873,8.107182502746582,0.0476691760122776,-0.09680305421352386,0.0002663082559593022
-0.2682952284812927,5.482255935668945,8.016255378723145,0.08814803510904312,-0.12876003980636597,0.00452724052593112
-0.14356936514377594,5.518147945404053,7.88704252243042,0.10199606418609619,-0.11278154700994492,0.00133154122158885
-0.20099709928035736,5.585147380828857,7.69322395324707,0.06471290439367294,-0.09573781490325928,0.008788172155618668
-0.15553347766399384,5.577968597412109,7.705187797546387,-0.013049104250967503,-0.058454662561416626,0.008788172155618668
-0.22971096634864807,5.6330037117004395,7.906185150146484,-0.07896039634943008,-0.040345702320337296,-0.019973119720816612
-0.2826521694660187,5.642574787139893,8.023433685302734,-0.09600412845611572,-0.050998032093048096,-0.027429750189185143
-0.1866401731967926,5.609075546264648,8.341978073120117,-0.0874822586774826,-0.07549838721752167,-0.030625449493527412
-0.2682952284812927,5.558825969696045,8.408976554870605,-0.031158065423369408,-0.08082455396652222,-0.030625449493527412
-0.22013968229293823,5.566004753112793,8.406583786010742,0.03382114693522453,-0.048867564648389816,-0.025299284607172012
-0.33050861954689026,5.558825969696045,8.25822925567627,0.1009308323264122,-0.042476166039705276,-0.022103585302829742
-0.2706880569458008,5.609075546264648,8.083253860473633,0.1339530497789383,-0.055258963257074356,0.0023967742454260588
-0.15314064919948578,5.683252811431885,8.004290580749512,0.12010502070188522,-0.043541401624679565,0.00452724052593112
-0.14117653667926788,5.683252811431885,8.040183067321777,0.10945269465446472,-0.023301972076296806,0.0002663082559593022
-0.1746760457754135,5.644967555999756,8.107182502746582,0.10732222348451614,-0.016910573467612267,0.0002663082559593022
-0.1986042857170105,5.642574787139893,8.021040916442871,0.12543119490146637,-0.031823836266994476,0.008788172155618668
-0.2153540402650833,5.690431118011475,7.987541198730469,0.12969212234020233,-0.042476166039705276,0.006657706573605537
-0.10289137065410614,5.673681735992432,8.009076118469238,0.12330072373151779,-0.04673709720373154,-0.0061250897124409676
-0.014356935396790504,5.597111225128174,8.04975414276123,0.11371362209320068,-0.060585130006074905,-0.05938674136996269
-0.1698904037475586,5.558825969696045,8.126324653625488,0.10625699162483215,-0.1255643367767334,-0.09560466557741165
-0.41186460852622986,5.776573181152344,8.196015357971191,0.12543119490146637,-0.1351514458656311,-0.06684337556362152
-0.4214358925819397,5.745466232299805,8.111968040466309,0.1754971444606781,-0.16604319214820862,0.00452724052593112
-0.368793785572052,5.776573181152344,7.968398571014404,0.1957365721464157,-0.17030413448810577,0.04074516147375107
-0.07178468257188797,5.764608860015869,7.5326056480407715,0.22343263030052185,-0.10958584398031235,0.09187635034322739
0.3233301639556885,5.896214008331299,7.434499740600586,0.23515018820762634,-0.09467258304357529,0.11318100988864899
0.4166502356529236,5.865107536315918,7.45364236831665,0.2298240214586258,0.021437814459204674,0.10039821267127991
0.34247273206710815,6.04247522354126,7.216753005981445,0.15206201374530792,0.047003407031297684,0.04074516147375107
-0.17228323221206665,6.140581130981445,7.300501823425293,0.010386021807789803,0.15672241151332855,0.006657706573605537
-0.21774685382843018,5.915356636047363,7.3914289474487305,-0.15565717220306396,0.061916667968034744,0.05991935729980469
-0.11485548317432404,5.872285842895508,7.566105365753174,-0.20146219432353973,0.015046416781842709,0.0908111184835434
-0.14356936514377594,5.877071380615234,8.464012145996094,-0.20785360038280487,0.06937330216169357,0.0908111184835434
-0.27786654233932495,5.9560346603393555,8.696115493774414,-0.07057169079780579,0.35685306787490845,-0.0007989247678779066
-0.8668000102043152,5.812465190887451,7.932506084442139,0.07643046975135803,0.16098333895206451,0.019440501928329468
-0.3089732229709625,5.79571533203125,7.7578301429748535,0.028494983911514282,-0.20758728682994843,0.013049104250967503
-0.28983065485954285,6.0400824546813965,8.231907844543457,-0.08322133123874664,-0.30758604407310486,0.019440501928329468
0.20338992774486542,5.774179935455322,8.442476272583008,-0.0768299326300621,-0.26391148567199707,0.021570969372987747
0.3233301639556885,6.150152206420898,7.94925594329834,0.022103585302829742,-0.058454662561416626,-0.012516488321125507
0.23449662327766418,5.44845724105835,7.288537979125977,0.028494983911514282,0.14820054173469543,-0.030625449493527412
-0.16749759018421173,5.862714767456055,7.467999458312988,-0.07483261823654175,0.053394805639982224,-0.07003907114267349
-0.5267201066017151,5.982655048370361,7.707581043243408,-0.18761417269706726,-0.057389430701732635,-0.05193011090159416
-0.12442677468061447,5.826822280883789,8.100004196166992,-0.2046578973531723,-0.06378082931041718,-0.03169068321585655
-0.06699903309345245,5.5947184562683105,7.815258026123047,-0.11517832428216934,0.12263495475053787,-0.08495233207941055
-0.18903298676013947,5.577968597412109,7.784151077270508,-0.17057043313980103,0.09280842542648315,-0.04979964345693588
-0.2105683982372284,5.561218738555908,7.8678998947143555,-0.2163754552602768,0.03954677656292915,-0.012516488321125507
-0.13639089465141296,5.5229339599609375,7.8678998947143555,-0.2248973250389099,0.03954677656292915,0.0077229393646121025
-0.14356936514377594,5.463113307952881,8.016255378723145,-0.15778763592243195,0.15565717220306396,-0.0018641578499227762
-0.43579283356666565,5.573183059692383,8.263014793395996,-0.10985215753316879,0.1205044835805893,0.025831900537014008
-0.6870391964912415,5.745466232299805,8.650651931762695,-0.13648298382759094,-0.06484606117010117,0.026897134259343147
-0.3113660514354706,5.20678186416626,8.890233039855957,-0.14713531732559204,-0.20545682311058044,0.023701434955000877
0.0,5.525326728820801,8.662615776062012,-0.018375270068645477,-0.09893351793289185,-0.0370168462395668
-0.17946170270442963,5.326423168182373,8.425726890563965,0.14673584699630737,0.034220609813928604,-0.0476691760122776
-0.2682952284812927,5.640182018280029,7.927720546722412,0.17762760818004608,-0.009453942999243736,-0.019973119720816612
-0.30658039450645447,5.510969638824463,8.21994400024414,-0.23022349178791046,-0.017975807189941406,-0.04447348043322563
-0.23210379481315613,5.434100151062012,8.36590576171875,-0.19933173060417175,-0.022236740216612816,-0.027429750189185143
-0.3113660514354706,5.38624382019043,8.442476272583008,-0.151396244764328,-0.013714875094592571,-0.014646953903138638
-0.16749759018421173,5.32403039932251,8.289336204528809,-0.11304785311222076,-0.010519175790250301,-0.00719032296910882
-0.2874378263950348,5.333601474761963,8.04257583618164,-0.1418091505765915,0.053394805639982224,-0.0007989247678779066
-0.3329014480113983,5.367101192474365,8.001897811889648,-0.20891882479190826,0.058720968663692474,0.014114337973296642
-0.4381856322288513,5.326423168182373,8.109575271606445,-0.278158962726593,0.04593817517161369,0.026897134259343147
-0.3113660514354706,5.26181697845459,8.267800331115723,-0.32396399974823,-0.022236740216612816,0.03435376659035683
-0.11964113265275955,5.146961688995361,8.464012145996094,-0.3442034125328064,-0.04993279650807381,0.013049104250967503
-0.11964113265275955,5.111069202423096,8.61475944519043,-0.3324858546257019,-0.029693370684981346,-0.0018641578499227762
-0.21296121180057526,5.103890895843506,8.756235122680664,-0.2600499987602234,0.0001331541279796511,-0.011451254598796368
-0.26590242981910706,5.0464630126953125,8.741878509521484,-0.21317975223064423,-0.004127778112888336,-0.002929390873759985
-0.2706880569458008,5.096712112426758,8.554939270019531,-0.14713531732559204,-0.09786828607320786,0.03435376659035683
-0.2560320198535919,5.041677474975586,8.478368759155273,-0.14926578104496002,-0.1149120107293129,0.0375494658946991
-0.2105683982372284,4.969892501831055,8.411369323730469,-0.15033100545406342,-0.12130340933799744,0.03222329914569855
-0.16271193325519562,4.938786029815674,8.334799766540527,-0.13541774451732635,-0.09893351793289185,0.011983871459960938
-0.11485548317432404,4.960321426391602,8.411369323730469,-0.12689588963985443,-0.058454662561416626,-0.00399462366476655
0.02392822690308094,4.8930230140686035,8.46879768371582,-0.13754820823669434,-0.029693370684981346,-0.00399462366476655
-0.13878370821475983,4.895416259765625,8.61475944519043,-0.13435252010822296,-0.017975807189941406,-0.00719032296910882
-0.1746760457754135,4.888237476348877,8.708378791809082,-0.09280842542648315,-0.055258963257074356,-0.0018641578499227762
-0.1579262912273407,4.837988376617432,8.686544418334961,-0.03222329914569855,-0.061650361865758896,-0.010386021807789803
-0.05742774158716202,4.933701038360596,8.526225090026855,0.009320789016783237,-0.043541401624679565,-0.019973119720816612
-0.05503492057323456,4.948357105255127,8.408976554870605,0.012516488321125507,-0.040345702320337296,-0.027429750189185143
-0.17228323221206665,4.928915500640869,8.35872745513916,-0.014114337973296642,0.0001331541279796511,-0.026364516466856003
-0.1986042857170105,4.938786029815674,8.442476272583008,-0.05778888985514641,0.019307348877191544,-0.0061250897124409676
-0.10049854964017868,4.885844707489014,8.516654014587402,-0.08428656309843063,0.010785484686493874,0.013049104250967503
-0.040677983313798904,4.904987335205078,8.595617294311523,-0.08535179495811462,0.023568280041217804,0.00133154122158885
-0.05503492057323456,4.878666400909424,8.581260681152344,-0.06737598776817322,0.0555252730846405,0.0002663082559593022
-0.22013968229293823,4.921737194061279,8.645866394042969,-0.04607132822275162,0.07363422960042953,-0.0018641578499227762
-0.21296121180057526,4.878666400909424,8.688937187194824,-0.025831900537014008,0.017176883295178413,-0.0050598569214344025
-0.13160525262355804,4.866702079772949,8.669795036315918,-0.017310036346316338,-0.006258244160562754,-0.00719032296910882
-0.1339980661869049,4.914558410644531,8.851948738098145,0.008255556225776672,-0.029693370684981346,-0.013581721112132072
-0.39511483907699585,4.8212385177612305,8.883054733276367,0.11903978884220123,-0.1553908735513687,-0.03275591507554054
-0.43579283356666565,4.837988376617432,8.710771560668945,0.18401899933815002,-0.19586972892284393,-0.002929390873759985
-0.30658039450645447,4.837988376617432,8.626724243164062,0.19147562980651855,-0.20545682311058044,0.017310036346316338
0.038285162299871445,4.89063024520874,8.267800331115723,0.16697527468204498,-0.24913136661052704,0.023701434955000877
0.1459621787071228,4.977071285247803,7.798508167266846,0.05619104206562042,-0.21610915660858154,0.021570969372987747
0.12203395366668701,4.864309310913086,7.877471446990967,-0.13222205638885498,-0.14473854005336761,0.03648423030972481
-0.14117653667926788,4.744668006896973,7.992326736450195,-0.27176758646965027,-0.17456506192684174,0.04394086077809334
-0.08614161610603333,4.622634410858154,8.236693382263184,-0.2898765504360199,-0.28947708010673523,0.0482017956674099
0.5315057039260864,4.811667442321777,8.401798248291016,-0.16524426639080048,-0.21930484473705292,0.07802832126617432
0.3807578980922699,4.837988376617432,8.713164329528809,-0.23022349178791046,0.2579195499420166,-0.0689738392829895
-0.03349951654672623,4.773382186889648,9.069695472717285,-0.26537618041038513,0.3356815576553345,-0.010386021807789803
-0.12442677468061447,4.675276279449463,9.249456405639648,-0.24620197713375092,0.31544211506843567,0.03435376659035683
-0.21774685382843018,4.780560493469238,9.00987434387207,-0.17589659988880157,0.20039696991443634,0.09826774895191193
0.1818545162677765,4.778167724609375,8.91655445098877,-0.14287437498569489,0.17802706360816956,0.10465914756059647
0.2994019389152527,4.861916542053223,8.868698120117188,-0.12156971544027328,0.27389803528785706,0.06098458915948868
0.12681959569454193,4.799703121185303,8.701200485229492,-0.11837401986122131,0.36537492275238037,0.026897134259343147
-0.4453641176223755,4.632205486297607,8.684151649475098,-0.14820054173469543,0.278158962726593,-0.03275591507554054
-0.4262215197086334,4.48624324798584,8.880661964416504,-0.15672241151332855,0.1396786868572235,-0.027429750189185143
-0.2682952284812927,4.383052825927734,9.0481595993042,0.04660394415259361,-0.009453942999243736,-0.025299284607172012
-0.27308088541030884,4.428815841674805,8.701200485229492,0.10519175976514816,0.006524552125483751,-0.011451254598796368
-0.24406790733337402,4.462315082550049,8.361120223999023,0.05299534276127815,-0.0009320789249613881,-0.0061250897124409676
-0.33768710494041443,4.447957992553711,8.564510345458984,-0.0077229393646121025,-0.019041040912270546,-0.016777420416474342
-0.3616153299808502,4.433601379394531,8.79212760925293,-0.03861469775438309,-0.033954303711652756,-0.008255556225776672
-0.27308088541030884,4.491028785705566,8.763413429260254,-0.03967992961406708,-0.0712374597787857,-0.0061250897124409676
-0.263509601354599,4.452744007110596,8.737092971801758,-0.03222329914569855,-0.08828118443489075,-0.0018641578499227762
-0.20338992774486542,4.4359941482543945,8.76102066040039,-0.008788172155618668,-0.07975932210683823,0.0002663082559593022
-0.2826521694660187,4.5460638999938965,8.952446937561035,0.07643046975135803,-0.17243459820747375,0.00452724052593112
0.368793785572052,4.514957427978516,9.170193672180176,0.2585853040218353,-0.054193731397390366,0.03861469775438309
0.035892341285943985,4.8762736320495605,8.631509780883789,0.26710718870162964,0.402658075094223,-0.09880036115646362
-0.7372884750366211,4.589134693145752,8.648259162902832,0.10412652790546417,0.38774481415748596,-0.04660394415259361
-0.7755736112594604,4.620241641998291,9.223134994506836,0.08069140464067459,0.22915825247764587,0.07057169079780579
-0.5410770177841187,4.761417865753174,9.309276580810547,0.15845340490341187,0.15885287523269653,0.0908111184835434
-0.19621145725250244,4.840381145477295,9.136693954467773,0.3363473415374756,0.15565717220306396,0.04713656008243561
-0.2826521694660187,4.981856822967529,8.873483657836914,0.4322183132171631,0.22276686131954193,-0.024234050884842873
-0.5315057039260864,5.079962253570557,8.404191017150879,0.44819679856300354,0.15459194779396057,-0.04021254554390907
-0.5650052428245544,5.039284706115723,8.009076118469238,0.39173945784568787,0.054460037499666214,-0.018907885998487473
-0.521934449672699,5.111069202423096,7.918148994445801,0.2809551954269409,0.058720968663692474,0.009853405877947807
-0.5985047817230225,5.058426856994629,7.968398571014404,0.18188853561878204,0.029959678649902344,0.009853405877947807
-0.45972105860710144,5.077569484710693,8.056933403015137,0.09134373068809509,0.022503048181533813,0.022636201232671738
-0.35922250151634216,5.051248550415039,8.3300142288208,0.03169068321585655,0.0033288532868027687,-0.0061250897124409676
-0.4573282301425934,4.977071285247803,8.325227737426758,0.05406057462096214,-0.08402025699615479,-0.014646953903138638
-0.34725838899612427,5.036891460418701,8.248658180236816,0.09773512929677963,-0.07975932210683823,-0.002929390873759985
-0.5482555031776428,5.051248550415039,8.191229820251465,0.09986559301614761,-0.007323476951569319,-0.023168819025158882
-0.4812564551830292,5.089533805847168,8.203194618225098,0.06045197322964668,-0.008388710208237171,0.0023967742454260588
-0.38793638348579407,5.113461971282959,8.341978073120117,0.022103585302829742,0.015046416781842709,0.0034620072692632675
-0.49322056770324707,5.106283664703369,8.279764175415039,0.013581721112132072,0.03209014609456062,-0.0018641578499227762
-0.43579283356666565,5.144568920135498,8.313263893127441,0.016777420416474342,0.027829213067889214,-0.009320789016783237
-0.5362913608551025,5.151747226715088,8.363512992858887,0.024234050884842873,-0.004127778112888336,-0.013581721112132072
-0.5051847100257874,5.225924491882324,8.370692253112793,0.03914731368422508,-0.021171506494283676,-0.00399462366476655
-0.48843491077423096,5.240281581878662,8.334799766540527,0.0476691760122776,-0.022236740216612816,-0.00399462366476655
-0.49322056770324707,5.245067119598389,8.306085586547852,0.05619104206562042,-0.017975807189941406,-0.002929390873759985
-0.5123631358146667,5.223531723022461,8.193622589111328,0.0583215095102787,-0.007323476951569319,0.008788172155618668
-0.3568296730518341,5.280959606170654,8.044968605041504,0.026364516466856003,-0.0009320789249613881,0.014114337973296642
-0.2922234535217285,5.216353416442871,8.054539680480957,-0.0375494658946991,0.007589785382151604,0.005592473316937685
-0.368793785572052,5.1876397132873535,8.248658180236816,-0.09706936031579971,0.029959678649902344,-0.00399462366476655
-0.41904306411743164,5.168497085571289,8.47597599029541,-0.11517832428216934,0.05978620424866676,-0.0007989247678779066
-0.5291129350662231,5.125426292419434,8.796913146972656,-0.026897134259343147,0.10665645450353622,-0.018907885998487473
-0.5745765566825867,5.115854740142822,8.727521896362305,0.019973119720816612,0.0981345921754837,-0.016777420416474342
-0.5841478109359741,5.103890895843506,8.550153732299805,0.09986559301614761,0.061916667968034744,0.00133154122158885
-0.5099703073501587,5.13739013671875,8.428119659423828,0.11903978884220123,0.04593817517161369,0.013049104250967503
-0.41904306411743164,5.13739013671875,8.296514511108398,0.12330072373151779,0.04274247586727142,0.023701434955000877
-0.4621138870716095,5.158925533294678,8.380263328552246,0.12010502070188522,0.10239552706480026,0.019440501928329468
-0.612861692905426,5.194818019866943,8.368298530578613,0.14780108630657196,0.12370018661022186,0.011983871459960938
-0.5386841893196106,5.26181697845459,8.246265411376953,0.17230144143104553,0.14393961429595947,0.008788172155618668
-0.5626124143600464,5.26899528503418,8.147860527038574,0.17975807189941406,0.16524426639080048,0.006657706573605537
-0.646361231803894,5.280959606170654,8.025826454162598,0.17869283258914948,0.2153102308511734,0.017310036346316338
-0.6487540602684021,5.26899528503418,7.980362415313721,0.17123620212078094,0.24194104969501495,0.026897134259343147
-0.8524430394172668,5.3312087059021,8.078468322753906,0.1446053832769394,0.1940055638551712,0.03222329914569855
-0.8668000102043152,5.357530117034912,8.140681266784668,0.12756165862083435,0.14926578104496002,0.0375494658946991
-0.8356932997703552,5.407779216766357,8.097610473632812,0.08921326696872711,0.043807707726955414,0.04074516147375107
-0.5817549824714661,5.426921844482422,8.102396965026855,0.05299534276127815,0.036351077258586884,0.03435376659035683
-0.643968403339386,5.381458282470703,8.191229820251465,0.028494983911514282,0.08322133123874664,0.009853405877947807
-0.8859425783157349,5.446064472198486,8.322834968566895,0.0050598569214344025,0.061916667968034744,0.010918638668954372
-0.7779664397239685,5.441278457641602,8.346763610839844,0.015712186694145203,0.025698747485876083,0.022636201232671738
-0.6966105103492737,5.438885688781738,8.277371406555176,0.06151720881462097,0.03954677656292915,0.024766668677330017
-0.6248258352279663,5.434100151062012,8.298907279968262,0.12010502070188522,0.09600412845611572,0.0375494658946991
-0.8333004713058472,5.429314613342285,8.325227737426758,0.16910573840141296,0.19826649129390717,0.05672365799546242
-0.6942176818847656,5.414957523345947,8.15982437133789,0.2170412242412567,0.2675066292285919,0.09187635034322739
-0.7396813035011292,5.4556355476379395,7.946863174438477,0.22662831842899323,0.28241991996765137,0.06524552404880524
-0.8739784955978394,5.5468621253967285,7.95643424987793,0.20319320261478424,0.21957115828990936,0.04181039705872536
-0.9936196208000183,5.597111225128174,8.104789733886719,0.19041040539741516,0.14393961429595947,0.03967992961406708
-0.893121063709259,5.446064472198486,7.698009490966797,0.21064983308315277,0.07043853402137756,0.05246272683143616
-1.0247262716293335,5.436492919921875,7.719544887542725,0.35126060247421265,-0.04673709720373154,0.05459319427609444
-0.8787640929222107,5.92014217376709,7.140182971954346,0.33102115988731384,-0.0936073511838913,0.014114337973296642
-0.9577272534370422,5.953641891479492,7.099205493927002,0.22449785470962524,-0.12769481539726257,-0.010386021807789803
-1.2400803565979004,5.963212966918945,7.060920715332031,-0.10346075892448425,-0.1575213372707367,-0.025299284607172012
-0.7731808423995972,5.510969638824463,7.834400653839111,-0.36870378255844116,-0.06804175674915314,-0.04553871229290962
-0.6056832075119019,5.609075546264648,8.24387264251709,-0.4049217104911804,-0.035019535571336746,-0.06151720881462097
-0.5673980712890625,5.402993679046631,8.315656661987305,-0.3335510790348053,-0.07336792349815369,-0.11477886140346527
-0.9720842242240906,5.685645580291748,8.274978637695312,-0.2046578973531723,-0.11917294561862946,-0.09560466557741165
-1.1826525926589966,5.78135871887207,8.131110191345215,-0.15352670848369598,-0.20545682311058044,-0.06684337556362152
-1.0845468044281006,5.767001628875732,7.872685432434082,-0.11411308497190475,-0.3161078989505768,0.011983871459960938
-0.5745765566825867,5.683252811431885,7.851150035858154,-0.1396786868572235,-0.23847904801368713,0.0375494658946991
-0.33768710494041443,5.467898845672607,8.064111709594727,-0.1620485782623291,-0.08615072071552277,0.024766668677330017
-0.4812564551830292,5.38624382019043,8.437690734863281,-0.1194392517209053,0.06298190355300903,0.00452724052593112
-0.8835497498512268,5.419743061065674,8.633902549743652,-0.03861469775438309,0.03209014609456062,0.0077229393646121025
-0.7830511927604675,5.376672267913818,8.46879768371582,0.05725627392530441,-0.1138467788696289,0.005592473316937685
-0.7950153350830078,5.364708423614502,8.322834968566895,0.10199606418609619,-0.14473854005336761,-0.0007989247678779066
-0.7444669604301453,5.37906551361084,8.123931884765625,0.15206201374530792,-0.16071702539920807,-0.010386021807789803
-0.6990033388137817,5.407779216766357,8.08086109161377,0.15206201374530792,-0.1894783228635788,-0.03275591507554054
-0.7612167000770569,5.419743061065674,8.047361373901367,0.13821399211883545,-0.22569625079631805,-0.03914731368422508
-0.6487540602684021,5.503791332244873,8.090432167053223,0.10519175976514816,-0.28734660148620605,-0.04234301298856735
-0.45254257321357727,5.592325687408447,8.033004760742188,0.1222354918718338,-0.24700090289115906,-0.017842652276158333
-0.3927220106124878,5.6018967628479,7.889435291290283,0.13075734674930573,-0.2118482142686844,-0.019973119720816612
-0.3927220106124878,5.66411018371582,7.717152118682861,0.10838746279478073,-0.14260807633399963,-0.025299284607172012
-0.37597227096557617,5.7287163734436035,7.738687515258789,0.03808208182454109,-0.12769481539726257,-0.029560215771198273
-0.39990049600601196,5.652146339416504,7.937291622161865,-0.03648423030972481,-0.14047759771347046,-0.04340824484825134
-0.41904306411743164,5.577968597412109,8.224729537963867,-0.0695064514875412,-0.13941237330436707,-0.04660394415259361
-0.45254257321357727,5.544469356536865,8.327621459960938,-0.015179570764303207,-0.11065108329057693,-0.04553871229290962
-0.5410770177841187,5.549254894256592,8.310871124267578,0.013581721112132072,-0.1031944528222084,-0.027429750189185143
-0.4262215197086334,5.573183059692383,8.200801849365234,0.04873441159725189,-0.12982527911663055,0.00133154122158885
-0.2512463629245758,5.534897804260254,8.133502960205078,0.0583215095102787,-0.14367330074310303,-0.025299284607172012
-0.34247273206710815,5.606682777404785,7.989933967590332,0.05512581020593643,-0.15219517052173615,-0.05725627392530441
-0.43579283356666565,5.587540149688721,7.88704252243042,0.04234301298856735,-0.15219517052173615,-0.05938674136996269
-0.28983065485954285,5.659324645996094,7.776972770690918,0.06471290439367294,-0.15965180099010468,-0.029560215771198273
-0.263509601354599,5.577968597412109,7.714759349822998,0.12330072373151779,0.017176883295178413,0.03435376659035683
-0.062213387340307236,5.676074504852295,7.669295787811279,0.09666989743709564,0.11730878800153732,0.06524552404880524
-0.2225325107574463,5.819643974304199,7.642675399780273,-0.006657706573605537,0.18974463641643524,0.04287562891840935
-0.21296121180057526,5.767001628875732,7.7817583084106445,-0.14820054173469543,0.11304785311222076,0.03861469775438309
-0.15314064919948578,5.671288967132568,7.9612202644348145,-0.19613602757453918,0.0555252730846405,0.025831900537014008
-0.24167509377002716,5.585147380828857,8.286943435668945,-0.172700896859169,-0.052063263952732086,-0.023168819025158882
-0.4046861231327057,5.577968597412109,8.260622024536133,-0.06098458915948868,0.020372580736875534,-0.019973119720816612
-0.29700911045074463,5.635396480560303,8.016255378723145,-0.023701434955000877,0.12370018661022186,-0.00399462366476655
-0.3329014480113983,5.592325687408447,7.776972770690918,-0.0768299326300621,0.13648298382759094,-0.0007989247678779066
-0.3089732229709625,5.534897804260254,7.841578960418701,-0.14713531732559204,0.10026505589485168,0.0002663082559593022
-0.4166502356529236,5.465506076812744,8.078468322753906,-0.17589659988880157,0.041677240282297134,-0.012516488321125507
-0.4453641176223755,5.429314613342285,8.25822925567627,-0.15565717220306396,0.021437814459204674,-0.009320789016783237
-0.3520440459251404,5.4173502922058105,8.416155815124512,-0.10772168636322021,0.040612008422613144,-0.012516488321125507
-0.4788636267185211,5.38624382019043,8.308478355407715,-0.0482017956674099,0.048068638890981674,-0.019973119720816612
-0.44297128915786743,5.395814895629883,8.135895729064941,-0.00133154122158885,0.027829213067889214,-0.0018641578499227762
-0.521934449672699,5.407779216766357,8.023433685302734,-0.0077229393646121025,0.012915950268507004,0.00452724052593112
-0.45254257321357727,5.463113307952881,8.009076118469238,-0.03435376659035683,-0.004127778112888336,0.016244804486632347
-0.4142574071884155,5.513362407684326,8.135895729064941,-0.05246272683143616,-0.015845341607928276,0.006657706573605537
-0.3400799036026001,5.520540714263916,8.239086151123047,-0.06311506032943726,-0.008388710208237171,-0.002929390873759985
-0.41904306411743164,5.441278457641602,8.291728973388672,-0.031158065423369408,0.004394086077809334,0.0002663082559593022
-0.39032918214797974,5.391029357910156,8.279764175415039,-0.017310036346316338,0.0011983871227130294,0.00452724052593112
-0.39032918214797974,5.3934221267700195,8.181658744812012,-0.005592473316937685,-0.010519175790250301,0.00133154122158885
-0.4214358925819397,5.426921844482422,8.179265975952148,-0.017310036346316338,-0.008388710208237171,-0.002929390873759985
-0.45254257321357727,5.395814895629883,8.145467758178711,-0.017310036346316338,-0.009453942999243736,-0.0050598569214344025
-0.39511483907699585,5.402993679046631,8.131110191345215,-0.014114337973296642,0.0033288532868027687,0.0023967742454260588
-0.39990049600601196,5.38624382019043,8.076075553894043,-0.009853405877947807,0.005459319334477186,0.00133154122158885
-0.4573282301425934,5.398207664489746,8.147860527038574,-0.013049104250967503,-0.012649642303586006,0.0002663082559593022
-0.4668995141983032,5.3934221267700195,8.186444282531738,-0.015179570764303207,-0.009453942999243736,-0.002929390873759985
-0.4980062246322632,5.424529075622559,8.248658180236816,-0.008788172155618668,-0.0030625448562204838,-0.00399462366476655
-0.4501497745513916,5.405386447906494,8.274978637695312,-0.0023967742454260588,-0.0030625448562204838,-0.0007989247678779066
-0.44775694608688354,5.405386447906494,8.224729537963867,0.013581721112132072,0.00226362026296556,0.0034620072692632675
-0.42382872104644775,5.405386447906494,8.188837051391602,0.019973119720816612,0.0001331541279796511,0.00133154122158885
-0.3568296730518341,5.38624382019043,8.064111709594727,-0.00452724052593112,-0.013714875094592571,-0.009320789016783237
-0.35443684458732605,5.374279499053955,8.08803939819336,-0.013049104250967503,-0.005193010903894901,-0.008255556225776672
-0.4812564551830292,5.38624382019043,8.097610473632812,-0.023701434955000877,-0.001997311832383275,0.00133154122158885
-0.3735794425010681,5.412564754486084,8.119146347045898,-0.026897134259343147,-0.0009320789249613881,0.008788172155618668
-0.38315072655677795,5.402993679046631,8.123931884765625,-0.027962366119027138,-0.007323476951569319,0.0034620072692632675
-0.4166502356529236,5.412564754486084,8.150253295898438,-0.027962366119027138,-0.027562905102968216,-0.0007989247678779066
-0.3496512174606323,5.38624382019043,8.145467758178711,-0.029027599841356277,-0.025432437658309937,0.0002663082559593022
-0.4046861231327057,5.434100151062012,8.184051513671875,-0.021570969372987747,-0.017975807189941406,-0.013581721112132072
-0.37836506962776184,5.426921844482422,8.200801849365234,-0.022636201232671738,-0.038215234875679016,-0.00719032296910882
-0.3209373354911804,5.4173502922058105,8.21276569366455,-0.031158065423369408,-0.054193731397390366,-0.010386021807789803
-0.4166502356529236,5.359922885894775,8.279764175415039,-0.031158065423369408,-0.03288906812667847,-0.008255556225776672
-0.4262215197086334,5.37906551361084,8.327621459960938,-0.027962366119027138,-0.029693370684981346,-0.0018641578499227762
-0.4214358925819397,5.359922885894775,8.416155815124512,-0.013049104250967503,-0.023301972076296806,0.0077229393646121025
-0.3113660514354706,5.359922885894775,8.408976554870605,0.011451254598796368,-0.05312849581241608,0.006657706573605537
-0.22492532432079315,5.357530117034912,8.420941352844238,0.05086487531661987,-0.037150003015995026,-0.015712186694145203
-0.3640081584453583,5.37906551361084,8.34437084197998,0.09240896254777908,-0.043541401624679565,-0.019973119720816612
-0.3807578980922699,5.350351333618164,8.15982437133789,0.12117026001214981,-0.05312849581241608,-0.00399462366476655
-0.3807578980922699,5.402993679046631,7.966005802154541,0.12117026001214981,-0.061650361865758896,-0.011451254598796368
-0.39032918214797974,5.424529075622559,7.87986421585083,0.08921326696872711,-0.054193731397390366,-0.00719032296910882
-0.3281157910823822,5.438885688781738,8.028219223022461,0.04979964345693588,-0.06484606117010117,-0.013581721112132072
-0.37836506962776184,5.410171985626221,8.21276569366455,0.04021254554390907,-0.08508548885583878,-0.017842652276158333
-0.30658039450645447,5.410171985626221,8.217551231384277,0.05938674136996269,-0.1255643367767334,-0.015712186694145203
-0.24885354936122894,5.441278457641602,8.09521770477295,0.07856093347072601,-0.08615072071552277,-0.014646953903138638
-0.17946170270442963,5.510969638824463,7.994719505310059,0.05619104206562042,-0.011584409512579441,-0.0018641578499227762
-0.1746760457754135,5.494219779968262,7.855936050415039,0.0007989247678779066,0.019307348877191544,-0.002929390873759985
-0.31375887989997864,5.479863166809082,7.968398571014404,-0.05139749497175217,0.036351077258586884,0.00133154122158885
-0.26111677289009094,5.482255935668945,8.217551231384277,-0.07589785009622574,0.018242115154862404,0.0002663082559593022
-0.2946162819862366,5.482255935668945,8.322834968566895,-0.07057169079780579,0.012915950268507004,-0.002929390873759985
-0.3089732229709625,5.460720539093018,8.449654579162598,-0.029027599841356277,-0.020106272771954536,-0.00399462366476655
-0.34725838899612427,5.472684383392334,8.442476272583008,0.002929390873759985,-0.038215234875679016,-0.002929390873759985
-0.19621145725250244,5.467898845672607,8.36590576171875,0.05619104206562042,-0.026497671380639076,-0.002929390873759985
-0.3975076675415039,5.44845724105835,8.040183067321777,0.09453943371772766,-0.044606633484363556,-0.016777420416474342
-0.3448655605316162,5.429314613342285,7.8918280601501465,0.09134373068809509,-0.029693370684981346,0.019440501928329468
-0.14117653667926788,5.419743061065674,7.820043563842773,0.023168819025158882,-0.013714875094592571,0.027962366119027138
-0.12442677468061447,5.424529075622559,7.954041481018066,-0.030092833563685417,0.08109086751937866,0.019440501928329468
-0.2802593410015106,5.4774699211120605,8.140681266784668,-0.04713656008243561,0.0874822586774826,-0.0018641578499227762
-0.26111677289009094,5.525326728820801,8.150253295898438,-0.05778888985514641,0.053394805639982224,-0.025299284607172012
-0.490827739238739,5.3312087059021,8.198408126831055,-0.08535179495811462,0.011850717477500439,-0.04234301298856735
-0.39990049600601196,5.410171985626221,8.267800331115723,-0.08428656309843063,-0.028628136962652206,-0.027429750189185143
-0.2682952284812927,5.460720539093018,8.289336204528809,-0.03861469775438309,-0.019041040912270546,0.00133154122158885
-0.23688943684101105,5.426921844482422,8.08803939819336,-0.015179570764303207,0.07150376588106155,0.010918638668954372
-0.20578274130821228,5.532505035400391,7.994719505310059,-0.03328853100538254,0.12583065032958984,0.0077229393646121025
-0.2225325107574463,5.5396833419799805,7.977969646453857,-0.05139749497175217,0.11411308497190475,0.0023967742454260588
-0.3520440459251404,5.503791332244873,8.037790298461914,-0.07896039634943008,0.048068638890981674,-0.018907885998487473
-0.4501497745513916,5.494219779968262,8.102396965026855,-0.08535179495811462,0.016111649572849274,-0.026364516466856003
-0.490827739238739,5.364708423614502,8.308478355407715,-0.08641702681779861,-0.001997311832383275,-0.024234050884842873
-0.45972105860710144,5.3694939613342285,8.452047348022461,-0.0588541254401207,0.0033288532868027687,-0.0050598569214344025
-0.3568296730518341,5.383851051330566,8.483154296875,-0.024766668677330017,0.009720250964164734,0.0034620072692632675
-0.39990049600601196,5.362315654754639,8.423334121704102,0.010386021807789803,0.03528584539890289,0.026897134259343147
-0.39511483907699585,5.395814895629883,8.298907279968262,0.03169068321585655,0.04274247586727142,0.03435376659035683
-0.3209373354911804,5.38624382019043,8.104789733886719,0.027429750189185143,0.03528584539890289,0.025831900537014008
-0.32572299242019653,5.383851051330566,8.030611991882324,0.00399462366476655,0.009720250964164734,0.0077229393646121025
-0.3209373354911804,5.352744102478027,7.994719505310059,-0.020505735650658607,0.0011983871227130294,-0.002929390873759985
-0.40229329466819763,5.335994720458984,8.123931884765625,-0.04074516147375107,0.008655018173158169,-0.008255556225776672
-0.3975076675415039,5.350351333618164,8.21276569366455,-0.04287562891840935,0.029959678649902344,0.005592473316937685
-0.30658039450645447,5.333601474761963,8.181658744812012,-0.031158065423369408,0.037416309118270874,0.017310036346316338
-0.3041875660419464,5.307280540466309,8.155038833618164,-0.03541899845004082,0.019307348877191544,0.00452724052593112
-0.33529427647590637,5.319244861602783,8.21994400024414,-0.04394086077809334,-0.001997311832383275,-0.011451254598796368
-0.38793638348579407,5.3216376304626465,8.289336204528809,-0.03648423030972481,-0.007323476951569319,-0.014646953903138638
-0.4094717800617218,5.357530117034912,8.286943435668945,-0.023701434955000877,0.021437814459204674,-0.00719032296910882
-0.46450668573379517,5.359922885894775,8.267800331115723,-0.014114337973296642,0.027829213067889214,-0.0061250897124409676
-0.4740779995918274,5.37906551361084,8.179265975952148,-0.0023967742454260588,0.004394086077809334,0.0023967742454260588
-0.4405784606933594,5.37906551361084,8.140681266784668,0.0007989247678779066,-0.014780107885599136,0.0023967742454260588
-0.3927220106124878,5.407779216766357,8.092824935913086,-0.00133154122158885,-0.028628136962652206,-0.0018641578499227762
-0.3520440459251404,5.402993679046631,8.126324653625488,-0.020505735650658607,-0.026497671380639076,-0.00399462366476655
-0.3448655605316162,5.4173502922058105,8.27258586883545,-0.05246272683143616,-0.001997311832383275,0.0023967742454260588
-0.3568296730518341,5.402993679046631,8.370692253112793,-0.05246272683143616,0.021437814459204674,0.006657706573605537
-0.39511483907699585,5.357530117034912,8.425726890563965,-0.022636201232671738,0.012915950268507004,0.005592473316937685
-0.37836506962776184,5.364708423614502,8.370692253112793,0.011451254598796368,-0.012649642303586006,0.005592473316937685
-0.3520440459251404,5.307280540466309,8.332406997680664,0.018907885998487473,-0.022236740216612816,0.00133154122158885
-0.3975076675415039,5.309673309326172,8.27258586883545,0.016777420416474342,-0.027562905102968216,0.00133154122158885
-0.34247273206710815,5.32403039932251,8.267800331115723,0.014646953903138638,-0.007323476951569319,-0.0007989247678779066
-0.38793638348579407,5.319244861602783,8.248658180236816,0.011451254598796368,-0.006258244160562754,0.0023967742454260588
-0.3400799036026001,5.3216376304626465,8.193622589111328,0.021038351580500603,-0.005193010903894901,0.006657706573605537
-0.3329014480113983,5.383851051330566,8.21276569366455,0.019973119720816612,0.005459319334477186,0.0023967742454260588
-0.4046861231327057,5.335994720458984,8.198408126831055,0.016777420416474342,0.007589785382151604,0.0034620072692632675
-0.3568296730518341,5.355136871337891,8.24387264251709,0.016777420416474342,-0.004127778112888336,0.0002663082559593022
-0.38315072655677795,5.338387489318848,8.229515075683594,0.016777420416474342,-0.011584409512579441,-0.0007989247678779066
-0.34725838899612427,5.335994720458984,8.140681266784668,0.015712186694145203,-0.016910573467612267,-0.0018641578499227762
-0.35922250151634216,5.326423168182373,8.08086109161377,0.013581721112132072,-0.012649642303586006,0.00133154122158885
-0.39990049600601196,5.2977094650268555,8.090432167053223,0.0061250897124409676,0.016111649572849274,0.0034620072692632675
-0.33768710494041443,5.328815937042236,8.138288497924805,0.0018641578499227762,0.00226362026296556,-0.0018641578499227762
-0.34725838899612427,5.31685209274292,8.16700267791748,0.0007989247678779066,-0.008388710208237171,-0.008255556225776672
-0.4214358925819397,5.3455657958984375,8.092824935913086,-0.0077229393646121025,0.018242115154862404,-0.0050598569214344025
-0.45972105860710144,5.371886730194092,8.08803939819336,-0.016244804486632347,0.009720250964164734,0.0002663082559593022
-0.368793785572052,5.38624382019043,8.162217140197754,-0.030092833563685417,-0.007323476951569319,0.0077229393646121025
-0.34247273206710815,5.374279499053955,8.229515075683594,-0.0375494658946991,-0.013714875094592571,0.00452724052593112
-0.33050861954689026,5.367101192474365,8.339585304260254,-0.031158065423369408,-0.014780107885599136,-0.0007989247678779066
-0.34247273206710815,5.347958564758301,8.377870559692383,-0.017310036346316338,-0.005193010903894901,0.00133154122158885
-0.368793785572052,5.340780258178711,8.444869041442871,-0.0023967742454260588,0.006524552125483751,0.013049104250967503
-0.3233301639556885,5.3216376304626465,8.380263328552246,0.008255556225776672,0.013981183059513569,0.017310036346316338
-0.3161516785621643,5.288137912750244,8.267800331115723,0.023168819025158882,0.0033288532868027687,0.009853405877947807
-0.34247273206710815,5.355136871337891,8.184051513671875,0.016777420416474342,0.0033288532868027687,0.00133154122158885
-0.3927220106124878,5.333601474761963,8.128717422485352,0.010386021807789803,0.00226362026296556,-0.00399462366476655
-0.35922250151634216,5.312066078186035,8.102396965026855,-0.009853405877947807,-0.001997311832383275,-0.0050598569214344025
-0.41186460852622986,5.338387489318848,8.169395446777344,-0.020505735650658607,-0.011584409512579441,-0.0050598569214344025
-0.4405784606933594,5.300102233886719,8.164609909057617,-0.018375270068645477,0.005459319334477186,0.015179570764303207
-0.31375887989997864,5.295316696166992,8.140681266784668,-0.008788172155618668,0.024633513763546944,0.019440501928329468
-0.3807578980922699,5.3312087059021,8.155038833618164,-0.005592473316937685,0.018242115154862404,0.010918638668954372
-0.3233301639556885,5.319244861602783,8.164609909057617,-0.022636201232671738,-0.001997311832383275,0.008788172155618668
-0.3568296730518341,5.328815937042236,8.274978637695312,-0.03541899845004082,-0.006258244160562754,0.0002663082559593022
-0.39990049600601196,5.3216376304626465,8.325227737426758,-0.03222329914569855,0.031024912372231483,0.0034620072692632675
-0.3520440459251404,5.31685209274292,8.377870559692383,-0.014114337973296642,0.05978620424866676,0.015179570764303207
-0.35443684458732605,5.300102233886719,8.37547779083252,0.014646953903138638,0.07043853402137756,0.018375270068645477
-0.34725838899612427,5.31685209274292,8.35154914855957,0.03808208182454109,0.07043853402137756,0.010918638668954372
-0.37597227096557617,5.3312087059021,8.310871124267578,0.05086487531661987,0.0981345921754837,0.008788172155618668
-0.44297128915786743,5.3455657958984375,8.21994400024414,0.05619104206562042,0.11837401986122131,0.009853405877947807
-0.46450668573379517,5.32403039932251,8.150253295898438,0.04979964345693588,0.10559122264385223,0.026897134259343147
-0.4549354016780853,5.371886730194092,8.078468322753906,0.03914731368422508,0.10346075892448425,0.03222329914569855
-0.4740779995918274,5.357530117034912,8.028219223022461,0.018907885998487473,0.1205044835805893,0.03541899845004082
-0.4692923426628113,5.37906551361084,8.071290016174316,-0.006657706573605537,0.07896039634943008,0.029027599841356277
-0.4956133961677551,5.405386447906494,8.260622024536133,-0.029027599841356277,0.03528584539890289,0.018375270068645477
-0.5027918815612793,5.333601474761963,8.217551231384277,-0.017310036346316338,0.058720968663692474,0.013049104250967503
-0.4956133961677551,5.302495002746582,8.17418098449707,-0.008788172155618668,0.07576470077037811,0.015179570764303207
-0.4692923426628113,5.338387489318848,8.164609909057617,-0.013049104250967503,0.08428656309843063,0.029027599841356277
-0.5291129350662231,5.3694939613342285,8.22712230682373,-0.030092833563685417,0.08109086751937866,0.03861469775438309
-0.5889334678649902,5.343173027038574,8.26540756225586,-0.021570969372987747,0.06404713541269302,0.03861469775438309
-0.3616153299808502,5.276174068450928,7.884649753570557,0.0007989247678779066,0.08109086751937866,0.026897134259343147
-0.3640081584453583,5.292923450469971,7.513463020324707,0.002929390873759985,0.11517832428216934,0.017310036346316338
-0.7372884750366211,5.340780258178711,7.920542240142822,-0.0375494658946991,0.021437814459204674,0.0375494658946991
-0.5937191247940063,5.32403039932251,8.198408126831055,-0.17483137547969818,-0.12343387305736542,0.05033225938677788
-0.5769693851470947,5.163711071014404,9.330811500549316,-0.18974463641643524,-0.11278154700994492,0.07696308940649033
-0.2584248483181,5.072783946990967,9.330811500549316,-0.03541899845004082,-0.07656362652778625,0.06418029218912125
-0.09571290761232376,5.142175674438477,8.88544750213623,0.16804051399230957,-0.1042596846818924,-0.00719032296910882
-0.40707895159721375,5.443671703338623,8.301300048828125,0.2713681161403656,-0.054193731397390366,-0.0370168462395668
-0.5961119532585144,5.510969638824463,7.750651836395264,0.25432437658309937,-0.058454662561416626,-0.002929390873759985
-0.3807578980922699,5.491827011108398,7.554141044616699,0.15206201374530792,-0.11171631515026093,-0.0007989247678779066
-0.3233301639556885,5.441278457641602,7.582854747772217,0.09986559301614761,-0.12130340933799744,-0.019973119720816612
-0.3975076675415039,5.383851051330566,7.810472011566162,0.027429750189185143,-0.1042596846818924,-0.03808208182454109
-0.385543555021286,5.37906551361084,7.966005802154541,0.0050598569214344025,-0.10958584398031235,-0.017842652276158333
-0.28983065485954285,5.364708423614502,8.162217140197754,-0.0034620072692632675,-0.09147688746452332,-0.023168819025158882
-0.3448655605316162,5.257031440734863,8.306085586547852,0.009320789016783237,-0.04993279650807381,-0.028494983911514282
-0.31854450702667236,5.300102233886719,8.253443717956543,0.021038351580500603,-0.045671865344047546,-0.03382114693522453
-0.28983065485954285,5.359922885894775,8.200801849365234,0.022103585302829742,-0.050998032093048096,-0.03808208182454109
-0.2560320198535919,5.429314613342285,8.222336769104004,0.00719032296910882,-0.06697652488946915,-0.04660394415259361
-0.4166502356529236,5.31685209274292,8.277371406555176,-0.0077229393646121025,-0.03928046673536301,-0.03914731368422508
-0.33768710494041443,5.374279499053955,8.315656661987305,0.0018641578499227762,-0.047802332788705826,-0.019973119720816612
-0.38315072655677795,5.422136306762695,8.325227737426758,0.027429750189185143,-0.035019535571336746,-0.010386021807789803
-0.31375887989997864,5.438885688781738,8.327621459960938,0.06045197322964668,-0.059519894421100616,-0.0061250897124409676
-0.3400799036026001,5.434100151062012,8.294121742248535,0.08388710021972656,-0.07656362652778625,-0.009320789016783237
-0.24406790733337402,5.472684383392334,8.188837051391602,0.11690932512283325,-0.11278154700994492,-0.012516488321125507
-0.2584248483181,5.496612548828125,8.076075553894043,0.07003907114267349,-0.0829550251364708,-0.012516488321125507
-0.3496512174606323,5.443671703338623,8.255836486816406,0.04873441159725189,-0.060585130006074905,-0.00399462366476655
-0.3329014480113983,5.441278457641602,8.248658180236816,0.06577813625335693,-0.060585130006074905,0.020505735650658607
-0.16749759018421173,5.347958564758301,8.236693382263184,0.18082331120967865,-0.013714875094592571,0.0588541254401207
-0.25363919138908386,5.616253852844238,7.587640762329102,0.1126483902335167,0.13222205638885498,0.04926702752709389
-0.22971096634864807,5.7047882080078125,7.623532772064209,-0.04074516147375107,0.07469946891069412,0.05352795869112015
-0.3041875660419464,5.733502388000488,7.788936614990234,-0.1087869256734848,0.031024912372231483,0.03648423030972481
-0.4740779995918274,5.625824928283691,8.157431602478027,-0.18761417269706726,-0.0829550251364708,0.005592473316937685
-0.33768710494041443,5.482255935668945,8.406583786010742,-0.1418091505765915,-0.1894783228635788,-0.00399462366476655
-0.02632104977965355,5.347958564758301,8.428119659423828,-0.019440501928329468,-0.14367330074310303,-0.0018641578499227762
0.1052841991186142,5.606682777404785,7.8439717292785645,0.06790860742330551,0.061916667968034744,0.0375494658946991
-0.10767702013254166,5.463113307952881,7.836793422698975,-0.05033225938677788,0.11198262125253677,-0.008255556225776672
-0.20578274130821228,5.4774699211120605,8.104789733886719,-0.0991998240351677,0.021437814459204674,-0.03275591507554054
-0.20099709928035736,5.37906551361084,8.310871124267578,-0.0768299326300621,0.011850717477500439,-0.04873441159725189
-0.3233301639556885,5.381458282470703,8.363512992858887,-0.0482017956674099,0.021437814459204674,-0.05193011090159416
-0.38315072655677795,5.400600910186768,8.286943435668945,0.013581721112132072,0.04593817517161369,-0.03169068321585655
-0.2560320198535919,5.484648704528809,8.119146347045898,0.04553871229290962,0.034220609813928604,-0.0061250897124409676
-0.2512463629245758,5.482255935668945,8.056933403015137,0.04021254554390907,0.03209014609456062,-0.0050598569214344025
-0.2584248483181,5.467898845672607,7.963613033294678,0.019973119720816612,0.011850717477500439,-0.0007989247678779066
-0.21296121180057526,5.503791332244873,8.033004760742188,-0.011983871459960938,0.037416309118270874,-0.008255556225776672
-0.2994019389152527,5.460720539093018,8.140681266784668,-0.020505735650658607,0.050199106335639954,-0.012516488321125507
-0.20817556977272034,5.494219779968262,8.641080856323242,-0.0023967742454260588,0.09280842542648315,-0.015712186694145203
-0.30179476737976074,5.544469356536865,8.765806198120117,0.04021254554390907,0.11091738939285278,-0.025299284607172012
-0.5315057039260864,5.494219779968262,8.504690170288086,0.17123620212078094,0.058720968663692474,-0.017842652276158333
-0.4740779995918274,5.628218173980713,8.021040916442871,0.2500634491443634,0.041677240282297134,0.017310036346316338
-0.41186460852622986,5.66411018371582,7.836793422698975,0.24686774611473083,0.041677240282297134,0.019440501928329468
-0.3209373354911804,5.733502388000488,7.539783954620361,0.16910573840141296,0.034220609813928604,0.014114337973296642
-0.25363919138908386,5.707180976867676,7.491927623748779,0.1115831583738327,0.022503048181533813,0.008788172155618668
-0.21296121180057526,5.661717414855957,7.494320392608643,-0.011983871459960938,-0.006258244160562754,0.0034620072692632675
-0.2706880569458008,5.520540714263916,7.738687515258789,-0.10133028775453568,0.00226362026296556,0.00452724052593112
-0.34725838899612427,5.510969638824463,8.025826454162598,-0.13754820823669434,0.040612008422613144,0.008788172155618668
-0.3209373354911804,5.479863166809082,8.162217140197754,-0.13435252010822296,0.067242830991745,0.014114337973296642
-0.2994019389152527,5.443671703338623,8.444869041442871,-0.09706936031579971,0.11730878800153732,0.0077229393646121025
-0.31854450702667236,5.371886730194092,8.483154296875,-0.019440501928329468,0.061916667968034744,-0.010386021807789803
-0.5051847100257874,5.441278457641602,8.322834968566895,0.06151720881462097,-0.009453942999243736,-0.012516488321125507
-0.4262215197086334,5.513362407684326,8.107182502746582,0.1115831583738327,0.03209014609456062,0.018375270068645477
-0.28504499793052673,5.503791332244873,7.8678998947143555,0.1222354918718338,0.06511236727237701,0.0375494658946991
-0.30658039450645447,5.56361198425293,7.741080284118652,0.10838746279478073,0.12476541846990585,0.03648423030972481
-0.5673980712890625,5.625824928283691,7.829614639282227,0.10199606418609619,0.1418091505765915,0.0482017956674099
-0.5434698462486267,5.618646621704102,8.076075553894043,0.10412652790546417,0.0768299326300621,0.07483261823654175
-0.4334000051021576,5.582754135131836,8.08086109161377,0.10199606418609619,0.010785484686493874,0.07696308940649033
-0.31854450702667236,5.606682777404785,7.927720546722412,0.11371362209320068,0.03954677656292915,0.08655018359422684
-0.4214358925819397,5.8220367431640625,7.875078201293945,0.10625699162483215,0.11198262125253677,0.08761541545391083
-0.6487540602684021,5.85792875289917,7.860721588134766,0.06258244067430496,0.11624355614185333,0.12809427082538605
-0.5003990530967712,5.872285842895508,8.23430061340332,0.024234050884842873,0.10665645450353622,0.14194230735301971
-0.4453641176223755,5.812465190887451,8.363512992858887,0.019973119720816612,0.06298190355300903,0.12702903151512146
-0.4286143481731415,5.834000587463379,8.327621459960938,0.03488638252019882,0.023568280041217804,0.10998530685901642
-0.38793638348579407,5.778965950012207,8.07368278503418,0.0689738392829895,-0.019041040912270546,0.06204982474446297
-0.3329014480113983,5.685645580291748,7.901399612426758,0.08282186836004257,-0.06697652488946915,0.03222329914569855
-0.33768710494041443,5.668895721435547,7.7578301429748535,0.06577813625335693,-0.11171631515026093,-0.002929390873759985
-0.2273181527853012,5.7047882080078125,7.657331466674805,0.027429750189185143,-0.08508548885583878,-0.026364516466856003
-0.2922234535217285,5.668895721435547,7.664510250091553,-0.0002663082559593022,-0.055258963257074356,-0.03382114693522453
-0.16749759018421173,5.649753570556641,7.7099738121032715,-0.009853405877947807,-0.035019535571336746,-0.018907885998487473
-0.16271193325519562,5.625824928283691,7.788936614990234,-0.009853405877947807,-0.024367205798625946,-0.013581721112132072
-0.0933200865983963,5.673681735992432,7.930113315582275,-0.017310036346316338,-0.024367205798625946,-0.025299284607172012
-0.30179476737976074,5.721538066864014,7.877471446990967,-0.022636201232671738,0.00226362026296556,-0.05086487531661987
-0.5171487927436829,5.764608860015869,7.8918280601501465,-0.024766668677330017,0.025698747485876083,-0.04127778112888336
-0.47168517112731934,5.697609901428223,7.848757266998291,-0.023701434955000877,-0.035019535571336746,-0.029560215771198273
-0.4142574071884155,5.764608860015869,7.846364498138428,-0.03328853100538254,-0.12023817747831345,-0.05938674136996269
-0.4453641176223755,5.877071380615234,8.200801849365234,-0.05565842613577843,-0.15965180099010468,-0.07110430300235748
-0.32572299242019653,5.733502388000488,8.33719253540039,-0.031158065423369408,-0.09999874979257584,-0.06151720881462097
-0.3329014480113983,5.790929794311523,8.387441635131836,0.05086487531661987,-0.045671865344047546,-0.04127778112888336
-0.37597227096557617,6.025725841522217,7.616354465484619,0.13075734674930573,0.15991811454296112,-0.010386021807789803
-0.36640095710754395,5.836393356323242,7.810472011566162,0.13608351349830627,0.031024912372231483,0.04926702752709389
-0.2392822653055191,5.862714767456055,7.791329860687256,0.09666989743709564,-0.042476166039705276,0.04500609636306763
-0.33529427647590637,5.786144256591797,7.989933967590332,0.07216953486204147,-0.040345702320337296,0.017310036346316338
0.02632104977965355,5.56361198425293,7.88704252243042,0.07216953486204147,0.007589785382151604,-0.009320789016783237
-0.4166502356529236,5.946463584899902,7.657331466674805,0.08708280324935913,0.15672241151332855,-0.04979964345693588
-0.5937191247940063,5.8387861251831055,7.788936614990234,0.0902784988284111,0.10772168636322021,0.023701434955000877
-0.45254257321357727,5.915356636047363,7.736294746398926,0.06577813625335693,0.034220609813928604,0.07163692265748978
-0.3161516785621643,5.831607818603516,7.94925594329834,0.0370168462395668,0.043807707726955414,0.04500609636306763
-0.02871387079358101,5.688038349151611,8.128717422485352,0.04873441159725189,0.08854749798774719,-0.0050598569214344025
-0.02153540402650833,5.733502388000488,8.097610473632812,0.09986559301614761,0.2270277887582779,-0.05086487531661987
-0.385543555021286,5.85792875289917,7.496713161468506,0.13608351349830627,0.35898351669311523,-0.04979964345693588
-1.3193426132202148,6.15972375869751,8.447261810302734,0.17975807189941406,0.36644014716148376,0.04074516147375107
-0.6511468887329102,6.0711894035339355,8.399405479431152,0.272433340549469,0.1822880059480667,0.1547250896692276
0.13878370821475983,5.642574787139893,8.380263328552246,0.43860968947410583,0.23981058597564697,0.09400681406259537
-0.701396107673645,6.085546016693115,7.341179847717285,0.699458658695221,0.7584459185600281,0.06418029218912125
-0.893121063709259,6.296114444732666,7.188039302825928,0.7026543617248535,0.8149032592773438,0.15259462594985962
-0.9433703422546387,6.449255466461182,6.984350204467773,0.6909367442131042,0.790402889251709,0.2259625494480133
-0.39032918214797974,6.1573309898376465,6.436094760894775,0.6131747364997864,0.7935985922813416,0.22809302806854248
-1.0630114078521729,6.485147476196289,6.527021884918213,0.44713157415390015,0.7967942953109741,0.10785484313964844
-2.3030917644500732,7.246663570404053,7.003492832183838,0.26710718870162964,0.6306179761886597,0.11744193732738495
-1.9465612173080444,7.232306480407715,7.05134916305542,0.1850842386484146,0.5869433879852295,0.17802706360816956
-1.2831511497497559,6.798906326293945,7.036992073059082,0.09240896254777908,0.7169018387794495,0.235549658536911
-1.3193426132202148,6.753442764282227,7.154539585113525,0.07323476672172546,0.7328802943229675,0.2163754552602768
-1.5538392066955566,6.832406044006348,7.269395351409912,0.08921326696872711,0.5933347940444946,0.1833532303571701
-1.709372639656067,7.021738052368164,7.417750358581543,0.1318225860595703,0.42076703906059265,0.20891882479190826
-1.0031908750534058,6.765407085418701,7.776972770690918,0.2937380075454712,0.37922295928001404,0.24087581038475037
-1.252044439315796,6.786942481994629,6.555736064910889,0.48761042952537537,0.3930709958076477,0.03435376659035683
-1.4294124841690063,6.920940399169922,5.655735492706299,0.3970656096935272,0.35791829228401184,0.005592473316937685
-1.9489539861679077,7.423732280731201,3.591925859451294,0.08069140464067459,0.26111525297164917,-0.016777420416474342
-1.5801602602005005,6.851548671722412,6.649354934692383,-0.3633776009082794,-0.045671865344047546,-0.014646953903138638
-1.561017632484436,6.899405002593994,7.645068168640137,0.002929390873759985,-0.041410934180021286,-0.07856093347072601
-1.8194425106048584,7.038487911224365,6.1944193840026855,0.07110430300235748,-0.14899946749210358,-0.09347419440746307
