accX,accY,accZ,gyroX,gyroY,gyroZ
0.6039996147155762,4.0816731452941895,8.394099235534668,-0.022654373198747635,0.2390577495098114,0.14250613749027252
0.5963190197944641,4.088540077209473,8.48528003692627,-0.0737576112151146,0.23479914665222168,0.14357078075408936
0.5241290926933289,3.9509499073028564,8.737236976623535,-0.10995574295520782,0.16666148602962494,0.1307949721813202
0.5425739884376526,3.917038679122925,8.869540214538574,-0.16453218460083008,0.05019566789269447,0.11304497718811035
0.5218018889427185,3.8896968364715576,8.834049224853516,-0.24116960167884827,-0.06131341680884361,0.08998917788267136
0.5262455344200134,4.010661602020264,8.914666175842285,-0.29359927773475647,-0.07972663640975952,0.08749335259199142
0.4778730869293213,3.996497392654419,9.206385612487793,-0.2540850341320038,-0.0610690712928772,0.0996408462524414
0.38824373483657837,3.985656261444092,8.906295776367188,-0.18668042123317719,-0.10360274463891983,0.13990558683872223
0.41143879294395447,4.046018600463867,8.702482223510742,-0.23232077062129974,-0.15056955814361572,0.1658935397863388
0.4980514347553253,3.9378678798675537,8.493574142456055,-0.28159141540527344,-0.2082701325416565,0.19659388065338135
0.6163345575332642,3.877467155456543,8.112608909606934,-0.36676350235939026,-0.22326251864433289,0.22087141871452332
0.7186627388000488,3.790318012237549,8.279571533203125,-0.44863688945770264,-0.11421434581279755,0.24504423141479492
0.722627580165863,3.4665262699127197,8.886338233947754,-0.4090877175331116,-0.012880530208349228,0.2664768695831299
0.7637790441513062,3.2740516662597656,9.087335586547852,-0.2972470223903656,0.017994344234466553,0.2647489905357361
0.7862079739570618,3.266150951385498,9.016151428222656,-0.2137330174446106,0.0388859361410141,0.25220006704330444
0.8043464422225952,3.3072259426116943,8.98134994506836,-0.1897696554660797,0.0625176951289177,0.2500707805156708
0.9405477643013,3.2283127307891846,9.053520202636719,-0.18762288987636566,0.055972710251808167,0.24033184349536896
1.0654963254928589,3.1484804153442383,9.194299697875977,-0.16339772939682007,0.03897320106625557,0.20004963874816895
1.107567310333252,3.162903308868408,9.183572769165039,-0.11585495620965958,0.042184606194496155,0.15891222655773163
1.151208758354187,3.2280447483062744,9.177358627319336,-0.0688532367348671,0.08271115273237228,0.12861330807209015
1.0887200832366943,3.1905899047851562,9.20967960357666,-0.02254965342581272,0.11211995035409927,0.1111949235200882
1.110392451286316,3.1162352561950684,9.298839569091797,0.02139773592352867,0.1183856800198555,0.08021533489227295
1.134650468826294,3.1053466796875,9.220281600952148,0.0789412409067154,0.1388409435749054,0.04445353522896767
1.0303494930267334,3.182018518447876,9.140746116638184,0.14062117040157318,0.1912357211112976,0.022183135151863098
0.9125739336013794,3.1954259872436523,9.02544116973877,0.18352137506008148,0.23226842284202576,0.02431243658065796
0.9007178544998169,3.1628074645996094,8.967702865600586,0.20415116846561432,0.29082420468330383,0.012217304669320583
0.785422682762146,3.1827752590179443,8.969407081604004,0.22558380663394928,0.3237236738204956,-0.012095131911337376
0.5974778532981873,3.339078187942505,8.958996772766113,0.22832396626472473,0.3121521472930908,-0.01630137488245964
0.4738125205039978,3.403491735458374,8.94616413116455,0.23542746901512146,0.31616640090942383,-0.0031939526088535786
0.4678557515144348,3.421898365020752,8.862990379333496,0.2373473197221756,0.2952747941017151,-0.0023911010939627886
0.43060195446014404,3.484147787094116,8.814339637756348,0.21875956654548645,0.2572615444660187,-0.018989183008670807
0.32147425413131714,3.589463949203491,8.722412109375,0.18196803331375122,0.20992819964885712,-0.03897320106625557
0.2590526044368744,3.6702537536621094,8.736068725585938,0.14193017780780792,0.1875007152557373,-0.04778711497783661
0.1604115068912506,3.7598161697387695,8.709568977355957,0.10663961619138718,0.16249015927314758,-0.03588397055864334
0.13908396661281586,3.7051804065704346,8.730321884155273,0.07475244998931885,0.14159856736660004,-0.025220006704330444
0.14542381465435028,3.7106199264526367,8.780132293701172,0.055571284145116806,0.1238485649228096,-0.031119219958782196
0.11536221206188202,3.7674965858459473,8.83823299407959,0.05466371029615402,0.1448972374200821,-0.036390114575624466
0.004999093245714903,3.757584810256958,8.873332977294922,0.06384414434432983,0.14177308976650238,-0.03211405873298645
-0.014068328775465488,3.7757997512817383,8.948826789855957,0.04632103815674782,0.10040879249572754,-0.03300417587161064
-0.0019919758196920156,3.8503358364105225,9.029358863830566,0.018849555402994156,0.024678954854607582,-0.029164452105760574
-0.0574704185128212,3.8085811138153076,9.041510581970215,0.009808750823140144,-0.05873033031821251,-0.03778637945652008
-0.4303625524044037,3.9060251712799072,7.509853839874268,0.016632987186312675,-0.4257032573223114,-0.05080653354525566
0.3421410024166107,4.181530952453613,7.914004802703857,-0.14999359846115112,-0.16290903091430664,0.023806290701031685
0.38053441047668457,3.45957350730896,8.673273086547852,-0.1518261879682541,0.12461651116609573,0.014154620468616486
-0.21947167813777924,3.6442527770996094,9.200370788574219,-0.11185815185308456,0.03396410867571831,0.014206980355083942
0.10130345821380615,3.692481517791748,9.270885467529297,-0.07319910824298859,-0.0789412409067154,0.05461135134100914
0.2604316771030426,3.523833990097046,9.042564392089844,-0.06415830552577972,-0.14278538525104523,0.03176499158143997
0.34330934286117554,3.5723023414611816,8.862817764282227,-0.07677703350782394,-0.1431693583726883,0.008412486873567104
0.2785414159297943,3.615445852279663,8.886117935180664,-0.10086257755756378,-0.13606587052345276,0.006143558770418167
0.3561423122882843,3.613750457763672,8.961621284484863,-0.11243411153554916,-0.11842058598995209,0.01975712738931179
0.3884161412715912,3.492058038711548,9.083285331726074,-0.08660323917865753,-0.10293951630592346,0.02719222940504551
0.4559134542942047,3.438868522644043,9.090679168701172,-0.04567526653409004,-0.0746128261089325,0.02010619267821312
0.4621000587940216,3.4281809329986572,9.0830078125,-0.01780235767364502,-0.05438445881009102,0.015306537039577961
0.5068046450614929,3.4785261154174805,9.066267967224121,-0.004502949304878712,-0.06649704277515411,0.013596114702522755
0.5501875877380371,3.488801956176758,9.007331848144531,-0.0010646508308127522,-0.07939502596855164,0.012950343079864979
0.5833137035369873,3.423219919204712,8.937488555908203,-0.011588986031711102,-0.09396852552890778,0.0044156829826533794
0.5604730248451233,3.422980785369873,9.008864402770996,-0.021293016150593758,-0.11351621150970459,-0.010768681764602661
0.4947282671928406,3.426571846008301,8.989068031311035,-0.009477137587964535,-0.13205161690711975,-0.024783674627542496
0.4774516820907593,3.4544692039489746,8.897504806518555,-0.00043633230961859226,-0.11650072783231735,-0.029269171878695488
0.4717918038368225,3.472214937210083,8.865211486816406,0.012339477427303791,-0.07745771110057831,-0.02949606440961361
0.3860410749912262,3.5961484909057617,8.844765663146973,-0.0016755161341279745,-0.03654719516634941,-0.031206486746668816
0.4216189384460449,3.5970773696899414,8.892410278320312,-0.01864011585712433,-0.03429571911692619,-0.02192133478820324
0.4916732609272003,3.558406352996826,9.063882827758789,-0.014800392091274261,-0.04075343906879425,-0.019896753132343292
0.469684898853302,3.461268663406372,8.558197975158691,0.033056534826755524,-0.015358896926045418,-0.0357094369828701
0.1521371454000473,3.7461211681365967,8.23491382598877,0.08705702424049377,0.2191609889268875,0.016231561079621315
0.44077253341674805,3.591829299926758,9.127127647399902,0.006527531426399946,0.07771950960159302,0.027785642072558403
0.5204898715019226,3.397468090057373,9.036952018737793,-0.08854055404663086,-0.12130038440227509,-0.042498767375946045
0.44516828656196594,3.477405548095703,9.163806915283203,-0.0036128314677625895,-0.06140068173408508,-0.026686083525419235
0.5029355883598328,3.464859962463379,8.988733291625977,0.04773475602269173,-0.023439772427082062,0.0044156829826533794
0.5495650768280029,3.4912824630737305,8.922844886779785,0.03274237737059593,-0.019652407616376877,0.022619467228651047
0.6923935413360596,3.4548330307006836,9.001786231994629,-0.007976154796779156,-0.06658431142568588,0.01736602559685707
0.7763725519180298,3.353538990020752,8.61449146270752,-0.016371188685297966,-0.07471754401922226,-0.009651671163737774
0.5130199790000916,3.503598213195801,8.749188423156738,0.02949606440961361,0.07588691264390945,0.006894050631672144
0.5753458142280579,3.438629150390625,9.140707969665527,0.012758356519043446,0.029251718893647194,0.0
0.6729047298431396,3.440419912338257,9.018325805664062,-0.03366740047931671,-0.11742575466632843,-0.019390607252717018
0.6775494813919067,3.29538893699646,8.924281120300293,-0.035587262362241745,-0.11582005023956299,-0.04384266957640648
0.5386666059494019,3.4556374549865723,8.833646774291992,-0.007853982038795948,-0.028326693922281265,-0.06586872786283493
0.39003461599349976,3.667179584503174,8.973860740661621,0.02033308520913124,0.028361599892377853,-0.027646014466881752
0.48291048407554626,3.647949457168579,8.947916984558105,0.04619886353611946,0.02497566118836403,0.012095131911337376
0.6281139850616455,3.6030819416046143,8.797245025634766,0.047769661992788315,0.04098033159971237,0.018483037129044533
0.6279128789901733,3.5809881687164307,8.870162963867188,0.03164282068610191,0.059288833290338516,0.01377064734697342
0.5211123824119568,3.5012805461883545,8.926177978515625,0.019879300147294998,0.03796090930700302,0.010890854522585869
0.5285248160362244,3.4425747394561768,8.920575141906738,0.004747295752167702,0.028274333104491234,0.014905111864209175
0.5500152111053467,3.409017562866211,8.976378440856934,0.011554080061614513,0.03989822790026665,0.013840461149811745
0.5822698473930359,3.4285542964935303,8.960433959960938,0.050160761922597885,0.07175048440694809,0.01242674421519041
0.5934555530548096,3.4418373107910156,8.925755500793457,0.06960373371839523,0.09738937020301819,0.01473057921975851
0.5722525119781494,3.5164597034454346,8.880908012390137,0.09742427617311478,0.14953981339931488,0.012828170321881771
0.5625032782554626,3.538639545440674,8.87362003326416,0.09789551794528961,0.15934856235980988,0.009651671163737774
0.47977885603904724,3.5712392330169678,8.851555824279785,0.08255407214164734,0.14159856736660004,0.0021293016616255045
0.4867699146270752,3.582367420196533,8.858698844909668,0.06147049739956856,0.13948671519756317,-0.006370451766997576
0.3838288187980652,3.6122469902038574,8.946173667907715,0.044662974774837494,0.12058480083942413,-0.01242674421519041
0.3397180736064911,3.6928837299346924,8.996959686279297,0.027750734239816666,0.07272786647081375,-0.01523672416806221
0.3381187319755554,3.6733663082122803,8.990438461303711,0.018064158037304878,0.03183480724692345,-0.015760323032736778
0.33722808957099915,3.6577656269073486,8.969388961791992,0.01762782596051693,0.02085668407380581,-0.019058994948863983
0.2721632719039917,3.6298205852508545,8.956918716430664,0.024678954854607582,0.004502949304878712,-0.026563910767436028
0.2300061583518982,3.6916964054107666,8.930266380310059,0.021205751225352287,-0.007051130291074514,-0.020402899011969566
0.22689370810985565,3.703169107437134,8.94193172454834,0.021868975833058357,-0.015184364281594753,-0.007731808349490166
0.3428879976272583,3.617265462875366,8.866523742675781,0.011397000402212143,-0.05892231687903404,-0.030368728563189507
0.354284405708313,3.6722359657287598,8.784173011779785,-0.001518436474725604,-0.12334241718053818,-0.03968878835439682
0.29818347096443176,3.6504874229431152,8.76197338104248,-0.0016929693520069122,-0.17207200825214386,-0.0397411473095417
0.387247771024704,3.9350714683532715,7.926186561584473,-0.07496189326047897,-0.08801695704460144,-0.016179202124476433
0.26800692081451416,3.7601704597473145,9.008968353271484,-0.1226966455578804,-0.009477137587964535,0.03844960406422615
0.4814547896385193,3.54443359375,9.098618507385254,-0.04012512043118477,0.007801621686667204,0.018936822190880775
0.4805067181587219,3.5196774005889893,9.228517532348633,-0.03237585723400116,0.0014486232539638877,0.023143066093325615
0.5377568602561951,3.439251661300659,9.216623306274414,-0.016406094655394554,-0.025307273492217064,0.018483037129044533
0.5492585897445679,3.4073128700256348,9.155139923095703,-0.005742133129388094,-0.03663446009159088,0.004433136433362961
0.5748286843299866,3.4225399494171143,9.13963508605957,0.01473057921975851,-0.04075343906879425,-0.015358896926045418
0.4997560679912567,3.461872100830078,9.079798698425293,0.037664204835891724,-0.04064871743321419,-0.022654373198747635
0.46086469292640686,3.5299057960510254,8.925765991210938,0.046670105308294296,-0.033859387040138245,-0.015777776017785072
0.47928088903427124,3.569199323654175,8.847293853759766,0.03817034885287285,-0.016807520762085915,-0.011588986031711102
0.5122729539871216,3.5616815090179443,8.870345115661621,0.030613074079155922,-0.008866272866725922,-0.01567305624485016
0.4743296504020691,3.5681650638580322,8.819568634033203,0.03214896470308304,-0.0071907564997673035,-0.02033308520913124
0.397207647562027,3.6250128746032715,8.79267692565918,0.017872171476483345,0.0011344640515744686,-0.021537363529205322
0.35643917322158813,3.666471004486084,8.825228691101074,0.007382742594927549,-0.0015533430268988013,-0.012095131911337376
0.3584981858730316,3.660111904144287,8.830763816833496,0.00205948855727911,-0.005515240598469973,0.0029321531765162945
0.3999274671077728,3.6413605213165283,8.854389190673828,0.00041887903353199363,-0.001972222002223134,0.007819075137376785
0.4667256772518158,3.597862482070923,8.912866592407227,-0.0026354470755904913,-0.0004886921960860491,0.012444197200238705
0.538618803024292,3.5255768299102783,8.995905876159668,0.019425515085458755,-0.018238689750432968,-0.011030481196939945
0.5592375993728638,3.5530335903167725,8.965538024902344,0.029024824500083923,-0.02652900479733944,-0.013508847914636135
0.6071791648864746,3.5045559406280518,8.848127365112305,0.03220132365822792,-0.033510319888591766,-0.01820378378033638
0.5005221962928772,3.58054780960083,8.932019233703613,-0.043022364377975464,-0.06407103687524796,-0.021101031452417374
0.5139968395233154,3.551060676574707,8.834259986877441,-0.04331907257437706,-0.05841616913676262,-0.027139870449900627
0.44566628336906433,3.5731449127197266,8.809263229370117,-0.028728120028972626,-0.010437068529427052,-0.028099801391363144
0.3849972188472748,3.6465797424316406,8.89543628692627,-0.0024260077625513077,0.03790855035185814,-0.005969026125967503
0.4650018513202667,3.646972417831421,8.959695816040039,0.009285151958465576,0.048834312707185745,0.009075712412595749
0.4833988845348358,3.617035388946533,8.993330001831055,0.007400196045637131,0.036075957119464874,0.009250245057046413
0.5237938761711121,3.5926527976989746,8.978898048400879,-0.008377579972147942,-0.001029744278639555,0.0021293016616255045
0.5584810972213745,3.5762765407562256,9.028382301330566,-0.03447025269269943,-0.029530970379710197,-0.005148721393197775
0.5674641132354736,3.497986078262329,9.067971229553223,-0.03303908184170723,-0.04756022244691849,-0.015027284622192383
0.5653572678565979,3.518049478530884,9.056929588317871,-0.02042035199701786,-0.0457974411547184,-0.021694442257285118
0.5462228059768677,3.4701082706451416,8.98536205291748,0.009616764262318611,-0.03623303398489952,-0.030403634533286095
0.46029964089393616,3.5228476524353027,8.901633262634277,0.014608405530452728,-0.03113667294383049,-0.04029965400695801
0.4397382438182831,3.5489442348480225,8.867241859436035,0.008604473434388638,-0.035360369831323624,-0.0391651876270771
0.17080235481262207,3.753389835357666,8.317447662353516,0.032445669174194336,-0.04605923965573311,-0.037768926471471786
0.3212731182575226,3.814288854598999,8.599273681640625,-0.040596358478069305,0.06318091601133347,0.018657568842172623
0.38700833916664124,3.54526686668396,8.815325736999512,-0.059602994471788406,0.060440752655267715,0.02361430414021015
0.46169784665107727,3.480853319168091,9.126055717468262,-0.0645073652267456,-0.024556782096624374,-0.015707964077591896
0.42187750339508057,3.6045186519622803,9.0626859664917,-0.052726395428180695,-0.035499997437000275,-0.004974188283085823
0.4522646963596344,3.611978769302368,9.068660736083984,-0.02082177810370922,-0.0071907564997673035,0.004363323096185923
0.5378335118293762,3.5752899646759033,8.976667404174805,0.0023911010939627886,0.0028448866214603186,0.01335176918655634
0.5438477396965027,3.587749481201172,8.961343765258789,0.015917403623461723,0.02892010472714901,0.019984019920229912
0.5562113523483276,3.5236806869506836,8.99470043182373,0.014852751977741718,0.0190066359937191,0.027000242844223976
0.6109523773193359,3.4902288913726807,9.010415077209473,-0.0033684854861348867,-0.010978121310472488,0.018238689750432968
0.6607613563537598,3.437910795211792,9.010444641113281,-0.00815068744122982,-0.032759830355644226,-0.0007853981805965304
0.6344826221466064,3.4308717250823975,9.006278038024902,-0.0028972465079277754,-0.032393310219049454,-0.009808750823140144
0.595581591129303,3.4098124504089355,8.966697692871094,0.017837265506386757,-0.015742870047688484,-0.02427753061056137
0.45757025480270386,3.538045883178711,8.881272315979004,0.019250981509685516,0.0045378562062978745,-0.028710665181279182
0.42333316802978516,3.5348377227783203,8.916036605834961,0.0006806784076616168,0.003228859044611454,-0.02560397982597351
0.40249404311180115,3.496300458908081,8.989949226379395,0.006719517521560192,-0.0067544239573180676,-0.02923426404595375
0.4246739149093628,3.577866315841675,8.969829559326172,0.024417156353592873,0.00010471975838299841,-0.03363249450922012
0.342658132314682,3.6088855266571045,8.942286491394043,0.031171580776572227,0.005986479111015797,-0.023352505639195442
0.4107588231563568,3.6641244888305664,8.924894332885742,0.027925267815589905,-0.010035643354058266,-0.009512044489383698
0.457723468542099,3.821356773376465,8.23386001586914,-0.05780530348420143,-0.04461061581969261,0.01904154196381569
0.6326150894165039,3.437297821044922,8.701668739318848,-0.06131341680884361,0.10194467753171921,0.021729348227381706
0.2982504963874817,3.460435628890991,9.167149543762207,-0.01226966455578804,0.02457423508167267,-0.009320057928562164
0.4424293339252472,3.6017699241638184,9.150724411010742,0.008011061698198318,-0.02834414690732956,0.022689281031489372
0.5164197683334351,3.501338243484497,8.929635047912598,0.014137166552245617,-0.04127703607082367,0.017505653202533722
0.6319639086723328,3.586916208267212,8.802128791809082,0.01638864167034626,-0.01719149388372898,0.018221236765384674
0.6322512030601501,3.5403060913085938,8.824759483337402,0.0046774824149906635,-0.0025830871891230345,0.013316862285137177
0.6772909760475159,3.47316312789917,8.843931198120117,-0.016318827867507935,-0.005148721393197775,0.004642575979232788
0.663768470287323,3.4873270988464355,8.952925682067871,-0.034400440752506256,-0.0239110104739666,-0.005899212788790464
0.6727515459060669,3.4260547161102295,8.981427192687988,-0.04248131439089775,-0.04237659275531769,-0.01523672416806221
0.6583096981048584,3.3888487815856934,9.035487174987793,-0.03659955412149429,-0.041695915162563324,-0.031014500185847282
0.6144479513168335,3.4300482273101807,9.083161354064941,-0.017872171476483345,-0.03047344833612442,-0.04611159861087799
0.32627221941947937,3.5479769706726074,8.87580394744873,0.044977135956287384,-0.15283848345279694,-0.07004006206989288
0.3429358899593353,3.941392421722412,8.394521713256836,-0.04017747938632965,-0.021380282938480377,-0.019861847162246704
0.45900678634643555,3.59621524810791,8.847437858581543,-0.08648106455802917,0.10246828198432922,0.014852751977741718
0.40532878041267395,3.478822946548462,9.523090362548828,-0.04698426276445389,0.06524040549993515,0.003525565145537257
0.3352839946746826,3.458357334136963,9.53414249420166,-0.02419026382267475,0.0073129297234117985,0.015289084054529667
0.5018438696861267,3.5261802673339844,9.327359199523926,0.016598081216216087,-0.029827676713466644,0.02157226949930191
0.5679142475128174,3.4913876056671143,9.165770530700684,0.046303585171699524,-0.006998770404607058,0.026424285024404526
0.6342431902885437,3.5658953189849854,9.117962837219238,0.05895722284913063,-0.016912240535020828,0.019198622554540634
0.6612401604652405,3.5691609382629395,8.994919776916504,0.05605997517704964,-0.05710717290639877,0.013631021603941917
0.5609518885612488,3.650477647781372,8.262945175170898,0.05778785049915314,-0.10964158177375793,0.0034208453726023436
0.6927000284194946,3.667917013168335,8.20203685760498,-0.026162484660744667,0.015690509229898453,0.02975786291062832
0.7461481690406799,3.188645839691162,8.97290325164795,-0.039357174187898636,0.04729842394590378,0.0005410520825535059
0.49280330538749695,3.4432547092437744,8.992497444152832,-0.027960173785686493,-0.034435346722602844,-0.022392574697732925
0.569379448890686,3.4431111812591553,8.89367389678955,-0.019024088978767395,-0.029775317758321762,-0.016022123396396637
0.5613828301429749,3.501807451248169,8.798518180847168,-0.0091455252841115,-0.008796459063887596,-0.02183406800031662
0.5744168758392334,3.5933327674865723,8.825583457946777,-0.021589722484350204,0.021816615015268326,-0.01448623277246952
0.517530620098114,3.570674180984497,8.946460723876953,-0.027296949177980423,0.0046774824149906635,-0.011554080061614513
0.5299900770187378,3.585460662841797,8.996796607971191,-0.03237585723400116,8.726646046852693e-05,-0.005305801052600145
0.5197524428367615,3.467052936553955,9.138132095336914,-0.011885692365467548,-0.0207345113158226,0.0016929693520069122
0.583754301071167,3.4424312114715576,9.058528900146484,-0.009337511844933033,-0.05576327070593834,-0.0005061454721726477
0.6151087284088135,3.478104829788208,8.970288276672363,-0.0034382985904812813,-0.04602433368563652,-0.002600540639832616
0.6446627378463745,3.5011847019195557,8.942429542541504,0.0028623400721699,-0.036337755620479584,-0.0014486232539638877
0.6629736423492432,3.4821174144744873,8.880936622619629,0.007260569836944342,-0.010419615544378757,-0.001972222002223134
0.6654061079025269,3.4133942127227783,8.939355850219727,-0.006510077975690365,-0.005078908056020737,-0.0034732052590698004
0.6695336699485779,3.411794900894165,9.067875862121582,-0.01710422709584236,-0.03640756756067276,-0.014381512999534607
0.7100723385810852,3.431274175643921,9.068202018737793,-0.004607669077813625,-0.06288421154022217,-0.030682887881994247
0.6969233751296997,3.474714517593384,8.902820587158203,0.011728612706065178,-0.042324233800172806,-0.0420449823141098
0.5199439525604248,3.564669370651245,9.055474281311035,-0.023998277261853218,-0.017749998718500137,0.02019345946609974
0.6422590017318726,3.4416074752807617,8.901077270507812,-0.046931903809309006,-0.06129596382379532,-0.0011344640515744686
0.5952081084251404,3.462350845336914,8.973285675048828,-0.03520328924059868,-0.006667157635092735,-0.011327186599373817
0.5656828284263611,3.4784493446350098,9.136255264282227,0.0050090947188436985,0.014940018765628338,0.005323254037648439
0.6733452677726746,3.4665262699127197,9.05851936340332,0.04335397854447365,0.012636183761060238,0.011746065691113472
0.6992889046669006,3.4593820571899414,8.945388793945312,0.050562188029289246,0.02024581842124462,-0.00041887903353199363
0.6763811111450195,3.4820597171783447,8.96367073059082,0.025935592129826546,0.003909537568688393,-0.014381512999534607
0.622636079788208,3.460330009460449,9.004735946655273,0.007749261800199747,-0.03817034885287285,-0.02378883771598339
0.5766961574554443,3.512294054031372,8.820258140563965,0.018343409523367882,-0.031206486746668816,-0.04043927788734436
0.4778347909450531,3.4987905025482178,8.867644309997559,0.016667895019054413,-0.01242674421519041,-0.033719759434461594
0.19223524630069733,3.819795608520508,8.161805152893066,0.01630137488245964,0.055867988616228104,-0.002548180753365159
0.5599080324172974,3.581993818283081,8.822997093200684,-0.023352505639195442,0.08890707045793533,0.03698352724313736
0.5528690814971924,3.3573315143585205,9.167542457580566,-0.02755874954164028,-0.018849555402994156,-0.00923279207199812
0.5322789549827576,3.5589711666107178,9.04255485534668,-0.03256784379482269,-0.04420918971300125,-0.006894050631672144
0.5242535471916199,3.50484299659729,9.03797721862793,-0.012234757654368877,-0.019949113950133324,-0.0013613568153232336
0.606930136680603,3.589310646057129,8.975689888000488,0.02586578018963337,0.012060225009918213,0.011327186599373817
0.6468462347984314,3.591024875640869,8.986396789550781,0.04625122621655464,0.026598818600177765,0.013997540809214115
0.6240822076797485,3.5766403675079346,8.924980163574219,0.03822271153330803,0.007260569836944342,0.013753194361925125
0.6031185984611511,3.6000940799713135,8.873562812805176,0.011431906372308731,-0.016755159944295883,0.02361430414021015
0.6814376711845398,3.488476276397705,8.917309761047363,-0.011972958222031593,-0.036861352622509,0.024015730246901512
0.721564531326294,3.4560399055480957,8.931378364562988,-0.012060225009918213,-0.030805060639977455,0.009878563694655895
0.6826347708702087,3.429368495941162,8.964322090148926,0.00376991112716496,-0.019687313586473465,-0.004956734832376242
0.6481103897094727,3.4834868907928467,8.938024520874023,0.02134537696838379,-0.006597344763576984,-0.007382742594927549
0.6241108775138855,3.483065366744995,8.916715621948242,0.023544492200016975,0.008953538723289967,-0.010192723013460636
0.6291674971580505,3.5531294345855713,8.874913215637207,0.03300417587161064,0.007487462367862463,-0.016458455473184586
0.612465500831604,3.5885252952575684,8.8524169921875,0.03611086308956146,0.028047440573573112,-0.01638864167034626
0.6107033491134644,3.5788145065307617,8.828523635864258,0.033719759434461594,0.048432886600494385,-0.008534659631550312
0.5962328314781189,3.5894830226898193,8.91100788116455,0.01226966455578804,0.03511602431535721,-0.00143117003608495
0.6177423596382141,3.5767457485198975,8.925976753234863,0.0008552113431505859,0.021781709045171738,-0.001483529806137085
0.6401137709617615,3.5069499015808105,8.974655151367188,-0.0025307273026555777,0.012915436178445816,-0.01151917316019535
0.6252217888832092,3.553196430206299,9.005646705627441,0.007051130291074514,0.00874409917742014,-0.020926497876644135
0.5867517590522766,3.4979286193847656,8.961592674255371,0.016667895019054413,0.011658798903226852,-0.021554816514253616
0.5538938045501709,3.4993653297424316,8.998109817504883,0.02188642881810665,0.00954695139080286,-0.02506292797625065
0.5008191466331482,3.561518907546997,8.978984832763672,0.024068091064691544,-0.006649704650044441,-0.02555162087082863
0.5379388332366943,3.6109349727630615,8.959763526916504,0.020559977740049362,-0.023684117943048477,-0.022567106410861015
0.5448819994926453,3.580662488937378,8.913689613342285,0.0200189258903265,-0.02958333119750023,-0.022026054561138153
0.5727696418762207,3.595075845718384,8.803987503051758,0.01788962446153164,-0.022968532517552376,-0.025359634310007095
0.24892036616802216,4.015564918518066,7.92586088180542,-0.035360369831323624,0.05021312087774277,-0.0019896754529327154
0.5399020314216614,3.5962345600128174,8.869473457336426,-0.08691739290952682,0.05143485218286514,0.0345575176179409
0.6293686032295227,3.452946424484253,9.410141944885254,-0.03309144079685211,-0.04619886353611946,-0.0070685832761228085
0.48452895879745483,3.5376245975494385,8.977729797363281,-0.007731808349490166,-0.04756022244691849,-0.008936085738241673
0.4451970160007477,3.5736045837402344,8.916869163513184,0.0038920841179788113,0.0070685832761228085,-0.0008726646192371845
0.4885895252227783,3.64635968208313,8.955713272094727,0.006021386012434959,0.017383478581905365,0.022043507546186447
0.5411661863327026,3.6300885677337646,8.937114715576172,-0.001972222002223134,-0.008517206646502018,0.02932153083384037
0.6008297204971313,3.5976901054382324,8.863219261169434,-0.014276793226599693,-0.017348572611808777,0.024242622777819633
0.5997284054756165,3.57099986076355,8.830554008483887,-0.018570303916931152,-0.01104793418198824,0.021764256060123444
0.5931395292282104,3.514199733734131,8.832018852233887,-0.017086774110794067,0.007173303049057722,0.022619467228651047
0.5589024424552917,3.494978904724121,8.879194259643555,-0.01975712738931179,0.01096066739410162,0.0184306763112545
0.5044391751289368,3.513375997543335,8.873141288757324,-0.04012512043118477,-0.002373647876083851,0.020437804982066154
0.530832827091217,3.529991865158081,8.922088623046875,-0.05349434167146683,-0.0073303827084600925,0.026965336874127388
0.5364448428153992,3.510512590408325,8.976283073425293,-0.046390850096940994,0.0052534411661326885,0.03007202222943306
0.5472761988639832,3.558176279067993,8.99921989440918,-0.02755874954164028,0.009861109778285027,0.036128316074609756
0.5747807621955872,3.552957057952881,8.965031623840332,-0.020228365436196327,0.018291050568223,0.03848451003432274
0.5253739953041077,3.5557055473327637,8.954965591430664,-0.02174680307507515,0.007906341925263405,0.038152895867824554
0.504649817943573,3.5769755840301514,8.816446304321289,-0.05209807679057121,-0.0020943949930369854,0.048956483602523804
0.48312118649482727,3.528277635574341,8.893712043762207,-0.07686430215835571,-0.003001966280862689,0.061243604868650436
0.5255177021026611,3.4878251552581787,8.93260383605957,-0.07962191849946976,-0.015254177153110504,0.06466444581747055
0.5727983713150024,3.4902193546295166,8.793347358703613,-0.11367329210042953,-0.053354714065790176,0.08154178410768509
0.5759970545768738,3.4949216842651367,8.801210403442383,-0.12082914263010025,-0.026825711131095886,0.08227481693029404
0.5605975389480591,3.422032356262207,8.964618682861328,-0.1013861745595932,0.006928957067430019,0.09484118968248367
0.5806513428688049,3.3863494396209717,9.097381591796875,-0.0699876993894577,0.00038397242315113544,0.10285225510597229
0.7679162621498108,3.3634703159332275,8.940552711486816,-0.057735491544008255,-0.011990412138402462,0.10058332234621048
0.8011860847473145,3.310424327850342,8.981608390808105,-0.05440191179513931,0.018797196447849274,0.07899360358715057
0.7768705487251282,3.287832736968994,9.105982780456543,-0.03857177495956421,0.03548254445195198,0.061453044414520264
0.7211239337921143,3.2989609241485596,9.137336730957031,-0.02457423508167267,0.021729348227381706,0.050597093999385834
0.7099382877349854,3.292381525039673,9.116353988647461,-0.024207716807723045,0.015062191523611546,0.04335397854447365
0.7063852548599243,3.2839157581329346,9.108203887939453,0.014940018765628338,-0.003979350905865431,0.010541788302361965
0.6789190173149109,3.262415885925293,9.06790542602539,0.02068215236067772,-0.010262535884976387,0.002600540639832616
0.6405255794525146,3.3339545726776123,8.995360374450684,0.029792770743370056,-0.012583823874592781,0.00045378561480902135
0.6514622569084167,3.4224443435668945,8.906028747558594,0.006352998316287994,-0.012042772024869919,0.0007330382941290736
0.6627342104911804,3.413940191268921,8.905577659606934,0.003909537568688393,-0.014713125303387642,0.007522369269281626
0.5219647288322449,3.380277633666992,8.458685874938965,0.09976302087306976,-0.07559020817279816,-0.025830872356891632
0.6058383584022522,3.7893412113189697,8.286609649658203,0.027052603662014008,0.10869910567998886,0.04455825686454773
0.7960816621780396,3.2269721031188965,9.30213451385498,-0.13901548087596893,-0.11182324588298798,0.004171337001025677
0.7969818711280823,3.3060574531555176,9.053404808044434,-0.03249803185462952,-0.08628907799720764,-0.023893557488918304
0.8336801528930664,3.2711498737335205,9.017243385314941,-0.013473941944539547,-0.06126105785369873,-0.019826939329504967
0.6256431937217712,3.477166175842285,8.51195240020752,0.06347762793302536,0.059812434017658234,-0.05115560069680214
0.36258748173713684,3.5626296997070312,8.52351188659668,0.09602801501750946,0.22142991423606873,0.006597344763576984
0.46106579899787903,3.473546028137207,9.020691871643066,0.009424777701497078,0.07908086478710175,0.04000294581055641
0.6023236513137817,3.445476531982422,9.138121604919434,-0.06850416958332062,-0.055431656539440155,0.0388859361410141
0.8995877504348755,3.1849489212036133,8.96100902557373,-0.16669639945030212,-0.15809191763401031,0.019146261736750603
0.8371278047561646,3.1464407444000244,9.079943656921387,-0.06719517707824707,0.010698867961764336,-0.015254177153110504
0.7147170901298523,3.244133710861206,9.347806930541992,-0.010681414976716042,0.041085049510002136,-6.981316983001307e-05
0.7520187497138977,3.1796913146972656,9.247210502624512,0.07169812172651291,0.063355453312397,0.007504915818572044
0.7551599740982056,3.2605292797088623,9.032413482666016,0.07440338283777237,0.06419321149587631,0.004171337001025677
0.7687877416610718,3.2882063388824463,9.00585651397705,0.029077185317873955,0.012653636746108532,-0.005270894151180983
0.812831461429596,3.2638332843780518,8.990562438964844,-0.01532399095594883,-0.04366813600063324,-0.020961403846740723
0.803934633731842,3.2439708709716797,8.997821807861328,-0.023893557488918304,-0.05579817667603493,-0.03171263262629509
0.7660105228424072,3.272672653198242,8.94067668914795,-0.007679448463022709,-0.037629298865795135,-0.038554321974515915
0.7009648084640503,3.2961835861206055,8.920804977416992,0.02019345946609974,0.009040805511176586,-0.03413863852620125
0.6389645338058472,3.29996657371521,8.917577743530273,0.032759830355644226,0.028152160346508026,-0.025411993265151978
0.6441934704780579,3.2854578495025635,8.868744850158691,0.03747221827507019,0.05017821490764618,-0.013159782625734806
0.658233106136322,3.2724618911743164,8.874424934387207,0.013299409300088882,0.05054473504424095,-0.01727875880897045
0.6081081032752991,3.3238701820373535,8.905434608459473,-0.02356194518506527,0.01342158205807209,-0.03850196301937103
0.5552058219909668,3.370480537414551,8.96552848815918,-0.024644048884510994,0.04885176569223404,-0.031171580776572227
0.5331599712371826,3.3892223834991455,9.089653015136719,-0.005078908056020737,0.06843435764312744,-0.011484266258776188
0.5357744693756104,3.3601279258728027,9.17224407196045,0.008133234456181526,0.04944517835974693,-0.0014137167017906904
0.5973437428474426,3.30841326713562,9.169007301330566,-0.017016960307955742,-0.027715828269720078,-0.012775810435414314
0.5605975389480591,3.3523802757263184,9.203789710998535,-0.009267698042094707,-0.06380923837423325,-0.017086774110794067
0.4568328261375427,3.1774024963378906,9.958930969238281,0.07154104858636856,-0.20600120723247528,-0.016999507322907448
0.5217732191085815,3.7447996139526367,8.010003089904785,0.023457225412130356,-0.02537708729505539,0.02307325229048729
0.64580237865448,3.3049559593200684,8.4244966506958,-0.06426302343606949,0.21837559342384338,0.07529350370168686
0.4387614130973816,3.0352540016174316,9.469268798828125,-0.07745771110057831,0.045326199382543564,0.0033859387040138245
0.6871262788772583,3.3309857845306396,9.496150970458984,-0.06939429044723511,-0.11398745328187943,0.026895523071289062
0.7073045969009399,3.166389226913452,9.073458671569824,-0.030194196850061417,-0.12938125431537628,-0.016022123396396637
0.7692666053771973,3.163382053375244,9.173967361450195,-0.011466813273727894,-0.012391837313771248,0.027715828269720078
0.8843798041343689,3.1434431076049805,9.234301567077637,0.018395770341157913,-0.008011061698198318,0.01532399095594883
0.9138284921646118,3.151344060897827,9.126208305358887,0.04017747938632965,-0.025586526840925217,-0.004747295752167702
0.9002677202224731,3.1774024963378906,8.96290397644043,0.023090705275535583,-0.030927233397960663,-0.025237461552023888
0.754910945892334,3.253154993057251,9.09188461303711,-0.0019373154500499368,-0.03326597437262535,-0.04054399952292442
0.7590194344520569,3.2582595348358154,9.051691055297852,0.016947146505117416,-0.03680899366736412,-0.030141836032271385
0.7238916754722595,3.3467013835906982,8.62297534942627,0.13171999156475067,0.08721410483121872,-0.05031784251332283
0.4628279209136963,3.598695755004883,8.677295684814453,0.14405947923660278,0.22965042293071747,0.007661995477974415
0.5401127338409424,3.3350846767425537,9.08251953125,-0.017610372975468636,0.0014486232539638877,0.02802998758852482
0.7967328429222107,3.183598518371582,8.960136413574219,-0.17008233070373535,-0.21905627846717834,0.0
0.9086857438087463,3.1398231983184814,8.966926574707031,-0.14453071355819702,-0.13072516024112701,-0.04424409568309784
0.7516260743141174,3.260011911392212,9.226821899414062,-0.008831365965306759,0.013299409300088882,-0.03363249450922012
0.6847895383834839,3.313220739364624,9.147976875305176,0.08730136603116989,0.08766788989305496,-0.003281218931078911
0.7261709570884705,3.3001677989959717,9.043914794921875,0.09009389579296112,0.08368853479623795,0.01218239776790142
0.7927106618881226,3.2415382862091064,9.0106840133667,0.029914943501353264,0.004502949304878712,-0.0008203047327697277
0.8054764866828918,3.2090539932250977,8.970614433288574,-0.03134611248970032,-0.06485643237829208,-0.032131511718034744
0.7199747562408447,3.2408010959625244,9.031828880310059,-0.047333329916000366,-0.07703883200883865,-0.053284902125597
0.6334387063980103,3.3691399097442627,9.080852508544922,-0.006928957067430019,-0.0501258559525013,-0.04525638744235039
0.6031472682952881,3.3622541427612305,9.007877349853516,0.04035201296210289,-0.007906341925263405,-0.020123645663261414
0.6172060370445251,3.3476877212524414,8.795559883117676,0.012740903533995152,0.05141739919781685,0.03839724510908127
0.7592492699623108,3.189957857131958,8.823331832885742,-0.053215090185403824,-0.03338814899325371,0.012601276859641075
0.8253579139709473,3.2961933612823486,8.868228912353516,-0.06340780854225159,-0.019111355766654015,-0.0031415927223861217
0.7317063808441162,3.3187944889068604,8.944181442260742,-0.027209682390093803,0.0263544712215662,-0.0033335788175463676
0.7148990631103516,3.363537311553955,8.953107833862305,-0.00898844562470913,0.05195845291018486,0.003001966280862689
0.7078313827514648,3.367703437805176,8.993913650512695,0.004485496319830418,0.06646213680505753,0.021362829953432083
0.7769854664802551,3.270278215408325,9.005148887634277,-0.01326450239866972,0.05049237608909607,0.027087509632110596
0.7873284220695496,3.162778854370117,9.074331283569336,-0.045465826988220215,0.0228987205773592,0.010594148188829422
0.7490307688713074,3.1411447525024414,9.268959999084473,-0.062203533947467804,-0.02076941728591919,-0.010663961991667747
0.6908996105194092,3.1640429496765137,9.294137954711914,-0.03757693991065025,-0.0550127774477005,-0.022165682166814804
0.6599090099334717,3.156620740890503,9.21411418914795,0.005811946466565132,-0.04483750835061073,-0.025586526840925217
0.616142988204956,3.1987109184265137,9.1146879196167,0.04141666367650032,-0.019250981509685516,-0.01966986060142517
0.593082070350647,3.2631819248199463,9.05923843383789,0.04508185386657715,-0.014538592658936977,-0.01473057921975851
0.6027450561523438,3.3072352409362793,8.98375415802002,0.03438298776745796,-0.03577924892306328,-0.005235987715423107
0.5958018898963928,3.317539930343628,8.863966941833496,0.03223622962832451,-0.12685053050518036,-0.003543018363416195
0.7353550791740417,3.5207598209381104,8.434198379516602,-0.04387757554650307,0.016196655109524727,0.04265584796667099
0.7114706039428711,2.9708690643310547,9.07019329071045,-0.07389724254608154,0.025324726477265358,0.01740093342959881
0.5953038930892944,3.3497753143310547,9.072712898254395,-0.08791223168373108,-0.05244714394211769,0.020874137058854103
0.7257016897201538,3.143510341644287,9.087173461914062,-0.06499606370925903,-0.0371580608189106,0.016929693520069122
0.6911581158638,3.3372585773468018,9.071170806884766,-0.03595378249883652,-0.02045525796711445,0.014102260582149029
0.7290631532669067,3.3261303901672363,9.140774726867676,-0.019460421055555344,0.00898844562470913,0.04000294581055641
1.0282808542251587,3.0869498252868652,8.980976104736328,0.008866272866725922,-0.01589994877576828,-0.01624901592731476
0.6668426394462585,3.280219316482544,8.48507022857666,0.09847147762775421,0.09552186727523804,-0.0694291964173317
0.4599740207195282,3.601377487182617,8.742120742797852,0.06187192350625992,0.17793631553649902,0.013648474588990211
0.7300399541854858,3.2412607669830322,9.199844360351562,-0.09953612834215164,-0.03597123548388481,0.04429645463824272
0.9492914080619812,2.7502005100250244,9.318961143493652,-0.17058847844600677,-0.18018779158592224,-0.03050835430622101
0.7965413331985474,3.0984034538269043,9.440633773803711,-0.09386380761861801,-0.08686503767967224,-0.06014404445886612
0.7567688822746277,3.2780067920684814,9.157620429992676,0.11590731889009476,0.025411993265151978,-0.015219271183013916
0.7997304201126099,3.286501407623291,9.016056060791016,0.09269443899393082,0.004206243436783552,-0.0114493602886796
0.8297058343887329,3.3389346599578857,8.979798316955566,0.033457960933446884,-0.0547160729765892,-0.023719023913145065
0.4870380759239197,3.5943193435668945,8.19239330291748,0.09587093442678452,0.16741198301315308,0.007400196045637131
0.5120718479156494,3.3450732231140137,8.944832801818848,0.07866198569536209,0.15866787731647491,0.043214350938797
0.7958518266677856,3.162864923477173,9.219457626342773,-0.06632251292467117,-0.18277087807655334,0.0055850534699857235
0.9346771836280823,3.0678629875183105,8.73428726196289,-0.13697344064712524,-0.2018996924161911,-0.03844960406422615
0.727837324142456,3.169396162033081,9.01606559753418,-0.08644615858793259,-0.04508185386657715,-0.038205258548259735
0.7108097672462463,3.290092706680298,9.317658424377441,0.025848325341939926,0.019914206117391586,0.00839503388851881
0.905458390712738,3.2136411666870117,9.016898155212402,0.09339256584644318,0.03810053691267967,0.018709929659962654
0.8863717913627625,3.2555110454559326,8.856075286865234,0.05845107510685921,0.04783947393298149,0.0008203047327697277
0.8095945715904236,3.2699050903320312,8.937564849853516,0.023404864594340324,0.027436574921011925,-0.00502654816955328
0.7563091516494751,3.201871395111084,9.081886291503906,-0.024678954854607582,-0.04862487316131592,-0.012391837313771248
0.7970201373100281,3.1474556922912598,9.046797752380371,-0.03309144079685211,-0.07773696631193161,-0.02914699912071228
0.17400100827217102,3.6006686687469482,7.941614627838135,0.04303981736302376,0.1123468428850174,-0.012705996632575989
0.45425668358802795,3.508922815322876,8.851822853088379,0.0016406094655394554,0.17411404848098755,0.09749408811330795
0.7868878841400146,2.7532360553741455,9.508313179016113,-0.05665338784456253,-0.044715333729982376,0.03867649659514427
0.845277726650238,3.2454264163970947,9.118720054626465,-0.07642796635627747,-0.11018263548612595,0.00427605677396059
0.8384589552879333,3.099581241607666,9.247422218322754,-0.03127630054950714,-0.04022983834147453,-0.009616764262318611
0.8021341562271118,3.311678886413574,9.233909606933594,0.02984512969851494,-0.010995574295520782,0.004764748737215996
0.8780782222747803,3.2706711292266846,9.138590812683105,0.06454227864742279,0.011885692365467548,0.030717793852090836
0.8945791125297546,3.134938955307007,8.748939514160156,0.09238027781248093,0.03145083412528038,0.020315632224082947
0.5878052115440369,3.4923739433288574,8.389034271240234,0.09587093442678452,0.176819309592247,0.050387654453516006
0.795478343963623,3.1807353496551514,9.169610023498535,-0.007487462367862463,0.042673300951719284,0.06412339955568314
1.0782910585403442,2.86616587638855,9.180164337158203,-0.09861110150814056,-0.17233380675315857,0.0007504915702156723
1.0160895586013794,2.990386724472046,9.004009246826172,-0.08056439459323883,-0.10721557587385178,-0.053668875247240067
0.8251089453697205,3.187793493270874,9.171918869018555,0.01705186627805233,0.011466813273727894,-0.027087509632110596
0.8399434089660645,3.2451393604278564,9.09057331085205,0.100234255194664,0.07195992767810822,0.010070549324154854
0.9398103356361389,3.189344644546509,8.918094635009766,0.10681415349245071,0.09691813588142395,0.009075712412595749
0.9175825715065002,3.201153039932251,8.956631660461426,0.04858996719121933,0.04591961205005646,-0.016179202124476433
0.8719586730003357,3.1886839866638184,8.978734970092773,-0.01219985168427229,-0.03113667294383049,-0.04351105913519859
0.8013392686843872,3.2208142280578613,8.9435396194458,-0.033719759434461594,-0.05017821490764618,-0.060702551156282425
0.7741507291793823,3.2513930797576904,9.01672649383545,-0.012322024442255497,-0.0022165682166814804,-0.05886995419859886
0.7151288986206055,3.251728057861328,9.118327140808105,0.04207988828420639,0.06073745712637901,-0.05380849912762642
0.681945264339447,3.3209683895111084,9.095102310180664,0.08133234083652496,0.06733480095863342,-0.04317944496870041
0.7124090790748596,3.3439528942108154,8.945484161376953,0.06921976059675217,0.05078908056020737,-0.03361504152417183
0.7364181280136108,3.333897113800049,8.943272590637207,0.028361599892377853,0.021729348227381706,-0.03911282867193222
0.7358052134513855,3.3131537437438965,9.032958984375,0.00188495556358248,-0.017575465142726898,-0.04996877536177635
0.06853163242340088,3.9805710315704346,7.650058746337891,0.018133969977498055,0.003577925032004714,-0.046041786670684814
0.4137372076511383,3.673126697540283,8.565342903137207,-0.0818035826086998,0.1264491081237793,0.07358308136463165
0.8264784812927246,3.1224987506866455,9.605461120605469,-0.038955748081207275,-0.04246386140584946,-0.006073745898902416
