accX,accY,accZ,gyroX,gyroY,gyroZ
0.18274462223052979,0.11437579989433289,9.777153015136719,0.004293509759008884,0.0009599310578778386,-0.002024581888690591
0.18113571405410767,0.13151828944683075,9.78054428100586,0.005340707488358021,-0.0010995573829859495,0.00010471975838299841
0.1767016500234604,0.15456007421016693,9.691871643066406,0.0010995573829859495,0.0019896754529327154,-0.0031241392716765404
0.18001523613929749,0.13614387810230255,9.74312686920166,0.0006632251315750182,0.002251474652439356,0.0002617993741296232
0.17867447435855865,0.14921621978282928,9.686355590820312,-0.00010471975838299841,-0.0005410520825535059,-0.0018500490114092827
0.17472882568836212,0.14143985509872437,9.718792915344238,0.0002617993741296232,0.0003490658418741077,-0.0008726646192371845
0.1958935707807541,0.14594095945358276,9.637235641479492,-0.0009773843921720982,-0.002548180753365159,-0.0021816615480929613
0.297359824180603,0.15046121180057526,9.661417961120605,0.0013788101496174932,0.0009075712296180427,-0.0015533430268988013
0.29329928755760193,0.1908944845199585,9.769051551818848,0.00041887903353199363,0.00022689280740451068,-0.00024434609804302454
0.18328091502189636,0.18034084141254425,9.77512264251709,-3.490658491500653e-05,-0.0002617993741296232,0.0008726646192371845
0.1343434453010559,0.0751204714179039,9.716330528259277,0.001117010717280209,0.0011693706037476659,0.0014137167017906904
0.10812214761972427,0.114442840218544,9.742457389831543,-0.07822565734386444,-0.2750988006591797,-0.018657568842172623
0.45661255717277527,0.1290091574192047,10.230854034423828,0.045640360563993454,0.14767231047153473,0.005235987715423107
0.23098298907279968,0.1956062763929367,9.318146705627441,-0.002949606394395232,-0.016091935336589813,-0.0034382985904812813
0.1439681351184845,0.041486725211143494,9.86223316192627,0.0016406094655394554,0.0008377580670639873,-0.0019896754529327154
0.11086110770702362,0.10137049853801727,9.652463912963867,-0.00010471975838299841,-0.0014486232539638877,-0.0031939526088535786
0.20987571775913239,0.15999969840049744,9.816965103149414,0.0025307273026555777,0.0005061454721726477,-0.0006108652451075613
0.21785318851470947,0.1785595566034317,9.705183029174805,0.002740166848525405,-0.0006632251315750182,0.0013089969288557768
0.16213533282279968,0.129947692155838,9.698759078979492,0.0005759586347267032,6.981316983001307e-05,-0.00031415926059708
0.1699116975069046,0.10820833593606949,9.740264892578125,0.0030717793852090836,0.0008203047327697277,-0.0019373154500499368
0.19607552886009216,0.16082331538200378,9.625677108764648,0.0026354470755904913,-0.00015707963029854,-0.0012042771559208632
0.18504305183887482,0.13217908143997192,9.654962539672852,0.00013962633966002613,0.0011693706037476659,-0.0010995573829859495
0.17302416265010834,0.13024456799030304,9.782286643981934,0.0003490658418741077,-0.00027925267932005227,0.0007504915702156723
0.18486109375953674,0.12343546003103256,9.709148406982422,0.00062831852119416,0.0005759586347267032,-0.0017976891249418259
0.17498740553855896,0.1488235741853714,9.771637916564941,-0.0006457717972807586,-0.00040142572834156454,0.001343903481028974
0.1803504228591919,0.15792153775691986,9.811888694763184,0.0014660765882581472,1.7453292457503267e-05,8.726646046852693e-05
0.17121414840221405,0.12461340427398682,9.805904388427734,0.0006806784076616168,0.00062831852119416,-0.00041887903353199363
0.1961042582988739,0.12469959259033203,9.735820770263672,-0.017819812521338463,-0.03300417587161064,0.0015882495790719986
-0.014748281799256802,0.08817365765571594,9.170109748840332,0.008028514683246613,-0.000715585018042475,0.0012740903766825795
0.10998962074518204,0.20221427083015442,9.648000717163086,-0.019826939329504967,-0.03747221827507019,-0.0019024088978767395
0.22579236328601837,0.1616373360157013,9.418463706970215,-0.00331612559966743,-0.0023038345389068127,0.0015358896926045418
0.13408486545085907,0.0825808048248291,9.569595336914062,0.0020943949930369854,0.0006806784076616168,-0.002007128670811653
0.18678602576255798,0.1294018030166626,9.758755683898926,0.0,3.490658491500653e-05,-0.0037000980228185654
0.20169712603092194,0.1610531508922577,9.679776191711426,0.0013264502631500363,0.00017453292093705386,-0.0013613568153232336
0.19331741333007812,0.16763241589069366,9.739095687866211,0.0005585053586401045,0.0011693706037476659,0.0011344640515744686
0.1777646839618683,0.13513831794261932,9.74716854095459,0.0011344640515744686,0.00019198621157556772,-0.00019198621157556772
0.1534683257341385,0.11547712981700897,9.713505744934082,0.00041887903353199363,0.00041887903353199363,-0.00188495556358248
0.19978176057338715,0.14578773081302643,9.69063663482666,0.0010821041651070118,-0.0030717793852090836,-0.000715585018042475
0.18473659455776215,0.1655350923538208,9.71139907836914,0.00047123889089562,-0.0008377580670639873,-0.00010471975838299841
0.17130033671855927,0.14812447130680084,9.749246597290039,0.0010995573829859495,0.0002617993741296232,-0.0009599310578778386
0.1623460203409195,0.11918335407972336,9.734306335449219,0.0015707963611930609,0.00010471975838299841,-0.0011519172694534063
0.1948113888502121,0.13535858690738678,9.679509162902832,0.0025656339712440968,0.0013788101496174932,-0.0003316125657875091
0.17281347513198853,0.14096100628376007,9.712231636047363,0.0013089969288557768,0.00045378561480902135,0.00022689280740451068
0.17665377259254456,0.14229218661785126,9.678330421447754,0.0024085543118417263,0.00062831852119416,-0.0013613568153232336
0.18310853838920593,0.13124056160449982,9.7333984375,0.0007853981805965304,5.2359879191499203e-05,-0.0015358896926045418
0.18539740145206451,0.13108733296394348,9.804533004760742,0.0016755161341279745,0.0011693706037476659,-0.00041887903353199363
0.1733497679233551,0.12928688526153564,9.717998504638672,0.0015533430268988013,0.0005934119690209627,-0.00017453292093705386
0.17890432476997375,0.14349886775016785,9.767376899719238,0.0011693706037476659,0.001745329238474369,-0.0010646508308127522
0.1718462109565735,0.12236285209655762,9.757463455200195,0.0013089969288557768,-0.03782128542661667,-0.0035604715812951326
0.16699077188968658,0.1771230399608612,9.799448013305664,0.003089232835918665,0.028064893558621407,0.0011344640515744686
0.1945432424545288,0.15473246574401855,9.559837341308594,-0.0010471974965184927,-0.0016755161341279745,0.0010821041651070118
0.18216043710708618,0.12071564793586731,9.812195777893066,-0.0005410520825535059,0.00019198621157556772,-0.0008203047327697277
0.15720327198505402,0.11688492447137833,9.780045509338379,0.0009773843921720982,0.0018500490114092827,-0.0018500490114092827
0.19153612852096558,0.1521371454000473,9.731635093688965,0.0017627825727686286,0.0022689281031489372,-0.0007330382941290736
0.18553146719932556,0.1517636477947235,9.739420890808105,0.0007330382941290736,-0.00015707963029854,0.00031415926059708
0.18478448688983917,0.1300051510334015,9.750998497009277,-6.981316983001307e-05,0.0,0.00010471975838299841
0.16572663187980652,0.1361342966556549,9.737198829650879,0.0011519172694534063,-0.001029744278639555,8.726646046852693e-05
0.18379807472229004,0.1501355916261673,9.740790367126465,-0.002199114765971899,-0.07127925008535385,-0.0016406094655394554
0.1779945194721222,0.13958194851875305,9.629173278808594,0.02188642881810665,0.080075703561306,0.0015533430268988013
0.35608482360839844,0.037263352423906326,10.427132606506348,0.034348078072071075,0.10852457582950592,0.00125663704238832
0.1605743169784546,0.16852305829524994,9.507125854492188,-0.01713913306593895,-0.031782444566488266,0.0007853981805965304
0.24335622787475586,0.11947066336870193,9.989826202392578,-0.0038222710136324167,-0.004817108623683453,0.0008028514566831291
0.20765389502048492,0.09655336290597916,9.716418266296387,0.0008377580670639873,-0.0008203047327697277,0.00040142572834156454
0.1939782202243805,0.15646585822105408,9.599733352661133,0.0024958208668977022,8.726646046852693e-05,-0.00205948855727911
0.19434213638305664,0.1634090542793274,9.72472095489502,-0.00038397242315113544,0.00040142572834156454,0.0005934119690209627
0.16602352261543274,0.10181102901697159,9.660316467285156,0.00024434609804302454,0.0006108652451075613,-0.0008726646192371845
0.1733497679233551,0.1272374540567398,9.737916946411133,0.002251474652439356,8.726646046852693e-05,-0.0015882495790719986
0.19557754695415497,0.15813222527503967,9.730944633483887,0.0016057029133662581,0.0006806784076616168,-0.0011693706037476659
0.1747479885816574,0.15039417147636414,9.732027053833008,0.0005061454721726477,0.0003490658418741077,0.0003490658418741077
0.18725529313087463,0.13641202449798584,9.740925788879395,0.0004886921960860491,0.00031415926059708,-0.0016231562476605177
0.18530163168907166,0.1564275622367859,9.83273696899414,0.00094247778179124,0.0005235987482592463,-0.0013788101496174932
0.18218916654586792,0.15814180672168732,9.744736671447754,0.0005759586347267032,0.0006632251315750182,-0.0016231562476605177
0.17271770536899567,0.13364432752132416,9.750548362731934,0.0007679448463022709,-0.0005585053586401045,-0.0005061454721726477
0.17647181451320648,0.11060253530740738,9.728800773620605,0.021467549726366997,0.040282197296619415,-0.007609635591506958
0.13208331167697906,0.11547712981700897,9.628798484802246,0.0026703537441790104,0.008482299745082855,-0.0032114058267325163
0.19839312136173248,0.22034315764904022,9.741641998291016,-0.006213372107595205,-0.006771877408027649,0.00125663704238832
0.22560082376003265,0.19457197189331055,9.509845733642578,-0.005323254037648439,-0.012740903533995152,0.0006632251315750182
0.1511603146791458,0.07068640738725662,9.702262878417969,0.00029670598451048136,-0.001343903481028974,-0.00019198621157556772
0.18504305183887482,0.13628752529621124,9.771560668945312,0.0017627825727686286,0.0010995573829859495,-0.0021816615480929613
0.22438457608222961,0.1655159443616867,9.744266510009766,0.0014137167017906904,0.0006457717972807586,-0.0013613568153232336
0.19090406596660614,0.12281296402215958,9.764397621154785,0.0015882495790719986,-0.0009075712296180427,-0.0005235987482592463
0.1619725227355957,0.1319875419139862,9.774290084838867,0.00013962633966002613,-0.0016231562476605177,-5.2359879191499203e-05
0.18725529313087463,0.13468819856643677,9.765766143798828,0.0012740903766825795,0.0006806784076616168,-0.001658062799833715
0.17458517849445343,0.12533167004585266,9.734564781188965,0.007731808349490166,0.029024824500083923,-6.981316983001307e-05
0.19475392997264862,0.18075264990329742,9.807090759277344,-0.022567106410861015,-0.03445279970765114,-0.0007504915702156723
0.2864614427089691,0.15345874428749084,10.554052352905273,-0.00518362782895565,-0.02494075521826744,0.0002617993741296232
0.0905199721455574,0.18594327569007874,9.282099723815918,-0.015655603259801865,-0.046530477702617645,0.00029670598451048136
0.1272374540567398,0.15094004571437836,9.629449844360352,-0.010559242218732834,-0.03202679008245468,0.00013962633966002613
0.16952863335609436,0.0990624874830246,9.605069160461426,0.0011693706037476659,-0.0060388389974832535,-0.0010471974965184927
0.17993861436843872,0.13170981407165527,9.766687393188477,0.0004886921960860491,-0.0005410520825535059,0.00020943951676599681
0.1965447962284088,0.15397588908672333,9.699102401733398,-0.00013962633966002613,0.00022689280740451068,-0.0009075712296180427
0.19293434917926788,0.11818736791610718,9.796748161315918,0.0027925267349928617,-0.0009250245057046413,-0.0016057029133662581
0.22120507061481476,0.16762284934520721,9.779671669006348,-0.00017453292093705386,0.0017278759041801095,-0.0006457717972807586
0.15636052191257477,0.13606727123260498,9.726693153381348,0.0010646508308127522,0.00047123889089562,-0.001343903481028974
0.12164459377527237,0.11544840037822723,9.74122142791748,0.003176499158143997,0.0009250245057046413,-0.0009948377264663577
0.19234058260917664,0.1309245228767395,9.723456382751465,-0.00047123889089562,-0.0006457717972807586,-0.00125663704238832
0.20605456829071045,0.15195518732070923,9.758325576782227,0.0030717793852090836,0.0008377580670639873,-0.0013962633674964309
0.17440322041511536,0.14502157270908356,9.64000415802002,0.0016929693520069122,0.0013613568153232336,-0.00143117003608495
0.16389746963977814,0.13064679503440857,9.678475379943848,0.002809980185702443,0.00022689280740451068,-0.0016755161341279745
0.178827702999115,0.17131948471069336,9.751775741577148,0.001658062799833715,0.0019896754529327154,-0.0019896754529327154
0.18298403918743134,0.15978901088237762,9.785696029663086,0.0013788101496174932,0.0010995573829859495,-0.000715585018042475
0.1794118881225586,0.11843636631965637,9.71334457397461,0.0017802357906475663,-0.0006632251315750182,-0.0006457717972807586
0.1790192425251007,0.14024275541305542,9.745723724365234,0.0010122909443452954,0.00029670598451048136,-0.0007504915702156723
0.18184439837932587,0.1429051011800766,9.679394721984863,0.0022165682166814804,-0.0200189258903265,0.0
0.08969637006521225,0.18608692288398743,9.251167297363281,-0.015760323032736778,-0.04260348528623581,-0.0002617993741296232
0.2569935917854309,0.12928688526153564,10.048636436462402,0.0239110104739666,0.09646435081958771,0.00251327408477664
0.18078137934207916,0.17658673226833344,9.475982666015625,-0.005305801052600145,-0.030613074079155922,-0.00296705961227417
0.20504900813102722,0.10500010848045349,9.90694808959961,-0.001343903481028974,-0.002373647876083851,-0.0011868239380419254
0.17071615159511566,0.11510363966226578,9.692503929138184,0.0006457717972807586,8.726646046852693e-05,-0.003298672381788492
0.21705831587314606,0.15547944605350494,9.735312461853027,0.001745329238474369,-0.00043633230961859226,-0.0011868239380419254
0.17917247116565704,0.1419857293367386,9.749592781066895,0.0011519172694534063,-0.0009948377264663577,-0.0005235987482592463
0.16640658676624298,0.12676818668842316,9.711285591125488,-0.0005934119690209627,0.0012740903766825795,-0.0018500490114092827
0.1729954332113266,0.1326962262392044,9.736729621887207,0.001483529806137085,0.0011868239380419254,-0.0011868239380419254
0.1848706752061844,0.15275005996227264,9.764101028442383,-0.00022689280740451068,-0.00043633230961859226,0.0007330382941290736
0.18021634221076965,0.13316549360752106,9.751717567443848,0.0017278759041801095,0.00047123889089562,-0.0003316125657875091
0.17973750829696655,0.13187262415885925,9.790188789367676,0.0010646508308127522,0.0024434609804302454,-0.00017453292093705386
0.1966692954301834,0.1477797031402588,9.731070518493652,0.0017627825727686286,0.0012217304902151227,0.00038397242315113544
0.17837759852409363,0.13215035200119019,9.777863502502441,-6.981316983001307e-05,0.0005235987482592463,-0.0005934119690209627
0.19779935479164124,0.13804008066654205,9.680160522460938,0.016528267413377762,-0.0015358896926045418,-0.00678933085873723
0.1578449159860611,0.10077673196792603,9.579000473022461,0.007627088576555252,0.027139870449900627,0.0021118484437465668
0.16631081700325012,0.21948124468326569,9.765690803527832,-0.004694935865700245,0.009581857360899448,0.0035604715812951326
0.1723729372024536,0.11066000163555145,9.989384651184082,0.0012391837080940604,0.00609119888395071,0.00062831852119416
0.1569925844669342,0.10105445981025696,9.601917266845703,0.00041887903353199363,-0.0009948377264663577,0.0007504915702156723
0.16419434547424316,0.1425316035747528,9.738100051879883,0.0027052604127675295,0.0023387412074953318,-0.0018325956771150231
0.21107281744480133,0.16402196884155273,9.6823148727417,0.0006806784076616168,0.00062831852119416,0.0002617993741296232
0.18661364912986755,0.1424454152584076,9.675705909729004,-0.00015707963029854,0.0018325956771150231,0.0002617993741296232
0.14154519140720367,0.12868355214595795,9.59850788116455,-0.004153883550316095,-0.025324726477265358,-0.0016406094655394554
0.2230917066335678,0.08598056435585022,10.280289649963379,0.0023387412074953318,0.00823795422911644,-0.0008028514566831291
0.15091131627559662,0.09423577785491943,9.51618480682373,-0.0028972465079277754,-0.006457718089222908,-0.002199114765971899
0.16811126470565796,0.08594226092100143,9.902092933654785,0.001518436474725604,0.0008377580670639873,-0.00020943951676599681
0.2217796891927719,0.1483830362558365,9.708967208862305,-0.00012217304902151227,0.00251327408477664,-0.0008726646192371845
0.19392074644565582,0.154952734708786,9.738731384277344,0.0007853981805965304,-0.00029670598451048136,-0.0011693706037476659
0.14916834235191345,0.13206416368484497,9.733991622924805,0.0012740903766825795,-0.00027925267932005227,-0.001483529806137085
0.159990131855011,0.12212343513965607,9.739602088928223,0.0029845130629837513,0.0016057029133662581,-0.00251327408477664
0.12734279036521912,0.1405300498008728,9.4750337600708,-0.030002210289239883,-0.08566076308488846,0.00022689280740451068
0.35163161158561707,0.059395354241132736,10.61881160736084,0.013142329640686512,0.06389650702476501,0.0013788101496174932
0.1498004049062729,0.12265973538160324,9.954937934875488,-0.0005061454721726477,0.0007853981805965304,-0.0010646508308127522
0.1534300148487091,0.0884992703795433,9.615516662597656,0.001658062799833715,-0.00022689280740451068,-0.0007853981805965304
0.18721698224544525,0.13347195088863373,9.79371166229248,0.0031415927223861217,0.00012217304902151227,-3.490658491500653e-05
0.19380582869052887,0.15464626252651215,9.711016654968262,0.005532693583518267,5.2359879191499203e-05,0.0009948377264663577
0.1066281646490097,0.1456345021724701,9.388010025024414,0.010733774863183498,0.012636183761060238,-0.003630284918472171
0.17236335575580597,0.15710750222206116,10.053999900817871,0.0013788101496174932,0.017994344234466553,0.00012217304902151227
0.23041796684265137,0.22447076439857483,9.561397552490234,-0.0036128314677625895,-0.011885692365467548,0.00020943951676599681
0.19090406596660614,0.14022359251976013,9.745702743530273,-0.0027576202992349863,-0.0017976891249418259,0.00012217304902151227
0.1400703638792038,0.06253654509782791,9.709062576293945,0.0019896754529327154,0.0010646508308127522,-0.0012740903766825795
0.17705599963665009,0.14104720950126648,9.799083709716797,0.001658062799833715,-0.00019198621157556772,-0.0022165682166814804
0.20065325498580933,0.18565596640110016,9.803499221801758,0.00022689280740451068,0.00043633230961859226,0.001117010717280209
0.17780299484729767,0.12682564556598663,9.719902992248535,0.0010471974965184927,0.0009250245057046413,-0.0005934119690209627
0.1556805670261383,0.1182544082403183,9.803184509277344,0.0007504915702156723,0.00047123889089562,-0.00205948855727911
0.19590315222740173,0.1564275622367859,9.751325607299805,0.0015707963611930609,0.0009773843921720982,0.00031415926059708
0.17635689675807953,0.11673169583082199,9.680208206176758,0.0014660765882581472,0.0006632251315750182,-0.0016929693520069122
0.1630355566740036,0.12901873886585236,9.71679973602295,0.0006981316837482154,-0.0006457717972807586,-0.0019198621157556772
0.19054971635341644,0.14863203465938568,9.702292442321777,0.0016929693520069122,0.00043633230961859226,-0.00047123889089562
0.20357418060302734,0.1401948630809784,9.727181434631348,0.0031939526088535786,-0.00024434609804302454,0.0
0.1850621998310089,0.14206235110759735,9.703373908996582,0.00125663704238832,0.0017104226863011718,-0.0013089969288557768
0.1271512657403946,0.1543015092611313,9.596611022949219,0.011239920742809772,0.026249751448631287,-0.004084070213139057
0.13761870563030243,0.18751387298107147,9.703104972839355,-0.0008203047327697277,-0.00518362782895565,-0.0005410520825535059
0.22765026986598969,0.09536583721637726,9.706610679626465,0.002199114765971899,0.00029670598451048136,-0.0018500490114092827
0.1992071568965912,0.1357799619436264,9.669595718383789,0.0018500490114092827,-0.001343903481028974,0.0003316125657875091
0.15775872766971588,0.13752293586730957,9.657279968261719,0.001745329238474369,-0.00010471975838299841,-0.0013613568153232336
0.17114710807800293,0.14175589382648468,9.640368461608887,0.002007128670811653,-0.00045378561480902135,-0.0009948377264663577
0.1992741823196411,0.14773181080818176,9.750492095947266,0.00041887903353199363,0.001518436474725604,-0.00013962633966002613
0.1754758208990097,0.13270580768585205,9.699572563171387,0.003228859044611454,0.0008726646192371845,-0.0011693706037476659
0.1684943288564682,0.14498327672481537,9.765728950500488,0.0010995573829859495,-0.00013962633966002613,0.0005061454721726477
0.19887195527553558,0.13109689950942993,9.73125171661377,-0.0016057029133662581,-0.0005410520825535059,-0.0007504915702156723
0.17112796008586884,0.125484898686409,9.678923606872559,0.0010646508308127522,0.00012217304902151227,-0.0006806784076616168
0.1670578122138977,0.12592542171478271,9.760422706604004,0.0013613568153232336,0.0014486232539638877,-0.0036128314677625895
0.18714037537574768,0.14420755207538605,9.76943588256836,0.0003665191470645368,-1.7453292457503267e-05,-0.00047123889089562
0.18749471008777618,0.14566323161125183,9.788081169128418,0.0009250245057046413,0.00022689280740451068,-0.0015009831404313445
0.1735987663269043,0.1406737118959427,9.671262741088867,-0.00031415926059708,-0.0008552113431505859,-0.001658062799833715
0.1938537210226059,0.13551181554794312,9.702004432678223,0.0009075712296180427,0.0005759586347267032,-0.0013264502631500363
0.19432297348976135,0.1338837593793869,9.71156120300293,0.0014486232539638877,0.0013788101496174932,0.0005235987482592463
0.18230408430099487,0.13951492309570312,9.713314056396484,0.0008028514566831291,0.00017453292093705386,-0.00019198621157556772
0.18361611664295197,0.14732958376407623,9.736001968383789,0.002007128670811653,0.00041887903353199363,-0.0014486232539638877
0.18893124163150787,0.15191687643527985,9.731576919555664,0.0017976891249418259,-0.00031415926059708,-0.00013962633966002613
0.18392257392406464,0.1476360410451889,9.756438255310059,0.0003490658418741077,-0.0009250245057046413,-0.0006108652451075613
0.18669983744621277,0.1427614539861679,9.725573539733887,0.0023911010939627886,0.0005235987482592463,-0.002478367416188121
0.20944476127624512,0.13847103714942932,9.734670639038086,0.0008377580670639873,-0.00019198621157556772,-0.00094247778179124
0.18000565469264984,0.12210427969694138,9.709915161132812,-0.006597344763576984,-0.013491394929587841,-0.001483529806137085
0.23101171851158142,0.08222646266222,9.846136093139648,0.011501720175147057,0.03183480724692345,-0.0030194194987416267
0.17994819581508636,0.13847103714942932,9.73894214630127,0.0011868239380419254,0.001117010717280209,-0.001343903481028974
0.1936047226190567,0.1474253535270691,9.71299934387207,0.0009948377264663577,0.0007504915702156723,-0.0009599310578778386
0.1891036182641983,0.13950534164905548,9.71494197845459,0.0012740903766825795,0.00013962633966002613,-0.00062831852119416
0.1902049481868744,0.1314033567905426,9.681768417358398,0.00043633230961859226,0.00041887903353199363,-0.0005585053586401045
0.18690095841884613,0.13753251731395721,9.778436660766602,0.0016755161341279745,0.00125663704238832,-0.00027925267932005227
0.19222566485404968,0.15208926796913147,9.786327362060547,0.001972222002223134,0.0005410520825535059,1.7453292457503267e-05
0.17952680587768555,0.13451582193374634,9.718342781066895,0.0008028514566831291,0.0005061454721726477,-0.0013613568153232336
0.16923174262046814,0.13381671905517578,9.75267505645752,0.0031241392716765404,-0.0005410520825535059,-0.0006981316837482154
0.1694328635931015,0.1426561027765274,9.767241477966309,-0.0003316125657875091,-0.00013962633966002613,-0.0011693706037476659
0.17900966107845306,0.13169066607952118,9.76504898071289,0.0005235987482592463,3.490658491500653e-05,-0.00013962633966002613
0.16855178773403168,0.13025414943695068,9.743146896362305,0.00040142572834156454,0.0003665191470645368,-0.00041887903353199363
0.18077179789543152,0.1300051510334015,9.629911422729492,0.0005759586347267032,0.0005235987482592463,-0.0018151424592360854
0.1778700202703476,0.1461995244026184,9.731481552124023,8.726646046852693e-05,0.00045378561480902135,-0.0013962633674964309
0.18928557634353638,0.14412136375904083,9.753806114196777,0.001518436474725604,-0.00020943951676599681,-0.0013613568153232336
0.19143077731132507,0.13295480608940125,9.769539833068848,0.0013613568153232336,0.0004886921960860491,-0.0030194194987416267
0.18555063009262085,0.14824897050857544,9.696039199829102,0.0005934119690209627,-0.0009250245057046413,-0.00012217304902151227
0.17892347276210785,0.15239572525024414,9.76521110534668,0.00043633230961859226,-0.00027925267932005227,-0.00043633230961859226
0.16975846886634827,0.134822279214859,9.757559776306152,0.0019373154500499368,-0.0012740903766825795,0.0007330382941290736
0.20006906986236572,0.14546211063861847,9.737908363342285,0.002199114765971899,-1.7453292457503267e-05,0.00015707963029854
0.18502390384674072,0.13949576020240784,9.748978614807129,0.0010821041651070118,0.00041887903353199363,-0.0003316125657875091
0.18629761040210724,0.1235886886715889,9.760786056518555,-0.00022689280740451068,-0.13414600491523743,-0.026162484660744667
0.18334795534610748,0.07813716679811478,9.898300170898438,0.01392772700637579,0.06745697557926178,0.002007128670811653
0.17719964683055878,0.23694933950901031,9.571386337280273,-0.0012042771559208632,0.04178318381309509,0.007504915818572044
0.1861252337694168,0.1633037030696869,9.753335952758789,-0.005986479111015797,-0.009285151958465576,0.0044156829826533794
0.19104771316051483,0.1177755668759346,9.895551681518555,0.0012042771559208632,-0.00029670598451048136,-0.0013264502631500363
0.24522370100021362,0.17626112699508667,9.690118789672852,-0.00038397242315113544,0.00020943951676599681,-0.000715585018042475
0.16618631780147552,0.12304280698299408,9.768630027770996,0.0006108652451075613,5.2359879191499203e-05,0.0005061454721726477
0.16499879956245422,0.09425492584705353,9.711045265197754,0.0015882495790719986,3.490658491500653e-05,-0.0021816615480929613
0.15452177822589874,0.12450806051492691,9.721454620361328,0.0022165682166814804,0.00010471975838299841,-0.0015009831404313445
0.20776881277561188,0.17755399644374847,9.747235298156738,0.0007679448463022709,-0.00047123889089562,-5.2359879191499203e-05
0.15291287004947662,0.12389514595270157,9.702204704284668,0.0012740903766825795,0.0003490658418741077,-0.00125663704238832
0.17148229479789734,0.1322557032108307,9.757731437683105,0.0012217304902151227,0.0019547687843441963,-0.00010471975838299841
0.1821221262216568,0.15570929646492004,9.696939468383789,6.981316983001307e-05,-0.00041887903353199363,1.7453292457503267e-05
0.20162050426006317,0.13147039711475372,9.770249366760254,0.11677998304367065,0.3243694305419922,-0.008726646192371845
-0.13687171041965485,0.09540414810180664,8.583423614501953,0.01727875880897045,0.035639625042676926,0.006719517521560192
0.3445543348789215,0.11596554517745972,10.948511123657227,-0.02382374368607998,-0.0431968979537487,0.0030717793852090836
0.24493640661239624,0.14387236535549164,9.838310241699219,-0.025499260053038597,-0.07480481266975403,-0.0003665191470645368
0.19215862452983856,0.09781750291585922,10.237701416015625,0.002321287989616394,-0.0015358896926045418,-0.0023561944253742695
0.21928972005844116,0.15466542541980743,9.832880973815918,0.003281218931078911,-0.00031415926059708,-0.0003316125657875091
0.17990988492965698,0.13527238368988037,9.817644119262695,0.000715585018042475,0.00019198621157556772,-0.003036872949451208
0.17073529958724976,0.11744995415210724,9.68511962890625,0.0013264502631500363,-0.002251474652439356,-0.00047123889089562
0.18647000193595886,0.1640794277191162,9.729490280151367,0.0004886921960860491,-0.0024260077625513077,-0.001117010717280209
0.1588888019323349,0.12320561707019806,9.729778289794922,0.0009599310578778386,0.0005410520825535059,0.0009773843921720982
0.16864755749702454,0.11795752495527267,9.726243019104004,0.0012042771559208632,0.000715585018042475,-0.0008377580670639873
0.17340722680091858,0.12547531723976135,9.671187400817871,0.0008377580670639873,0.00027925267932005227,-0.0018500490114092827
0.15565183758735657,0.12348334491252899,9.72846508026123,0.002321287989616394,-0.001117010717280209,-0.0007504915702156723
0.1839991807937622,0.12939223647117615,9.768458366394043,0.002722713630646467,-0.00563741335645318,-0.0021293016616255045
0.17460434138774872,0.10514375567436218,9.94295597076416,-0.004136430099606514,0.0021118484437465668,-0.00020943951676599681
0.2051064670085907,0.14423628151416779,9.54737663269043,-0.0012217304902151227,-0.003176499158143997,0.00013962633966002613
0.18334795534610748,0.14070244133472443,9.606734275817871,0.00031415926059708,5.2359879191499203e-05,0.001029744278639555
0.15091131627559662,0.13029244542121887,9.719988822937012,0.00027925267932005227,-0.002251474652439356,-0.0022165682166814804
0.177285835146904,0.13807839155197144,9.75223445892334,0.0028972465079277754,0.00062831852119416,0.00010471975838299841
0.1862497329711914,0.15442600846290588,9.677362442016602,0.00143117003608495,-0.0008552113431505859,-8.726646046852693e-05
0.1779945194721222,0.11964304000139236,9.792485237121582,0.0016755161341279745,0.0011693706037476659,-0.00043633230961859226
0.18229450285434723,0.13239935040473938,9.790159225463867,0.000715585018042475,6.981316983001307e-05,-0.0002617993741296232
0.1923118531703949,0.14321155846118927,9.78521728515625,-0.0005585053586401045,0.0015009831404313445,0.0002617993741296232
0.1776401847600937,0.1342764049768448,9.706056594848633,0.0016231562476605177,0.0018675023457035422,-0.0008552113431505859
0.17390522360801697,0.11978669464588165,9.84473705291748,0.001343903481028974,0.00013962633966002613,-0.0009773843921720982
0.1762036681175232,0.13703452050685883,9.758047103881836,0.0024085543118417263,0.0017802357906475663,-0.0013613568153232336
0.17910543084144592,0.15231910347938538,9.618427276611328,-0.008970992639660835,-0.03799581900238991,-0.002460914198309183
0.1733497679233551,0.17554286122322083,9.633492469787598,-0.003752457909286022,-0.005445427261292934,0.0008901178953237832
0.2016683965921402,0.16015292704105377,9.86251163482666,-0.002373647876083851,-0.0031241392716765404,-0.00029670598451048136
