accX,accY,accZ,gyroX,gyroY,gyroZ
-1.9968105554580688,5.453242778778076,5.279763221740723,-1.900242567062378,-2.3748037815093994,-0.5418041348457336
-0.3616153299808502,5.32403039932251,6.498308181762695,-2.0492420196533203,-2.607024669647217,-0.5332822799682617
1.0534402132034302,4.792524814605713,8.150253295898438,-2.3251373767852783,-2.8241989612579346,-0.5631088018417358
1.6615161895751953,4.222733974456787,9.479166984558105,-2.49450945854187,-2.480262041091919,-0.7026543617248535
1.0103694200515747,4.103092670440674,10.132706642150879,-2.5497684478759766,-1.8913211822509766,-0.8496564626693726
0.02153540402650833,4.127020835876465,11.052148818969727,-2.528463840484619,-1.9051692485809326,-0.7644378542900085
-0.3329014480113983,3.6314074993133545,10.532607078552246,-2.4135518074035645,-1.6527090072631836,-0.380021870136261
-0.7540382146835327,2.6473591327667236,9.584450721740723,-2.3187460899353027,-0.6431344151496887,0.3207682967185974
-1.8245272636413574,2.3024935722351074,10.029815673828125,-2.2271358966827393,0.4228975176811218,1.0556459426879883
-2.2959132194519043,2.4415764808654785,10.987542152404785,-2.0758728981018066,1.3186253309249878,1.6893264055252075
-1.410269856452942,2.2474586963653564,11.942876815795898,-1.8800030946731567,1.501845359802246,2.1547000408172607
-0.07178468257188797,1.613061547279358,12.364313125610352,-1.7212834358215332,1.125818133354187,2.2910499572753906
3.550649642944336,-0.14656038582324982,11.775080680847168,-1.1941262483596802,-0.4854799509048462,2.1696133613586426
4.65433931350708,-0.740279495716095,9.740283966064453,-0.6041202545166016,-1.6005126237869263,1.3889306783676147
3.4740793704986572,0.04007977992296219,9.381061553955078,-0.023701434955000877,-0.7816147208213806,0.4475310146808624
2.035095691680908,0.49980083107948303,11.483156204223633,0.7473941445350647,0.22170162200927734,-0.13714875280857086
1.2185449600219727,0.8566305041313171,14.076078414916992,1.746449589729309,0.08322133123874664,-0.4725640118122101
0.6966105103492737,1.960319995880127,15.404692649841309,2.3268682956695557,-0.47056668996810913,-0.5492607951164246
-0.12203395366668701,2.9730820655822754,14.68654727935791,3.6068789958953857,-1.3716206550598145,-0.508781909942627
0.9218349456787109,1.5364912748336792,5.964409351348877,4.653870105743408,-0.464175283908844,-0.3672390878200531
-0.37836506962776184,4.818845748901367,3.656532049179077,2.8955695629119873,-2.1915838718414307,0.11744193732738495
2.39192533493042,5.4556355476379395,4.027718544006348,1.9529715776443481,-1.2033138275146484,0.27283281087875366
1.7261223793029785,5.06082010269165,7.999505043029785,0.10838746279478073,1.783998966217041,0.18974463641643524
1.4533406496047974,4.8762736320495605,8.509475708007812,-0.03541899845004082,3.007685422897339,0.4485962688922882
0.2754737138748169,6.269793510437012,9.907781600952148,0.5567173957824707,2.725531816482544,0.4400743842124939
-1.2640085220336914,5.836393356323242,9.306883811950684,0.9870715737342834,2.1749396324157715,0.5050535798072815
-1.8388842344284058,5.800501346588135,8.495118141174316,1.13087797164917,1.9565668106079102,0.6541862487792969
-0.981655478477478,5.917749404907227,7.611568927764893,1.166962742805481,1.3793436288833618,0.9512531161308289
-0.17946170270442963,5.97517728805542,7.63310432434082,1.1234214305877686,1.0714912414550781,0.9768186807632446
0.18903298676013947,6.382256031036377,7.765008449554443,1.0456594228744507,0.6689663529396057,0.790402889251709
-0.40707895159721375,6.542874336242676,7.664510250091553,0.9987891316413879,0.5656387209892273,0.5870765447616577
-0.5961119532585144,6.413362979888916,7.223931789398193,0.990267276763916,0.43248459696769714,0.4794880151748657
-0.7974081635475159,6.489933013916016,6.833602428436279,0.97641921043396,0.2877460718154907,0.42303067445755005
-1.1491531133651733,6.4803619384765625,6.153741836547852,0.8816134929656982,-0.03288906812667847,0.34952959418296814
-1.781157374382019,5.5468621253967285,7.017849922180176,0.6025224328041077,-0.3576519787311554,0.4901403486728668
-2.0207388401031494,6.4325056076049805,3.3403804302215576,0.3171731233596802,-0.08402025699615479,0.6296858787536621
-0.9696913957595825,5.862714767456055,6.168098449707031,-0.3228987455368042,-0.4854799509048462,0.7511224150657654
0.4142574071884155,6.080760478973389,6.474380016326904,0.19467133283615112,-0.4332835376262665,0.6307511329650879
0.41904306411743164,6.451648235321045,5.339583873748779,-0.0375494658946991,-0.4290226101875305,0.43687868118286133
-0.038285162299871445,6.224329948425293,6.785746097564697,-0.3250292241573334,-0.4503272473812103,0.2259625494480133
-0.40707895159721375,6.092724800109863,8.598010063171387,-0.3846822679042816,-0.39600038528442383,0.0801587849855423
-0.368793785572052,5.580361366271973,9.395418167114258,-0.14287437498569489,0.04274247586727142,0.03435376659035683
-1.0654042959213257,5.683252811431885,8.46161937713623,0.11797455698251724,0.575225830078125,0.08974587917327881
-1.1635099649429321,6.0161542892456055,7.810472011566162,0.1126483902335167,0.7030537724494934,0.28668084740638733
-0.7707880139350891,6.396613121032715,7.9851484298706055,0.12862688302993774,0.6934667229652405,0.4177044928073883
-0.8189435601234436,6.75583553314209,6.546164512634277,0.1126483902335167,0.6327484250068665,0.49759697914123535
-0.10767702013254166,6.899405002593994,6.745068073272705,-0.03435376659035683,0.23981058597564697,0.5082492828369141
-0.004785645287483931,7.272984504699707,7.767401218414307,-0.006657706573605537,-0.016910573467612267,0.4155740439891815
-0.20338992774486542,7.1509504318237305,7.812865257263184,0.15845340490341187,-0.2214353084564209,0.3314206302165985
-0.18903298676013947,7.100701332092285,6.448058605194092,0.21171505749225616,-0.2937380075454712,0.3335510790348053
0.26590242981910706,7.196413993835449,5.906981945037842,0.12330072373151779,-0.3033251166343689,0.35805144906044006
0.5721837282180786,7.287341594696045,6.105885028839111,-0.17909230291843414,-0.24806614220142365,0.2983984053134918
0.646361231803894,7.086344242095947,8.037790298461914,-0.3218335211277008,-0.23741380870342255,0.12596380710601807
0.5195416212081909,7.060023307800293,8.303692817687988,-0.13222205638885498,-0.22356578707695007,0.03967992961406708
0.5889334678649902,7.031309127807617,8.071290016174316,-0.027962366119027138,-0.1990654170513153,0.006657706573605537
0.524327278137207,6.9735822677612305,7.456035137176514,0.11903978884220123,-0.12236864119768143,-0.05938674136996269
0.1986042857170105,7.016653537750244,6.63978385925293,0.15206201374530792,-0.08721595257520676,-0.07643046975135803
0.26590242981910706,7.148557662963867,6.718746662139893,0.11797455698251724,-0.19373925030231476,-0.07323476672172546
0.33050861954689026,7.129415035247803,6.694818496704102,0.10945269465446472,-0.2427399754524231,-0.08814803510904312
0.3568296730518341,7.194021224975586,6.5868425369262695,0.08175663650035858,-0.28628137707710266,-0.12862688302993774
0.33529427647590637,7.172485828399658,6.572485446929932,0.06790860742330551,-0.2713681161403656,-0.13927921652793884
0.21774685382843018,7.203592777252197,6.749853610992432,0.0583215095102787,-0.27669426798820496,-0.13501828908920288
0.2225325107574463,7.3160552978515625,6.948457717895508,0.08282186836004257,-0.32143405079841614,-0.09666989743709564
0.4573282301425934,7.325626373291016,6.962814807891846,0.09560466557741165,-0.36084768176078796,-0.08601756393909454
1.0031908750534058,7.306483745574951,6.7642107009887695,0.10199606418609619,-0.37043479084968567,-0.13501828908920288
1.2903295755386353,7.304090976715088,6.330810546875,0.030625449493527412,-0.251261830329895,-0.2692376375198364
1.1682956218719482,7.249056339263916,6.211169242858887,-0.13648298382759094,-0.045671865344047546,-0.40345701575279236
0.9768698215484619,6.892226696014404,6.529414653778076,-0.2983984053134918,0.11837401986122131,-0.4949339032173157
0.9266205430030823,6.645765781402588,6.45523738861084,-0.36763855814933777,0.14713531732559204,-0.5162385702133179
0.643968403339386,6.518946170806885,6.19920539855957,-0.5220973491668701,0.17696183919906616,-0.4725640118122101
1.1467602252960205,5.697609901428223,7.702795028686523,-0.7541849613189697,0.49320289492607117,-0.38534805178642273
0.5937191247940063,5.678467273712158,8.033004760742188,-0.6073159575462341,0.47402870655059814,-0.4917382001876831
0.08853443711996078,5.292923450469971,7.434499740600586,-0.5007926821708679,0.43141937255859375,-0.4832163453102112
0.17946170270442963,5.2043890953063965,7.534998416900635,-0.5615109801292419,0.528355598449707,-0.38215234875679016
0.521934449672699,4.866702079772949,9.198907852172852,-0.4379439353942871,0.3749620318412781,-0.44380271434783936
-0.20817556977272034,4.723132610321045,9.093623161315918,-0.04713656008243561,0.3941362202167511,-0.39173945784568787
-0.6870391964912415,5.003392219543457,7.784151077270508,0.07856093347072601,0.5901390910148621,-0.3224993050098419
-0.48843491077423096,5.237888813018799,7.652246952056885,0.05725627392530441,0.63700932264328,-0.2628462612628937
-0.14117653667926788,5.247459888458252,7.439285755157471,0.04660394415259361,0.5443340539932251,-0.3011946380138397
0.059820566326379776,5.395814895629883,7.214360237121582,-0.03328853100538254,0.44100648164749146,-0.3874785006046295
-0.12681959569454193,5.400600910186768,7.29810905456543,-0.09280842542648315,0.4495283365249634,-0.4343487620353699
-1.2185449600219727,5.5707902908325195,7.537391185760498,-0.20785360038280487,0.47189822793006897,-0.4693683087825775
-2.094916343688965,5.582754135131836,8.064111709594727,-0.2685718834400177,0.37709248065948486,-0.3555215299129486
-1.77397882938385,5.587540149688721,7.951648712158203,-0.29413747787475586,0.34633389115333557,-0.19360610842704773
-1.505982756614685,5.647360324859619,8.147860527038574,-0.36870378255844116,0.6039870977401733,-0.11051792651414871
-1.654337763786316,5.884250164031982,8.349156379699707,-0.3314206302165985,0.8873391151428223,-0.05938674136996269
-1.379163146018982,6.080760478973389,8.808876991271973,-0.1844184696674347,0.8702954053878784,-0.027429750189185143
-1.2735798358917236,5.881857395172119,8.808876991271973,0.0583215095102787,0.6487269401550293,-0.07323476672172546
-2.8731818199157715,6.09751033782959,6.342774391174316,0.23195448517799377,-0.5174369215965271,-0.1339530497789383
-2.173879384994507,5.364708423614502,8.715557098388672,-0.04074516147375107,-0.044606633484363556,0.014114337973296642
-1.872383713722229,5.123033046722412,8.710771560668945,0.022103585302829742,0.42183226346969604,-0.025299284607172012
-1.4126626253128052,5.475077152252197,7.7817583084106445,-0.0034620072692632675,0.4133104085922241,-0.11477886140346527
-1.3935201168060303,5.71914529800415,7.542177200317383,-0.03861469775438309,-0.14793424308300018,-0.24686774611473083
-2.1643080711364746,5.790929794311523,6.891030311584473,-0.05459319427609444,-0.9263532757759094,-0.29799893498420715
-2.2743778228759766,5.678467273712158,6.723532676696777,-0.10772168636322021,-1.2810758352279663,-0.23621542751789093
-1.8963119983673096,5.266602516174316,6.807281494140625,-0.24194104969501495,-1.77201509475708,-0.014646953903138638
1.3456636667251587,5.7526445388793945,6.92692232131958,-0.7829462885856628,-0.8423330187797546,0.12063764035701752
0.9529415965080261,5.513362407684326,7.5637125968933105,-1.0109061002731323,-0.511045515537262,-0.12969212234020233
0.1698904037475586,5.120640277862549,8.294121742248535,-1.1674953699111938,-0.41517457365989685,-0.26604193449020386
-0.2874378263950348,4.491028785705566,9.309276580810547,-1.1536474227905273,-0.28628137707710266,-0.1968017965555191
-0.9074779748916626,3.6888351440429688,7.637889862060547,-1.258040189743042,-0.18521739542484283,0.06631075590848923
-1.5586248636245728,5.003392219543457,9.426525115966797,-1.43899667263031,0.5826824903488159,0.600924551486969
0.11006984114646912,4.816452980041504,11.832807540893555,-0.9906666874885559,1.6316707134246826,0.7628399729728699
-0.02392822690308094,5.503791332244873,11.940484046936035,-0.22170162200927734,1.582669973373413,0.32609444856643677
-0.5315057039260864,5.302495002746582,9.579665184020996,0.20532366633415222,0.8575125932693481,0.06311506032943726
-0.8237292170524597,4.66570520401001,9.050552368164062,0.3363473415374756,0.2600499987602234,-0.024234050884842873
-2.20737886428833,4.749454021453857,8.952446937561035,0.4503272473812103,-0.17136935889720917,0.07376738637685776
-2.5283162593841553,5.132604598999023,8.861519813537598,0.5216978788375854,-0.44819679856300354,0.38255181908607483
-1.165902853012085,5.503791332244873,8.313263893127441,0.5142412185668945,-0.25765323638916016,0.6360772848129272
-0.10767702013254166,5.597111225128174,7.776972770690918,0.33954301476478577,0.04593817517161369,0.5615109801292419
-0.10289137065410614,5.283352375030518,8.416155815124512,0.0476691760122776,0.14713531732559204,0.35805144906044006
-0.5434698462486267,4.627419948577881,9.603593826293945,-0.0778951644897461,0.2366148829460144,0.2920069992542267
-0.6655037999153137,4.510171413421631,10.262218475341797,-0.005592473316937685,0.319703072309494,0.4294220507144928
-0.38793638348579407,4.737489700317383,10.50389289855957,0.30758604407310486,0.364309698343277,0.5732285380363464
0.18903298676013947,4.742275238037109,10.604392051696777,0.5524564981460571,-0.029693370684981346,0.5199668407440186
0.16271193325519562,4.392624378204346,10.274182319641113,0.9103747606277466,-0.2001306563615799,0.3250292241573334
-0.4621138870716095,4.220340728759766,9.096015930175781,1.2170287370681763,-0.32889068126678467,0.20785360038280487
-0.521934449672699,4.229912281036377,8.231907844543457,1.2947907447814941,-0.37469571828842163,0.20785360038280487
-0.7037889361381531,4.397409915924072,6.773781776428223,1.2521814107894897,-0.3693695366382599,0.2568543255329132
-0.7085745930671692,4.55563497543335,6.3499531745910645,0.9689626097679138,-0.5749595165252686,0.3420729637145996
-0.5291129350662231,4.938786029815674,6.02183723449707,0.7889382243156433,-0.6069164872169495,0.39107367396354675
0.12442677468061447,5.163711071014404,6.661319255828857,0.47908854484558105,-0.5344806909561157,0.3963998258113861
0.368793785572052,5.2115678787231445,7.22871732711792,0.30971649289131165,-0.30971649289131165,0.2270277887582779
-0.4740779995918274,5.087141036987305,7.539783954620361,0.17762760818004608,0.04274247586727142,0.005592473316937685
-0.8069794178009033,5.240281581878662,7.920542240142822,0.12543119490146637,-0.1031944528222084,0.019440501928329468
-0.6966105103492737,5.209175109863281,8.047361373901367,0.15738818049430847,-0.4077179431915283,0.07483261823654175
-0.6774678826332092,5.475077152252197,8.104789733886719,0.18827994167804718,-0.6367430686950684,0.18974463641643524
-0.7061817646026611,5.611468315124512,7.76261568069458,0.11797455698251724,-0.2203700840473175,0.06098458915948868
-0.6559324860572815,5.566004753112793,8.033004760742188,0.030625449493527412,-0.1468690037727356,0.06737598776817322
-0.09571290761232376,5.585147380828857,7.999505043029785,0.028494983911514282,-0.37363049387931824,0.03435376659035683
-0.08135596662759781,5.776573181152344,7.741080284118652,-0.04394086077809334,-0.5238283276557922,-0.12010502070188522
-0.6822535395622253,5.482255935668945,8.308478355407715,-0.343138188123703,0.151396244764328,-0.10199606418609619
-0.7878368496894836,5.44845724105835,9.110373497009277,-0.3005288541316986,0.37815773487091064,0.00133154122158885
-0.7109674215316772,5.532505035400391,9.14865779876709,-0.22276686131954193,0.4559197425842285,0.04607132822275162
-0.5697908997535706,5.652146339416504,8.964410781860352,-0.12689588963985443,0.505985677242279,0.08655018359422684
-0.5410770177841187,5.927320957183838,8.047361373901367,0.009320789016783237,0.53794264793396,0.10892007499933243
-0.6296114325523376,6.119045734405518,8.056933403015137,0.0583215095102787,0.41011470556259155,0.09507204592227936
-0.6822535395622253,6.154938220977783,7.884649753570557,0.16058388352394104,0.16950520873069763,0.07270215451717377
-0.7516453862190247,6.2913289070129395,7.717152118682861,0.24899822473526,-0.0829550251364708,0.06737598776817322
-0.4860421121120453,6.28415060043335,7.429714202880859,0.27775952219963074,-0.17563030123710632,0.05246272683143616
-0.23688943684101105,6.162116527557373,6.9891357421875,0.2628462612628937,-0.24380521476268768,-0.0050598569214344025
-0.23688943684101105,6.248258113861084,7.197610378265381,0.15845340490341187,-0.22356578707695007,-0.06471290439367294
-0.0526420995593071,6.195616245269775,7.511070251464844,0.03808208182454109,-0.13089050352573395,-0.1872147023677826
-0.2225325107574463,6.1334028244018555,7.853542804718018,0.017842652276158333,-0.10639014840126038,-0.27562904357910156
-0.8141579031944275,5.970391750335693,7.846364498138428,0.06258244067430496,-0.10106398165225983,-0.30758604407310486
-1.2903295755386353,5.910571098327637,7.546962738037109,0.1126483902335167,-0.1149120107293129,-0.21064983308315277
-0.643968403339386,6.1334028244018555,7.475177764892578,0.07962616533041,-0.20758728682994843,-0.06045197322964668
-0.524327278137207,6.3224358558654785,7.444071292877197,0.05406057462096214,-0.18415215611457825,-0.08282186836004257
-0.5362913608551025,6.305685997009277,7.501499176025391,0.04979964345693588,-0.17989122867584229,-0.10199606418609619
-0.7396813035011292,6.372684955596924,7.534998416900635,0.06151720881462097,-0.21717438101768494,-0.1126483902335167
-0.5650052428245544,6.609873294830322,7.63310432434082,0.11371362209320068,-0.2310224175453186,-0.07110430300235748
-0.7588238716125488,6.784549713134766,7.582854747772217,0.22343263030052185,-0.15965180099010468,-0.09560466557741165
-0.6008976101875305,6.856334209442139,7.219145774841309,0.24154159426689148,-0.19267402589321136,-0.11477886140346527
-0.2994019389152527,6.849155902862549,6.527021884918213,0.15951864421367645,-0.30758604407310486,-0.2181064635515213
-0.31375887989997864,6.731907367706299,6.416952133178711,0.06471290439367294,-0.35978245735168457,-0.2820204496383667
-0.6272186636924744,6.396613121032715,6.965207576751709,-0.151396244764328,-0.33954301476478577,-0.3363473415374756
-0.7707880139350891,6.142973899841309,7.75543737411499,-0.27283281087875366,-0.1777607649564743,-0.2404763549566269
-0.3616153299808502,6.162116527557373,8.308478355407715,-0.27602851390838623,-0.021171506494283676,-0.08814803510904312
-0.13160525262355804,6.265007972717285,8.464012145996094,-0.2366148829460144,-0.010519175790250301,-0.03169068321585655
0.2225325107574463,6.343971252441406,8.542975425720215,-0.09493889659643173,-0.15112993121147156,0.015179570764303207
0.38315072655677795,6.183651924133301,8.368298530578613,0.06790860742330551,-0.337412565946579,0.020505735650658607
0.4573282301425934,6.073582172393799,8.27258586883545,0.1424749195575714,-0.41517457365989685,0.017310036346316338
0.7301099896430969,5.977570056915283,7.863114356994629,0.24260681867599487,-0.46630576252937317,0.008788172155618668
0.15074782073497772,5.542076110839844,7.18086051940918,-0.0981345921754837,-0.1585865616798401,-0.30758604407310486
0.37118661403656006,5.568397521972656,7.753044605255127,-0.15033100545406342,-0.16284750401973724,-0.3011946380138397
0.6056832075119019,5.611468315124512,8.03539752960205,-0.15033100545406342,-0.04993279650807381,-0.3171731233596802
0.3329014480113983,5.7047882080078125,8.001897811889648,-0.11624355614185333,0.054460037499666214,-0.3576519787311554
0.49322056770324707,5.767001628875732,8.104789733886719,-0.07163692265748978,-0.19480448961257935,-0.3438039720058441
0.37118661403656006,5.661717414855957,7.997112274169922,-0.05459319427609444,-0.20226112008094788,-0.3555215299129486
0.10049854964017868,5.637789249420166,7.989933967590332,-0.04074516147375107,-0.15965180099010468,-0.30758604407310486
0.2273181527853012,5.671288967132568,8.078468322753906,-0.0077229393646121025,-0.13195574283599854,-0.22449785470962524
0.8261220455169678,5.6808600425720215,8.078468322753906,0.03914731368422508,-0.07656362652778625,-0.2074541300535202
0.5458626747131348,5.604289531707764,7.654639720916748,0.07110430300235748,0.07043853402137756,-0.25645485520362854
0.14117653667926788,5.347958564758301,7.240681171417236,0.030625449493527412,0.1205044835805893,-0.21064983308315277
-0.36640095710754395,5.496612548828125,7.262216567993164,-0.06204982474446297,0.03528584539890289,-0.12117026001214981
0.28504499793052673,5.534897804260254,8.887840270996094,-0.19826649129390717,0.10239552706480026,-0.03488638252019882
0.12442677468061447,5.312066078186035,8.286943435668945,-0.16524426639080048,0.5507254600524902,-0.04447348043322563
-0.3807578980922699,6.296114444732666,8.3300142288208,-0.2472672164440155,0.34739911556243896,0.12809427082538605
-0.30658039450645447,6.317649841308594,8.566903114318848,-0.08854749798774719,-0.13195574283599854,0.17802706360816956
-0.31375887989997864,6.332006931304932,8.47597599029541,0.03595161437988281,-0.24593567848205566,0.19720126688480377
-0.2512463629245758,6.394220352172852,7.635497093200684,0.2074541300535202,-0.210782989859581,0.24939768016338348
0.016749758273363113,6.410970211029053,7.1255269050598145,0.21597599983215332,-0.013714875094592571,0.2813546657562256
0.3329014480113983,6.011368751525879,7.2574310302734375,0.1446053832769394,0.14607007801532745,0.31757259368896484
0.5171487927436829,6.317649841308594,6.649354934692383,0.10519175976514816,-0.13302096724510193,0.30478981137275696
1.0941181182861328,6.107081413269043,8.509475708007812,-0.06737598776817322,0.08535179495811462,0.1334204375743866
0.579362154006958,5.810072422027588,8.231907844543457,-0.005592473316937685,0.491072416305542,0.07589785009622574
-0.1866401731967926,6.174080848693848,7.745865821838379,0.07856093347072601,0.08961272984743118,0.17802706360816956
-0.1339980661869049,6.219544410705566,7.705187797546387,0.11051792651414871,-0.0829550251364708,0.2973331809043884
0.3113660514354706,6.3391852378845215,7.611568927764893,0.12010502070188522,0.037416309118270874,0.3932041525840759
0.6487540602684021,6.406184196472168,7.475177764892578,0.09240896254777908,0.38881006836891174,0.4485962688922882
0.8380861282348633,6.545267105102539,7.645068168640137,0.07536523789167404,0.5581821203231812,0.45392242074012756
0.9194421172142029,6.5404815673828125,7.920542240142822,0.13075734674930573,0.4665720760822296,0.41344356536865234
0.6200401782989502,6.485147476196289,7.731509208679199,0.24899822473526,0.4037233293056488,0.3953346014022827
0.30179476737976074,6.401398658752441,7.628318786621094,0.27775952219963074,0.3111811876296997,0.46350952982902527
0.6511468887329102,6.585945129394531,7.467999458312988,0.2596505582332611,0.491072416305542,0.5444672107696533
1.2305090427398682,7.016653537750244,7.925327777862549,0.19893226027488708,0.63700932264328,0.5018579363822937
1.4126626253128052,6.7055864334106445,7.616354465484619,0.21491076052188873,0.6338136196136475,0.3420729637145996
0.7444669604301453,7.079165935516357,7.12074089050293,0.22556309401988983,0.4175713360309601,0.3015941083431244
0.4262215197086334,7.036095142364502,7.6474609375,0.2170412242412567,-0.07017222791910172,0.24939768016338348
0.08135596662759781,7.011867523193359,7.851150035858154,0.30012941360473633,-0.14899946749210358,0.2994636297225952
0.2682952284812927,6.985546588897705,7.338787078857422,0.3448691964149475,0.10133028775453568,0.37189948558807373
0.4262215197086334,7.048058986663818,6.867101669311523,0.26604193449020386,0.3090507388114929,0.36763855814933777
0.22492532432079315,7.009474754333496,6.960422039031982,0.14673584699630737,0.319703072309494,0.3101159632205963
-0.064606212079525,6.88026237487793,7.408178806304932,0.09880036115646362,0.22276686131954193,0.27176758646965027
-0.19621145725250244,6.652944087982178,7.482356548309326,0.12330072373151779,0.10452599078416824,0.26431095600128174
-0.040677983313798904,6.3702921867370605,7.41535758972168,0.1222354918718338,0.03848154470324516,0.26537618041038513
-0.10049854964017868,6.111867427825928,7.613961696624756,0.08708280324935913,0.09174319356679916,0.25259336829185486
-0.17228323221206665,5.800501346588135,7.439285755157471,0.06684337556362152,0.22915825247764587,0.25898477435112
-0.15074782073497772,5.7981085777282715,7.322037220001221,0.04660394415259361,0.2792242169380188,0.2664414048194885
-0.3233301639556885,5.759823322296143,7.307680130004883,0.019973119720816612,0.3314206302165985,0.24620197713375092
-0.5530411601066589,5.707180976867676,7.197610378265381,0.026364516466856003,0.3452686667442322,0.23448441922664642
-0.7998009920120239,5.580361366271973,6.8264241218566895,0.05086487531661987,0.3228987455368042,0.25365862250328064
-0.8811569213867188,5.66411018371582,6.7881388664245605,0.04447348043322563,0.25365862250328064,0.27602851390838623
-0.924227774143219,5.8220367431640625,6.960422039031982,0.05938674136996269,0.18974463641643524,0.28668084740638733
-0.9074779748916626,6.154938220977783,6.596413612365723,0.08708280324935913,0.1290263533592224,0.27283281087875366
-0.7998009920120239,6.5165534019470215,6.294918060302734,0.022103585302829742,0.010785484686493874,0.21104928851127625
-0.521934449672699,6.485147476196289,6.601199626922607,-0.09600412845611572,-0.1031944528222084,0.10892007499933243
-0.37836506962776184,6.4803619384765625,6.962814807891846,-0.1418091505765915,-0.14473854005336761,0.05139749497175217
-0.08614161610603333,6.336792469024658,7.491927623748779,-0.1833532303571701,-0.16604319214820862,-0.0689738392829895
-0.16031911969184875,6.10468864440918,7.884649753570557,-0.19826649129390717,-0.14367330074310303,-0.30971649289131165
-0.8093722462654114,6.008975982666016,7.4847493171691895,-0.17483137547969818,-0.006258244160562754,-0.291607528924942
-1.0247262716293335,6.245865345001221,6.584449768066406,-0.21211452782154083,0.1950708031654358,-0.14993155002593994
-0.8165507316589355,6.4564337730407715,5.801697731018066,-0.3889431953430176,0.37602725625038147,-0.016777420416474342
-0.5530411601066589,6.406184196472168,5.554937839508057,-0.6648385524749756,0.5411383509635925,0.014114337973296642
-1.1994023323059082,6.2913289070129395,6.27577543258667,-0.920361340045929,0.4356802999973297,0.006657706573605537
-1.434198021888733,6.164509296417236,6.867101669311523,-0.9864057898521423,0.24194104969501495,0.04500609636306763
-0.9266205430030823,5.910571098327637,8.186444282531738,-0.9331441521644592,-0.1894783228635788,0.1430075317621231
0.3281157910823822,5.702395439147949,9.833603858947754,-0.5732285380363464,-0.022236740216612816,0.08655018359422684
-0.24167509377002716,5.450850009918213,9.359525680541992,0.07003907114267349,0.08641702681779861,-0.11371362209320068
-1.7380865812301636,5.819643974304199,7.908577919006348,0.19893226027488708,-0.6335473656654358,-0.1424749195575714
-1.4964114427566528,6.037689685821533,8.322834968566895,0.12330072373151779,-1.5653599500656128,0.10359390825033188
0.9864411354064941,5.625824928283691,9.122337341308594,0.1744319051504135,-0.7837451696395874,0.2483324557542801
0.6918248534202576,6.04247522354126,8.854341506958008,0.30012941360473633,0.048068638890981674,0.21211452782154083
0.7998009920120239,6.425326824188232,8.06650447845459,0.32036882638931274,0.5890738368034363,0.20146219432353973
0.9122636318206787,6.703193664550781,7.513463020324707,0.2170412242412567,0.728619396686554,0.07163692265748978
0.3113660514354706,7.014260292053223,7.525427341461182,0.13608351349830627,0.40159285068511963,-0.14567062258720398
-0.1698904037475586,7.112665176391602,7.729116439819336,0.19041040539741516,0.013981183059513569,-0.24260681867599487
0.5434698462486267,6.844369888305664,8.028219223022461,0.3065207898616791,-0.22782671451568604,-0.2713681161403656
0.7779664397239685,6.774978160858154,8.188837051391602,0.3693695366382599,-0.26391148567199707,-0.3224993050098419
0.3161516785621643,6.6122660636901855,8.260622024536133,0.5035889148712158,-0.20865251123905182,-0.4480636417865753
-0.11964113265275955,6.576374053955078,8.16700267791748,0.5673697590827942,-0.20439158380031586,-0.4629769027233124
-0.9696913957595825,6.542874336242676,7.772187232971191,0.6344794034957886,-0.4343487620353699,-0.38108712434768677
-0.890728235244751,6.643373012542725,7.412964344024658,0.6099790334701538,-0.6985265612602234,-0.20532366633415222
0.0,6.75583553314209,7.503891944885254,0.546065092086792,-0.7102441191673279,-0.08495233207941055
0.6822535395622253,6.715157508850098,7.365108013153076,0.5227631330490112,-0.4311530590057373,-0.09773512929677963
0.7806583642959595,6.813263416290283,7.135097980499268,0.46737098693847656,-0.23954427242279053,-0.20106273889541626
0.612861692905426,6.655336856842041,7.0800628662109375,0.39493513107299805,-0.10639014840126038,-0.3065207898616791
0.4549354016780853,6.547659873962402,7.188039302825928,0.3693695366382599,-0.07762885838747025,-0.34060826897621155
0.11485548317432404,6.312864303588867,7.046563625335693,0.3555215299129486,-0.14260807633399963,-0.34273871779441833
0.6870391964912415,6.142973899841309,6.914958477020264,0.30758604407310486,-0.501458466053009,-0.26817241311073303
1.1682956218719482,5.972784519195557,6.6469621658325195,0.26497671008110046,-0.5675029158592224,-0.3342168629169464
0.8165507316589355,5.877071380615234,6.088836193084717,0.15099677443504333,-0.5334154367446899,-0.4130440950393677
0.9625129103660583,6.052046775817871,6.620641231536865,-0.1620485782623291,-0.23315288126468658,-0.3139774203300476
1.134796142578125,6.305685997009277,6.737889289855957,-0.23448441922664642,-0.16497796773910522,-0.27456381916999817
1.0845468044281006,6.4803619384765625,6.958029270172119,-0.28668084740638733,-0.22782671451568604,-0.25752007961273193
1.0630114078521729,6.343971252441406,7.721937656402588,-0.2696371078491211,-0.22250054776668549,-0.2191716879606247
0.7612167000770569,6.162116527557373,8.581260681152344,-0.08641702681779861,0.0991998240351677,-0.11690932512283325
0.8620143532752991,6.126224040985107,8.550153732299805,0.05938674136996269,0.34633389115333557,-0.04127778112888336
1.2975081205368042,6.387042045593262,7.7339019775390625,0.29906415939331055,0.5624430179595947,-0.018907885998487473
1.3624134063720703,6.69362211227417,6.816852569580078,0.3768261969089508,0.7179670333862305,-0.16271434724330902
-0.17706887423992157,6.774978160858154,5.545366287231445,0.2617810070514679,1.0501866340637207,-0.2607157826423645
-1.256830096244812,7.284948348999023,5.272584915161133,0.07749570161104202,1.202514886856079,-0.09560466557741165
-0.9385846853256226,7.272984504699707,5.950052738189697,-0.08641702681779861,1.3740174770355225,0.0801587849855423
-0.6391827464103699,7.251449108123779,6.3116679191589355,-0.15672241151332855,1.2355371713638306,0.1451379954814911
-0.9960124492645264,7.546065330505371,6.223133563995361,-0.22170162200927734,0.8766867518424988,0.1940055638551712
-0.9577272534370422,7.512266635894775,6.500700950622559,-0.27389803528785706,0.7318150997161865,0.2472672164440155
-1.0007981061935425,7.521838188171387,7.846364498138428,-0.2973331809043884,0.7264889478683472,0.3303554058074951
-0.49322056770324707,7.46201753616333,8.1526460647583,-0.11411308497190475,1.004381537437439,0.37829089164733887
-0.2225325107574463,7.447660446166992,8.078468322753906,-0.019440501928329468,1.1428618431091309,0.3527252972126007
-0.13639089465141296,7.548458099365234,7.954041481018066,0.13821399211883545,1.4038439989089966,0.2600499987602234
-0.5362913608551025,7.658527851104736,7.743473052978516,0.31930360198020935,1.446453332901001,0.14620323479175568
-0.9505487680435181,7.495516777038574,6.80249547958374,0.4609795808792114,1.2440589666366577,0.0588541254401207
-1.5490535497665405,7.246663570404053,7.05134916305542,0.46630576252937317,1.149253249168396,0.022636201232671738
-2.097309112548828,7.162914752960205,5.871089458465576,0.5153064727783203,1.4634970426559448,0.09507204592227936
-1.324128270149231,7.115057945251465,2.598306179046631,0.0370168462395668,0.6157047152519226,0.07376738637685776
-3.9074792861938477,7.1748785972595215,7.444071292877197,-0.33887726068496704,0.10346075892448425,0.16005125641822815
-2.755634307861328,6.892226696014404,7.788936614990234,-0.1418091505765915,0.2600499987602234,0.48800987005233765
-0.6248258352279663,7.0648088455200195,3.9412779808044434,-0.3729647099971771,-0.15219517052173615,0.5924026966094971
0.18903298676013947,7.375875949859619,4.037290096282959,-0.8436645269393921,-0.5888075828552246,0.4283568263053894
0.45254257321357727,7.28255558013916,4.1282172203063965,-1.0236889123916626,-0.8338111639022827,0.3133116662502289
0.08614161610603333,6.7486572265625,5.969195365905762,-1.2994511127471924,-1.4728177785873413,0.06524552404880524
0.16271193325519562,6.430112838745117,10.18774127960205,-1.136603593826294,-2.3556296825408936,-0.014646953903138638
0.9672985672950745,6.640980243682861,10.73838996887207,-0.4091826379299164,-2.5324583053588867,-0.10199606418609619
1.1515458822250366,5.853143215179443,8.296514511108398,0.11797455698251724,-1.7134273052215576,-0.08282186836004257
1.8891334533691406,5.359922885894775,5.969195365905762,0.05086487531661987,-0.7922670841217041,0.026897134259343147
1.1324033737182617,6.43968391418457,5.713163375854492,-0.43368300795555115,-0.19800019264221191,-0.07749570161104202
0.5817549824714661,6.636194705963135,5.926124572753906,-0.9278179407119751,0.46124589443206787,-0.16271434724330902
0.22971096634864807,6.372684955596924,7.084848880767822,-1.2463226318359375,1.2461894750595093,-0.22556309401988983
0.04785645380616188,6.233901023864746,7.820043563842773,-1.3111686706542969,1.3431257009506226,-0.24473728239536285
-0.12921242415905,6.28415060043335,8.574081420898438,-1.2846710681915283,1.3207558393478394,-0.2617810070514679
-0.07896314561367035,6.489933013916016,9.558130264282227,-1.0151671171188354,0.9649679660797119,-0.31930360198020935
-0.5458626747131348,6.324828624725342,9.534201622009277,-0.6083812117576599,0.5177032351493835,-0.4130440950393677
-1.4006985425949097,6.293721675872803,8.875876426696777,-0.28348514437675476,0.07043853402137756,-0.356586754322052
-1.4724832773208618,6.068796634674072,8.531010627746582,-0.14926578104496002,-0.4609795808792114,-0.1850842386484146
-0.9337990283966064,5.618646621704102,9.038588523864746,-0.05246272683143616,-0.44500109553337097,0.13874660432338715
0.08374879509210587,5.625824928283691,8.78494930267334,0.1328878253698349,0.24407151341438293,0.49972742795944214
0.30658039450645447,6.066403388977051,8.363512992858887,0.22449785470962524,0.40798425674438477,0.6126421689987183
1.043868899345398,6.169294834136963,8.102396965026855,0.23408496379852295,0.2248973250389099,0.6126421689987183
1.4892330169677734,6.10468864440918,8.04975414276123,0.20532366633415222,0.06404713541269302,0.5508586168289185
1.8747764825820923,5.972784519195557,8.413763046264648,0.10519175976514816,-0.1692388951778412,0.3655080795288086
1.8436698913574219,5.8148579597473145,8.672187805175781,0.0902784988284111,-0.11704248189926147,0.28348514437675476
1.6615161895751953,5.388636589050293,8.981161117553711,0.18188853561878204,0.1396786868572235,0.14726845920085907
0.7950153350830078,5.458327770233154,8.138288497924805,0.3438039720058441,0.3111811876296997,0.04713656008243561
-0.2392822653055191,5.484648704528809,7.836793422698975,0.4013265371322632,0.30585503578186035,0.06524552404880524
-0.5315057039260864,5.530112266540527,8.186444282531738,0.4513925015926361,0.1524614691734314,0.13022473454475403
-0.6343970894813538,5.599503993988037,7.5708909034729,0.5812177658081055,0.048068638890981674,0.16005125641822815
-0.924227774143219,5.948856353759766,6.9891357421875,0.5407389402389526,-0.5685681104660034,0.19080986082553864
0.05024927482008934,6.018547058105469,8.011468887329102,0.28521615266799927,-0.10639014840126038,0.2973331809043884
-0.45254257321357727,6.286543369293213,7.164111137390137,0.27882474660873413,0.20678836107254028,0.34633389115333557
-0.37118661403656006,6.442076683044434,7.05134916305542,0.1446053832769394,-0.011584409512579441,0.4166392683982849
-0.2682952284812927,6.55483865737915,7.87986421585083,0.12117026001214981,-0.1990654170513153,0.3857475221157074
-0.009571290574967861,6.372684955596924,8.298907279968262,0.3256950080394745,-0.028628136962652206,0.2579195499420166
-0.04307080805301666,6.343971252441406,7.918148994445801,0.40558746457099915,0.06937330216169357,0.2259625494480133
-0.1459621787071228,6.44686222076416,6.958029270172119,0.4737623929977417,0.20678836107254028,0.18974463641643524
-0.14356936514377594,6.466004848480225,6.235097408294678,0.38534805178642273,0.2057231217622757,0.14726845920085907
-0.4262215197086334,6.533303260803223,6.108277797698975,0.2276935577392578,0.17696183919906616,0.08441971987485886
-0.6080760359764099,6.427719593048096,6.26141881942749,0.08388710021972656,0.16950520873069763,0.0790935531258583
-0.5817549824714661,6.336792469024658,6.4289164543151855,-0.011983871459960938,0.2664414048194885,0.07696308940649033
-0.6894320249557495,6.382256031036377,6.644569396972656,-0.06737598776817322,0.35791829228401184,0.08335448056459427
-0.5673980712890625,6.521338939666748,6.644569396972656,-0.08002562820911407,0.3218335211277008,0.09613727778196335
-0.6631109714508057,6.638587474822998,6.457630157470703,-0.09174319356679916,0.09067796170711517,0.06418029218912125
-0.8524430394172668,6.514160633087158,6.443273067474365,-0.15033100545406342,-0.21930484473705292,0.07057169079780579
-1.2640085220336914,6.753442764282227,6.886244297027588,-0.2270277887582779,-0.1990654170513153,0.112115778028965
-0.5099703073501587,6.4325056076049805,7.250252723693848,-0.21850591897964478,0.051264338195323944,0.19720126688480377
-0.31375887989997864,6.4803619384765625,7.255038261413574,-0.20891882479190826,0.020372580736875534,0.1940055638551712
-0.24406790733337402,6.763014316558838,6.993921279907227,-0.19826649129390717,-0.08188978582620621,0.11744193732738495
0.0023928226437419653,6.4085774421691895,7.690831184387207,-0.27389803528785706,0.23128871619701385,0.17483137547969818
-0.040677983313798904,6.645765781402588,7.69322395324707,-0.2472672164440155,0.22809302806854248,0.1451379954814911
0.07657032459974289,6.62423038482666,7.506284713745117,-0.18015754222869873,0.18761417269706726,0.07163692265748978
-0.43579283356666565,6.399005889892578,7.688438415527344,-0.06737598776817322,0.30692026019096375,-0.022103585302829742
-0.5315057039260864,6.734300136566162,7.0393853187561035,0.023168819025158882,0.3536573648452759,0.027962366119027138
-0.6224330067634583,6.765407085418701,7.0322065353393555,0.00719032296910882,0.29626792669296265,0.013049104250967503
-0.6343970894813538,6.6122660636901855,7.060920715332031,-0.00452724052593112,0.22383208572864532,0.00133154122158885
-0.734895646572113,6.387042045593262,7.408178806304932,0.008255556225776672,0.18654893338680267,-0.0007989247678779066
-0.7588238716125488,6.3631134033203125,7.379465103149414,0.06684337556362152,0.29413747787475586,0.03648423030972481
-0.7540382146835327,6.573981285095215,7.065706253051758,0.09880036115646362,0.3504616618156433,0.07589785009622574
-0.6583253145217896,6.6744794845581055,7.525427341461182,0.0018641578499227762,0.10133028775453568,0.08974587917327881
-0.5315057039260864,6.710371971130371,7.506284713745117,0.00719032296910882,0.0981345921754837,0.05991935729980469
-0.4788636267185211,6.786942481994629,7.4464640617370605,0.009320789016783237,0.11304785311222076,0.04607132822275162
-0.4668995141983032,6.882655143737793,7.401000499725342,-0.005592473316937685,0.14607007801532745,0.017310036346316338
-0.6032904386520386,6.81087064743042,7.549355506896973,0.00399462366476655,0.1290263533592224,-0.015712186694145203
-0.7926225066184998,6.796513557434082,7.623532772064209,0.05938674136996269,0.023568280041217804,-0.016777420416474342
-0.5961119532585144,6.877869606018066,7.542177200317383,0.11903978884220123,0.03209014609456062,0.0034620072692632675
-0.4142574071884155,6.827620506286621,7.0633134841918945,0.13608351349830627,0.13541774451732635,-0.05086487531661987
-0.5865406394004822,6.894619464874268,6.699604511260986,0.07003907114267349,0.1844184696674347,-0.11690932512283325
-0.7588238716125488,6.62423038482666,6.838387966156006,-0.011983871459960938,0.25152814388275146,-0.15099677443504333
-1.2831511497497559,6.5404815673828125,6.924529552459717,-0.05139749497175217,0.27176758646965027,-0.11584409326314926
-1.4318052530288696,6.552445888519287,7.108777046203613,-0.07057169079780579,0.31650736927986145,-0.05938674136996269
-1.2544373273849487,6.415755748748779,7.558926582336426,-0.023701434955000877,0.4399412274360657,0.07483261823654175
-1.0462616682052612,6.597909450531006,5.942873954772949,0.10838746279478073,0.5081161260604858,0.1950708031654358
-0.7707880139350891,6.621837615966797,5.382654666900635,0.05086487531661987,0.23448441922664642,0.22063638269901276
-0.15074782073497772,6.521338939666748,6.404987812042236,-0.14287437498569489,-0.30971649289131165,0.18548369407653809
0.17228323221206665,6.585945129394531,7.903792381286621,-0.14820054173469543,-0.34167349338531494,0.07376738637685776
0.5434698462486267,6.183651924133301,7.822436332702637,-0.026897134259343147,-0.09786828607320786,-0.09453943371772766
0.3640081584453583,5.9922261238098145,6.426523208618164,-0.024766668677330017,-0.09147688746452332,-0.2394111156463623
0.038285162299871445,6.052046775817871,6.488736629486084,-0.11411308497190475,-0.23847904801368713,-0.2926727831363678
-0.059820566326379776,5.965605735778809,6.910172462463379,-0.37829089164733887,-0.6399387121200562,-0.3981308341026306
0.04546362906694412,5.613861083984375,7.808079242706299,-0.4826837182044983,-0.524893581867218,-0.4343487620353699
-0.40229329466819763,5.374279499053955,7.989933967590332,-0.46457475423812866,-0.2533923089504242,-0.4416722357273102
0.19381862878799438,5.676074504852295,8.385048866271973,-0.42196542024612427,0.11091738939285278,-0.16697527468204498
0.18424734473228455,5.575575828552246,8.528617858886719,-0.3889431953430176,-0.061650361865758896,-0.22556309401988983
-0.5721837282180786,5.359922885894775,8.830412864685059,-0.3633776009082794,-0.28734660148620605,-0.2287587970495224
0.46450668573379517,5.221138954162598,9.723235130310059,-0.12689588963985443,0.1620485782623291,0.06844121962785721
0.6200401782989502,5.367101192474365,9.266205787658691,0.05086487531661987,0.3952014446258545,0.05352795869112015
0.49322056770324707,5.7526445388793945,7.968398571014404,0.2628462612628937,0.06511236727237701,-0.20212796330451965
0.11246266216039658,5.78135871887207,7.539783954620361,0.17017097771167755,0.051264338195323944,-0.3033251166343689
-0.4334000051021576,5.398207664489746,7.6498541831970215,0.05619104206562042,0.10133028775453568,-0.3896089792251587
-1.6184453964233398,5.106283664703369,8.037790298461914,-0.00133154122158885,0.028894444927573204,-0.20425842702388763
-1.6758731603622437,5.154139995574951,8.341978073120117,0.07216953486204147,0.20039696991443634,0.06204982474446297
-0.8261220455169678,5.446064472198486,8.033004760742188,0.15632294118404388,0.43141937255859375,0.27389803528785706
-0.21296121180057526,5.85075044631958,7.216753005981445,0.15845340490341187,0.4378107786178589,0.2600499987602234
-0.7277171611785889,6.236293792724609,6.883851528167725,0.0476691760122776,0.5038552284240723,0.1653774231672287
-1.2951152324676514,6.0640106201171875,7.381857872009277,-0.10239552706480026,0.6679010987281799,0.1440727710723877
-1.2041879892349243,6.013761520385742,7.788936614990234,-0.1940055638551712,0.9107742309570312,0.2557890713214874
-0.4501497745513916,6.5165534019470215,8.222336769104004,-0.24939768016338348,1.0054467916488647,0.24620197713375092
-0.3113660514354706,6.327221393585205,8.217551231384277,-0.23448441922664642,0.9267527461051941,0.08122401684522629
-0.7998009920120239,6.37747049331665,7.865507125854492,-0.18974463641643524,0.659379243850708,0.03328853100538254
-1.6878372430801392,6.437291145324707,8.248658180236816,-0.23341917991638184,-0.008388710208237171,0.07163692265748978
-0.9361918568611145,5.970391750335693,9.186943054199219,-0.18867939710617065,0.12476541846990585,0.1557903289794922
-0.15074782073497772,6.02811861038208,9.021839141845703,-0.00452724052593112,0.3621792197227478,0.14833369851112366
-0.08135596662759781,5.826822280883789,8.557332038879395,0.0689738392829895,0.4452674090862274,0.11424624174833298
-1.1491531133651733,5.903392791748047,7.95643424987793,0.1531272530555725,0.28668084740638733,0.12702903151512146
-1.0845468044281006,6.006583213806152,7.537391185760498,0.20319320261478424,-0.05312849581241608,0.25472384691238403
-0.26590242981910706,6.121438503265381,7.068099021911621,0.21384553611278534,-0.2948032319545746,0.2707023322582245
-0.22013968229293823,6.075974941253662,7.092027187347412,0.19360610842704773,-0.4439358711242676,0.20146219432353973
-0.6080760359764099,6.056832313537598,7.286144733428955,0.22449785470962524,-0.5430025458335876,0.1940055638551712
-0.39032918214797974,6.131010055541992,7.669295787811279,0.3161078989505768,-0.7496577501296997,0.25898477435112
0.11246266216039658,6.332006931304932,7.4464640617370605,0.49187135696411133,-1.0850729942321777,0.28241991996765137
0.44297128915786743,6.62423038482666,6.251847267150879,0.5876091718673706,-1.7805370092391968,0.09613727778196335
0.5961119532585144,6.535696029663086,6.019444465637207,0.5206326246261597,-1.933930516242981,0.014114337973296642
1.0199406147003174,6.410970211029053,5.155336380004883,0.23195448517799377,-1.7816022634506226,-0.19147562980651855
1.0654042959213257,6.207580089569092,4.039682865142822,-0.3111811876296997,-0.9647016525268555,-0.43541398644447327
0.064606212079525,5.56361198425293,4.412963390350342,-1.0013190507888794,-0.014780107885599136,-0.4917382001876831
-0.890728235244751,5.26899528503418,6.998707294464111,-1.5146281719207764,0.5347470045089722,-0.2298240214586258
-0.802193820476532,5.216353416442871,10.159028053283691,-1.5252805948257446,0.7669677734375,0.10252867639064789
-0.30179476737976074,5.3216376304626465,10.949256896972656,-1.33353853225708,0.7669677734375,0.20039696991443634
0.06939185410737991,5.5707902908325195,10.987542152404785,-0.7818810343742371,0.6497921347618103,0.25046291947364807
-0.32572299242019653,5.841179370880127,10.161420822143555,-0.28241991996765137,0.6892057657241821,0.2888112962245941
-0.8356932997703552,6.083153247833252,9.778569221496582,0.018907885998487473,0.17696183919906616,0.4262263774871826
-0.2994019389152527,6.013761520385742,9.366703987121582,0.24473728239536285,-0.5302197337150574,0.5497934222221375
0.2682952284812927,5.757430553436279,8.239086151123047,0.3438039720058441,-0.6910699009895325,0.5434020161628723
0.4381856322288513,5.577968597412109,7.630711555480957,0.3150426745414734,-0.5888075828552246,0.5402063131332397
0.5434698462486267,5.395814895629883,7.283751964569092,0.24899822473526,-0.4535229504108429,0.5465977191925049
0.828514814376831,5.3312087059021,7.267002582550049,0.08708280324935913,-0.19480448961257935,0.5444672107696533
1.6471593379974365,5.398207664489746,8.128717422485352,0.04340824484825134,-0.042476166039705276,0.4475310146808624
1.8532410860061646,5.388636589050293,8.540582656860352,0.08175663650035858,0.041677240282297134,0.3303554058074951
1.7285152673721313,5.190032482147217,9.227920532226562,0.26817241311073303,0.37709248065948486,0.04181039705872536
1.0606186389923096,4.984249591827393,9.783354759216309,0.6110442876815796,0.6892057657241821,-0.18295377492904663
0.8117650747299194,5.056034088134766,9.65384292602539,0.8176994919776917,0.7914681434631348,-0.2404763549566269
0.6942176818847656,5.089533805847168,9.409774780273438,1.0264852046966553,0.8575125932693481,-0.27669426798820496
0.2706880569458008,5.625824928283691,8.49033260345459,1.4204882383346558,0.888404369354248,-0.33954301476478577
-1.2352946996688843,6.645765781402588,6.20638370513916,1.4609670639038086,0.61250901222229,-0.3246297538280487
-2.3799612522125244,6.662515640258789,4.662116050720215,0.9284837245941162,0.5954652428627014,-0.11797455698251724
-2.762812852859497,6.320042610168457,4.745864391326904,0.2383458912372589,0.8702954053878784,0.20146219432353973
-2.535494804382324,6.04247522354126,5.318048477172852,-0.05778888985514641,1.0800131559371948,0.34952959418296814
-1.7045869827270508,5.391029357910156,6.668497562408447,-0.4485962688922882,1.325016736984253,0.5178363919258118
-1.9106688499450684,5.609075546264648,7.427321434020996,-0.5785546898841858,1.3995829820632935,0.5529890656471252
-2.2265214920043945,5.750251770019531,7.765008449554443,-0.5647066831588745,1.4528447389602661,0.5785546898841858
-2.3871397972106934,5.762216091156006,8.353941917419434,-0.4262263774871826,1.501845359802246,0.661642849445343
-1.9537396430969238,5.685645580291748,8.684151649475098,-0.20785360038280487,1.507171630859375,0.6669690012931824
-1.6854444742202759,5.997011661529541,8.49990463256836,0.014646953903138638,1.4677579402923584,0.5338149070739746
-2.035095691680908,6.09751033782959,8.21994400024414,0.19041040539741516,1.4262138605117798,0.40172600746154785
-2.377568483352661,6.485147476196289,7.968398571014404,0.3256950080394745,1.378278374671936,0.37829089164733887
-1.5849459171295166,6.571588516235352,7.491927623748779,0.4503272473812103,1.2845379114151,0.29413747787475586
-2.142772674560547,6.784549713134766,3.7211382389068604,0.5046541690826416,1.2216891050338745,0.1014634445309639
-2.705385208129883,6.81087064743042,2.560021162033081,-0.172700896859169,0.4122451841831207,0.04181039705872536
