accX,accY,accZ,gyroX,gyroY,gyroZ
-1.4077043533325195,2.741360902786255,8.83780288696289,-0.11875220388174057,-0.42121776938438416,-0.1731017529964447
-1.21132230758667,2.1859827041625977,9.400142669677734,-0.199334055185318,-0.09152506291866302,0.07941248267889023
-1.031508207321167,2.111025094985962,10.315006256103516,-0.5283285975456238,-0.5227086544036865,0.1886177361011505
-1.0181007385253906,1.9766145944595337,9.54792308807373,-0.835750937461853,-0.9024748206138611,0.3396236300468445
0.7423940300941467,-0.5212655663490295,10.475513458251953,-0.26544713973999023,-0.11079350113868713,0.5751732587814331
0.7052838802337646,-0.6822420954704285,10.7734375,-0.028152160346508026,-0.1653175801038742,0.1598372459411621
0.2982313334941864,0.334651917219162,9.796337127685547,0.1975712776184082,-0.004206243436783552,-0.16048301756381989
0.5700594186782837,0.17339766025543213,9.907092094421387,0.4364021122455597,0.45382049679756165,-0.23495621979236603
0.019278110936284065,0.9460256695747375,9.52526569366455,0.5521523356437683,0.7643320560455322,-0.26680848002433777
-0.21999838948249817,0.6961859464645386,9.912579536437988,0.4392993748188019,0.6331530809402466,-0.29948103427886963
-0.7275117039680481,1.211619257926941,9.374995231628418,0.2738421559333801,0.3385066092014313,-0.4439070522785187
-0.8940906524658203,1.3289254903793335,9.078401565551758,0.18140952289104462,0.165911003947258,-0.38296014070510864
-0.6659041047096252,1.1247671842575073,8.676156044006348,0.034749504178762436,0.25452136993408203,-0.3147352337837219
-1.1651047468185425,1.5310152769088745,10.134263038635254,-0.3251548409461975,-0.09581857919692993,-0.41378265619277954
-1.0710796117782593,1.1538807153701782,9.994307518005371,-0.2756747603416443,-0.4508185386657715,-0.37138861417770386
-1.026327133178711,1.0920528173446655,9.835868835449219,-0.19751891493797302,-0.6147224307060242,-0.19938641786575317
-0.8659348487854004,0.9851948022842407,9.717412948608398,-0.11746066063642502,-0.5192703604698181,-0.10163052380084991
-0.18919938802719116,0.45670831203460693,9.764339447021484,0.12198106199502945,0.1425410360097885,-0.03754203021526337
-0.4534139037132263,0.7269753813743591,9.717547416687012,0.2880665957927704,0.7539647817611694,-0.015515976585447788
-0.9060041904449463,1.0606887340545654,9.398428916931152,0.20039869844913483,0.9019163250923157,0.002234021434560418
-1.3566408157348633,1.3747888803482056,9.884653091430664,-0.04401720315217972,0.37627553939819336,-0.016580628231167793
-1.1356655359268188,1.173283338546753,9.391782760620117,-0.024347342550754547,0.18654078245162964,0.03324852138757706
-0.9571826457977295,1.02598237991333,9.577275276184082,0.18308503925800323,0.3022037446498871,0.08782497048377991
-1.222642183303833,1.352685570716858,9.660508155822754,0.32536429166793823,0.29958575963974,0.13374458253383636
-1.2322955131530762,1.35829758644104,9.322876930236816,0.3229382634162903,0.12459905445575714,0.15845844149589539
-1.0652282238006592,1.3063817024230957,8.897964477539062,0.24925047159194946,0.1247037723660469,0.22621212899684906
-0.9275903105735779,1.2710145711898804,8.812721252441406,0.16521286964416504,0.4063650071620941,0.3338291347026825
-1.0122109651565552,1.3402166366577148,8.52315616607666,0.020717058330774307,0.6747966408729553,0.48492228984832764
-1.228187084197998,1.6766690015792847,8.634726524353027,-0.16681857407093048,0.6035348773002625,0.690609335899353
-1.0566473007202148,0.922275185585022,8.678234100341797,-0.30925488471984863,0.7443305850028992,0.7082546353340149
-2.5787370204925537,0.576418399810791,9.908699989318848,-0.07497934252023697,2.644069194793701,1.262065052986145
-3.2926113605499268,1.7134246826171875,10.984607696533203,0.24841271340847015,2.0120155811309814,0.4987976551055908
-3.65771746635437,2.653053045272827,10.482791900634766,0.6684436202049255,0.8410217761993408,0.1177922710776329
-2.75944185256958,1.1496477127075195,9.283307075500488,0.8010014295578003,0.8425751328468323,0.09660397469997406
-3.261218547821045,1.7785661220550537,8.34345817565918,0.5412091612815857,1.1695799827575684,-0.06133086979389191
-4.571603298187256,3.0017924308776855,9.00313663482666,0.35669293999671936,0.7600210905075073,-0.04682718217372894
-3.8978750705718994,1.707171082496643,8.731386184692383,0.3655766546726227,0.12810716032981873,-0.04792674258351326
-4.0110249519348145,1.8445791006088257,8.092728614807129,0.20357520878314972,0.0820828378200531,0.05836381018161774
-4.2145514488220215,2.0293922424316406,8.64026165008545,0.0246265958994627,0.2653074860572815,0.21759019792079926
-3.226780414581299,1.8816030025482178,8.800080299377441,0.02157226949930191,0.3906221389770508,0.21162116527557373
-4.097484588623047,2.3707096576690674,9.462430953979492,0.2442762851715088,1.3779548406600952,-0.15086625516414642
-5.298032760620117,2.3616788387298584,9.965108871459961,0.5180835127830505,0.27087509632110596,-0.15423475205898285
-6.201509952545166,2.8785102367401123,7.806888103485107,0.3279822766780853,-0.9079726338386536,0.14817845821380615
-5.377424716949463,2.730644464492798,8.169783592224121,0.21649064123630524,-0.9605594277381897,0.25907668471336365
-3.51135516166687,2.2706034183502197,8.234224319458008,0.2557954490184784,-0.6589316129684448,-0.030892327427864075
-3.834897994995117,2.6969339847564697,7.962530136108398,0.1673596203327179,-0.5651376247406006,-0.4380427300930023
-4.9153056144714355,2.318563938140869,7.761265277862549,-0.01877974346280098,-1.03822660446167,-0.71075040102005
-4.824038505554199,1.6670634746551514,8.619115829467773,-0.2520255446434021,-1.5018209218978882,-0.7732157707214355
-4.127603530883789,1.8010621070861816,10.044088363647461,-0.12868312001228333,-1.615947961807251,-0.8951444625854492
-3.050212860107422,2.0352821350097656,9.085200309753418,0.19083429872989655,-1.4285345077514648,-0.9387253522872925
-2.600304126739502,1.745918869972229,9.251520156860352,0.22163936495780945,-0.8901353478431702,-0.7333175539970398
-3.6675050258636475,1.527040958404541,9.71938705444336,0.08175121992826462,-1.4209423065185547,-0.35177111625671387
-4.1688032150268555,2.182429790496826,9.515860557556152,-0.056182149797677994,-2.102668046951294,-0.1218239814043045
-3.2978689670562744,2.632903575897217,9.310295104980469,0.12004374712705612,-1.9930089712142944,-0.073164202272892
-1.9384318590164185,2.4039411544799805,9.407766342163086,0.11470303684473038,-1.7129533290863037,0.017994344234466553
-1.3960301876068115,2.6452958583831787,9.467008590698242,-0.12803734838962555,-1.5193439722061157,0.12081169337034225
-0.9618752598762512,1.9932878017425537,8.598851203918457,-0.37288960814476013,-1.1571358442306519,0.12636183202266693
-0.4474667012691498,1.5530993938446045,9.0614595413208,-0.5114338397979736,-0.5814040899276733,-0.02068215236067772
-0.12336841970682144,0.5606932640075684,9.362747192382812,-0.5653296113014221,-0.0815243273973465,-0.15231488645076752
-0.597085177898407,1.1108521223068237,9.780343055725098,-0.48150143027305603,0.17749997973442078,-0.23717279732227325
-0.9115970730781555,1.4876036643981934,9.97944450378418,-0.38320448994636536,0.17325884103775024,-0.22190116345882416
-1.1377724409103394,1.7561085224151611,10.186637878417969,-0.16516050696372986,0.10765190422534943,-0.09786061197519302
-0.9876464605331421,1.5556659698486328,10.547740936279297,0.0751538798213005,-0.03174753859639168,0.0025307273026555777
-0.826143205165863,1.3858500719070435,9.879194259643555,0.33138567209243774,-0.01665044017136097,0.026808258146047592
-0.911654531955719,1.446816086769104,9.357525825500488,0.4699822664260864,0.041608650237321854,0.0051312679424881935
-0.9461405873298645,1.4250767230987549,9.195937156677246,0.34554028511047363,-0.012077677994966507,-0.06126105785369873
-1.4719072580337524,2.3815603256225586,9.303302764892578,0.09625490754842758,-0.08073893189430237,-0.11105529963970184
-1.4529930353164673,1.4471033811569214,9.747446060180664,0.20718804001808167,0.2286730408668518,0.2716255784034729
-1.562542200088501,1.6147741079330444,9.88278579711914,0.27495917677879333,0.36706018447875977,0.38721874356269836
-1.6335924863815308,1.8528343439102173,9.662854194641113,0.25787240266799927,0.3723834455013275,0.402682363986969
-1.5062975883483887,1.840221643447876,9.312591552734375,0.21926571428775787,0.3893829584121704,0.3502875864505768
-1.6074382066726685,2.038566827774048,9.283469200134277,0.13346533477306366,0.2739294171333313,0.2168920636177063
-1.6441748142242432,2.0843822956085205,9.314957618713379,0.04673991724848747,0.0031066860537976027,0.01993165910243988
-1.4388768672943115,1.8797930479049683,9.291207313537598,0.004188789986073971,-0.2652900516986847,-0.13233086466789246
-1.2393344640731812,1.9001150131225586,9.81738567352295,0.019861847162246704,-0.22057470679283142,0.0067544239573180676
-1.1548000574111938,1.9839024543762207,9.793281555175781,0.027803095057606697,-0.063355453312397,0.09023351967334747
-1.1164066791534424,1.8701778650283813,9.606898307800293,0.03508111834526062,0.01918116770684719,0.05677555873990059
-1.033021330833435,2.0539662837982178,9.479680061340332,0.03960151970386505,0.0362853966653347,0.005846852902323008
-1.191938877105713,2.0840184688568115,9.7078857421875,0.05611233413219452,-0.008028514683246613,0.027750734239816666
-1.1797667741775513,2.0564658641815186,9.853825569152832,0.09810495376586914,-0.017523106187582016,0.10388199985027313
-1.2164459228515625,2.010277032852173,9.757425308227539,0.1656142920255661,0.0414690226316452,0.14678218960762024
-1.0554693937301636,1.8802909851074219,8.585195541381836,0.2987480163574219,0.21985912322998047,0.15187855064868927
-1.5568727254867554,2.0535738468170166,10.228959083557129,0.42989203333854675,-0.23801055550575256,0.01762782596051693
-1.0549427270889282,2.3242430686950684,9.212762832641602,0.2569124698638916,-0.38500216603279114,-0.04761258140206337
-0.8729546070098877,2.052395820617676,8.588729858398438,0.03021164983510971,-0.14964452385902405,-0.08810421824455261
-1.2398420572280884,2.3702309131622314,9.50839900970459,-0.2105565220117569,-0.1961400955915451,-0.036686819046735764
-1.7049779891967773,2.544222354888916,9.704398155212402,-0.2442762851715088,-0.20144590735435486,-0.11568041890859604
-0.9956814050674438,2.1420347690582275,9.427427291870117,-0.3044377863407135,-0.27750736474990845,-0.2900911867618561
-0.6476602554321289,1.9453654289245605,9.507892608642578,-0.37685149908065796,-0.3830823302268982,-0.3929259777069092
-0.6337355971336365,2.006226062774658,9.748106956481934,-0.28757789731025696,-0.3769911229610443,-0.38784706592559814
-0.7955836057662964,2.0341806411743164,9.872844696044922,-0.11561060696840286,-0.5051157474517822,-0.3254340887069702
-0.6653773784637451,1.8913809061050415,9.53458309173584,0.02148500271141529,-0.6248802542686462,-0.2825862467288971
-0.42978790402412415,1.7682615518569946,9.37288761138916,0.1137780100107193,-0.630622386932373,-0.2598097026348114
-0.25092190504074097,2.061666250228882,9.149345397949219,0.1701870560646057,-0.24120450019836426,-0.1719847470521927
-0.5181818604469299,2.1361067295074463,9.394875526428223,0.1733810007572174,0.15282103419303894,-0.013299409300088882
-0.7873188257217407,1.9354054927825928,9.546629905700684,0.1134987622499466,0.06187192350625992,0.09339256584644318
-0.3597910404205322,2.070448160171509,9.521624565124512,-0.0437903106212616,-0.1428901106119156,0.020978856831789017
-0.28294673562049866,1.928318738937378,9.389015197753906,-0.17929767072200775,0.024382250383496284,0.03651228919625282
-0.23591504991054535,1.8738553524017334,9.246445655822754,-0.22991222143173218,0.3983713984489441,0.08389797806739807
-0.34697726368904114,1.995538353919983,9.964973449707031,-0.24989624321460724,0.49502772092819214,0.04747295379638672
-0.43739190697669983,2.0803792476654053,10.054095268249512,-0.20203931629657745,0.39594539999961853,0.030089477077126503
-0.4678269922733307,1.9413048028945923,9.714884757995605,-0.10911798477172852,0.30667179822921753,0.040596358478069305
-0.5738518238067627,1.9769306182861328,9.695357322692871,-0.05150466784834862,0.33972832560539246,0.04211479425430298
-0.6853641271591187,2.0209550857543945,9.586326599121094,-0.0007504915702156723,0.4486892521381378,0.12438961863517761
-0.8600450754165649,1.865676760673523,9.32376766204834,0.04714134335517883,0.6018418669700623,0.26103144884109497
-0.8826080560684204,1.867917776107788,9.237279891967773,0.03906046971678734,0.6500129699707031,0.3598345220088959
-1.0482293367385864,2.0830318927764893,9.304672241210938,0.0020769417751580477,0.5640729665756226,0.4020889401435852
-1.1624135971069336,2.110076904296875,9.471806526184082,0.006318091880530119,0.4355120062828064,0.4171162247657776
-1.3908395767211914,1.9740670919418335,9.955770492553711,0.0884183794260025,0.1414065808057785,0.4038517475128174
-1.201573133468628,1.5704047679901123,9.794161796569824,0.3073001205921173,0.026389379054307938,0.37714821100234985
-0.9281648993492126,1.461564302444458,9.706199645996094,0.5879665017127991,0.2457074522972107,0.42812925577163696
-1.0618858337402344,1.9795929193496704,10.119179725646973,0.7801796197891235,0.5715604424476624,0.5875999927520752
-1.6050822734832764,2.653646945953369,10.501380920410156,0.8115257620811462,0.680905282497406,0.6655638813972473
-1.5825384855270386,2.61307954788208,9.564873695373535,0.7078182697296143,0.861267626285553,0.568034827709198
-2.2433574199676514,2.851053476333618,8.800759315490723,0.08857546001672745,0.8723329901695251,0.35039231181144714
-2.4381399154663086,3.0366806983947754,8.937162399291992,-0.08119271695613861,0.6735749244689941,0.423399418592453
-2.4866561889648438,2.856809139251709,8.977317810058594,-0.10178760439157486,0.5744227766990662,0.45952773094177246
-2.404956340789795,2.745967388153076,8.981952667236328,-0.07771950960159302,0.5568996667861938,0.44699627161026
-2.482720136642456,2.658463954925537,9.206184387207031,0.12381365895271301,0.2909638285636902,0.25268876552581787
-2.0301296710968018,2.9170281887054443,8.818524360656738,0.22287854552268982,-0.23462460935115814,-0.11070623248815536
-2.129316806793213,3.2740132808685303,8.760374069213867,0.08494517207145691,-0.39767327904701233,-0.2090904414653778
-2.1877448558807373,3.067211627960205,8.6688871383667,-0.13262757658958435,-0.11395254731178284,-0.17564994096755981
-2.0769219398498535,2.416506052017212,8.77076530456543,-0.24874432384967804,0.19191640615463257,-0.17559757828712463
-2.125849962234497,2.1902060508728027,8.9673490524292,-0.2577502131462097,0.21539108455181122,-0.1642005741596222
-2.2629036903381348,2.6751372814178467,9.343209266662598,-0.22195352613925934,0.12686797976493835,-0.019146261736750603
-2.361649990081787,3.1200757026672363,9.55370807647705,-0.18278832733631134,-0.08991936594247818,0.10777407884597778
-2.079967498779297,2.8447232246398926,9.49422550201416,-0.057159531861543655,-0.08695230633020401,0.06743951886892319
-1.8898487091064453,2.7882392406463623,9.096558570861816,0.11299261450767517,0.16557937860488892,-0.06504841893911362
-2.0384232997894287,2.5884287357330322,9.347518920898438,0.20889845490455627,0.19936895370483398,-0.1733810007572174
-2.2189748287200928,2.6372129917144775,9.044048309326172,0.246527761220932,0.15039502084255219,-0.1681624799966812
-2.2513060569763184,2.5882372856140137,8.776119232177734,0.27579692006111145,0.012147491797804832,-0.10634291172027588
-2.637490749359131,3.020965337753296,9.03381061553955,-0.08709193021059036,0.469528466463089,0.023684117943048477
-2.5346357822418213,2.7059552669525146,8.903125762939453,-0.11269591003656387,0.3439869284629822,0.02684316411614418
-2.2986538410186768,2.4034910202026367,8.666540145874023,-0.10458012670278549,0.5746670961380005,0.023631757125258446
-2.802307605743408,2.635594606399536,9.069350242614746,-0.11864747852087021,0.8257152438163757,0.10194467753171921
-3.5077638626098633,2.6404213905334473,9.237921714782715,-0.10011208802461624,0.8716523051261902,0.25502750277519226
-3.770934581756592,2.6882095336914062,9.595586776733398,-0.06380923837423325,0.8855975270271301,0.4559149146080017
-3.4175024032592773,2.842472791671753,9.642580032348633,0.13725268840789795,1.0151358842849731,0.40516072511672974
-3.3825087547302246,3.0271902084350586,9.20088005065918,0.30058059096336365,0.7447843551635742,0.1846558302640915
-3.338129997253418,2.956599473953247,8.417065620422363,0.23001694679260254,0.34466761350631714,0.1028347983956337
-3.465951681137085,2.986077070236206,8.213003158569336,0.07187265902757645,0.40858158469200134,0.10299187898635864
-4.326676845550537,3.2200863361358643,8.251558303833008,0.005078908056020737,0.6152634620666504,0.14364059269428253
-4.168774127960205,3.0144338607788086,8.180546760559082,-0.09335765987634659,0.6122964024543762,0.2676287889480591
-3.174443244934082,2.844991445541382,8.395814895629883,-0.23680627346038818,0.49579566717147827,0.23048818111419678
-3.179490089416504,3.375067710876465,9.010847091674805,-0.2243620753288269,0.2923949956893921,-0.0091455252841115
-3.6612131595611572,3.5578794479370117,9.101567268371582,-0.122714102268219,-0.18889698386192322,-0.25738370418548584
-3.687568426132202,3.305166482925415,9.011516571044922,-0.08407250791788101,-0.3900112807750702,-0.3459591567516327
-3.612572431564331,2.9369096755981445,8.826664924621582,-0.07766715437173843,-0.588874101638794,-0.3989298939704895
-4.122747898101807,2.913025140762329,8.424036979675293,-0.1627344936132431,-0.888774037361145,-0.3911806344985962
-4.146881580352783,2.7520580291748047,8.326094627380371,-0.20203931629657745,-0.9316567778587341,-0.2166128158569336
-3.7506604194641113,2.686006784439087,8.461318969726562,-0.24123941361904144,-0.7603352069854736,0.023945916444063187
-2.6262571811676025,2.477653980255127,8.596151351928711,-0.39535197615623474,-0.42448151111602783,0.09847147762775421
-2.597172498703003,2.1996583938598633,8.952820777893066,-0.4953418970108032,-0.16695819795131683,-0.12664109468460083
-3.323956251144409,2.4736125469207764,9.292738914489746,-0.36486107110977173,0.030141836032271385,-0.292691707611084
-3.6403260231018066,2.492603302001953,9.565467834472656,-0.1748645305633545,0.016371188685297966,-0.17472490668296814
-3.5373754501342773,2.246814489364624,9.295056343078613,0.0068765971809625626,-0.13185963034629822,-0.06408849358558655
-3.441434860229492,2.439021110534668,9.230299949645996,0.11452850699424744,-0.2891137897968292,-0.05267403647303581
-3.1888370513916016,2.406019449234009,9.025508880615234,0.09611528366804123,-0.11765264719724655,-0.03963642567396164
-3.031815767288208,2.5505526065826416,9.195314407348633,0.07136651128530502,0.16458454728126526,-0.08264134079217911
-2.962968111038208,2.544250965118408,8.906784057617188,0.16481144726276398,0.20669934153556824,-0.30801570415496826
-3.266064405441284,2.3983867168426514,9.037086486816406,0.2745053768157959,0.009878563694655895,-0.5211727619171143
-3.2935211658477783,2.771815061569214,9.088696479797363,0.4156501591205597,-0.44432592391967773,-0.4565083086490631
-2.9936044216156006,2.250549554824829,8.609635353088379,0.3971845805644989,-0.20619319379329681,-0.3885102868080139
-3.4406208992004395,2.7315733432769775,8.625591278076172,0.19561649858951569,-0.12056734412908554,-0.17905332148075104
-3.5654449462890625,2.7617690563201904,8.366154670715332,-0.0270700566470623,-0.0907396674156189,0.08491026610136032
-3.2682671546936035,2.5789287090301514,8.416250228881836,-0.24823817610740662,-0.10697122663259506,0.10086257755756378
-2.9968700408935547,2.6681556701660156,8.849946022033691,-0.3488389551639557,-0.07066838443279266,0.05340707674622536
-2.8534765243530273,2.5115175247192383,9.243073463439941,-0.2949431836605072,-0.015777776017785072,-0.0073129297234117985
-2.8754265308380127,2.2190418243408203,9.168097496032715,-0.16029103100299835,-0.04216715320944786,-0.025848325341939926
-3.094141721725464,2.216140031814575,9.168970108032227,-0.023858651518821716,-0.024661501869559288,0.01762782596051693
-3.295187473297119,2.509707450866699,9.247671127319336,0.04742059484124184,0.03693116828799248,0.18764035403728485
-3.1609206199645996,2.4669950008392334,9.078142166137695,0.09833184629678726,0.10297442227602005,0.26485371589660645
-3.3732290267944336,2.450580358505249,9.135937690734863,-0.030176742002367973,0.1558404415845871,0.20371483266353607
-3.4125990867614746,2.5842247009277344,9.163797378540039,0.09780824929475784,-0.1690525859594345,0.09651670604944229
-2.883404016494751,2.9226114749908447,8.546093940734863,0.014905111864209175,-0.4562115967273712,-0.08881980180740356
-2.68589186668396,2.61501407623291,8.770535469055176,-0.1935919225215912,-0.23680627346038818,-0.21867230534553528
-3.150750160217285,2.4669852256774902,8.850205421447754,-0.22914427518844604,-0.05333726108074188,-0.35678020119667053
-3.38232684135437,2.455397367477417,8.894124031066895,-0.2257757931947708,-0.13957397639751434,-0.3617892861366272
-2.848247528076172,2.352839469909668,9.101232528686523,-0.2922903001308441,-0.49560368061065674,-0.35444146394729614
-3.194516181945801,2.3903708457946777,9.048559188842773,-0.4145157039165497,-0.8665385246276855,-0.4357388913631439
-2.690354824066162,1.6630507707595825,9.083734512329102,-0.04668755829334259,-0.9032078981399536,-0.5266356468200684
-2.284604549407959,2.1535747051239014,9.34422492980957,0.006527531426399946,-0.9854478240013123,-0.3378084897994995
-2.0245752334594727,2.0221426486968994,9.342079162597656,-0.15683528780937195,-1.2719435691833496,-0.3324328660964966
-1.796589732170105,2.1693382263183594,8.944631576538086,-0.22759093344211578,-1.0796083211898804,-0.3572165369987488
-1.4174727201461792,1.855391263961792,9.137700080871582,-0.2604380249977112,-0.649698793888092,-0.4205719828605652
-1.158372163772583,1.5968749523162842,9.527946472167969,-0.25930356979370117,-0.14906856417655945,-0.4126830995082855
-1.4740333557128906,1.623498558998108,9.932403564453125,-0.23123867809772491,0.019774580374360085,-0.27696630358695984
-1.739665150642395,1.7527949810028076,9.936272621154785,-0.16605062782764435,0.028588492423295975,-0.0506843626499176
-1.6328167915344238,1.6808828115463257,9.873294830322266,-0.09241518378257751,0.08300785720348358,0.07394959777593613
-1.6150422096252441,1.7206169366836548,9.814963340759277,0.08513715863227844,0.003944444004446268,0.09025097638368607
-1.6184132099151611,1.7133194208145142,9.796689987182617,0.10449286550283432,-0.01160643994808197,0.07175048440694809
-1.67587411403656,1.809240698814392,9.679489135742188,0.14011503756046295,0.04305727407336235,0.039758600294589996
-1.606834888458252,1.717763066291809,9.596487045288086,0.1638515144586563,0.14552555978298187,0.03429571911692619
-1.7434000968933105,1.8516850471496582,9.669951438903809,0.13941690325737,0.09428268671035767,0.026197392493486404
-1.7721688747406006,1.9865361452102661,9.671387672424316,0.13069024682044983,-0.051888637244701385,0.0348542258143425
-1.6875098943710327,1.927782416343689,9.548784255981445,0.13898056745529175,-0.07290240377187729,0.03216641768813133
-1.5392705202102661,1.8354237079620361,9.416873931884766,0.14700908958911896,-0.035360369831323624,-0.01186823844909668
-1.7140759229660034,1.950287938117981,9.417142868041992,0.13091714680194855,0.00830776710063219,-0.04256857931613922
-1.8191909790039062,2.079967498779297,9.431355476379395,0.10194467753171921,-0.041294489055871964,0.01160643994808197
-1.5912246704101562,1.9626036882400513,9.16159439086914,0.09461429715156555,0.009180432185530663,0.0875457152724266
-1.583860158920288,1.9232813119888306,8.995503425598145,0.09321803599596024,0.1284562349319458,0.1200961023569107
-1.6622846126556396,2.041325092315674,8.998990058898926,0.06693337857723236,0.18619172275066376,0.1535017043352127
-1.7975187301635742,2.268850803375244,9.436564445495605,0.004782202187925577,0.12423253804445267,0.18186330795288086
-1.642881989479065,2.1697115898132324,9.37070369720459,-0.02263692021369934,0.09084438532590866,0.15404276549816132
-1.3744441270828247,1.5527833700180054,9.591774940490723,0.09695304185152054,0.09000662714242935,0.027262043207883835
-1.6818883419036865,2.2164177894592285,9.616052627563477,0.1348092257976532,-0.20696114003658295,-0.09119345247745514
-1.6264865398406982,2.29941987991333,9.130009651184082,0.052778758108615875,-0.34520867466926575,-0.07639306038618088
-1.372136116027832,1.7650054693222046,8.828371047973633,-0.05216789245605469,-0.1759990006685257,-0.07332128286361694
-2.292304277420044,2.0950891971588135,9.39906120300293,-0.17748253047466278,-0.2002067118883133,-0.038065630942583084
-1.7943774461746216,2.278954267501831,9.53938102722168,-0.2257932424545288,-0.13123130798339844,0.008848818950355053
-1.4676647186279297,1.9192590713500977,9.73241138458252,-0.18565067648887634,0.07972663640975952,0.014119713567197323
-1.4939051866531372,1.8475191593170166,9.585482597351074,0.060789816081523895,0.15425220131874084,0.14556045830249786
-1.5106453895568848,1.8448376655578613,9.514729499816895,0.08482300490140915,0.24089033901691437,0.13313370943069458
-1.7059069871902466,1.9927802085876465,9.449531555175781,0.06263986974954605,0.1849001795053482,0.1351233869791031
-1.8074018955230713,2.080455780029297,9.355783462524414,0.029688050970435143,0.12510520219802856,0.1777094304561615
-1.7459475994110107,2.0233685970306396,9.372188568115234,0.005811946466565132,0.09231046587228775,0.200468510389328
-1.6298192739486694,2.0045692920684814,9.294166564941406,0.0013962633674964309,0.1238485649228096,0.2085319310426712
-1.6802890300750732,2.0229663848876953,9.320674896240234,0.005794493015855551,0.18456856906414032,0.2217789888381958
-1.7695831060409546,1.9719985723495483,9.42812728881836,0.018413223326206207,0.22933626174926758,0.24331635236740112
-1.876814603805542,2.2246155738830566,9.157994270324707,-0.05248204991221428,0.35674530267715454,0.2560746967792511
-2.404247760772705,2.133894443511963,9.262256622314453,0.20811305940151215,0.5062676668167114,0.29651397466659546
-2.641378879547119,2.2829766273498535,8.987478256225586,0.1480388194322586,0.44395941495895386,0.26371926069259644
-2.567915201187134,2.3788211345672607,9.198944091796875,0.09079203009605408,0.2695660889148712,0.23319344222545624
-2.5216689109802246,2.4305551052093506,9.065424919128418,0.054942965507507324,0.14477506279945374,0.15980234742164612
-2.3577523231506348,2.349382162094116,8.990983963012695,0.040631264448165894,0.027960173785686493,0.0665319487452507
-2.222623586654663,2.329491138458252,9.021343231201172,0.010978121310472488,-0.06283185631036758,-0.04712389037013054
-2.273437976837158,2.32023024559021,9.050283432006836,-0.03684389963746071,-0.0630587488412857,-0.11993902921676636
-2.411449432373047,2.2090914249420166,9.140899658203125,-0.05342452973127365,0.015463616698980331,-0.10848966240882874
-2.587796688079834,2.1595795154571533,9.167436599731445,-0.032044246792793274,0.020559977740049362,-0.05173156037926674
-2.6310646533966064,2.176645278930664,9.2942533493042,-0.003298672381788492,0.04335397854447365,0.0362853966653347
-2.6484084129333496,2.235877752304077,9.187768936157227,0.03104940801858902,0.15029029548168182,0.11095058172941208
-2.2617735862731934,2.048344850540161,9.370196342468262,0.08834856748580933,0.34864696860313416,0.12116075307130814
-2.435391426086426,2.038336992263794,9.243141174316406,0.16297884285449982,0.4812919795513153,0.11564551293849945
-2.9234158992767334,2.1921885013580322,9.275117874145508,0.2617993950843811,0.3908664882183075,0.18654078245162964
-3.148183584213257,2.4108939170837402,9.06256103515625,0.2897246479988098,0.36767107248306274,0.3194650709629059
-3.006312847137451,2.4349701404571533,9.082451820373535,0.20263272523880005,0.5057265758514404,0.38069120049476624
-3.1656899452209473,2.4301722049713135,9.228067398071289,0.1644798219203949,0.6533640027046204,0.3043854236602783
-3.3740334510803223,2.471620559692383,9.159180641174316,0.19474384188652039,0.7054097056388855,0.2344675362110138
-3.5856521129608154,2.698045015335083,9.06452465057373,0.169925257563591,0.49003610014915466,0.17577211558818817
-3.494749069213867,2.9218549728393555,8.621845245361328,0.03654719516634941,-0.03782128542661667,0.06660176068544388
-3.289738416671753,2.9620678424835205,9.077644348144531,-0.18256144225597382,-0.6224018335342407,-0.23911011219024658
-2.6246867179870605,2.725606918334961,9.03726863861084,-0.16093680262565613,-0.9625141620635986,-0.3502701222896576
-2.7991185188293457,2.675079822540283,8.90681266784668,-0.14449581503868103,-1.0541788339614868,-0.4375191330909729
-2.576486587524414,2.4168508052825928,8.764272689819336,-0.10293951630592346,-1.0907609462738037,-0.6680945754051208
-2.2756502628326416,1.929419994354248,9.445853233337402,-0.004345869645476341,-1.3253506422042847,-0.919369637966156
-2.4618139266967773,2.375737428665161,9.167847633361816,0.005619960371404886,-1.32953941822052,-1.0133730173110962
-2.401460886001587,2.1436915397644043,9.442970275878906,-0.0010646508308127522,-1.1386877298355103,-0.81915283203125
-2.2438552379608154,1.9505752325057983,9.43830680847168,0.00062831852119416,-0.8495041131973267,-0.43881067633628845
-2.068666696548462,1.956915020942688,9.694650650024414,0.019896753132343292,-0.5283111333847046,-0.08827875554561615
-1.7852699756622314,2.1561031341552734,9.49755859375,0.0240506362169981,-0.1927018016576767,0.09143780171871185
-1.5321166515350342,2.22058367729187,9.304347038269043,-0.006492624990642071,0.06304129213094711,0.1103222593665123
-1.6152337789535522,2.369550943374634,9.37070369720459,-0.07347836345434189,0.05457644537091255,0.03729768469929695
-1.7142292261123657,2.436483144760132,9.330605506896973,-0.12440706789493561,-0.06319837272167206,-0.03865904361009598
-1.6635679006576538,2.2975716590881348,9.255372047424316,-0.14494960010051727,-0.1638515144586563,-0.1080009713768959
-1.590583086013794,2.2000796794891357,9.232136726379395,-0.14097024500370026,-0.14697417616844177,-0.11400490999221802
-1.7324825525283813,2.149811029434204,9.43191909790039,-0.1348092257976532,-0.07688175141811371,-0.05405284836888313
-1.7213351726531982,2.093470811843872,9.405611038208008,-0.11887437850236893,0.06518805027008057,0.04602433368563652
-1.6440120935440063,2.01835036277771,9.48568344116211,-0.10648253560066223,0.19371409714221954,0.09281660616397858
-1.6689213514328003,2.079163074493408,9.535962104797363,-0.10955431312322617,0.19765853881835938,0.08944812417030334
-1.6430926322937012,2.175170421600342,9.50386905670166,-0.10445795208215714,0.11641345918178558,0.07812093943357468
-1.603463888168335,2.1199793815612793,9.450671195983887,-0.06881833076477051,0.01895427517592907,0.049183379858732224
-1.5515767335891724,2.013427734375,9.266555786132812,-0.01713913306593895,0.04441862925887108,0.011885692365467548
-1.7388607263565063,2.098153829574585,9.402518272399902,0.021537363529205322,0.05314527451992035,-0.008028514683246613
-1.7841111421585083,2.120046377182007,9.375520706176758,0.05660102888941765,-0.02537708729505539,-0.0005410520825535059
-1.8841983079910278,2.0467071533203125,9.40816879272461,-0.00563741335645318,0.03768165782094002,-0.029949849471449852
-1.9138481616973877,2.004167079925537,9.417689323425293,-0.043074727058410645,0.08703956753015518,-0.038990654051303864
-2.0553550720214844,2.0236940383911133,9.563993453979492,-0.07017968595027924,-0.012705996632575989,-0.043650683015584946
-1.989284634590149,2.0151708126068115,9.510804176330566,-0.06398376822471619,-0.05340707674622536,0.002914699725806713
-1.8443397283554077,1.9123733043670654,9.394521713256836,-0.04188790172338486,0.017907077446579933,0.06133086979389191
-1.8490514755249023,1.9381157159805298,9.260857582092285,-0.06716027110815048,0.2511877715587616,0.14332643151283264
-2.053640842437744,2.0899271965026855,9.50436782836914,-0.13466960191726685,0.4150916635990143,0.29283133149147034
-2.1977622509002686,1.9844387769699097,9.753028869628906,-0.15371114015579224,0.459649920463562,0.3701145052909851
-2.139563798904419,1.8671420812606812,9.66663646697998,-0.1056971400976181,0.4562814235687256,0.3266732692718506
-2.1516690254211426,1.9307703971862793,9.598076820373535,-0.021781709045171738,0.3559598922729492,0.25471335649490356
-2.183281898498535,1.9539557695388794,9.670381546020508,0.2082177847623825,0.20233601331710815,0.15770794451236725
-1.9802346229553223,2.1880033016204834,9.577219009399414,0.4254240095615387,-0.16811011731624603,-0.08197811245918274
-1.8377604484558105,2.4360713958740234,9.063125610351562,0.403781920671463,-0.2653074860572815,-0.17751744389533997
-1.7942625284194946,2.1647987365722656,8.404193878173828,0.182631254196167,-0.21961477398872375,-0.2551496922969818
-1.97533118724823,2.005976915359497,8.46163558959961,0.03661700710654259,-0.2813994288444519,-0.29450684785842896
-2.814565896987915,2.4404001235961914,8.790484428405762,-0.27668705582618713,-0.5206665992736816,-0.2935120165348053
-2.2101833820343018,2.364178419113159,9.065338134765625,-0.4383045434951782,-0.4298047721385956,-0.17767451703548431
-1.6997586488723755,1.8618460893630981,9.49454116821289,-0.45460590720176697,-0.19793778657913208,-0.08246680349111557
-1.5407357215881348,1.6374328136444092,9.7595796585083,-0.3707428276538849,0.02551671303808689,-0.02197369560599327
-1.7380754947662354,1.8804442882537842,10.117225646972656,-0.2148849368095398,0.2679080367088318,0.051225412636995316
-1.9178895950317383,1.881449818611145,10.336065292358398,-0.008639379404485226,0.36533230543136597,0.061627574265003204
-2.0847079753875732,1.8283272981643677,9.451656341552734,0.23626522719860077,0.2997952103614807,0.018744835630059242
-2.2645699977874756,1.4962706565856934,10.320857048034668,0.5474573969841003,-0.18104299902915955,-0.07035422325134277
-2.2240984439849854,2.098536968231201,9.67920207977295,0.5585053563117981,-0.3836233615875244,-0.05160938575863838
-2.0910191535949707,2.1461527347564697,9.025115013122559,0.34316664934158325,-0.13849186897277832,0.028361599892377853
-1.6895688772201538,2.1421303749084473,8.253493309020996,-0.0036826448049396276,0.14795155823230743,0.051801372319459915
-1.7704929113388062,2.023042917251587,8.578989028930664,-0.1567305624485016,0.21060888469219208,0.051888637244701385
-1.592871904373169,2.303490161895752,9.27488899230957,-0.3883531987667084,0.049724429845809937,0.0216071754693985
-3.4342236518859863,2.861521005630493,9.200657844543457,0.2606649100780487,0.05677555873990059,0.05482079088687897
-2.2983665466308594,2.7018086910247803,9.041281700134277,0.302430659532547,-0.2945941090583801,-0.3157300651073456
-2.2362897396087646,2.662687301635742,8.742905616760254,0.10054841637611389,-0.2670528292655945,-0.38266342878341675
-2.9513323307037354,2.0087063312530518,8.703583717346191,-0.21469295024871826,-0.20607101917266846,-0.2929709553718567
-3.183943271636963,2.0729572772979736,9.187528610229492,-0.17879152297973633,-0.24382250010967255,-0.05375614017248154
-3.636064291000366,2.3515849113464355,9.560660362243652,-0.1419999897480011,-0.264399915933609,0.04265584796667099
-2.79472279548645,2.3264455795288086,9.611207962036133,-0.03052580915391445,-0.15318754315376282,0.11602948606014252
-2.4806418418884277,2.148125648498535,9.375309944152832,0.10932742059230804,-0.1785995364189148,0.10161306709051132
-2.3636133670806885,2.3652987480163574,9.08354377746582,0.257505863904953,0.03223622962832451,0.13027137517929077
-2.2848153114318848,2.551443099975586,9.15442180633545,0.23481659591197968,-0.023177972063422203,0.14049901068210602
-2.1907520294189453,2.323371648788452,9.256558418273926,0.2758667469024658,-0.12416272610425949,0.14350096881389618
-2.129220962524414,2.1932132244110107,9.460505485534668,0.43741440773010254,-0.09011135250329971,0.15303047001361847
-2.4023802280426025,2.2792224884033203,8.904056549072266,0.6271491646766663,-0.06635741889476776,0.17968164384365082
-1.9450302124023438,2.6884584426879883,8.981042861938477,0.6638534069061279,-0.16411331295967102,0.12163199484348297
-2.2223362922668457,3.6765360832214355,8.607462882995605,0.5129522681236267,-0.05855579674243927,0.143431156873703
-2.282804250717163,3.6603128910064697,8.466137886047363,0.2177647352218628,0.18537141382694244,0.2863038182258606
-2.0886151790618896,2.8361616134643555,8.709875106811523,-0.033423054963350296,0.47853437066078186,0.4348487854003906
-2.5918381214141846,2.921787977218628,9.283190727233887,-0.09285151958465576,0.7889062762260437,0.5551193952560425
-3.1134772300720215,3.429626703262329,9.612930297851562,0.039304815232753754,0.9089674949645996,0.7194421887397766
-2.753896951675415,3.0591766834259033,9.587311744689941,0.2272767722606659,0.8088030219078064,0.7428121566772461
-2.262798309326172,3.0179102420806885,9.090429306030273,0.2906845808029175,0.8008443117141724,0.6575179100036621
-3.164598226547241,4.093902587890625,8.713947296142578,0.15138985216617584,0.7485193610191345,0.17919296026229858
-3.074183702468872,3.65578293800354,8.46467113494873,0.07077310234308243,0.3150668442249298,0.09051277488470078
-3.0754764080047607,3.555159568786621,8.396235466003418,-0.012618730776011944,0.0446455217897892,0.1632755547761917
-3.043518543243408,3.4209885597229004,8.535942077636719,0.04668755829334259,0.11220721900463104,0.19137534499168396
-3.080533027648926,3.556950330734253,8.432072639465332,0.09911724925041199,0.19081684947013855,0.15435691177845
-3.217040777206421,3.740260124206543,8.034969329833984,-0.05536184459924698,0.24403193593025208,0.09813986718654633
-3.2512588500976562,3.6866395473480225,8.174504280090332,-0.2641555666923523,0.03125884756445885,0.05504768341779709
-2.9677374362945557,3.468604326248169,8.770879745483398,-0.29312804341316223,-0.050998520106077194,0.005340707488358021
-2.7100830078125,3.428630828857422,9.201098442077637,-0.10328858345746994,0.0924500897526741,-0.1082802265882492
-2.801072120666504,2.9034194946289062,8.83442211151123,-0.36967819929122925,-0.8410217761993408,-0.26516786217689514
-2.3834469318389893,2.8065884113311768,8.736557006835938,-0.5067389011383057,-0.8540768623352051,-0.29715976119041443
-2.5141701698303223,3.031719923019409,9.564682960510254,-0.6659478545188904,-0.9840166568756104,-0.38175585865974426
-2.00740385055542,2.672628164291382,9.674777030944824,-0.6108826994895935,-0.7594102025032043,-0.46670103073120117
-1.8226481676101685,1.9916788339614868,9.535367965698242,-0.4443608224391937,-0.2693217694759369,-0.4551644027233124
-1.9017717838287354,1.6347800493240356,9.648709297180176,-0.3055547773838043,-0.10177014768123627,-0.3350334167480469
-2.1930694580078125,1.865983247756958,9.453248023986816,-0.2024931013584137,-0.2511703372001648,-0.22633430361747742
-1.4539507627487183,1.993507981300354,9.642781257629395,0.09452702850103378,-0.3021514117717743,-0.50811767578125
-1.439164161682129,1.7245337963104248,9.491046905517578,0.22216296195983887,-0.34864696860313416,-0.556602954864502
-1.6808923482894897,1.8253872394561768,9.329458236694336,0.29593801498413086,-0.3343876302242279,-0.4476943910121918
-1.9990912675857544,2.045577049255371,9.49124813079834,0.28904396295547485,-0.3401472270488739,-0.2591988444328308
-2.2767229080200195,2.5138254165649414,9.515543937683105,0.23137830197811127,-0.41746529936790466,-0.09293878078460693
-1.51675546169281,1.9722954034805298,9.275482177734375,0.1442689150571823,-0.236771360039711,-0.03902556374669075
-1.228187084197998,1.9201688766479492,8.922863960266113,0.04469788074493408,0.0881391242146492,-0.05892231687903404
-1.6553605794906616,1.9319100379943848,9.561291694641113,-0.33716270327568054,0.19799014925956726,0.09086184203624725
-1.6022858619689941,1.86447012424469,9.766043663024902,-0.2566506564617157,0.15002849698066711,0.06801547855138779
-1.7089427709579468,1.793534755706787,9.8125581741333,-0.14770720899105072,0.08429940044879913,0.028448866680264473
-1.7077456712722778,1.7252329587936401,9.539064407348633,-0.04518657550215721,0.11594222486019135,-0.014276793226599693
-1.7366580963134766,1.7588284015655518,9.643587112426758,0.0024085543118417263,0.1454208344221115,-0.02050761878490448
-1.8251572847366333,1.8169596195220947,9.735857963562012,0.005567600484937429,0.10906562209129333,0.002548180753365159
-1.8780021667480469,1.8444546461105347,9.639544486999512,0.0006981316837482154,0.05668829381465912,0.006318091880530119
-1.8909499645233154,2.2994678020477295,9.173489570617676,0.1771334707736969,-0.17755234241485596,0.059917151927948
-1.5922589302062988,1.7985050678253174,8.71364974975586,-0.06904522329568863,-0.17641788721084595,-0.026825711131095886
-1.696445107460022,1.799424409866333,8.882699012756348,-0.1379857361316681,-0.11800170689821243,-0.04862487316131592
-1.783057689666748,1.898228406906128,9.4224853515625,-0.20858429372310638,-0.016353735700249672,-0.04312708601355553
-2.176654815673828,2.0606892108917236,9.768352508544922,-0.18458601832389832,0.07541567832231522,-0.019547687843441963
-1.5732202529907227,1.7621132135391235,9.641794204711914,-0.07696902006864548,0.20045106112957,-0.06227334588766098
-1.8447035551071167,1.720291256904602,9.666991233825684,0.042359139770269394,0.22345450520515442,-0.09021607041358948
-1.9011589288711548,1.784676194190979,9.69392204284668,0.12128292769193649,0.11812388151884079,-0.045064400881528854
-1.8572396039962769,1.791609764099121,9.37158489227295,0.13088223338127136,0.15318754315376282,-0.029513517394661903
-1.8962172269821167,1.7856817245483398,8.938608169555664,0.1843242198228836,0.24895375967025757,-0.036651913076639175
-2.411468505859375,1.6361303329467773,10.154288291931152,0.296601265668869,-0.08932594954967499,-0.11730358004570007
-2.443253993988037,1.9260872602462769,9.647445678710938,0.30232593417167664,-0.3078760802745819,-0.04106759652495384
-2.0349276065826416,1.660091519355774,9.042842864990234,0.20340067148208618,-0.1739918738603592,0.08363617956638336
-1.7835270166397095,1.8108879327774048,8.518234252929688,0.02684316411614418,0.09686577320098877,0.1515294909477234
-2.0674121379852295,1.9409600496292114,9.524507522583008,-0.13318607211112976,-0.12163199484348297,0.09278170019388199
-1.7592785358428955,2.275334358215332,9.385050773620605,-0.1869247555732727,-0.16753415763378143,0.003228859044611454
-1.535162091255188,1.8705992698669434,9.630417823791504,-0.12479104101657867,-0.026075219735503197,-0.02830924093723297
-1.5976603031158447,1.7585698366165161,9.33702278137207,-0.040369465947151184,0.08874998986721039,0.011152653954923153
-1.6538090705871582,1.9832321405410767,9.279705047607422,-0.0012915435945615172,0.09035569429397583,0.010018189437687397
-1.6823862791061401,2.1919491291046143,9.308799743652344,-0.014800392091274261,0.0414864756166935,-0.07285004109144211
-1.677425503730774,2.1322662830352783,9.397461891174316,-0.044889867305755615,-0.008656833320856094,-0.1353502869606018
-1.6564522981643677,1.9362865686416626,9.378528594970703,-0.04703662171959877,-0.013142329640686512,-0.1054353415966034
-1.6171586513519287,1.8012057542800903,9.30616569519043,-0.08950048685073853,0.10618583112955093,-0.10334094613790512
-1.5215725898742676,1.806109070777893,9.089912414550781,-0.17112953960895538,0.285762757062912,-0.11040952801704407
-2.6035313606262207,1.3464032411575317,9.956296920776367,-0.29677578806877136,0.3735353648662567,0.38316959142684937
-2.6189212799072266,1.312625765800476,9.784507751464844,-0.17158332467079163,0.5368283987045288,0.3615100383758545
-2.4279119968414307,1.1015626192092896,9.509644508361816,-0.09414306282997131,0.40910518169403076,0.17207200825214386
-2.380181074142456,1.0354059934616089,9.288688659667969,-0.12032299488782883,0.3716154992580414,0.08775515109300613
-3.1606431007385254,1.0904343128204346,9.377685546875,-0.26865851879119873,0.43394121527671814,0.04345869645476341
-3.5258352756500244,0.9929232597351074,9.654245376586914,-0.3020815849304199,0.35480797290802,0.21036453545093536
-3.089717149734497,1.1829941272735596,9.600221633911133,-0.1642005741596222,0.30197685956954956,0.3672347366809845
-2.0571746826171875,0.7586554288864136,9.394148826599121,-0.13486158847808838,0.5425705313682556,0.34658747911453247
-2.6201376914978027,1.1251214742660522,9.841902732849121,-0.183730810880661,0.5452932119369507,0.2128428965806961
-3.2474663257598877,1.0780036449432373,9.858671188354492,0.15203562378883362,-0.07847000658512115,-0.09295623749494553
-3.356096029281616,1.4145421981811523,9.170002937316895,0.1765924096107483,-0.027977628633379936,0.0033684854861348867
-2.7697370052337646,1.2984042167663574,8.993081092834473,0.0017802357906475663,0.02869321219623089,-0.020629791542887688
-2.435803174972534,1.2486814260482788,9.331803321838379,-0.11957250535488129,-0.1278802752494812,-0.20284216105937958
-2.4599175453186035,1.2319316864013672,9.74050235748291,-0.012391837313771248,-0.3209311366081238,-0.35123005509376526
-3.001610517501831,0.977590799331665,9.972816467285156,0.48724356293678284,-0.7324099540710449,-0.5728344917297363
-2.249314069747925,1.8102366924285889,9.377753257751465,0.4871039390563965,-0.3799756169319153,-0.4395088255405426
-2.056628704071045,1.5795122385025024,9.096040725708008,0.3375990390777588,-0.3519805371761322,-0.33969342708587646
-2.261016845703125,1.9058994054794312,9.038772583007812,0.13149310648441315,-0.4876624345779419,-0.2946988344192505
-2.157606601715088,2.0670483112335205,9.287758827209473,-0.06351253390312195,-0.4002912640571594,-0.26600563526153564
-1.9375603199005127,1.7991467714309692,9.33430290222168,-0.12095131725072861,-0.14650294184684753,-0.24094270169734955
-1.4971709251403809,1.0947535037994385,9.712845802307129,-0.1457349956035614,-0.25766295194625854,-0.26399850845336914
-2.556365728378296,1.6567779779434204,9.112398147583008,-0.30108675360679626,-0.9597042202949524,-0.314508318901062
-2.4542577266693115,2.344632148742676,9.348389625549316,-0.4063650071620941,-1.0611252784729004,-0.18598228693008423
-1.6798197031021118,1.3896903991699219,9.615678787231445,-0.2934945523738861,-0.5515763759613037,0.05562364310026169
-1.679666519165039,0.909394383430481,10.132414817810059,-0.04386012256145477,-0.11931070685386658,0.1756673902273178
-1.9804452657699585,1.331214427947998,10.333307266235352,0.21245892345905304,0.14901621639728546,0.33307862281799316
-1.142359733581543,1.0868334770202637,10.443037986755371,0.36620497703552246,0.38664278388023376,0.44882887601852417
-1.1086972951889038,1.418717622756958,9.366558074951172,0.30428069829940796,0.36791539192199707,0.3099704682826996
-1.3113521337509155,1.6832482814788818,9.376401901245117,0.21710149943828583,0.0924500897526741,0.15097098052501678
-1.47606360912323,1.8542228937149048,9.43614387512207,0.17327629029750824,-0.10843730717897415,0.04584980010986328
-1.7695831060409546,1.9049608707427979,9.202363014221191,0.16006414592266083,0.10389944911003113,0.10595893859863281
-1.9722187519073486,1.6366761922836304,9.219219207763672,0.0881391242146492,0.3468667268753052,0.22511257231235504
-2.0725550651550293,1.4675498008728027,8.881070137023926,0.13533282279968262,0.622122585773468,0.3070906698703766
-2.0778796672821045,1.6557340621948242,10.312440872192383,0.39760345220565796,0.15531684458255768,0.22921408712863922
-1.6907756328582764,2.40509033203125,9.394933700561523,0.3314729332923889,-0.26656413078308105,0.10445795208215714
-1.267892599105835,1.9551241397857666,8.540854454040527,0.008831365965306759,-0.2580643892288208,-0.038955748081207275
-1.6622271537780762,2.255462408065796,8.364277839660645,-0.33480650186538696,-0.012287117540836334,-0.06332054734230042
-1.9371581077575684,1.9811922311782837,9.106241226196289,-0.48947757482528687,0.10604620724916458,0.032096605747938156
-2.053133249282837,1.8469445705413818,9.641268730163574,-0.48548078536987305,0.025307273492217064,-0.008936085738241673
-1.7160009145736694,1.6933900117874146,9.917032241821289,-0.356623113155365,0.11479030549526215,-0.05695009231567383
-1.6173597574234009,1.7914278507232666,10.021907806396484,-0.2096664011478424,0.2318495362997055,0.03712315484881401
-1.4027053117752075,1.666354775428772,9.74321460723877,-0.07335618883371353,0.20196950435638428,0.07485716789960861
-1.9807708263397217,1.6620068550109863,9.24409008026123,-0.05714207887649536,0.01111774705350399,-0.19865337014198303
-2.24090576171875,1.5931209325790405,9.256404876708984,-0.16297884285449982,0.14217452704906464,-0.059463366866111755
-2.3867125511169434,1.4568238258361816,9.502433776855469,-0.20266763865947723,0.1636071652173996,0.11447614431381226
-2.0065133571624756,1.32429039478302,9.402690887451172,-0.14674727618694305,0.1183856800198555,0.19142770767211914
-1.7775702476501465,1.4384554624557495,9.413771629333496,-0.11513937264680862,0.030351275578141212,0.1218414381146431
-2.003908395767212,1.6053122282028198,9.620332717895508,-0.10381218045949936,0.030595621094107628,0.11599458009004593
-2.099006175994873,1.3907533884048462,10.039710998535156,0.05368632823228836,0.06632251292467117,0.12688542902469635
-2.239469051361084,1.3071287870407104,10.142576217651367,0.33363714814186096,0.0008552113431505859,0.1422966867685318
-1.8867840766906738,1.5704238414764404,9.531557083129883,0.38262853026390076,0.04632103815674782,0.20558233559131622
-1.6256245374679565,1.6386873722076416,9.04220962524414,0.13859659433364868,0.053965579718351364,0.11828096210956573
-1.8916970491409302,2.019307851791382,8.910003662109375,-0.18682004511356354,0.11941542476415634,0.029565878212451935
-2.0720760822296143,1.7051695585250854,9.469019889831543,-0.27661722898483276,0.21668262779712677,0.008569566532969475
-2.3389720916748047,1.6595934629440308,9.271459579467773,0.08562584966421127,-0.005410520825535059,0.011676252819597721
-2.389537811279297,1.6389172077178955,9.329313278198242,0.05391322076320648,-0.017069319263100624,-0.027401668950915337
-2.3851802349090576,1.3746644258499146,9.161212921142578,0.10459758341312408,0.043912485241889954,0.05944591388106346
-2.570462703704834,1.2554235458374023,9.828609466552734,0.30862656235694885,-0.01045452244579792,0.07016223669052124
-2.64101505279541,1.680681586265564,9.847867965698242,0.5402840971946716,-0.15683528780937195,0.07499679923057556
-2.0469179153442383,1.9273992776870728,8.828742980957031,0.36358699202537537,-0.1405688226222992,0.09142034500837326
-2.3216190338134766,1.7223024368286133,9.632793426513672,-0.5080304145812988,-0.09155996888875961,0.0023387412074953318
-2.566880941390991,1.7398854494094849,10.073633193969727,-0.273074209690094,-0.016266468912363052,-0.027000242844223976
-2.237802743911743,1.6552456617355347,10.268635749816895,0.03153809905052185,0.08061675727367401,-0.024434609338641167
-2.173025369644165,1.8580536842346191,9.115358352661133,0.28007298707962036,0.09581857919692993,0.028239427134394646
-2.5017013549804688,1.8650256395339966,9.198753356933594,0.24359560012817383,-0.09669124335050583,-0.006422811653465033
-2.164578437805176,1.918052315711975,9.082125663757324,0.20214402675628662,-0.3262892961502075,-0.0024085543118417263
-1.9791045188903809,2.0167317390441895,9.133563041687012,0.15332716703414917,-0.2509085237979889,0.02555162087082863
-1.9460549354553223,2.1687347888946533,9.331984519958496,0.08166395872831345,-0.09690067917108536,-0.0035953782498836517
-1.7738735675811768,2.0188100337982178,9.07957935333252,-0.07826056331396103,0.016859879717230797,-0.07391469180583954
-1.9417645931243896,1.9005651473999023,9.11368179321289,-0.20820032060146332,0.022252947092056274,-0.103672556579113
-2.157740592956543,1.8873586654663086,9.377867698669434,-0.23076742887496948,-0.05806710571050644,-0.10246828198432922
-1.7486003637313843,1.8268524408340454,9.616722106933594,-0.16863371431827545,-0.1722465455532074,-0.12253956496715546
-1.932963490486145,1.893784761428833,9.655125617980957,-0.025394540280103683,-0.10201449692249298,-0.15622441470623016
-2.104177713394165,1.9314119815826416,9.603833198547363,0.054279740899801254,-0.25075146555900574,-0.14323917031288147
-2.1019558906555176,2.0139448642730713,9.582552909851074,0.07588691264390945,-0.35465091466903687,-0.13255774974822998
-1.720693588256836,1.8711163997650146,9.392779350280762,0.1382649838924408,-0.2882585823535919,-0.11684979498386383
-1.6708654165267944,1.9176692962646484,9.592464447021484,0.14353588223457336,0.04991641640663147,-0.08824384957551956
-2.0392372608184814,2.059061288833618,9.835036277770996,0.13641493022441864,0.38114500045776367,0.008220500312745571
-2.229815721511841,1.6823575496673584,9.6545991897583,0.1370956152677536,0.3070208728313446,0.034435346722602844
-2.5343964099884033,1.4709112644195557,9.999173164367676,0.3571641743183136,0.09143780171871185,0.03544763848185539
-2.5879499912261963,1.7547487020492554,9.838300704956055,0.42388811707496643,-0.1860520988702774,0.04836307466030121
-2.2675673961639404,2.4208827018737793,9.154977798461914,0.3246312439441681,-0.4479562044143677,0.12278391420841217
-1.5881026983261108,2.096860885620117,8.255427360534668,0.0434936061501503,-0.20153316855430603,0.07234390079975128
-2.1258020401000977,2.190119743347168,9.008259773254395,-0.25534167885780334,-0.05049237608909607,0.04961971193552017
-1.8595285415649414,2.0765485763549805,9.304183006286621,0.13835224509239197,-0.049008846282958984,-0.005846852902323008
-1.8605245351791382,2.0955967903137207,9.160225868225098,0.10819295793771744,-0.01104793418198824,0.023335052654147148
-1.8689329624176025,2.2010183334350586,9.062657356262207,0.025237461552023888,0.01539380382746458,0.05448918044567108
-1.8045002222061157,2.134976625442505,9.074311256408691,-0.05869542434811592,0.057560957968235016,0.10213666409254074
-1.8055824041366577,2.1220288276672363,9.173095703125,-0.10999064892530441,0.10908307880163193,0.16655677556991577
-1.8102271556854248,1.9096726179122925,9.40772819519043,-0.08588765561580658,0.19474384188652039,0.23748694360256195
-1.9778116941452026,1.8908063173294067,9.625275611877441,0.03998549282550812,0.255236953496933,0.32538172602653503
-2.1415557861328125,2.0258872509002686,9.583702087402344,0.21237166225910187,0.27782151103019714,0.425144761800766
-2.2447938919067383,2.0572702884674072,9.453601837158203,0.340984970331192,0.28649580478668213,0.5116606950759888
-2.3880245685577393,2.114625930786133,9.581931114196777,0.42812925577163696,0.3309144377708435,0.6768037676811218
-2.6613752841949463,2.1787712574005127,10.109842300415039,0.5562015175819397,0.39500290155410767,0.9744871258735657
-2.6502087116241455,2.2026751041412354,10.040152549743652,0.6368880867958069,0.4369431734085083,1.104496717453003
-2.3429465293884277,2.1301403045654297,9.627764701843262,0.7475419640541077,0.5365316867828369,1.2192870378494263
-2.119807004928589,2.40156626701355,8.960443496704102,0.6788108944892883,0.5239827632904053,1.1361918449401855
-2.0701990127563477,3.1768181324005127,8.690330505371094,0.4679751396179199,0.36536723375320435,0.9064716696739197
-1.9282900094985962,3.619534730911255,8.622708320617676,0.25099578499794006,0.2116735279560089,0.5503895878791809
-1.8808273077011108,3.7243146896362305,8.540413856506348,0.07700392603874207,0.09098401665687561,0.16107644140720367
-1.8176108598709106,3.656261920928955,8.470541954040527,5.2359879191499203e-05,0.0904604122042656,0.0017278759041801095
-1.8957575559616089,3.3568239212036133,8.769021987915039,-0.14119713008403778,0.0763406977057457,-0.16901768743991852
-2.107903003692627,3.133281946182251,8.907186508178711,-0.16781340539455414,0.012234757654368877,-0.15430456399917603
-2.2857635021209717,3.0598950386047363,8.933685302734375,-0.1431344449520111,-0.1074424684047699,-0.12142255902290344
-2.2569468021392822,3.2504541873931885,8.967520713806152,-0.16002923250198364,-0.1661902517080307,-0.11594222486019135
-2.1137545108795166,3.0799968242645264,9.151453018188477,-0.18081611394882202,-0.0809309184551239,-0.15664330124855042
-2.258977174758911,2.9691929817199707,9.410103797912598,-0.1731017529964447,0.004956734832376242,-0.16814501583576202
-2.321657180786133,2.816471815109253,9.5760498046875,-0.08789478242397308,0.0587652362883091,-0.0976337194442749
-2.532069206237793,2.8067128658294678,9.619854927062988,0.0080634206533432,0.038955748081207275,-0.03136356547474861
-2.5486180782318115,2.8839402198791504,9.367697715759277,0.06408849358558655,-0.01432915311306715,0.008255407214164734
-2.41410231590271,2.9145286083221436,9.1632719039917,0.056635934859514236,-0.052063170820474625,0.02897246554493904
-2.2587568759918213,2.914126396179199,9.005463600158691,0.031817350536584854,-0.011135200969874859,0.03331833705306053
-2.239114761352539,2.891467809677124,8.996988296508789,0.023858651518821716,0.0596204474568367,0.029600784182548523
-2.3031070232391357,2.9068002700805664,9.016362190246582,0.038152895867824554,0.03206169977784157,0.04009021446108818
-2.3668599128723145,2.9802541732788086,9.008116722106934,0.03824016451835632,-0.08220500499010086,0.00753982225432992
-2.267021656036377,3.010009288787842,8.955041885375977,0.007173303049057722,-0.10536552965641022,-0.017296213656663895
-2.1496195793151855,2.882791042327881,8.966869354248047,-0.026162484660744667,-0.008168140426278114,-0.029443703591823578
-2.289747476577759,2.875809669494629,9.042028427124023,-0.04663519561290741,0.013683381490409374,-0.024207716807723045
-2.297600269317627,2.859787702560425,9.057283401489258,-0.040020398795604706,-0.013892821036279202,0.007470009382814169
-2.4108173847198486,2.945892572402954,9.220415115356445,-0.026459190994501114,-0.04682718217372894,0.021415190771222115
-2.289632558822632,2.893632173538208,9.151472091674805,-0.010279988870024681,-0.023317597806453705,0.027646014466881752
-2.198078155517578,2.8823983669281006,9.054152488708496,-0.014817845076322556,-0.009075712412595749,0.023195425048470497
-2.2145791053771973,2.998115062713623,9.15932559967041,-0.038152895867824554,-0.04237659275531769,0.009005898609757423
-2.189755916595459,2.9376375675201416,9.204374313354492,-0.019373154267668724,-0.03298672288656235,0.0012042771559208632
-2.2668204307556152,2.9070396423339844,9.230051040649414,-0.003525565145537257,-0.04986405745148659,0.007714355364441872
-2.1700947284698486,2.9922924041748047,9.136590957641602,-0.004206243436783552,-0.051626838743686676,0.03693116828799248
-2.0939974784851074,2.98028302192688,9.025422096252441,-0.04284783452749252,-0.015777776017785072,0.0014660765882581472
-2.1173934936523438,2.980187177658081,9.10611629486084,-0.07351326942443848,-0.10019934922456741,-0.011397000402212143
-2.0687530040740967,2.958016872406006,9.217005729675293,-0.05506513640284538,-0.07990117371082306,-0.03410373255610466
-2.0813751220703125,2.9293344020843506,9.255352973937988,-0.029129544273018837,-0.05902703478932381,-0.04363323003053665
-2.1151909828186035,2.8760874271392822,9.10937213897705,0.006510077975690365,-0.01877974346280098,-0.04824090003967285
-2.138261556625366,2.8422811031341553,8.868457794189453,0.00815068744122982,-0.014206980355083942,-0.021066123619675636
-2.1172690391540527,2.873549461364746,8.875957489013672,-0.018325956538319588,-0.0345575176179409,-0.0032463124953210354
-2.2160346508026123,2.899665355682373,9.285432815551758,0.008813912980258465,-0.03277728334069252,0.03495894372463226
-2.0737807750701904,2.672513246536255,9.17446517944336,0.13617058098316193,-0.019146261736750603,0.042725659906864166
-2.37512469291687,2.9435176849365234,9.196013450622559,0.16666148602962494,-0.3084345757961273,-0.016231561079621315
-2.085023880004883,3.1251800060272217,8.948923110961914,-0.023143066093325615,-0.23376940190792084,-0.10119418799877167
-2.1227853298187256,2.8200342655181885,9.09593677520752,-0.14821335673332214,0.10274752974510193,-0.14470525085926056
