accX,accY,accZ,gyroX,gyroY,gyroZ
-2.772092819213867,3.5570173263549805,8.9232759475708,-0.13051572442054749,0.4122118651866913,-0.24823817610740662
-2.463317394256592,3.2999472618103027,9.111939430236816,0.004485496319830418,-0.30745720863342285,-0.040055304765701294
-2.7026801109313965,3.3032703399658203,9.184176445007324,0.150342658162117,0.005532693583518267,-0.10819295793771744
-3.327212333679199,3.5894827842712402,9.282425880432129,0.2450965791940689,0.023631757125258446,-0.06773623079061508
-3.2488741874694824,3.5958898067474365,8.892696380615234,0.2632479965686798,-0.12665854394435883,-0.0030194194987416267
-2.7779154777526855,3.3401124477386475,8.503667831420898,0.2123192995786667,-0.17006488144397736,0.020367993041872978
-2.500312566757202,3.495103359222412,8.624651908874512,0.055867988616228104,-0.23656192421913147,0.05324999615550041
-2.3076465129852295,3.732790231704712,8.751630783081055,-0.22532200813293457,-0.31906363368034363,0.021450096741318703
-2.202177047729492,3.370978355407715,8.657089233398438,-0.32709214091300964,-0.18364354968070984,-0.08321730047464371
-2.4098212718963623,3.1725852489471436,8.862826347351074,-0.3565707504749298,-0.017662731930613518,-0.12711232900619507
-3.0369489192962646,3.4704813957214355,9.048043251037598,-0.17585937678813934,0.2120051383972168,0.08405505865812302
-3.208373785018921,3.320441484451294,9.18563175201416,0.035988688468933105,0.21469295024871826,0.29887017607688904
-2.8158109188079834,3.226311206817627,9.320101737976074,0.2877524197101593,0.22533945739269257,0.39440950751304626
-2.6470675468444824,3.3084897994995117,9.32759952545166,0.48659780621528625,0.2888345420360565,0.3597297966480255
-2.6018075942993164,3.1026649475097656,9.138860702514648,0.294437050819397,0.00205948855727911,0.047280970960855484
-2.468642234802246,2.6399617195129395,9.062981605529785,0.26251497864723206,0.10220648348331451,0.06351253390312195
-2.2030677795410156,2.035598039627075,9.127826690673828,0.14723597466945648,-0.27949702739715576,-0.06878342479467392
-1.8482086658477783,2.1161582469940186,8.87236499786377,0.009197885170578957,0.146310955286026,-0.20427332818508148
-2.2290782928466797,2.23488187789917,8.567669868469238,-0.22385592758655548,0.008936085738241673,-0.27640777826309204
-2.0022706985473633,2.255002737045288,9.415811538696289,-0.31468287110328674,-0.5194099545478821,-0.28476792573928833
-1.6820224523544312,2.3677408695220947,9.687274932861328,-0.196419358253479,-0.5896943807601929,-0.3110002279281616
-1.2177866697311401,2.23294734954834,10.06185245513916,0.1782853752374649,-0.31614893674850464,-0.3854559659957886
-1.6157126426696777,2.3199143409729004,9.071131706237793,0.41887903213500977,0.20504127442836761,-0.29160961508750916
-2.2720303535461426,2.3892982006073,8.353744506835938,0.376170814037323,0.12854349613189697,-0.09501572698354721
-2.648829698562622,2.9061009883880615,8.117607116699219,0.06600835174322128,-0.22877775132656097,-0.027314402163028717
-1.8066741228103638,3.155212879180908,8.415609359741211,-0.21249383687973022,-0.08806931227445602,-0.14322172105312347
-2.042407274246216,3.0250163078308105,8.749208450317383,-0.2571393549442291,0.20324358344078064,-0.2542944848537445
-2.4382452964782715,3.139037609100342,8.857511520385742,-0.296671062707901,-0.058224182575941086,-0.18990927934646606
-2.3524179458618164,3.149984121322632,9.32719612121582,-0.15044738352298737,-0.3511078953742981,-0.05249950289726257
-2.230313777923584,3.4252309799194336,9.287538528442383,0.1560847908258438,-0.23862141370773315,0.027628561481833458
-1.883317232131958,3.470318555831909,8.934930801391602,0.4184601306915283,-0.00890117883682251,0.03003711625933647
-1.5967696905136108,3.3714189529418945,8.37848949432373,0.37578684091567993,-0.022968532517552376,-0.05143485218286514
-1.6634050607681274,3.6076500415802,8.320052146911621,0.106011301279068,-0.0976511687040329,-0.11189305782318115
-1.7513680458068848,3.5648417472839355,8.478739738464355,-0.14971433579921722,-0.2289872020483017,-0.19045032560825348
-1.8232611417770386,3.4006569385528564,9.22586441040039,-0.18179349601268768,-0.3989473581314087,-0.26082199811935425
-1.4315026998519897,3.319962739944458,8.87669563293457,-0.06147049739956856,-0.2531251013278961,-0.2695660889148712
-1.3405804634094238,3.209360122680664,9.055359840393066,0.007208209950476885,-0.05555383116006851,-0.23020893335342407
-1.6923365592956543,3.536599636077881,9.236504554748535,-0.05372123420238495,-0.13618804514408112,-0.15022048354148865
-1.6915513277053833,3.7546443939208984,9.313157081604004,-0.1466251164674759,-0.37116172909736633,-0.12383110821247101
-1.5835919380187988,3.6162595748901367,9.061861991882324,-0.39938369393348694,-0.1362753063440323,-0.24504423141479492
-1.6005046367645264,3.6205594539642334,9.16137409210205,-0.5406680703163147,-0.0015533430268988013,-0.09915215522050858
-1.6197731494903564,3.341769218444824,8.9928617477417,-0.6326120495796204,0.26712262630462646,-0.007435102481395006
-1.776009202003479,2.9620296955108643,9.354423522949219,-0.6378480195999146,0.40947169065475464,0.06815510988235474
-2.392334222793579,3.127009153366089,9.854161262512207,-0.4637514352798462,0.4541695713996887,0.26570892333984375
-2.2372281551361084,2.9235596656799316,10.603996276855469,1.039797306060791,0.2687283456325531,0.3081378638744354
-2.235111713409424,3.0335493087768555,9.887794494628906,1.2309632301330566,0.2552543878555298,0.0541575662791729
-2.333925247192383,2.9940831661224365,9.469900131225586,1.115579605102539,0.06735225766897202,-0.14383257925510406
-2.222604274749756,2.98618221282959,9.330961227416992,0.9364913105964661,-0.03874630853533745,-0.135402649641037
-2.310979127883911,2.904693365097046,9.2843599319458,0.7080451846122742,-0.09173450618982315,-0.056758105754852295
-2.298807144165039,2.718989372253418,9.034950256347656,0.44544294476509094,-0.0786270797252655,-0.07232644408941269
-2.448406219482422,2.834926128387451,8.819568634033203,0.2364571988582611,0.11109020560979843,-0.126728355884552
-2.6983323097229004,2.6786422729492188,8.758928298950195,0.11763519048690796,0.225845605134964,-0.11370819807052612
-2.902567148208618,2.5848374366760254,8.453064918518066,0.09011135250329971,0.24205970764160156,-0.04106759652495384
-3.477501153945923,3.0444092750549316,8.60209846496582,0.3085044026374817,0.18486528098583221,0.02595304511487484
-3.395552396774292,2.8813066482543945,8.941060066223145,0.3015928864479065,0.16798794269561768,-0.06990043818950653
-3.8817477226257324,2.7363808155059814,9.55622673034668,0.24815091490745544,-0.8628035187721252,-0.19640189409255981
-2.334289073944092,3.21598744392395,9.588854789733887,-0.009686577133834362,-0.9132609963417053,-0.44682174921035767
-1.9784150123596191,2.9611964225769043,9.319526672363281,-0.060301125049591064,-0.2007826715707779,-0.8761552572250366
-3.3847403526306152,3.157702922821045,8.87366771697998,-0.17013469338417053,-0.10276498645544052,-1.0078403949737549
-3.705122709274292,3.0736377239227295,8.410160064697266,-0.3128677308559418,-0.6775193810462952,-0.8643044829368591
-3.319464683532715,3.419379472732544,7.764960765838623,-0.4536110758781433,-1.1358428001403809,-0.659629762172699
-2.6640663146972656,3.7154464721679688,7.943826675415039,-0.6091897487640381,-1.1980812549591064,-0.6343573927879333
-2.28617525100708,3.541062593460083,8.28933048248291,-0.6535385251045227,-1.0106852054595947,-0.7797781825065613
-2.290408134460449,3.3900938034057617,8.591726303100586,-0.5953317880630493,-0.9198059439659119,-0.870430588722229
-2.3538737297058105,3.3286585807800293,8.593460083007812,-0.4976457357406616,-0.8131489157676697,-0.802554726600647
-2.4228458404541016,3.3348259925842285,8.475330352783203,-0.46333256363868713,-0.7519053220748901,-0.6830520629882812
-2.603665590286255,3.333897113800049,8.83449935913086,-0.5023406744003296,-0.7526208758354187,-0.6229429244995117
-2.355013370513916,3.3616602420806885,9.017395973205566,-0.5497961640357971,-0.7519401907920837,-0.6067637205123901
-2.0471956729888916,3.272069215774536,9.198312759399414,-0.45952773094177246,-0.5834112167358398,-0.5509655475616455
-2.595716714859009,3.0778610706329346,9.669672966003418,-0.05859070271253586,-0.22910937666893005,-0.30136600136756897
-2.173408269882202,3.1288959980010986,9.275070190429688,0.06845181435346603,-0.16165240108966827,-0.1953023374080658
-1.5793015956878662,3.0204672813415527,9.024550437927246,0.011327186599373817,-0.23485150933265686,-0.24186772108078003
-1.8288636207580566,3.5289669036865234,8.917798042297363,-0.11657053977251053,-0.39095374941825867,-0.2972993850708008
-1.95192551612854,3.1887989044189453,9.222772598266602,0.3023608326911926,-0.11674506962299347,-0.23923228681087494
-2.5878446102142334,3.582099199295044,9.160550117492676,0.13660691678524017,-0.37220892310142517,-0.20744983851909637
-2.8226678371429443,3.620760679244995,9.712347984313965,0.08878489583730698,-0.4743281304836273,-0.11133455485105515
-2.3585853576660156,3.4383320808410645,9.848166465759277,0.2128254473209381,-0.2180090695619583,-0.03701843321323395
-2.0858571529388428,3.1961920261383057,9.972548484802246,0.3110700249671936,-0.040945425629615784,-0.03488913178443909
-1.8368793725967407,3.2470641136169434,9.709981918334961,0.24331635236740112,-0.07189010828733444,-0.06300638616085052
-1.7729350328445435,3.0352346897125244,9.807463645935059,0.10697122663259506,-0.1581093817949295,-0.09347983449697495
-1.7527567148208618,2.9889309406280518,9.790885925292969,0.0325503908097744,-0.167062908411026,-0.06546729803085327
-1.5526301860809326,2.7635982036590576,10.115723609924316,-0.03183480724692345,-0.010559242218732834,-0.03900810703635216
-1.6916567087173462,1.9836918115615845,10.196377754211426,0.027227135375142097,0.16341517865657806,0.2657787501811981
-1.6758453845977783,1.78413987159729,10.402029991149902,0.17526596784591675,0.08792968839406967,0.3199537694454193
-0.9370425939559937,1.7348289489746094,9.97585391998291,0.2312735766172409,0.004625122528523207,0.24357815086841583
-1.1198734045028687,1.6964163780212402,9.625054359436035,0.25359633564949036,0.052604224532842636,0.220033660531044
-1.1981925964355469,1.5220227241516113,9.550586700439453,0.31002283096313477,0.04663519561290741,0.21954496204853058
-0.3668299913406372,2.045462131500244,9.25639533996582,0.3539178669452667,0.19149751961231232,0.31616640090942383
-0.5044103860855103,2.154465436935425,9.064217567443848,0.3280346393585205,0.15022048354148865,0.3027099072933197
-0.4971224367618561,2.2098958492279053,8.856860160827637,0.29480355978012085,0.16824974119663239,0.33281683921813965
-0.9493105411529541,2.549776792526245,8.861074447631836,0.06091199070215225,0.16854643821716309,0.40940189361572266
-1.1994949579238892,2.782521963119507,8.78836727142334,-0.015934856608510017,0.2610139846801758,0.49905943870544434
-1.3125300407409668,2.9436230659484863,8.68076229095459,-0.02200860157608986,0.31785935163497925,0.6010564565658569
-1.2212727069854736,2.9938149452209473,8.908039093017578,-0.011257373727858067,0.258151650428772,0.6408150792121887
-1.1853595972061157,3.1758508682250977,9.07411003112793,0.0012042771559208632,0.18879225850105286,0.6056292653083801
-1.249715805053711,3.269646167755127,8.978994369506836,0.06640977412462234,0.3116808831691742,0.6196442246437073
-1.1772959232330322,3.3326425552368164,8.92006778717041,0.1097462996840477,0.367531418800354,0.6755645871162415
-1.0114065408706665,3.3506181240081787,8.926972389221191,0.08339183032512665,0.33292156457901,0.6822841167449951
-0.9446945190429688,3.2931859493255615,8.970969200134277,0.021048670634627342,0.2857802212238312,0.6461034417152405
-1.1195381879806519,3.3062870502471924,8.97823715209961,-0.011379546485841274,0.3046821355819702,0.6973114013671875
-1.134114146232605,3.3268580436706543,9.033341407775879,-0.011850785464048386,0.3350508511066437,0.8122937083244324
-0.9023267030715942,3.4228177070617676,8.997007369995117,-0.018133969977498055,0.42785000801086426,0.856642484664917
-0.9306357502937317,3.432835102081299,8.9921236038208,-0.07209955155849457,0.4130147099494934,0.8066562414169312
-1.2665326595306396,3.4811692237854004,9.034395217895508,-0.12517501413822174,0.34576717019081116,0.7761130332946777
-1.367261528968811,3.6630709171295166,8.338055610656738,-0.23891812562942505,0.5446823239326477,0.8660148978233337
-1.4448240995407104,3.7632060050964355,8.426095962524414,-0.38411206007003784,0.44579198956489563,0.8696451783180237
-1.4739662408828735,3.8065507411956787,8.376018524169922,-0.43444734811782837,0.416435569524765,0.8416850566864014
-1.5546317100524902,3.6880855560302734,8.168537139892578,-0.4877147972583771,0.43900266289711,0.668722927570343
-1.6958895921707153,3.377126693725586,7.592884540557861,-0.693105161190033,0.6868568658828735,0.38386771082878113
-1.7415422201156616,3.0688109397888184,7.938157558441162,-1.2770748138427734,0.8398873209953308,0.11157889664173126
-0.8903652429580688,1.0897448062896729,10.374564170837402,-0.07648032903671265,0.12943361699581146,0.9109746217727661
-1.0419565439224243,1.434414029121399,10.552549362182617,0.35609951615333557,0.2889392673969269,0.9693907499313354
-1.5458402633666992,2.056408405303955,10.119295120239258,0.43219587206840515,0.0950331762433052,0.9380446672439575
-1.9892750978469849,2.1368346214294434,9.87303638458252,0.43615779280662537,-0.16585864126682281,0.8868017792701721
-2.1142141819000244,2.0993030071258545,9.422811508178711,0.4528431296348572,-0.11849040538072586,0.8667654395103455
-2.240541696548462,2.2020621299743652,9.421134948730469,0.388929158449173,0.1877799779176712,0.9583777189254761
-2.2870850563049316,2.818866014480591,9.448975563049316,0.15824900567531586,0.4412716031074524,1.2045040130615234
-1.7372422218322754,1.8522597551345825,10.782153129577637,-0.14735814929008484,0.007278022821992636,1.1021405458450317
-1.7198699712753296,1.5741397142410278,11.148466110229492,0.07162830978631973,-0.23169246315956116,1.007910132408142
-1.6024869680404663,1.527040958404541,10.92874526977539,0.2927091717720032,-0.13227850198745728,1.0438988208770752
-1.5258821249008179,1.5877387523651123,10.259403228759766,0.6932447552680969,0.30063295364379883,1.2220795154571533
-1.472922444343567,1.628076195716858,9.709684371948242,0.7254461050033569,0.549481987953186,1.3505008220672607
-1.4582890272140503,1.7330667972564697,9.39132308959961,0.5988573431968689,0.5774770975112915,1.3572028875350952
-1.281137228012085,1.9249285459518433,8.964293479919434,0.19366173446178436,0.5759761333465576,1.3145121335983276
-1.3206416368484497,1.852681040763855,9.282176971435547,-0.1802925169467926,0.48694685101509094,1.2530765533447266
-1.39920973777771,1.8292274475097656,9.61868667602539,-0.27520352602005005,0.41437608003616333,1.225535273551941
-1.5481290817260742,1.853092908859253,9.70889949798584,-0.20385445654392242,0.42523202300071716,1.2245404720306396
-1.1477131843566895,2.000642776489258,9.267965316772461,0.12753120064735413,0.6505889296531677,1.2430235147476196
-1.4056357145309448,1.9553923606872559,9.254326820373535,0.07244861871004105,0.5070704817771912,1.0800096988677979
-1.7501901388168335,1.8718347549438477,8.928877830505371,0.020751964300870895,0.3810053765773773,0.9737017154693604
-2.1162827014923096,2.10981822013855,8.547768592834473,-0.3619987368583679,0.44464007019996643,1.158828854560852
-2.165296792984009,2.108994722366333,8.734402656555176,-0.43191662430763245,0.3862064480781555,1.1661068201065063
-2.234287977218628,2.166877031326294,8.971370697021484,-0.43362703919410706,0.30894073843955994,1.1231892108917236
-2.1884918212890625,2.0844876766204834,9.356596946716309,-0.33826225996017456,0.28413960337638855,1.0429389476776123
-2.452524423599243,1.919124960899353,9.682419776916504,-0.20238837599754333,0.1226966455578804,0.9534035325050354
-2.5456204414367676,1.8515510559082031,9.521750450134277,-0.0044156829826533794,0.1172163113951683,0.9594423770904541
-2.5503227710723877,1.8970025777816772,9.292241096496582,0.07784168422222137,0.22472859919071198,0.990805983543396
-2.5680973529815674,2.0281951427459717,8.885504722595215,0.0521329827606678,0.4740663170814514,1.0409144163131714
-2.6799352169036865,2.1021759510040283,8.898184776306152,-0.23104669153690338,0.5281017422676086,1.0545628070831299
-2.8459203243255615,1.9954521656036377,9.061345100402832,-0.4638212323188782,0.4334874153137207,1.0360972881317139
-2.889801263809204,2.2893738746643066,9.251932144165039,-0.10037388652563095,0.3937113583087921,0.9266127347946167
-2.8781368732452393,2.1839044094085693,9.321595191955566,-0.1976061761379242,0.3502352237701416,0.8906065821647644
-2.948056936264038,2.1268553733825684,9.44964599609375,-0.2361779510974884,0.3444407284259796,0.9009040594100952
-2.85235595703125,2.177095413208008,9.40608024597168,-0.2350609451532364,0.44087016582489014,0.9451307058334351
-3.076817274093628,2.6425952911376953,9.092737197875977,-0.13606587052345276,0.2627418637275696,0.951570987701416
-3.100299596786499,2.708272933959961,9.18678092956543,-0.11271335929632187,0.1751437932252884,0.9629505276679993
-2.9485838413238525,2.754749298095703,9.107227325439453,-0.03459242731332779,0.25275859236717224,0.9609434008598328
-2.85367751121521,2.900489091873169,8.880486488342285,-0.02206096239387989,0.3422241508960724,0.9616938829421997
-2.937934398651123,3.516660690307617,8.70871639251709,0.05590289458632469,-0.054192472249269485,0.7256730198860168
-3.527118682861328,3.878194808959961,8.769893646240234,0.31414180994033813,-0.061627574265003204,0.6757915019989014
-2.9503555297851562,3.608952522277832,9.214008331298828,0.2630036771297455,-0.16027358174324036,0.6502049565315247
-2.052079677581787,3.260002374649048,9.52132797241211,0.22560125589370728,0.20617574453353882,0.5705132484436035
-1.8984869718551636,3.0991504192352295,9.32204532623291,0.04115486517548561,0.35761797428131104,0.6688275933265686
-1.7967908382415771,2.611863374710083,9.827469825744629,-0.139434352517128,0.11276572197675705,0.6361376047134399
-1.780347466468811,2.529062271118164,9.913230895996094,0.034784410148859024,0.13646729290485382,0.7153930068016052
-1.6429394483566284,2.572598457336426,9.761993408203125,0.13667672872543335,0.20668189227581024,0.7826405167579651
-1.3231123685836792,2.545888662338257,9.54094123840332,0.295571506023407,0.3315776586532593,0.8809025883674622
-1.0989768505096436,2.7834508419036865,9.155590057373047,0.2724284529685974,0.36390113830566406,0.8526806235313416
-0.9901268482208252,2.942033290863037,9.029914855957031,0.10477211326360703,0.3713013529777527,0.7790102362632751
-0.987665593624115,2.9578158855438232,8.939709663391113,-0.030316369608044624,0.41865211725234985,0.7789579033851624
-1.1565717458724976,2.875819206237793,8.95113468170166,-0.040020398795604706,0.47736498713493347,0.8229925632476807
-1.0821216106414795,2.8992726802825928,8.816810607910156,0.0014486232539638877,0.48658034205436707,0.8770104646682739
-1.1159660816192627,3.157588005065918,8.60266399383545,-0.031730085611343384,0.4466821253299713,0.9299637675285339
-1.0558428764343262,3.270115375518799,8.505449295043945,-0.12477358430624008,0.4403116703033447,0.9568767547607422
-1.0958164930343628,3.3574655055999756,8.49907112121582,-0.20463985204696655,0.39296087622642517,0.9887290000915527
-1.0776492357254028,3.43058443069458,8.469133377075195,-0.2355670928955078,0.35522687435150146,1.057215690612793
-1.0619145631790161,3.5515778064727783,8.538758277893066,-0.2522349953651428,0.39533454179763794,1.1524059772491455
-1.0546362400054932,3.736515522003174,8.306203842163086,-0.2840697765350342,0.6166422963142395,1.2771446704864502
-0.8171601891517639,3.9042532444000244,7.808784484863281,-0.5187293291091919,0.870290994644165,1.5415271520614624
-0.6531573534011841,3.836928367614746,8.349787712097168,-0.6582509279251099,0.7317118048667908,1.4508049488067627
-0.866969108581543,3.581486225128174,9.067875862121582,-0.6808704137802124,0.2578375041484833,1.18881356716156
-0.7166707515716553,3.4160468578338623,9.0790433883667,-0.47630035877227783,0.12664109468460083,0.9079028367996216
-0.6513569355010986,3.298051118850708,9.516491889953613,-0.20008455216884613,0.14821335673332214,0.7599338293075562
-0.8522400259971619,3.3328723907470703,9.636479377746582,-0.021624628454446793,0.112922802567482,0.6980269551277161
-1.0471376180648804,3.277106523513794,9.562259674072266,0.05492551252245903,0.1319119781255722,0.6483200192451477
-1.321580171585083,3.449814558029175,9.131802558898926,-0.06321582198143005,0.5071926712989807,0.9138369560241699
-1.2548202276229858,3.6107242107391357,8.989614486694336,-0.24172809720039368,0.5687504410743713,0.9336115121841431
-1.2485090494155884,3.730376720428467,8.704301834106445,-0.4179539978504181,0.6038315296173096,0.8972563147544861
-1.1611303091049194,3.9398598670959473,8.685579299926758,-0.5344372391700745,0.6732607483863831,0.8761378526687622
-1.088432788848877,3.9540047645568848,8.972060203552246,-0.5271592736244202,0.8008617758750916,0.8727344274520874
-1.400847315788269,3.8595869541168213,9.116488456726074,-0.34665730595588684,1.0386629104614258,0.8811294436454773
-1.701559066772461,3.7869086265563965,9.020108222961426,-0.15920893847942352,0.9734922647476196,0.8951444625854492
-2.0630643367767334,3.82919979095459,9.227587699890137,-0.09655161201953888,0.5166698098182678,0.8629605770111084
-1.5656163692474365,4.106276035308838,8.917022705078125,-0.6042155027389526,0.5230228304862976,0.5418374538421631
-1.7156656980514526,4.125448703765869,9.20150089263916,-0.5642998814582825,0.5215392708778381,0.5122890472412109
-1.819526195526123,4.138003826141357,9.456062316894531,-0.4798433780670166,0.26981043815612793,0.5136504173278809
-1.8166818618774414,4.318028926849365,9.951682090759277,-0.39854592084884644,0.13807299733161926,0.5144357681274414
-1.1339704990386963,4.320959091186523,9.878753662109375,0.0063355453312397,0.5981243252754211,0.5217137932777405
-1.4632689952850342,4.104676723480225,9.833120346069336,0.4266108274459839,0.9208531379699707,0.5549100041389465
-1.872715711593628,4.214877128601074,9.504522323608398,0.5363571047782898,0.9523388743400574,0.5919807553291321
-2.973904848098755,4.564640998840332,9.23208999633789,0.4868246912956238,0.6035872101783752,0.6519153714179993
-2.140397071838379,4.953162670135498,8.727649688720703,0.19160224497318268,0.13706070184707642,0.582817792892456
-1.7430840730667114,4.878204822540283,8.683980941772461,0.0339815616607666,0.09281660616397858,0.49549898505210876
-1.6780959367752075,4.6960062980651855,9.142354965209961,-0.1679530292749405,-0.014678219333291054,0.2528109550476074
-1.9111474752426147,4.495687961578369,9.51832103729248,-0.08531169593334198,0.02525491453707218,0.12150982022285461
-2.3007893562316895,4.171321868896484,9.504846572875977,0.21296507120132446,0.20832249522209167,0.23380430042743683
-2.537231206893921,3.943307399749756,9.237433433532715,0.4763701558113098,0.3312460482120514,0.45375069975852966
-2.8791615962982178,4.378812789916992,8.924491882324219,0.5463054776191711,0.3021514117717743,0.6740636229515076
-2.9926466941833496,4.188272476196289,8.581345558166504,0.5007349848747253,0.42268383502960205,0.7678052186965942
-3.3065743446350098,3.8007471561431885,9.022299766540527,0.4020715057849884,0.31349605321884155,0.6269047856330872
-3.5678584575653076,3.7481322288513184,8.98887825012207,0.3412467837333679,0.1500808596611023,0.521312415599823
-3.3772130012512207,3.567523241043091,9.247574806213379,0.26944392919540405,-0.12868312001228333,0.34407421946525574
-2.920370578765869,3.240187883377075,9.508955001831055,0.4086688458919525,-0.0463733971118927,0.357652872800827
-3.5220909118652344,3.5320029258728027,7.44806432723999,0.545397937297821,0.6453878283500671,0.8600459098815918
-3.7162318229675293,3.824899911880493,7.007244110107422,0.1987406462430954,0.5797809362411499,0.8390321135520935
-3.5256917476654053,3.9802260398864746,6.6928181648254395,-0.07991862297058105,0.793775737285614,0.8511970639228821
-3.6880950927734375,4.040483474731445,6.974184989929199,-0.34369024634361267,0.9593027830123901,0.7511199116706848
-3.620272159576416,4.083148002624512,7.395430088043213,-0.5662895441055298,0.8078430891036987,0.6472378969192505
-3.1650004386901855,3.8237698078155518,7.978178977966309,-0.623187243938446,0.7613824009895325,0.596832811832428
-3.0140891075134277,3.6920790672302246,8.660594940185547,-0.5885599255561829,0.65802401304245,0.452825665473938
-3.0813469886779785,3.6309216022491455,8.856888771057129,-0.5312781929969788,0.4571017324924469,0.20210912823677063
-3.1098668575286865,3.30441951751709,8.889047622680664,-0.37433820962905884,0.36969563364982605,0.051923543214797974
-4.387585163116455,3.8654768466949463,7.962645053863525,-0.20830504596233368,0.9504364728927612,0.3807784914970398
-4.627799987792969,4.1075592041015625,6.964473724365234,-0.19435986876487732,0.91361004114151,0.38411206007003784
-4.427731037139893,4.483870506286621,7.39594841003418,-0.2788163423538208,0.4586027264595032,0.28958502411842346
-4.630998611450195,4.385746479034424,7.693680763244629,-0.623414158821106,-0.33534756302833557,-0.14880676567554474
-4.918504238128662,4.082716941833496,8.425933837890625,-0.6524913311004639,-0.43017131090164185,-0.008936085738241673
-4.422176361083984,4.297907829284668,8.7008638381958,-0.5751208662986755,-0.3807086646556854,0.26248008012771606
-3.7342171669006348,4.210002422332764,8.856602668762207,-0.40708059072494507,-0.25389304757118225,0.41083306074142456
-4.08368444442749,4.8195085525512695,8.434457778930664,-0.2658136487007141,-0.21610666811466217,0.4026648998260498
-3.9437289237976074,4.503962516784668,8.473194122314453,-0.22043508291244507,-0.41662755608558655,0.36273178458213806
-3.8675262928009033,4.612237930297852,8.151605606079102,-0.23685863614082336,-0.621529221534729,0.22862067818641663
-3.6818032264709473,4.488716125488281,8.153175354003906,-0.2767394185066223,-0.6703286170959473,0.18730872869491577
-3.623633623123169,4.4496331214904785,8.833455085754395,-0.29616492986679077,-0.7190232872962952,0.12864822149276733
-3.679619789123535,4.590661525726318,9.202315330505371,-0.20237092673778534,-0.5680522918701172,0.17847736179828644
-3.9173927307128906,4.618510723114014,9.448573112487793,0.1025380939245224,-0.20575685799121857,0.32047736644744873
-3.8848986625671387,4.663186550140381,8.5341796875,0.17756979167461395,-0.5563411712646484,0.16325809061527252
-3.7269866466522217,4.618577480316162,8.428719520568848,0.07958701252937317,-0.5302309989929199,0.15275122225284576
-3.884716510772705,4.659480094909668,8.691737174987793,-0.03848451003432274,-0.4102221727371216,0.11337658762931824
-2.3158345222473145,3.280985116958618,9.480023384094238,0.20943951606750488,-0.1849525421857834,0.1388409435749054
-2.3142640590667725,3.227891445159912,9.207793235778809,0.3038967251777649,-0.12236503511667252,0.19622737169265747
-2.3815793991088867,3.0655739307403564,9.078056335449219,0.23469442129135132,-0.17270033061504364,0.1970127671957016
-2.208143472671509,3.0743846893310547,8.599129676818848,0.0740368664264679,-0.32590532302856445,0.20889845490455627
-1.616478681564331,3.142801523208618,8.019732475280762,-0.09135053306818008,-0.21624629199504852,0.25277602672576904
-1.50941002368927,3.164703607559204,8.374361991882324,-0.2885378301143646,-0.15594516694545746,0.2329840064048767
-1.4502540826797485,3.19008207321167,8.753411293029785,-0.4612032473087311,-0.22675317525863647,0.1218239814043045
-0.9372437596321106,2.871835231781006,8.933934211730957,-0.5482602715492249,-0.37116172909736633,0.014433872886002064
-0.8109160661697388,2.5198493003845215,9.517861366271973,-0.5791525840759277,-0.6568022966384888,-0.12046262621879578
-0.784464955329895,2.4790425300598145,9.373299598693848,-0.4680972993373871,-0.7272612452507019,-0.310424268245697
-0.7983417510986328,2.266169309616089,9.120126724243164,-0.23413591086864471,-0.3638487756252289,-0.43455207347869873
-0.8225806355476379,2.615569591522217,8.821828842163086,-0.10035642981529236,-0.21680480241775513,-0.3569198250770569
-1.0360667705535889,2.9730141162872314,8.237702369689941,-0.1103048101067543,-0.1679530292749405,-0.08504989743232727
-1.456258773803711,3.0735132694244385,8.047975540161133,-0.2021789401769638,-0.06756169348955154,0.19792033731937408
-1.7336126565933228,3.243779182434082,8.006776809692383,-0.3116459846496582,-0.008447393774986267,0.39585813879966736
-1.3282264471054077,3.597144365310669,8.131207466125488,-0.4269424378871918,0.032445669174194336,0.5471083521842957
-0.6374514102935791,3.6034936904907227,8.417304992675781,-0.5305626392364502,0.08826129883527756,0.5545434355735779
-0.7859493494033813,3.6087706089019775,9.226641654968262,-0.5689424276351929,0.05077162757515907,0.39992475509643555
-1.0171047449111938,3.5975561141967773,9.503382682800293,-0.5405633449554443,0.003804817795753479,0.3136182129383087
-1.2652876377105713,3.395792007446289,9.671712875366211,-0.33691835403442383,-0.04105014353990555,0.21568778157234192
-0.9591459035873413,3.264014959335327,9.55747127532959,-0.046041786670684814,0.06297148019075394,0.24204225838184357
-0.8352028727531433,3.42262601852417,8.877710342407227,0.0907222107052803,0.31375783681869507,0.2744879424571991
-1.1485655307769775,3.528670072555542,8.668437957763672,-0.07070329040288925,0.2727774977684021,0.2535090744495392
-1.115046739578247,3.608808755874634,8.781902313232422,-0.2557780146598816,0.21636846661567688,0.24441590905189514
-1.042330026626587,3.5523247718811035,8.942659378051758,-0.37309902906417847,0.23972097039222717,0.23321089148521423
-1.408298134803772,3.6133387088775635,8.845617294311523,-0.37540286779403687,0.39390334486961365,0.33711034059524536
-1.5123405456542969,3.471975326538086,8.720131874084473,-0.3098832070827484,0.5231973528862,0.46736425161361694
-1.598282814025879,3.555734157562256,8.223833084106445,-0.28845056891441345,0.5351528525352478,0.4965287148952484
-1.6394438743591309,3.5228474140167236,9.032853126525879,-0.3484549820423126,0.08681267499923706,0.3255039155483246
-1.5257097482681274,3.484377384185791,9.200562477111816,-0.4582012891769409,-0.027960173785686493,0.10149089246988297
-1.8217575550079346,3.558540105819702,9.507412910461426,-0.3675488829612732,-0.03651228919625282,0.15023794770240784
-1.612446904182434,3.4886391162872314,9.690770149230957,-0.22029545903205872,0.046216320246458054,0.21996384859085083
-1.4795399904251099,3.505417585372925,9.793586730957031,-0.06984807550907135,0.10094984620809555,0.2632829248905182
-1.3902841806411743,3.565646171569824,9.556493759155273,0.03520328924059868,0.11110766232013702,0.30625292658805847
-1.54082190990448,3.557467460632324,9.490232467651367,0.08953539282083511,0.14393730461597443,0.2923251986503601
-1.709680199623108,3.659154176712036,9.567728042602539,0.08134979754686356,0.2526189684867859,0.3153460919857025
-2.181107997894287,3.8603532314300537,9.456704139709473,0.08656833320856094,0.5629035830497742,0.6113364696502686
-1.8522597551345825,3.4767062664031982,9.636345863342285,0.024417156353592873,0.2030516117811203,0.5440540313720703
-2.1328697204589844,3.6310460567474365,10.072942733764648,-0.12547172605991364,-0.14536847174167633,0.33197906613349915
-2.375354528427124,3.4624273777008057,10.495643615722656,-0.1422617882490158,-0.12048007547855377,0.19458675384521484
-1.8339680433273315,2.6274542808532715,10.06644058227539,0.08628907799720764,0.5026373863220215,0.19917696714401245
-2.0877726078033447,2.2663991451263428,10.246014595031738,0.21017254889011383,0.6788108944892883,0.3928561508655548
-2.4456002712249756,2.0339221954345703,10.297211647033691,0.13604842126369476,0.23547981679439545,0.5199335813522339
-2.6909964084625244,1.9976165294647217,10.495511054992676,0.0012740903766825795,-0.27670449018478394,0.42065924406051636
-2.206342935562134,1.962096095085144,10.143159866333008,0.040334559977054596,-0.19113101065158844,0.3531324565410614
-1.8109931945800781,1.8184632062911987,9.547158241271973,0.13370966911315918,0.2681349217891693,0.4072551131248474
-2.201449155807495,2.229011297225952,8.963787078857422,0.06785839796066284,0.44825291633605957,0.6322280764579773
-2.457935333251953,2.385706901550293,8.497607231140137,-0.020263273268938065,0.4349709451198578,0.8017693758010864
-2.454698324203491,2.4667747020721436,8.747004508972168,0.004852015525102615,0.3492927551269531,0.7980867028236389
-2.47367000579834,2.5281810760498047,8.895761489868164,0.15709708631038666,0.12465141713619232,0.685530424118042
-2.764479160308838,2.5043349266052246,9.274859428405762,0.34604641795158386,-0.12784536182880402,0.4972093999385834
-2.5239386558532715,2.4838979244232178,9.20088005065918,0.47450265288352966,-0.21930061280727386,0.35435420274734497
-2.1666948795318604,2.5966169834136963,8.966198921203613,0.4634547233581543,-0.12796753644943237,0.300650417804718
-1.8996553421020508,2.6552844047546387,8.952407836914062,0.39247217774391174,-0.09805259853601456,0.29764845967292786
-1.4363102912902832,2.614860773086548,9.061910629272461,0.16064010560512543,-0.07696902006864548,0.24172809720039368
-1.5450741052627563,2.690249443054199,9.095390319824219,-0.04029965400695801,-0.03087487444281578,0.1598721593618393
-1.7742278575897217,2.86898136138916,8.499837875366211,-0.10011208802461624,0.2986607551574707,0.2209586799144745
-1.8133395910263062,3.0264432430267334,8.190851211547852,-0.07974409312009811,0.41552799940109253,0.3709173798561096
-1.817285180091858,3.1980020999908447,8.115041732788086,-0.07869689911603928,0.3779161274433136,0.4259999692440033
-1.8185781240463257,3.5176472663879395,8.050914764404297,-0.0898495465517044,0.24417155981063843,0.44029420614242554
-1.8480267524719238,3.6283645629882812,8.047907829284668,-0.08454374969005585,0.1745678335428238,0.40945422649383545
-1.9521361589431763,3.828510284423828,7.968218803405762,-0.03431317210197449,0.10957176983356476,0.31899383664131165
-1.9478362798690796,3.9035637378692627,8.001794815063477,0.02555162087082863,0.0725882425904274,0.24244368076324463
-1.9782042503356934,4.032314300537109,8.117080688476562,0.019809486344456673,-0.002949606394395232,0.19130553305149078
-2.0051822662353516,4.0894975662231445,8.279953956604004,-0.0029845130629837513,-0.06588617712259293,0.1609717160463333
-1.9817955493927002,4.123121738433838,8.389714241027832,0.00029670598451048136,-0.05208062380552292,0.14782938361167908
-2.195530652999878,4.383706569671631,8.506705284118652,0.047630034387111664,0.03504621237516403,0.16523031890392303
-2.0992934703826904,4.382126331329346,8.944287300109863,0.12829914689064026,0.10252063721418381,0.13461723923683167
-1.9805889129638672,4.194899559020996,9.280576705932617,0.1812000870704651,0.08895943313837051,0.00188495556358248
-2.08636474609375,4.444040298461914,9.545097351074219,0.2041860669851303,0.15076154470443726,-0.04914847016334534
-2.127171516418457,4.305962085723877,9.234464645385742,0.3661002516746521,0.3448247015476227,0.04450589418411255
-2.1612744331359863,4.38262414932251,8.970020294189453,0.4830373227596283,0.49757590889930725,0.08953539282083511
-2.486110210418701,4.568165302276611,9.222426414489746,0.3640058636665344,0.30780625343322754,-0.014887658879160881
-2.9380972385406494,5.01021146774292,9.008567810058594,0.17200219631195068,0.015847589820623398,-0.06777113676071167
-2.20373797416687,4.4860920906066895,8.8880615234375,0.04820599406957626,-0.09297368675470352,-0.0743161216378212
-2.2756407260894775,4.629734516143799,8.959724426269531,0.005986479111015797,-0.06633996218442917,-0.09143780171871185
-2.00801682472229,4.316774368286133,9.429880142211914,0.4142538905143738,-0.19605283439159393,-0.1952674388885498
-1.9538025856018066,4.163698673248291,9.231332778930664,0.26108381152153015,-0.13557717204093933,-0.2716779410839081
-1.861539602279663,3.793976306915283,8.985860824584961,0.16655677556991577,0.007138396613299847,-0.1629962921142578
-1.739540696144104,3.505561351776123,8.809599876403809,0.13217377662658691,0.12808971107006073,-0.027262043207883835
-1.6260459423065186,3.2530975341796875,8.698987007141113,0.04351105913519859,-0.01507964450865984,-0.09402088820934296
-1.566756010055542,2.9535350799560547,8.856104850769043,0.07248352468013763,-0.09122835844755173,-0.1803274154663086
-1.6769371032714844,2.923492431640625,8.780016899108887,0.18401005864143372,-0.09738937020301819,-0.14636331796646118
-1.645285725593567,3.0620689392089844,8.654657363891602,0.30262264609336853,-0.038379788398742676,-0.03033382259309292
-1.3441239595413208,3.2128748893737793,8.573396682739258,0.32594025135040283,-0.04771730303764343,-0.019111355766654015
-1.1709178686141968,3.325038433074951,8.528712272644043,0.28475046157836914,-0.09553932398557663,-0.07295475900173187
-0.7770907878875732,3.313124895095825,8.74715805053711,0.13466960191726685,-0.24207717180252075,-0.2453583925962448
-0.7879987955093384,3.3979084491729736,9.049135208129883,-0.022916173562407494,-0.27111944556236267,-0.3975161910057068
-1.31153404712677,3.4727895259857178,8.902732849121094,-0.1687907874584198,0.03923500329256058,-0.30318114161491394
-1.4131057262420654,3.5853073596954346,8.570380210876465,-0.17852972447872162,0.20631536841392517,-0.1535366177558899
-1.649681568145752,3.7564735412597656,8.242135047912598,-0.20397663116455078,0.2096489518880844,-0.10843730717897415
-1.7538292407989502,4.077028274536133,7.958451747894287,-0.23324580490589142,0.14868459105491638,-0.1019621342420578
-1.815666675567627,4.209571361541748,7.978887557983398,-0.23554962873458862,0.09848892688751221,-0.10557496547698975
-1.962641954421997,4.39876127243042,8.079923629760742,-0.1929985135793686,0.018797196447849274,-0.07470009475946426
-1.7458996772766113,4.4327778816223145,8.181551933288574,-0.10608111321926117,-0.020926497876644135,-0.04811872914433479
-1.3441143035888672,4.656588077545166,8.519287109375,-0.08904670178890228,-0.17500416934490204,-0.18325957655906677
-1.3944692611694336,4.5799641609191895,8.650039672851562,-0.10363765060901642,-0.10499900579452515,-0.262165904045105
-1.3624731302261353,4.592442512512207,8.620543479919434,-0.10093238949775696,0.037227872759103775,-0.23815017938613892
-1.3040162324905396,4.517906188964844,8.670198440551758,-0.08197811245918274,0.11276572197675705,-0.1422617882490158
-1.448147177696228,4.640987396240234,8.53369140625,-0.049759335815906525,0.08058185130357742,-0.09529497474431992
-1.3037002086639404,4.631937503814697,8.451358795166016,-0.01624901592731476,0.021327923983335495,-0.09988519549369812
-2.532538652420044,4.838212013244629,8.903470993041992,0.08461356163024902,0.14304718375205994,0.312274307012558
-2.5643813610076904,4.574936389923096,9.186858177185059,-0.004258603323251009,-0.011431906372308731,0.29482102394104004
-2.2182180881500244,4.18984317779541,9.82709789276123,-0.08730136603116989,-0.1011069267988205,0.3026924431324005
-1.7542219161987305,3.803332805633545,9.783034324645996,-0.043999750167131424,0.0397411473095417,0.2776818871498108
-1.632835865020752,3.444556951522827,9.54325008392334,0.018325956538319588,0.14147639274597168,0.2480287402868271
-1.906550645828247,3.4526782035827637,9.049765586853027,-0.01286307629197836,0.19980528950691223,0.23420573770999908
-2.206860065460205,3.487164258956909,8.625417709350586,-0.09815731644630432,0.4216890037059784,0.2733709216117859
-2.5210654735565186,3.2905333042144775,8.240545272827148,-0.09927432984113693,0.7742804288864136,0.449876070022583
-3.214043378829956,3.3803157806396484,7.9751811027526855,-0.05199335888028145,0.9833359718322754,0.6636265516281128
-3.6369264125823975,3.307943820953369,8.166765213012695,-0.008621926419436932,1.0402860641479492,0.8330456614494324
-4.639943599700928,3.109177350997925,8.17931079864502,0.21411699056625366,0.6977477073669434,0.881199300289154
-5.151373863220215,3.0847373008728027,9.495394706726074,0.47890087962150574,0.1549677848815918,0.7345567345619202
-3.8497228622436523,3.433601140975952,8.995246887207031,0.7094588875770569,-0.45863762497901917,0.3352079391479492
-3.625098943710327,4.013773441314697,8.216286659240723,0.3880215883255005,-0.15029029548168182,0.19795523583889008
-3.2099826335906982,3.1348910331726074,7.878369331359863,-0.41200241446495056,0.20444786548614502,-0.010349802672863007
-3.593064546585083,3.687577962875366,8.107925415039062,-0.5802870392799377,0.012095131911337376,0.1675865203142166
-2.7379610538482666,4.000528812408447,8.661331176757812,-0.2195100635290146,0.139451801776886,0.5170014500617981
-2.3287441730499268,3.969088315963745,8.65613079071045,0.3891560733318329,0.6628760695457458,0.604931116104126
-2.517483711242676,4.337268352508545,7.46439266204834,0.729163646697998,0.7329684495925903,0.5402143001556396
-2.5185563564300537,4.465760707855225,6.159955024719238,0.07506661117076874,0.4508011043071747,0.6554933190345764
-2.0613884925842285,4.382298946380615,5.245839595794678,-0.1806241273880005,0.6650751829147339,0.6198362112045288
-1.9202837944030762,3.2986927032470703,5.653389930725098,-0.697189211845398,0.8275653123855591,0.43743187189102173
-1.667140007019043,3.3567090034484863,6.162665367126465,-1.039797306060791,0.6816906929016113,0.2064899057149887
-1.8452016115188599,3.979660987854004,6.551933765411377,-1.6898102760314941,0.7469136714935303,-0.22067943215370178
-3.31431245803833,5.094554424285889,8.05101203918457,-2.190126419067383,1.1786383390426636,-0.5417327284812927
-4.892598628997803,5.38603401184082,8.064427375793457,-2.1833369731903076,1.0888760089874268,-0.28841567039489746
-4.871721267700195,3.732301712036133,8.14150333404541,-1.950911521911621,0.9781174063682556,0.024748768657445908
-4.590622901916504,2.9153714179992676,8.639554023742676,-1.6605935096740723,0.7152882814407349,-0.2309943288564682
-5.0368170738220215,2.9047985076904297,8.825783729553223,-1.4250264167785645,0.4214271903038025,-0.3456624448299408
-4.654480934143066,2.6932661533355713,9.050370216369629,-1.3057156801223755,0.0990823432803154,-0.19980528950691223
-4.311334609985352,2.844550848007202,9.64814567565918,-1.1438713073730469,0.0789237916469574,0.03265510872006416
-4.087514877319336,2.942128896713257,10.034271240234375,-0.7772998213768005,0.402682363986969,0.13618804514408112
-4.353510856628418,3.336817979812622,10.02949333190918,-0.313373863697052,0.4869817793369293,0.17950710654258728
-4.686496257781982,3.2578091621398926,9.833600044250488,-0.03867649659514427,0.34842008352279663,0.0754680335521698
-5.0101637840271,3.0667614936828613,10.052611351013184,0.12486085295677185,0.42416736483573914,0.11796680092811584
-5.457314491271973,2.8477783203125,9.97055721282959,0.3497116267681122,0.3431317210197449,0.3462035059928894
-6.125038146972656,3.2535955905914307,9.728005409240723,0.24380503594875336,-0.7514864206314087,0.21204005181789398
-4.693037509918213,2.573824167251587,10.54014778137207,0.045465826988220215,-0.6491577625274658,-0.20584413409233093
-4.433831691741943,2.072622060775757,10.6360502243042,-0.02989749051630497,-0.49319514632225037,-0.4888318181037903
-4.853640556335449,1.7427585124969482,10.412958145141602,-0.3485771715641022,-0.717731773853302,-0.7243814468383789
-5.31035852432251,1.723834753036499,10.854640007019043,-0.6780429482460022,-1.194328784942627,-0.44427356123924255
-4.734916687011719,1.291719675064087,10.899956703186035,-0.7464947700500488,-1.3316513299942017,-0.2589719593524933
-3.582836389541626,0.7244853973388672,10.429142951965332,-0.5439493060112,-1.085332989692688,0.06494370102882385
-2.929535388946533,0.5335334539413452,9.928784370422363,-0.14566518366336823,-0.515692412853241,0.2468070089817047
-2.6598527431488037,0.7248014211654663,9.399922370910645,0.1581617295742035,-0.2683967351913452,0.3185400366783142
-2.5871360301971436,0.902776837348938,9.215176582336426,0.2656041979789734,-0.250611811876297,0.30864402651786804
-2.4613444805145264,0.9563207626342773,8.903078079223633,0.356518417596817,-0.4245688021183014,0.23439772427082062
-2.4253549575805664,0.8851267695426941,8.603371620178223,0.3888069987297058,-0.6093642711639404,0.13175490498542786
-1.9654767513275146,0.934169590473175,8.330242156982422,0.13664183020591736,-0.35531413555145264,-0.13400638103485107
-1.7677826881408691,0.8025267720222473,8.598851203918457,-0.03508111834526062,-0.2840348780155182,-0.25302037596702576
-1.6829705238342285,0.7246003150939941,8.965940475463867,-0.3744080364704132,-0.24506168067455292,-0.4590913951396942
-1.7256830930709839,0.683362603187561,8.924635887145996,-0.4899488389492035,-0.22108085453510284,-0.4876624345779419
-1.8806453943252563,0.6776260733604431,8.914532661437988,-0.5986828207969666,-0.26192155480384827,-0.44202208518981934
-2.038921356201172,0.6054936051368713,8.471364974975586,-0.6213197708129883,-0.22832396626472473,-0.4432612657546997
-2.3099257946014404,0.8221784234046936,8.087940216064453,-0.7330383062362671,-0.07667231559753418,-0.5187816619873047
-2.1598668098449707,1.4833993911743164,7.2734503746032715,-1.260703682899475,-0.15657348930835724,-0.3680375814437866
-1.810562252998352,1.2445539236068726,7.230249404907227,-1.5476707220077515,-0.13327334821224213,-0.521905779838562
-1.9955766201019287,0.6207494139671326,7.287815570831299,-1.8509914875030518,-0.26115360856056213,-0.7729365229606628
-2.1869115829467773,0.056886229664087296,7.958163261413574,-2.121569871902466,-0.3554362952709198,-1.0207732915878296
-2.020744562149048,0.09011774510145187,9.848969459533691,-2.1141347885131836,-0.4332256317138672,-0.9871058464050293
-2.084420680999756,0.8869463205337524,11.97607421875,-1.561720609664917,-0.49640655517578125,-0.6001314520835876
-1.7452293634414673,0.37475958466529846,12.584844589233398,-0.5267229080200195,-0.7203671932220459,-0.1817760467529297
-1.6208553314208984,-2.753264904022217,11.496582984924316,1.169039011001587,-0.18917623162269592,-0.4961971044540405
-1.1571080684661865,-2.7273404598236084,11.542398452758789,1.5312820672988892,-0.3438473045825958,-0.257436066865921
-0.8572486639022827,-2.08900785446167,11.92483901977539,1.964856743812561,-0.1347743272781372,0.013753194361925125
-1.9354629516601562,0.08529103547334671,12.096885681152344,2.3215322494506836,0.27490681409835815,0.5546481609344482
-2.5229904651641846,1.1083908081054688,11.633482933044434,2.451524257659912,0.42647120356559753,1.151219129562378
-2.303250789642334,1.3629902601242065,10.293103218078613,2.2373549938201904,0.6133959889411926,1.131636619567871
-1.4909842014312744,2.275343894958496,9.235891342163086,1.7027781009674072,0.7128099203109741,0.733474612236023
-0.7172166109085083,1.7109730243682861,8.648985862731934,1.115020990371704,0.7004006505012512,0.26310837268829346
-1.6690170764923096,2.1950807571411133,8.951967239379883,0.6895970106124878,0.7099999189376831,-0.09396852552890778
-2.4955434799194336,2.3223085403442383,9.73271656036377,0.8238303065299988,1.0435672998428345,0.08454374969005585
-4.315260887145996,1.545342206954956,9.60897445678711,-0.5980021357536316,0.308225154876709,0.4297349750995636
-4.199496746063232,1.5607608556747437,9.694745063781738,-0.09972811490297318,0.2059139460325241,0.41928043961524963
-4.35828971862793,1.2941713333129883,8.967196464538574,0.10227629542350769,0.09320057928562164,0.3956661522388458
-4.681832313537598,1.4258428812026978,8.776837348937988,-0.5563411712646484,2.306173324584961,0.09751154482364655
-5.471536159515381,2.1425325870513916,8.745530128479004,-0.43359214067459106,0.9579588770866394,-0.0916123315691948
-5.52055025100708,2.394239902496338,8.723255157470703,-0.432108610868454,-0.5517334938049316,0.027890361845493317
-5.033329963684082,2.079977035522461,9.10078239440918,0.045029494911432266,-0.7197214365005493,-0.03998549282550812
-5.271801948547363,2.41723370552063,7.783386707305908,0.07213445752859116,-0.992010235786438,-0.254591166973114
-4.686218738555908,1.9458825588226318,7.3985137939453125,-0.15081390738487244,-1.3987592458724976,-0.32510247826576233
-4.844743728637695,2.059769868850708,7.861935615539551,-0.36419785022735596,-1.8174288272857666,-0.3802723288536072
-4.546091079711914,2.335639476776123,8.591737747192383,-0.48808133602142334,-2.0654401779174805,-0.3815813362598419
-4.161371231079102,2.323859930038452,8.252517700195312,-0.48626619577407837,-1.979325532913208,-0.4297175109386444
-3.6374051570892334,1.7599680423736572,7.390019416809082,-0.6344795227050781,-1.5635182857513428,-0.5595176219940186
-3.3974103927612305,1.734053134918213,7.035495281219482,-1.0211397409439087,-1.1395952701568604,-0.615769624710083
-3.1620891094207764,2.059406042098999,7.562229633331299,-1.3952511548995972,-1.0296046733856201,-0.6019640564918518
-2.8159353733062744,1.2889615297317505,7.375759601593018,-1.607483148574829,-0.7405606508255005,-0.7093890905380249
-2.96620512008667,1.1648365259170532,6.829507827758789,-1.5956498384475708,-0.4697553813457489,-0.8311606645584106
-2.9818248748779297,1.1664167642593384,6.544847011566162,-1.6413075923919678,-0.2001718133687973,-0.8967850804328918
-2.9526634216308594,1.1203235387802124,6.980878829956055,-1.9133869409561157,0.277088463306427,-1.03913414478302
-3.1506736278533936,0.7243130207061768,9.817291259765625,-2.1711373329162598,0.07330382615327835,-1.0997145175933838
-4.679198741912842,1.7990988492965698,12.874675750732422,-1.8038501739501953,-0.9404706358909607,-0.7785564661026001
-3.9795939922332764,0.34364452958106995,11.665048599243164,-1.117464542388916,-1.439460277557373,-0.3596948981285095
-3.336425304412842,-1.2794134616851807,10.953348159790039,-0.6467666625976562,-1.149718165397644,-0.09801769256591797
-2.379098892211914,-2.401231050491333,13.147222518920898,-0.003804817795753479,-1.2138415575027466,0.02888519875705242
-1.5523045063018799,-3.1027798652648926,12.600357055664062,0.6975906491279602,-1.464662790298462,-0.03652974218130112
-0.5798373222351074,-3.3126938343048096,12.545368194580078,1.4155492782592773,-0.8103912472724915,-0.09150761365890503
-0.8867548108100891,-2.99436092376709,10.374104499816895,2.2186975479125977,0.741433322429657,-0.06927211582660675
-1.7180311679840088,-1.046543836593628,11.079896926879883,2.9637086391448975,2.3357043266296387,0.00062831852119416
-3.465740919113159,0.94327712059021,16.506793975830078,3.6777403354644775,1.9904258251190186,0.33711034059524536
-4.538247585296631,0.8662796020507812,11.028200149536133,2.636284828186035,-1.1657228469848633,0.16191419959068298
-3.5162203311920166,1.655954360961914,9.908777236938477,1.9311718940734863,-0.6426476836204529,-0.08244935423135757
-2.1994571685791016,0.767255425453186,9.41301441192627,1.6860404014587402,-0.09653416275978088,-0.005951572675257921
-2.948171854019165,1.1193945407867432,9.013517379760742,1.317880630493164,0.6253165602684021,0.43682101368904114
-2.3148193359375,1.1069926023483276,10.24421501159668,1.0891553163528442,1.030582070350647,1.0457489490509033
-2.531724452972412,1.3966047763824463,8.788923263549805,0.9162978529930115,1.3772741556167603,1.2605291604995728
-2.396308422088623,1.7804144620895386,8.354605674743652,0.6891607046127319,1.4810340404510498,0.9542587399482727
-2.628718376159668,2.0378293991088867,8.321651458740234,0.4673991799354553,0.826797366142273,0.4396135210990906
-2.3502919673919678,2.0398213863372803,8.91149616241455,0.35091590881347656,0.031381018459796906,0.2451314926147461
-1.8361036777496338,1.739109754562378,9.094039916992188,0.5529552102088928,-0.6289992332458496,0.1978330761194229
-1.036449909210205,2.404630661010742,8.120070457458496,-0.1459967941045761,-0.26741933822631836,-0.13657201826572418
-1.5840516090393066,2.6247918605804443,8.879155158996582,-0.16009904444217682,-0.3694862127304077,-0.19655898213386536
-1.8039255142211914,2.725980520248413,9.024216651916504,-0.06195918843150139,-0.3690324127674103,-0.14269812405109406
-2.1037275791168213,2.936478614807129,8.84597110748291,0.17475982010364532,-0.17734290659427643,0.033423054963350296
-2.0357799530029297,3.084306240081787,8.382061958312988,0.23408356308937073,-0.06007423251867294,0.12941616773605347
-1.9529023170471191,3.4885048866271973,8.125584602355957,0.0674046128988266,0.02028072625398636,0.10101965814828873
-1.9470126628875732,3.6715848445892334,8.40395450592041,-0.058712877333164215,0.13603095710277557,0.07789404690265656
-1.965993881225586,3.8930962085723877,8.628769874572754,-0.00062831852119416,0.1535191535949707,0.11828096210956573
-1.6591242551803589,4.067384719848633,8.713667869567871,0.12060225009918213,0.006894050631672144,0.14236651360988617
-1.4079246520996094,4.422243595123291,8.384360313415527,0.11588986217975616,0.17636552453041077,0.021188296377658844
-1.439365267753601,4.550170421600342,8.402308464050293,0.018657568842172623,0.15887732803821564,0.0010122909443452954
-1.7388415336608887,4.669526100158691,8.863247871398926,0.0042236968874931335,-0.024294983595609665,-0.004136430099606514
-1.8217480182647705,4.649338245391846,8.697455406188965,0.07339109480381012,0.022357666864991188,0.06244787946343422
-2.050145149230957,4.850642681121826,8.730120658874512,0.17767451703548431,0.3225892186164856,0.13405874371528625
-2.077486991882324,4.99097204208374,8.705307006835938,0.17701129615306854,0.4602956771850586,0.21820105612277985
-2.151611566543579,4.878080368041992,9.009169578552246,0.13515830039978027,0.31984904408454895,0.23544491827487946
-2.227191686630249,4.776815414428711,9.115348815917969,0.09894271194934845,0.07443828880786896,0.20991075038909912
-1.9572023153305054,4.823741436004639,9.227511405944824,0.08836601674556732,-0.048921577632427216,0.20664697885513306
-1.7953064441680908,4.7315168380737305,9.275472640991211,0.10362019389867783,-0.005113814491778612,0.16788321733474731
-2.0945911407470703,4.715878009796143,9.349587440490723,0.2235243171453476,0.14849261939525604,0.21914353966712952
-2.4485020637512207,4.584417343139648,9.29318904876709,0.3791029751300812,0.29735174775123596,0.3444232642650604
-2.819114923477173,4.694358825683594,8.976119995117188,0.3871314823627472,0.3649134337902069,0.46787041425704956
-2.8588204383850098,4.638411045074463,8.900071144104004,0.26597073674201965,0.2269800752401352,0.4565606713294983
-2.822399854660034,4.66016960144043,8.60183048248291,0.176836758852005,0.10260790586471558,0.39423495531082153
-2.729811191558838,4.42503023147583,8.995830535888672,0.05267403647303581,-0.01771509274840355,0.29913198947906494
-2.5347506999969482,3.9744513034820557,9.559349060058594,0.05457644537091255,-0.09728465229272842,0.25129249691963196
-2.422663927078247,3.5460424423217773,9.831626892089844,0.054105207324028015,-0.1382649838924408,0.1858077496290207
-2.4391839504241943,3.2236104011535645,9.692571640014648,0.06628760695457458,-0.031730085611343384,0.16091935336589813
-2.5724737644195557,3.1577603816986084,9.460267066955566,0.10609856247901917,0.05483824387192726,0.19544197618961334
-2.7860653400421143,3.2187933921813965,8.639619827270508,0.2519382834434509,0.2512401342391968,0.3499385118484497
-3.053852081298828,3.5312750339508057,7.3427958488464355,0.3545985519886017,0.3913551867008209,0.48926815390586853
-3.374617576599121,3.701292037963867,6.428067207336426,0.22736403346061707,0.362417608499527,0.5174202919006348
-3.2346620559692383,3.883490800857544,7.178754806518555,-0.013089969754219055,0.11323696374893188,0.4622330069541931
-3.7666919231414795,4.313230991363525,8.226457595825195,-0.026912976056337357,-0.1805892139673233,0.37433820962905884
-3.4654345512390137,4.245264053344727,8.584342956542969,0.13388420641422272,-0.2889043390750885,0.3886150121688843
-2.7453160285949707,4.323037624359131,8.40323543548584,0.19177678227424622,-0.25127506256103516,0.39337974786758423
-1.9544346332550049,4.283945083618164,8.294750213623047,0.08290313929319382,-0.23689353466033936,0.19144517183303833
-1.7798782587051392,4.095358371734619,8.504674911499023,-0.05527457594871521,-0.17840754985809326,-0.07819075137376785
-2.3774325847625732,4.170814037322998,8.325989723205566,-0.07895869761705399,0.09526006877422333,-0.13287191092967987
-2.7983429431915283,4.5531392097473145,7.23091983795166,0.08129743486642838,0.40509092807769775,0.2569648325443268
-2.446634531021118,4.8454999923706055,7.2499775886535645,0.05743878707289696,0.21813124418258667,0.20900318026542664
-2.826709270477295,5.059800148010254,6.970602989196777,0.023230332881212234,0.11939797550439835,0.08271115273237228
-2.963705539703369,4.95289421081543,7.007646083831787,-0.07937757670879364,0.04689699783921242,0.096220001578331
-3.0599524974823,5.088109493255615,7.577630043029785,-0.15913912653923035,-0.08511970937252045,0.1495048999786377
-2.939495325088501,5.098174571990967,8.098214149475098,-0.11597713083028793,-0.15976743400096893,0.15259413421154022
-2.944580554962158,5.163028717041016,8.47916030883789,-0.012444197200238705,-0.07244861871004105,0.22823670506477356
-2.8767099380493164,5.371199607849121,8.286628723144531,0.021293016150593758,0.11843804270029068,0.3179989755153656
-2.4831700325012207,5.499500274658203,8.122214317321777,0.056670840829610825,0.29707249999046326,0.3880041539669037
-2.351757287979126,5.611922264099121,7.890340328216553,0.07852236181497574,0.3364820182323456,0.3807784914970398
-2.494518756866455,5.846899032592773,7.988502502441406,0.06988298147916794,0.20092229545116425,0.3092897832393646
-2.59596586227417,5.792464256286621,8.47022533416748,0.09028588235378265,-0.01719149388372898,0.20144590735435486
-2.5918381214141846,5.527743339538574,8.618684768676758,0.13749703764915466,-0.022654373198747635,0.20200440287590027
-2.328274965286255,5.280114650726318,8.738730430603027,0.14327408373355865,0.1077042669057846,0.2627243995666504
-2.412320852279663,5.529082775115967,8.540328025817871,0.15414747595787048,0.22134265303611755,0.2808758318424225
-1.7504582405090332,4.738603591918945,8.790454864501953,-0.05267403647303581,-0.05190609022974968,0.01021017599850893
-1.469685435295105,4.300838470458984,8.279523849487305,-0.1563815027475357,0.41229912638664246,0.08531169593334198
-1.4576090574264526,4.071579456329346,7.931290626525879,-0.21579250693321228,0.7527256011962891,0.14021974802017212
-1.4401601552963257,3.2019765377044678,7.9343743324279785,-0.3347017765045166,0.737803041934967,0.07651523500680923
-1.0122971534729004,3.448119640350342,8.859456062316895,-0.34786155819892883,0.27516859769821167,-0.0858178362250328
-1.9833470582962036,3.6281251907348633,7.99260139465332,-0.27841493487358093,0.12674580514431,-0.17842501401901245
-1.9180810451507568,3.407686233520508,8.2521333694458,-0.20807814598083496,0.027052603662014008,-0.3035127520561218
-1.97268807888031,2.8869473934173584,8.377839088439941,-0.26890286803245544,0.0844041258096695,-0.30283206701278687
-1.7286614179611206,2.634004831314087,8.53853702545166,-0.3669031262397766,0.05953317880630493,-0.3098483085632324
-1.5873748064041138,2.721421957015991,8.413301467895508,-0.4616395831108093,0.023055799305438995,-0.39104101061820984
-1.5149263143539429,2.9969754219055176,8.648221015930176,-0.6801373362541199,0.09182177484035492,-0.6223669648170471
-2.6624670028686523,3.4333903789520264,7.157101631164551,-0.5889962315559387,0.6626491546630859,-0.2958856523036957
-2.5801353454589844,4.013151168823242,8.717948913574219,-0.7038389444351196,0.5732359290122986,-0.3680550456047058
-3.41263747215271,3.72656512260437,8.632026672363281,-0.47973865270614624,0.502968966960907,-0.09082693606615067
-2.987523078918457,3.7392449378967285,8.431076049804688,-0.4288623034954071,0.8106530904769897,-0.012618730776011944
-2.9435081481933594,3.498196601867676,7.710708141326904,-0.5166698098182678,1.3352117538452148,-0.2304009199142456
-3.374004602432251,3.855478525161743,8.710402488708496,-0.5796064138412476,1.4547842741012573,-0.2995333969593048
-4.37395715713501,2.660494327545166,8.700068473815918,-0.4836307466030121,2.359126567840576,0.06843435764312744
-5.701197147369385,3.574035406112671,8.722354888916016,-0.34688419103622437,0.316218763589859,-0.17845991253852844
-5.445075035095215,2.94887113571167,9.498383522033691,-0.4179888963699341,-0.1411447823047638,0.11658799648284912
-5.90236759185791,3.1609206199645996,10.193169593811035,-0.004834562074393034,0.10012953728437424,0.27433085441589355
-6.230737209320068,2.876412868499756,10.106700897216797,0.24699899554252625,-0.2223549485206604,0.4519006609916687
-5.971177101135254,2.91231632232666,10.092708587646484,0.3611784279346466,-0.6305874586105347,0.4749389886856079
-5.265174865722656,3.167835235595703,9.054803848266602,0.3301639258861542,-1.351129174232483,0.3597123622894287
-4.486255168914795,3.0091474056243896,8.573904037475586,0.20371483266353607,-1.5943058729171753,0.38381534814834595
-4.278543472290039,3.098613977432251,9.142756462097168,0.07939502596855164,-1.7228668928146362,0.48773226141929626
-3.912604331970215,3.6301651000976562,9.759368896484375,0.06232570856809616,-1.7574069499969482,0.5042605400085449
-3.457064390182495,3.668194532394409,9.80801010131836,0.3284360468387604,-1.5084706544876099,0.471273809671402
-3.111514091491699,3.2312910556793213,9.422811508178711,0.5779832601547241,-0.8182278275489807,0.3894353210926056
-2.9811832904815674,2.8502109050750732,8.972749710083008,0.5216265320777893,-0.44285982847213745,0.4617617726325989
-3.285400152206421,2.9553449153900146,9.331927299499512,0.33194416761398315,-0.6198187470436096,0.5899561643600464
-3.0378682613372803,2.909749746322632,9.176267623901367,0.3246661424636841,-0.7525161504745483,0.5967280864715576
-2.72332763671875,4.379464149475098,7.762423038482666,0.20931734144687653,0.1851968914270401,0.17385224997997284
-2.8640875816345215,4.626641273498535,7.613714218139648,0.18151424825191498,-0.00031415926059708,0.10508627444505692
-2.953697681427002,4.760036468505859,7.687064170837402,-0.004014257341623306,-0.1604481190443039,0.016441000625491142
-2.9910855293273926,4.749119281768799,8.18808364868164,-0.0630761981010437,-0.19591321051120758,-0.007051130291074514
-3.043863534927368,4.820303440093994,8.514442443847656,0.018238689750432968,-0.19825194776058197,0.028780478984117508
-2.994025707244873,4.952654838562012,8.430654525756836,0.18025760352611542,-0.160151407122612,0.08847074210643768
-2.8449723720550537,4.955240726470947,8.413176536560059,0.24179790914058685,-0.1402372121810913,0.11447614431381226
-2.606107711791992,5.048001766204834,7.869673728942871,0.22547908127307892,-0.08112290501594543,0.08536405116319656
-2.5343103408813477,5.0324201583862305,7.862174987792969,0.052377332001924515,-0.05508258938789368,0.0047996556386351585
-2.738229274749756,5.1080193519592285,8.307774543762207,-0.026337018236517906,-0.05085889250040054,-0.021694442257285118
-2.402456760406494,5.259716033935547,7.752712249755859,0.2203827202320099,-0.08047713339328766,0.017069319263100624
-2.605715036392212,5.34022855758667,7.681288242340088,0.004852015525102615,-0.11431906372308731,-0.08375835418701172
-3.018676519393921,5.332491397857666,8.031952857971191,-0.041521381586790085,-0.07265805453062057,-0.04605923965573311
-3.137505531311035,5.188138961791992,8.362764358520508,0.05391322076320648,0.009110618382692337,0.15976743400096893
-2.855018377304077,5.2668890953063965,8.232385635375977,0.17435839772224426,0.011554080061614513,0.29963812232017517
-2.545064926147461,5.455025672912598,8.290239334106445,0.22305308282375336,-0.2522524297237396,0.1880766749382019
-2.4428327083587646,4.90505838394165,8.787074089050293,-0.060877084732055664,0.282813161611557,0.17634806036949158
-2.5307765007019043,4.685299396514893,8.613686561584473,-0.14161601662635803,0.17463764548301697,0.0630587488412857
-2.6611838340759277,4.183560848236084,8.54079818725586,-0.17378243803977966,0.3041934370994568,0.21846285462379456
-2.6114706993103027,3.765408754348755,8.215310096740723,-0.10278243571519852,0.7453428506851196,0.48513171076774597
-2.0876097679138184,3.3822598457336426,8.095609664916992,-0.056531213223934174,1.0613521337509155,0.5537406206130981
-2.0543782711029053,3.557659149169922,7.697932720184326,-0.14868459105491638,1.066029667854309,0.33805280923843384
-2.7742857933044434,4.0138983726501465,7.481152057647705,-0.32705724239349365,0.959739089012146,0.21298252046108246
-3.1951003074645996,3.8826000690460205,7.626585483551025,-0.42100831866264343,0.8428718447685242,0.3100053668022156
-1.72804856300354,3.2804489135742188,7.296530723571777,-0.38988909125328064,0.746442437171936,0.2598271667957306
-1.5805944204330444,3.2112181186676025,7.727438926696777,-0.6388952136039734,0.8126602172851562,-0.07295475900173187
-2.0591378211975098,2.829821825027466,8.373807907104492,-0.8015075325965881,0.6541494131088257,-0.37083011865615845
-3.2623486518859863,2.6033685207366943,9.05682373046875,-0.7519576549530029,0.43732714653015137,-0.4297175109386444
-3.628939151763916,2.4544970989227295,8.991769790649414,-0.6621953845024109,0.3661002516746521,-0.3358536958694458
-3.7711355686187744,2.675568103790283,8.173171997070312,-0.5515240430831909,0.37857937812805176,-0.0506843626499176
-3.920323133468628,3.2178070545196533,7.813390731811523,-0.5659753680229187,0.33658674359321594,0.1843242198228836
-3.823338747024536,3.45200777053833,7.855145454406738,-0.7135254740715027,0.3335324227809906,0.20240582525730133
-4.796916961669922,3.84692645072937,9.489398956298828,-0.4928809702396393,0.08454374969005585,0.25996679067611694
-4.371074676513672,3.673232078552246,8.93587875366211,-0.2344151735305786,0.07347836345434189,0.5237383842468262
-3.3228261470794678,3.468748092651367,8.223670959472656,-0.3510904312133789,0.676751434803009,0.47649234533309937
-4.459324836730957,3.5151476860046387,8.181331634521484,-0.4675388038158417,1.0381044149398804,0.7188487648963928
-3.404564142227173,3.3148581981658936,8.089404106140137,-0.5077162981033325,0.9768258929252625,0.6270793676376343
-3.472463846206665,3.1756882667541504,7.602538108825684,-0.6794043183326721,1.026689887046814,0.39877283573150635
-4.414313793182373,3.3894615173339844,8.218757629394531,-0.7352548241615295,0.9643816947937012,0.3436727821826935
-4.775062561035156,3.3902947902679443,8.355447769165039,-0.6888290643692017,0.8945859670639038,0.44861942529678345
-4.7926554679870605,3.1879656314849854,8.446858406066895,-0.6059783101081848,0.7367733120918274,0.6494719386100769
-4.507486820220947,3.1184093952178955,8.169025421142578,-0.6475695371627808,0.63250732421875,0.6709394454956055
-4.758456707000732,3.4784493446350098,7.8870649337768555,-0.7216238379478455,1.2115027904510498,0.45211008191108704
-4.360980987548828,3.0568017959594727,8.98460578918457,-0.6124185919761658,1.768838882446289,0.39217549562454224
-4.9562177658081055,3.527118682861328,7.995838642120361,-0.533878743648529,2.4106836318969727,0.32915163040161133
-6.909857273101807,4.2203264236450195,7.4330573081970215,-0.7247130870819092,-0.29255208373069763,0.16788321733474731
-6.673760414123535,3.0421204566955566,9.990898132324219,-0.47363001108169556,-0.1218414381146431,0.2811725437641144
-6.737005710601807,2.939026117324829,9.593709945678711,-0.09311331808567047,0.19910715520381927,0.3404090106487274
-6.982746601104736,2.8019628524780273,9.514549255371094,0.02808234840631485,0.0028623400721699,0.39304813742637634
-7.53064489364624,3.2066404819488525,8.714032173156738,0.08595746755599976,-1.0601129531860352,0.39217549562454224
-6.8154215812683105,3.3579156398773193,8.526528358459473,-0.05487314984202385,-1.879422903060913,0.3079284429550171
-5.64717435836792,3.0441219806671143,8.831156730651855,-0.11653563380241394,-2.083923101425171,0.16844172775745392
-4.730071067810059,3.3246936798095703,9.085440635681152,-0.14407692849636078,-2.0487372875213623,0.04977678880095482
-3.925389289855957,3.4852967262268066,9.762884140014648,-0.19001398980617523,-2.4883158206939697,-0.1644274741411209
-3.2132675647735596,2.7746689319610596,8.471596717834473,-0.14337879419326782,-1.8666296005249023,0.08126252889633179
-1.744961142539978,1.8581973314285278,9.06419849395752,0.12491321563720703,-0.8171980381011963,0.3193952441215515
-1.3038151264190674,1.5135568380355835,8.881147384643555,0.4787263572216034,-0.12426744401454926,0.47802823781967163
-1.8770731687545776,1.9162328243255615,8.592896461486816,0.6401867866516113,0.37660714983940125,0.6133959889411926
-2.7153501510620117,2.622091293334961,9.03580379486084,0.465444415807724,0.6696130037307739,0.6686705350875854
-3.020630121231079,2.519188404083252,8.828340530395508,0.020088739693164825,0.3474426865577698,0.618858814239502
-3.0864322185516357,2.0084285736083984,8.347652435302734,-0.32337459921836853,0.010471975430846214,0.5436351299285889
-3.1461052894592285,1.8493866920471191,8.154229164123535,-0.4665614068508148,-0.18254399299621582,0.6129770874977112
-3.23922061920166,2.000068187713623,8.151251792907715,-0.4723035395145416,-0.2082352340221405,0.6997897624969482
-3.4715349674224854,2.3212168216705322,8.500077247619629,-0.32525956630706787,-0.13634511828422546,0.8826653361320496
-3.528536081314087,2.341155767440796,8.309134483337402,0.05541420355439186,0.12536700069904327,0.9562135338783264
-3.5655791759490967,3.0075769424438477,7.950387001037598,0.10372491925954819,0.4213748276233673,0.6981316804885864
-3.6895318031311035,2.7877891063690186,8.240927696228027,-0.1765749603509903,0.16224581003189087,0.6147922277450562
-3.3929953575134277,2.3120996952056885,8.659932136535645,-0.4513944983482361,0.7621329426765442,0.6282486915588379
-3.9575865268707275,2.219731330871582,7.176427841186523,-0.2686759829521179,1.0791021585464478,0.7502647042274475
-4.450140953063965,2.869211196899414,8.57387638092041,-0.07586946338415146,0.27115434408187866,0.5557128190994263
-3.281913995742798,3.14194917678833,8.321737289428711,-0.2301216572523117,-0.008848818950355053,0.35674530267715454
-2.8191723823547363,3.1750752925872803,8.072338104248047,-0.7229852080345154,-0.1422617882490158,-0.04876450076699257
-4.488898277282715,2.932399034500122,9.063431739807129,-0.882089376449585,-0.05403539165854454,-0.24160592257976532
-4.649032115936279,2.755821704864502,9.767606735229492,-0.31667253375053406,-0.25502750277519226,0.10555751621723175
-3.837062358856201,2.9613208770751953,9.480043411254883,0.33546972274780273,-0.5375439524650574,0.5002113580703735
-2.9886722564697266,3.4990010261535645,8.5723237991333,0.607200026512146,-0.4115835428237915,0.5644744038581848
-2.7453830242156982,3.5764009952545166,7.217406749725342,-0.10264281183481216,-0.026319565251469612,0.0071907564997673035
-3.6118733882904053,3.3619091510772705,7.934604167938232,-0.5760807991027832,0.07817329466342926,0.03689625859260559
-3.72678542137146,3.035895586013794,8.92033576965332,-0.6908711194992065,0.1857553869485855,0.31410691142082214
-3.487039804458618,2.8762309551239014,9.161699295043945,-0.41659262776374817,0.34260812401771545,0.5133711695671082
-3.2908971309661865,3.053966999053955,8.9858980178833,-0.028797931969165802,0.051260318607091904,0.48743554949760437
-3.3541135787963867,3.0345451831817627,8.885773658752441,0.056845374405384064,0.02984512969851494,0.43340015411376953
-3.4455337524414062,3.1043217182159424,8.761466026306152,0.2157226949930191,0.3197617828845978,0.5034053325653076
-3.3142359256744385,3.0104498863220215,8.392068862915039,0.319133460521698,0.7123037576675415,0.6172531247138977
-4.438725471496582,4.069491386413574,7.714395523071289,-0.1976236253976822,1.2574747800827026,0.7403512001037598
-4.768742084503174,4.206219673156738,7.671912670135498,-0.41861721873283386,1.1862130165100098,0.8274082541465759
-4.216868877410889,3.7475576400756836,7.612728118896484,-0.25644123554229736,1.5079818964004517,0.814457893371582
-3.453578233718872,3.934056282043457,7.246625900268555,-0.3404613733291626,1.6965821981430054,0.4357738196849823
-5.603944778442383,3.474724054336548,10.146139144897461,-0.8806582093238831,0.041521381586790085,-0.17786650359630585
-6.5699381828308105,3.301527500152588,10.42937183380127,-0.6562612652778625,-0.8224340677261353,-0.5448045134544373
-5.030313491821289,1.6644680500030518,9.618840217590332,-0.5183976888656616,-0.14578735828399658,-0.3885102868080139
-5.441713809967041,1.7788535356521606,10.323749542236328,-0.7457792162895203,0.2398955076932907,-0.069708451628685
-5.509517669677734,2.2706990242004395,11.868019104003906,-0.5312607884407043,0.1399579495191574,0.1443212777376175
-4.966522216796875,2.9280128479003906,11.10848331451416,0.1281769871711731,0.1186823919415474,0.2845759391784668
-3.9482874870300293,2.5393285751342773,10.041407585144043,0.6743952035903931,0.1385442316532135,0.26110124588012695
-3.5216119289398193,2.7386794090270996,8.94219970703125,0.8105483651161194,0.045151665806770325,0.006667157635092735
-3.602220058441162,2.807354688644409,9.084951400756836,0.5346816182136536,-0.13112658262252808,-0.23741713166236877
-4.145598411560059,2.7422897815704346,9.234014511108398,0.25162410736083984,-0.4429645538330078,-0.25298547744750977
-3.759902000427246,2.391596794128418,9.323070526123047,0.255236953496933,-0.6166248321533203,-0.12507028877735138
-3.1352548599243164,2.2293176651000977,9.356492042541504,0.3646865487098694,-0.6835582256317139,-0.053354714065790176
-2.724151372909546,1.8978739976882935,8.99376106262207,0.3297799527645111,-0.74068284034729,-0.12035790830850601
-3.1897757053375244,2.3159687519073486,8.965930938720703,0.2503500282764435,-0.8596968054771423,-0.18245671689510345
-3.332240104675293,2.2374770641326904,8.641488075256348,0.2050761878490448,-0.787632167339325,-0.13173745572566986
-2.9123547077178955,2.058534622192383,7.713830471038818,0.11852531135082245,-0.49036771059036255,-0.083531454205513
-3.1910972595214844,2.5183169841766357,8.227031707763672,-0.7359181046485901,-0.8216661214828491,0.2704038619995117
-2.516794204711914,2.9833762645721436,8.536650657653809,-0.6281788945198059,-0.36859607696533203,0.24239133298397064
-1.9802154302597046,2.1007587909698486,8.970001220703125,-0.27804839611053467,0.18161895871162415,0.21422171592712402
-2.775665044784546,2.6163547039031982,9.292777061462402,0.04120722413063049,0.08384561538696289,0.21610666811466217
-3.105346441268921,2.670358419418335,9.18460750579834,0.1984788477420807,-0.23380430042743683,0.3226415514945984
-2.8949153423309326,2.700429677963257,8.87134075164795,0.2090729922056198,-0.41348594427108765,0.3278251886367798
-2.7131857872009277,2.739187002182007,8.625216484069824,0.09569640457630157,-0.3761184513568878,0.33051300048828125
-2.66327166557312,2.76832914352417,8.584897994995117,0.015306537039577961,-0.3049788177013397,0.3429920971393585
-2.5405831336975098,2.8262975215911865,8.763994216918945,-0.09110618382692337,-0.15606734156608582,0.3966609835624695
-2.7563390731811523,2.9601237773895264,8.695415496826172,0.024731315672397614,0.29157471656799316,0.6206390857696533
-2.739962577819824,3.086489677429199,8.284473419189453,-0.016510814428329468,0.29684558510780334,0.6355965733528137
-2.6164026260375977,3.0634288787841797,8.309440612792969,-0.1581268310546875,0.2370331585407257,0.545467734336853
-2.540994882583618,3.057816743850708,8.812625885009766,-0.48832565546035767,0.39563122391700745,0.39421752095222473
-2.4858899116516113,3.1132569313049316,9.33471393585205,-0.42612212896347046,0.47994810342788696,0.4665963351726532
-2.6166133880615234,3.12835955619812,9.370025634765625,-0.2180439829826355,0.42013564705848694,0.530405580997467
-2.639779567718506,3.0835018157958984,8.99921989440918,-0.027035150676965714,0.31237903237342834,0.45806166529655457
-2.4596877098083496,3.119549036026001,8.79000473022461,-0.03164282068610191,0.27895596623420715,0.3030589818954468
-2.352724552154541,2.978224039077759,8.856975555419922,-0.1943947672843933,0.3015754520893097,0.24179790914058685
-2.353471517562866,3.0007102489471436,8.769692420959473,-0.28187066316604614,0.3314903974533081,0.25277602672576904
-2.725463390350342,3.0084197521209717,8.62187385559082,-0.42177626490592957,0.45062655210494995,0.3131644129753113
-2.8598642349243164,2.9247758388519287,8.551436424255371,-0.5219407081604004,0.6449689865112305,0.35992178320884705
-2.656644344329834,2.8508524894714355,8.543766975402832,-0.563811182975769,0.8641997575759888,0.3554013967514038
-3.0233500003814697,2.964519500732422,8.917357444763184,-0.5992064476013184,0.7714878916740417,0.3332008123397827
-3.4412434101104736,2.9417364597320557,9.00531005859375,-0.5202826261520386,0.5981767177581787,0.40397390723228455
-3.8935751914978027,2.5564136505126953,8.923103332519531,-0.3214372992515564,0.656069278717041,0.5424832105636597
-3.9317100048065186,2.3413758277893066,9.530329704284668,-0.3531499207019806,0.533494770526886,0.5072275996208191
-3.664545774459839,1.6668719053268433,10.1736421585083,-0.2807536721229553,0.49815186858177185,0.43851396441459656
-3.5932655334472656,2.087667226791382,10.021994590759277,-0.12840387225151062,0.6591235995292664,0.5740038752555847
-4.193693161010742,1.8131959438323975,10.023468971252441,-0.07588691264390945,0.5682268142700195,0.6066939234733582
-4.591465950012207,1.5844155550003052,10.157812118530273,0.08321730047464371,0.4944866895675659,0.5747194886207581
-4.789485454559326,1.8019814491271973,9.57174015045166,0.4219333529472351,0.7611031532287598,0.7412936687469482
-4.72108793258667,2.1060259342193604,8.828475952148438,0.5940053462982178,0.8527154922485352,1.007020115852356
-4.83498477935791,2.634378433227539,8.333756446838379,0.4130845367908478,0.40564942359924316,1.060706377029419
-4.279980182647705,2.333130359649658,7.815842628479004,-0.3401821255683899,0.3142988979816437,0.48888418078422546
-5.1263017654418945,2.1997923851013184,7.557048320770264,-0.36559411883354187,0.3825587034225464,0.4884129464626312
-5.035208225250244,1.7904223203659058,8.205982208251953,-0.3862588107585907,-0.11908381432294846,0.7900232672691345
-5.059953689575195,1.8565980195999146,8.331917762756348,-0.1822996437549591,0.1785820871591568,0.7669500112533569
-5.456998348236084,1.8194400072097778,8.240602493286133,-0.1981646865606308,0.13383184373378754,0.695443868637085
-5.435421943664551,1.7836132049560547,8.185880661010742,-0.2894802987575531,0.03825761750340462,0.6467841267585754
-5.160031318664551,1.7317068576812744,8.435672760009766,-0.48581239581108093,-0.11681488901376724,0.5598317980766296
-4.879899978637695,1.691819429397583,8.656936645507812,-0.5701292753219604,-0.0711396187543869,0.532360315322876
-4.743899822235107,1.7020666599273682,8.50279712677002,-0.5754874348640442,0.09292133152484894,0.5535486340522766
-4.780664920806885,1.8223226070404053,8.422983169555664,-0.5854008793830872,0.2754129469394684,0.5978800058364868
-4.992532730102539,1.9370431900024414,8.414488792419434,-0.37718310952186584,0.7324623465538025,0.8033750653266907
-5.1724042892456055,1.969680905342102,8.345152854919434,-0.1569923609495163,0.9668251276016235,1.035643458366394
-5.333792686462402,2.0846121311187744,7.943759918212891,-0.05873033031821251,0.9548870921134949,1.2177162170410156
-6.537769794464111,2.783154010772705,8.060194969177246,-0.3471110761165619,0.2231752574443817,1.2909677028656006
-4.990234375,2.550715446472168,8.627352714538574,-0.4580267667770386,-0.1417032778263092,0.968989372253418
-4.529025077819824,2.6418864727020264,8.712480545043945,-0.3761882781982422,0.3121695816516876,0.5310338735580444
