accX,accY,accZ,gyroX,gyroY,gyroZ
-0.7232306599617004,0.036191441118717194,9.068798065185547,-0.061619218438863754,-0.22166119515895844,0.03565821051597595
-0.857228696346283,0.5437689423561096,8.94676399230957,-0.05169294774532318,-0.06284090876579285,-0.06757497787475586
-1.1733803749084473,0.9266205430030823,9.19561767578125,-0.06223006546497345,0.141182079911232,-0.05047125369310379
-1.3193426132202148,0.9699904918670654,9.631410598754883,-0.021837789565324783,0.3146626949310303,0.06192464008927345
-1.348056435585022,0.6634100675582886,9.937990188598633,0.03588727489113808,0.3232145607471466,0.16332527995109558
-1.230808138847351,0.46480581164360046,10.002596855163574,0.048333290964365005,0.21204034984111786,0.19508934020996094
-1.20687997341156,0.4336991012096405,9.789336204528809,0.011071606539189816,0.11980241537094116,0.1877591758966446
-1.2212368249893188,0.4169493317604065,9.667302131652832,-0.06223006546497345,0.11980241537094116,0.18959172070026398
-1.2738789319992065,0.41934216022491455,9.777372360229492,-0.08712209016084671,0.1796654462814331,0.19570018351078033
-1.3719847202301025,0.43609192967414856,9.92124080657959,-0.044820915907621384,0.24197186529636383,0.22990763187408447
-1.328913927078247,0.27308088541030884,10.03848934173584,-0.015042114071547985,0.27740100026130676,0.27266693115234375
-1.257129192352295,0.13190434873104095,10.012167930603027,-0.05543438717722893,0.24746949970722198,0.27144524455070496
-1.226022481918335,0.04576273262500763,9.902098655700684,-0.12064233422279358,0.20043425261974335,0.23051849007606506
-1.2667005062103271,0.055334024131298065,9.85394287109375,-0.15233004093170166,0.19982340931892395,0.19753272831439972
-1.3265210390090942,0.13190434873104095,9.909276962280273,-0.1498102843761444,0.22486814856529236,0.19325679540634155
-1.3767703771591187,0.24915266036987305,10.153345108032227,-0.11254860460758209,0.2963372766971588,0.21707984805107117
-1.3360923528671265,0.134297177195549,10.24905776977539,-0.06841489672660828,0.3146626949310303,0.2506764531135559
-1.1207382678985596,-0.31824541091918945,9.978668212890625,-0.1050657257437706,0.03367295488715172,0.09246700257062912
-1.1877373456954956,-0.09780662506818771,9.547661781311035,-0.14301460981369019,-0.052456509321928024,-0.004657710436731577
-1.4054841995239258,0.1989033818244934,9.540482521057129,-0.2044811248779297,-0.005421269219368696,-0.019318044185638428
-1.5302101373672485,0.23001007735729218,9.576375007629395,-0.23739051818847656,0.0293970238417387,-0.01748550310730934
-1.7934205532073975,0.16540385782718658,9.86829948425293,-0.31260108947753906,0.04100312292575836,0.002672456670552492
-1.8436698913574219,0.3233301639556885,10.009775161743164,-0.34489962458610535,0.05138752609491348,0.03443651273846626
-2.3512473106384277,0.8524430394172668,9.554840087890625,-0.34306707978248596,0.07093463838100433,0.1492757946252823
-1.8819550275802612,-0.1576271951198578,10.46471118927002,-0.40331190824508667,0.028786176815629005,0.3594072461128235
-1.8747764825820923,-1.350150227546692,13.165011405944824,-0.22937314212322235,-0.006642963737249374,0.3038201630115509
-1.690529227256775,-1.9438693523406982,13.50748348236084,0.25709033012390137,-0.7054522037506104,0.0014507622690871358
-1.1015957593917847,-2.2932214736938477,12.964014053344727,0.6435275673866272,-1.3169866800308228,-0.1139993667602539
-0.2228316068649292,-1.2589237689971924,11.230712890625,0.8622109293937683,-1.6761648654937744,-0.3229091465473175
-0.18454644083976746,-0.06191428750753403,9.902098655700684,0.8982508778572083,-1.4574815034866333,-0.4188121557235718
0.48095735907554626,-0.4091726839542389,9.499805450439453,0.8248728513717651,-1.2473500967025757,-0.5354839563369751
0.5431707501411438,0.4863412082195282,8.570791244506836,0.6366555690765381,-1.243685007095337,-0.7034669518470764
0.6436693072319031,1.0704890489578247,8.130212783813477,0.3670428395271301,-1.1960389614105225,-0.7639408707618713
0.21296121180057526,1.5780665874481201,8.01775074005127,0.051463883370161057,-1.180156946182251,-0.6655944585800171
0.4019941985607147,2.025524377822876,8.386544227600098,-0.256708562374115,-1.1618314981460571,-0.3998758792877197
1.1392827033996582,1.5230315923690796,7.725826263427734,-0.5840463638305664,-1.0708152055740356,-0.23616881668567657
2.0347964763641357,0.9723833203315735,7.359425067901611,-0.8748096227645874,-0.3713187873363495,-0.3119138777256012
1.7736797332763672,0.7208378314971924,7.840681552886963,-1.1183849573135376,0.458822637796402,-0.3406237065792084
1.0914262533187866,0.34247273206710815,9.755837440490723,-1.2581162452697754,0.8815289735794067,-0.3369586169719696
1.012463092803955,-0.9071788787841797,11.400603294372559,-1.2618577480316162,0.4264477491378784,-0.3913240134716034
1.191924810409546,-2.2692930698394775,11.970394134521484,-1.1593880653381348,-0.8819870948791504,-0.5764107704162598
1.3908281326293945,-1.6420745849609375,12.051750183105469,-0.9468895792961121,-1.5796509981155396,-0.6124507188796997
1.2661023139953613,-0.7779664397239685,12.061321258544922,-0.4710395932197571,-1.927833914756775,-0.5580853223800659
0.7513462901115417,-0.4139583110809326,12.420543670654297,0.06200099736452103,-2.5240209102630615,-0.3754419982433319
1.8502501249313354,-0.4139583110809326,11.78853988647461,0.5092939138412476,-3.1745731830596924,-0.29358845949172974
3.0188448429107666,-0.8114659786224365,10.093523979187012,0.7715001106262207,-3.2527616024017334,-0.5141043066978455
2.7290141582489014,-0.36610186100006104,9.48066234588623,0.7826480269432068,-2.875257968902588,-0.6167266368865967
3.0065815448760986,0.5437689423561096,8.834300994873047,0.7745543122291565,-2.692614793777466,-0.44935452938079834
4.16799783706665,0.7926225066184998,7.965108394622803,0.8777111768722534,-2.0548901557922363,-0.2196759432554245
3.8805601596832275,1.6498512029647827,7.39053201675415,1.1703070402145386,-0.8862630128860474,-0.08590039610862732
2.8486554622650146,2.964108943939209,6.897311210632324,1.5555225610733032,0.6158103942871094,0.20974968373775482
1.3091731071472168,4.59212589263916,5.721837043762207,1.4629027843475342,2.2431838512420654,0.9342145323753357
1.80717933177948,2.9282166957855225,7.201498985290527,0.5005893111228943,3.0073537826538086,1.7417546510696411
1.2852448225021362,0.5102694034576416,10.251450538635254,-0.758672297000885,2.2254693508148193,2.196301221847534
1.9797616004943848,-1.500898003578186,13.686945915222168,-1.3761625289916992,1.0049201250076294,2.140103340148926
1.5343974828720093,-3.05234432220459,15.875182151794434,-1.005301833152771,-0.24731677770614624,1.378300428390503
2.774477958679199,-2.528017044067383,14.47478199005127,0.056427016854286194,-0.880154550075531,0.5292227864265442
3.885345697402954,-1.8263218402862549,8.293224334716797,1.1784007549285889,-0.334057092666626,-0.08712209016084671
1.7736797332763672,0.14386846125125885,6.267699718475342,1.7655012607574463,1.511312484741211,-0.22822780907154083
-1.7336000204086304,3.3640096187591553,7.802396297454834,2.1438448429107666,3.112419605255127,0.2256316989660263
-1.1614162921905518,2.7942185401916504,11.62582778930664,1.8145980834960938,3.225426197052002,1.2329188585281372
1.2421740293502808,-0.17946170270442963,12.18365478515625,1.2461284399032593,0.6793385148048401,1.6831132173538208
2.2597219944000244,-2.1209380626678467,9.832406997680664,0.9193251132965088,-0.6358156204223633,1.203598141670227
-1.0872387886047363,-0.22971096634864807,9.947562217712402,0.9491803050041199,-0.7359945774078369,0.3404709994792938
-3.2802608013153076,1.9010975360870361,9.988240242004395,1.1877161264419556,0.15584240853786469,0.35268792510032654
-1.8317056894302368,1.664208173751831,11.690434455871582,0.967811107635498,0.3488701283931732,1.0545514822006226
-0.44805604219436646,0.7040880918502808,10.641779899597168,0.9559759497642517,-0.10682191699743271,1.2109283208847046
-2.2962124347686768,0.026620151475071907,9.681659698486328,0.8652651309967041,0.047111593186855316,1.3221025466918945
-3.3879377841949463,0.07926224917173386,11.032109260559082,0.849764883518219,0.5388436317443848,1.5664414167404175
-3.526721477508545,-0.7827520966529846,11.843574523925781,0.9696436524391174,0.8564842343330383,1.7387003898620605
-3.0622148513793945,-1.811964988708496,12.269796371459961,1.2045143842697144,0.8955784440040588,1.7283159494400024
-2.4373888969421387,-2.2669003009796143,11.158928871154785,1.5859122276306152,0.7446991801261902,1.5010807514190674
-3.3975090980529785,-1.6157535314559937,9.832406997680664,1.9792214632034302,0.7605811953544617,1.281786561012268
-5.015954494476318,-0.641276478767395,8.312366485595703,2.2022571563720703,0.9218448400497437,1.5407859086990356
-4.223331928253174,-0.1986042857170105,7.189534664154053,2.1879022121429443,1.3750935792922974,2.1217780113220215
-2.837289333343506,-1.2900304794311523,6.9236321449279785,2.0058696269989014,1.840024709701538,2.470571756362915
-2.071287155151367,-1.251745343208313,6.839883327484131,1.7629815340042114,2.0605404376983643,2.502335786819458
-2.0904297828674316,-0.5168496966362,6.67717170715332,1.4194563627243042,2.111240863800049,2.5444841384887695
-2.147857427597046,-0.004486542660742998,5.997310638427734,0.9442171454429626,2.238907814025879,2.7466747760772705
-2.0904297828674316,0.11515458673238754,5.254937648773193,0.2545706033706665,2.634737014770508,3.1021878719329834
-1.7120646238327026,-0.9646066427230835,8.130212783813477,-0.6542937755584717,3.0397286415100098,3.5474953651428223
-0.16301104426383972,-2.8462624549865723,13.473984718322754,-1.0605835914611816,2.8570852279663086,3.6354575157165527
1.165603756904602,-3.6939198970794678,15.216856956481934,-0.7530983090400696,1.8723995685577393,3.361186981201172
3.3562328815460205,-2.4104697704315186,13.371092796325684,-0.004428642801940441,1.187563419342041,3.118069887161255
4.986642360687256,-0.31106695532798767,11.09192943572998,0.7969266176223755,1.8180341720581055,2.7839365005493164
5.9539408683776855,2.0760726928710938,12.186047554016113,1.2920947074890137,2.9426040649414062,2.5188286304473877
6.710371971130371,3.550649642944336,13.452448844909668,1.3877686262130737,3.09837007522583,2.166369915008545
6.786942481994629,3.864408493041992,14.857633590698242,0.9292513728141785,2.1167385578155518,1.6409647464752197
4.534099578857422,4.766801834106445,15.6167573928833,0.35833826661109924,0.6555154919624329,1.2347513437271118
2.874976396560669,3.402294635772705,16.03310775756836,0.12850698828697205,-0.6083275079727173,1.0478321313858032
3.155235767364502,2.648256540298462,15.556936264038086,0.31298285722732544,-1.4513731002807617,1.0032402276992798
4.242175579071045,2.1981067657470703,14.046168327331543,0.7782957553863525,-1.744579792022705,0.8829033374786377
4.526921272277832,2.501995086669922,11.977572441101074,1.1306018829345703,-1.7079288959503174,0.6330668330192566
3.4447672367095947,3.560220956802368,11.187642097473145,1.2144407033920288,-1.5149011611938477,0.36368319392204285
2.944368362426758,3.806980848312378,12.224332809448242,1.3212625980377197,-1.5857595205307007,0.27144524455070496
3.5886356830596924,3.244368314743042,10.347163200378418,1.6946430206298828,-1.8526997566223145,0.1877591758966446
3.8781673908233643,3.8524444103240967,7.9244303703308105,2.158123254776001,-1.3841798305511475,-0.20073968172073364
1.9630118608474731,4.675874710083008,7.028916358947754,2.8756399154663086,-0.15813308954238892,-0.5800758004188538
-0.9747761487960815,6.584150791168213,7.428816795349121,3.9982242584228516,1.2303227186203003,-0.5654155015945435
-2.2172493934631348,7.927122116088867,5.592624664306641,4.792860507965088,1.6072155237197876,-0.053525492548942566
-1.1542378664016724,7.6013994216918945,2.6024937629699707,3.9553887844085693,0.9920923113822937,0.37528929114341736
-2.8037898540496826,6.926324367523193,1.9677975177764893,2.184847831726074,-0.7066739201545715,0.2011978179216385
-4.1970109939575195,8.8681001663208,3.397209882736206,0.9255862832069397,-1.8117729425430298,0.2909923493862152
-3.81655216217041,7.6253275871276855,4.1057844161987305,0.5845044851303101,-2.082378387451172,0.6807129383087158
-3.0526435375213623,7.175477027893066,4.127319812774658,0.6336013078689575,-1.9376075267791748,0.8053257465362549
-2.5953152179718018,7.197012424468994,3.631706476211548,0.7782957553863525,-1.6291296482086182,0.8725189566612244
-1.103988528251648,7.850552082061768,3.387638568878174,1.1025793552398682,-0.6419241428375244,0.9476531744003296
-0.22761724889278412,8.535198211669922,5.274080276489258,1.2237560749053955,0.03061871975660324,0.9268843531608582
-0.08644071966409683,8.199904441833496,5.886941909790039,1.2349040508270264,-0.19478392601013184,0.9574267268180847
-0.13668999075889587,7.781160354614258,5.9662041664123535,1.3299671411514282,-0.45439401268959045,0.9311602711677551
-0.2874378263950348,7.716553688049316,6.054738521575928,1.659213900566101,-0.436068594455719,0.8218186497688293
-0.1534397453069687,7.922336578369141,6.463911056518555,2.263112783432007,-0.05856497958302498,0.8377006649971008
1.74496591091156,6.181857109069824,7.984251022338867,3.544135808944702,1.090438723564148,1.0356152057647705
3.2222347259521484,5.082953453063965,9.066405296325684,5.72035551071167,2.676274538040161,1.0582165718078613
0.48095735907554626,5.3748779296875,7.163213729858398,7.945061206817627,3.312777280807495,1.1003649234771729
1.6995022296905518,6.68225622177124,-0.5482555031776428,8.791160583496094,3.0244574546813965,1.6482949256896973
4.709074974060059,6.694220542907715,-4.7596235275268555,6.997026443481445,2.629239320755005,2.221346139907837
9.176176071166992,6.370890140533447,-4.053142547607422,4.536839008331299,1.0372949838638306,2.002051830291748
8.721539497375488,7.555935859680176,-3.3852458000183105,2.9942967891693115,0.01901262067258358,1.1736665964126587
5.355436325073242,9.847063064575195,-4.180261135101318,2.351914644241333,-0.24914932250976562,0.9134457111358643
3.432803153991699,11.204690933227539,-5.140082359313965,2.1394925117492676,0.20898611843585968,1.578047513961792
4.826323509216309,8.020442008972168,-4.409972190856934,2.0748953819274902,0.8570950627326965,2.2494449615478516
6.81087064743042,6.01675271987915,-4.273581027984619,2.072986602783203,0.9035194516181946,2.323357582092285
7.5412797927856445,4.867300510406494,-3.8928234577178955,2.0282418727874756,0.7440882921218872,2.053973913192749
5.9922261238098145,4.872086048126221,-4.374079704284668,2.0848217010498047,0.5828246474266052,1.8969861268997192
4.845465660095215,4.5011982917785645,-5.398806095123291,1.9586817026138306,0.4667636752128601,2.2256219387054443
7.418946743011475,3.1244282722473145,-6.9068827629089355,1.6642533540725708,0.12346750497817993,2.766221761703491
11.568100929260254,1.041775107383728,-9.219844818115234,1.5424656867980957,0.6316924095153809,2.857848882675171
13.622039794921875,-0.04995017126202583,-7.780860900878906,1.5635398626327515,1.977465271949768,2.219513416290283
9.477970123291016,0.828514814376831,-5.712265968322754,1.4939796924591064,2.5901451110839844,1.4943615198135376
7.186842918395996,2.0398812294006348,-5.039583683013916,0.9584956765174866,2.066038131713867,1.5120760202407837
8.642576217651367,1.2236297130584717,-5.597410202026367,-0.06406260281801224,1.03424072265625,1.5914862155914307
9.885049819946289,-0.27038896083831787,-5.844170093536377,-1.157479166984558,0.32932302355766296,1.1510653495788574
8.357531547546387,0.28983065485954285,-3.3756744861602783,-1.909203052520752,0.1277434378862381,0.653835654258728
9.166604042053223,2.0303099155426025,-0.47647079825401306,-2.060769557952881,-0.3988068997859955,0.4882960319519043
12.527921676635742,3.3568310737609863,-0.7492526173591614,-1.7135028839111328,-1.081810474395752,0.12300936877727509
13.033106803894043,4.491627216339111,-4.924727916717529,-1.150072693824768,-1.180156946182251,-0.5464792251586914
10.509875297546387,5.791528224945068,-5.116153717041016,-0.7828771471977234,0.15095563232898712,-0.8604547381401062
10.121938705444336,6.2297139167785645,0.29431718587875366,-0.2734304964542389,0.9878163933753967,-0.9173398613929749
11.366805076599121,5.446961879730225,0.13878370821475983,0.4763845205307007,-0.13858596980571747,-1.2410888671875
10.342377662658691,7.1228346824646,-8.539685249328613,0.7230141162872314,-0.2522035539150238,-1.7089979648590088
7.435696601867676,7.467401027679443,-6.880561351776123,0.8075400590896606,1.5876684188842773,-1.51902437210083
5.764608860015869,6.818647384643555,-3.10528564453125,0.8255600929260254,2.314652919769287,-1.1274713277816772
4.878965377807617,5.930311679840088,-2.008774518966675,0.37261682748794556,1.4202961921691895,-0.8189170956611633
6.109474182128906,4.06540584564209,-2.9781668186187744,-0.8214368224143982,-0.08422056585550308,-0.7908181548118591
5.72632360458374,3.9984066486358643,-3.5937204360961914,-1.3327159881591797,-0.45561569929122925,-0.8861103057861328
2.195115566253662,4.424628257751465,-2.0159530639648438,-1.7532843351364136,0.015958385542035103,-0.70224529504776
0.9239286184310913,3.792623996734619,1.5275181531906128,-1.404719591140747,0.687890350818634,-0.03458922728896141
0.8425726890563965,3.253939628601074,2.094916343688965,-1.1997040510177612,0.5834354758262634,0.2390703409910202
2.788834810256958,0.953240692615509,0.34725838899612427,-1.0320264101028442,-0.021914144977927208,0.6684959530830383
4.091128349304199,0.45523449778556824,-0.9122636318206787,-1.0537115335464478,-0.250981867313385,0.7161420583724976
4.491028785705566,1.0896315574645996,-2.2959132194519043,-1.0295066833496094,-0.0005344913806766272,0.7827243804931641
6.976274490356445,0.5653043389320374,-0.5745765566825867,-0.5455629825592041,0.9029086232185364,1.2042089700698853
10.392626762390137,0.04097708687186241,-0.8045865893363953,0.018554486334323883,0.2859528660774231,0.3850628435611725
5.66411018371582,3.416651725769043,-4.613361835479736,0.347801148891449,-0.17035003006458282,-0.1555369794368744
5.166104316711426,4.482056140899658,-5.7720866203308105,0.42606595158576965,0.664678156375885,0.31176117062568665
6.054439544677734,4.379164695739746,-2.0159530639648438,0.16080553829669952,0.8790855407714844,0.6159631013870239
6.930511474609375,3.9672999382019043,-2.4996023178100586,-0.8214368224143982,-0.676742434501648,0.5909183621406555
6.94038200378418,4.067798614501953,-1.8242281675338745,-1.9508171081542969,-1.6712781190872192,0.5084539651870728
8.24985408782959,3.7444684505462646,-2.4562325477600098,-2.3807008266448975,-1.8704142570495605,0.46630552411079407
8.553742408752441,4.0797624588012695,0.8090731501579285,-2.260211229324341,-1.1251806020736694,0.2390703409910202
7.981558799743652,6.2105712890625,1.5466607809066772,-1.7613780498504639,-1.1862653493881226,0.02710634656250477
7.601100444793701,8.714659690856934,-0.06939185410737991,-1.1121238470077515,-1.1935955286026,0.2506764531135559
8.695218086242676,10.34746265411377,-2.8537402153015137,-0.6238277554512024,-1.0366077423095703,0.9036721587181091
12.901501655578613,9.203095436096191,-4.273581027984619,-0.6691831946372986,-0.7714237570762634,1.535899043083191
16.892431259155273,8.099405288696289,-3.5096726417541504,-1.2084085941314697,-0.648643434047699,1.5554461479187012
16.921144485473633,7.522436141967773,-1.9489539861679077,-1.6569995880126953,-0.6859050989151001,1.2481900453567505
15.343377113342285,5.202594757080078,-0.7037889361381531,-1.799250602722168,-0.8215132355690002,0.9244409799575806
12.777074813842773,3.0478577613830566,-0.20817556977272034,-1.8123074769973755,-1.1147962808609009,0.4601970613002777
10.51226806640625,2.0374884605407715,0.0526420995593071,-1.5588058233261108,-1.0842539072036743,-0.05230379477143288
8.91775131225586,1.4246268272399902,1.2783654928207397,-1.0692881345748901,-0.8746569156646729,-0.5452575087547302
8.063214302062988,1.2379865646362305,1.4988043308258057,-0.5486935377120972,-1.081810474395752,-1.0480611324310303
6.8874406814575195,1.7527425289154053,0.2560320198535919,-0.11629004776477814,-1.3505833148956299,-1.5281871557235718
4.29242467880249,3.7348971366882324,-1.2759727239608765,0.18126893043518066,-1.41594398021698,-1.7230473756790161
4.043272018432617,5.669494152069092,-3.576671600341797,0.31985488533973694,-1.0005677938461304,-1.3314943313598633
5.448756217956543,6.7085771560668945,-3.5503506660461426,0.28190600872039795,-0.2894652485847473,-0.8018133640289307
6.530910491943359,7.754838943481445,-2.3437697887420654,0.13469181954860687,-0.014583977870643139,-0.415147066116333
7.665706634521484,7.627720355987549,-2.0614166259765625,-0.024968381971120834,-0.33527877926826477,-0.10361496359109879
8.48435115814209,7.419544696807861,-2.8776683807373047,-0.12125317752361298,-0.6364265084266663,-0.03886515647172928
8.292924880981445,6.818647384643555,-4.029214382171631,-0.16721943020820618,-0.7023980021476746,-0.126216322183609
7.296912670135498,6.22492790222168,-4.120141506195068,-0.23807771503925323,-0.49348822236061096,-0.21417832374572754
6.629015922546387,5.975775241851807,-3.1746773719787598,-0.19333316385746002,-0.32550522685050964,-0.29481014609336853
6.183651924133301,5.796313762664795,-2.911167860031128,-0.03489464893937111,-0.359712690114975,-0.391934871673584
6.2051873207092285,5.588138103485107,-2.944667339324951,0.1483595222234726,-0.4232407808303833,-0.4933355152606964
5.293222904205322,6.138786315917969,-3.215355396270752,0.2620534598827362,-0.5167004466056824,-0.6087856292724609
4.838287353515625,7.249654293060303,-3.873680830001831,0.2782409191131592,-0.597332239151001,-0.4298073947429657
5.769394397735596,7.522436141967773,-4.4243292808532715,0.29626092314720154,-0.31145575642585754,-0.1005607321858406
6.557231426239014,7.130013465881348,-3.9622151851654053,0.32603973150253296,-0.014583977870643139,0.04359922185540199
6.387341022491455,6.852146625518799,-4.053142547607422,-0.07902836054563522,-0.3432198166847229,0.21097137033939362
6.777370929718018,5.968596935272217,-2.832204818725586,0.16821207106113434,0.17538951337337494,0.07230904698371887
6.135795593261719,6.332605361938477,-2.7963123321533203,0.38009971380233765,0.10819631814956665,0.012446013279259205
5.934798240661621,6.694220542907715,-4.017250061035156,0.44965994358062744,0.017180079594254494,0.10590564459562302
6.3993048667907715,6.368497371673584,-4.153940200805664,0.37322768568992615,0.09170344471931458,0.2402920424938202
7.117451190948486,5.927918910980225,-3.7588253021240234,0.27327778935432434,0.0752105712890625,0.23418356478214264
7.079165935516357,5.729314804077148,-3.521636724472046,0.22166119515895844,-0.015194825828075409,0.1205659806728363
6.763014316558838,5.822634696960449,-3.646362543106079,0.2160872220993042,-0.11903885751962662,0.07169819623231888
6.727121829986572,5.700600624084473,-3.828217029571533,0.3614688515663147,-0.014583977870643139,0.09857547283172607
6.538088798522949,5.74606466293335,-3.998107433319092,0.47081053256988525,0.1014770045876503,0.11934428662061691
6.593123912811279,5.827420234680176,-4.146761417388916,0.5764107704162598,0.2315874695777893,0.16699036955833435
7.05763053894043,5.693422317504883,-4.47697114944458,0.6746044158935547,0.4062897861003876,0.23051849007606506
7.351947784423828,5.338985443115234,-4.733302116394043,0.5242596864700317,0.3629196286201477,0.20913882553577423
7.672884941101074,5.193023204803467,-4.383651256561279,0.3092414140701294,0.23769593238830566,0.12728530168533325
7.625028610229492,5.204987525939941,-4.359723091125488,0.26640576124191284,0.22914408147335052,0.07719582319259644
7.385447025299072,5.379663467407227,-4.77876615524292,0.3167243003845215,0.4447731673717499,0.03199312463402748
7.074379920959473,5.449354648590088,-5.228616714477539,0.33291175961494446,0.7880693078041077,0.048486001789569855
7.131807804107666,5.171487808227539,-3.85693097114563,0.007330167107284069,0.7837933897972107,0.09613208472728729
7.378268718719482,4.975276470184326,-3.193819999694824,-0.23991025984287262,0.3500918447971344,0.07291989028453827
7.471588611602783,4.9393839836120605,-2.8058836460113525,-0.3175642192363739,0.01901262067258358,0.008780929259955883
7.234699249267578,5.209773063659668,-3.08135724067688,-0.20700086653232574,-0.0823880210518837,-0.018707197159528732
7.1270222663879395,5.511568069458008,-3.5264222621917725,-0.041766680777072906,0.09964445978403091,0.05031854286789894
7.488338470458984,5.286343574523926,-3.3517463207244873,0.060779303312301636,0.3348206579685211,0.1346154659986496
7.931309700012207,4.932205677032471,-2.9949166774749756,0.03779617324471474,0.30488914251327515,0.06192464008927345
7.797311782836914,5.18823766708374,-2.535494804382324,-0.035505495965480804,0.08681666851043701,-0.09445225447416306
7.366304397583008,5.492425441741943,-2.5618157386779785,-0.010078979656100273,-0.1080436110496521,-0.1677539348602295
7.237092018127441,5.645565986633301,-2.9255247116088867,0.11606097966432571,-0.1080436110496521,-0.17080816626548767
6.957131862640381,5.810670852661133,-3.643969774246216,0.18378867208957672,-0.014583977870643139,-0.13843326270580292
6.892226696014404,5.829813480377197,-3.777967929840088,0.15706409513950348,0.035505495965480804,-0.10728005319833755
6.844369888305664,5.781956672668457,-3.749253988265991,0.09994988143444061,0.058717694133520126,-0.0761268362402916
6.832406044006348,5.588138103485107,-3.342175006866455,-0.04107947647571564,-0.005421269219368696,-0.039476003497838974
6.841977119445801,5.676672458648682,-3.0933215618133545,-0.09208522737026215,-0.10376767814159393,-0.008322793990373611
6.971488952636719,5.592923641204834,-3.279961585998535,-0.018783552572131157,-0.11170869320631027,0.03504735976457596
7.093522548675537,5.521139144897461,-3.492922782897949,0.02970244735479355,-0.059175826609134674,0.060092099010944366
7.0887370109558105,5.580959796905518,-3.576671600341797,0.08437328040599823,0.040392275899648666,0.08330429345369339
7.294519901275635,5.561817169189453,-3.303889751434326,0.2154763638973236,0.2737359404563904,0.13889139890670776
7.572386264801025,5.267200946807861,-3.722932815551758,0.21234577894210815,-0.08299887180328369,-0.04741701856255531
7.0408806800842285,5.638387680053711,-4.864907741546631,-0.05726693198084831,-0.3010713458061218,-0.10422581434249878
6.920940399169922,5.6910295486450195,-4.982155799865723,-0.18340688943862915,-0.27358320355415344,-0.07001836597919464
6.971488952636719,5.640780448913574,-4.328616142272949,-0.2951919436454773,-0.09704835712909698,0.028938889503479004
7.167700290679932,5.552245616912842,-3.9550366401672363,-0.2858765125274658,0.0031305921729654074,0.0680331140756607
7.404589653015137,5.329414367675781,-2.635993242263794,-0.22250111401081085,0.23036576807498932,0.0955212414264679
7.406982421875,5.3007001876831055,-2.317448616027832,-0.06284090876579285,-0.09949174523353577,0.0295497365295887
6.973881721496582,5.5737810134887695,-3.3924243450164795,-0.013133215717971325,-0.26075541973114014,-0.01382041908800602
6.925725936889648,5.600102424621582,-3.279961585998535,-0.01252236869186163,-0.24365170300006866,0.04665346071124077
7.131807804107666,5.437390327453613,-3.2919256687164307,-0.013133215717971325,-0.32367268204689026,0.09185615926980972
7.445267677307129,5.405984401702881,-3.4019956588745117,-0.005726693198084831,-0.38842248916625977,0.0686439573764801
7.093522548675537,5.545067310333252,-4.134498596191406,0.027259059250354767,-0.26197710633277893,0.017332790419459343
7.036095142364502,5.542674541473389,-4.1368913650512695,0.02038702741265297,-0.08727480471134186,0.06436803191900253
7.287341594696045,5.288736343383789,-3.646362543106079,0.014202198944985867,-0.028633465990424156,0.08880192041397095
7.3160552978515625,5.248058319091797,-3.5718860626220703,0.025961007922887802,-0.120871402323246,0.03077143058180809
6.920940399169922,5.583352565765381,-4.060320854187012,-7.635590736754239e-05,-0.19111883640289307,0.0130568603053689
6.885047912597656,5.731707572937012,-4.192225456237793,-0.029320668429136276,-0.09888090193271637,0.0942995473742485
7.208378314971924,5.425127029418945,-3.9311084747314453,-0.046729814261198044,-0.005421269219368696,0.14499986171722412
7.485945701599121,5.30548620223999,-3.5264222621917725,-0.0584886260330677,-0.03718532621860504,0.10101886838674545
7.514958381652832,5.193023204803467,-3.5336008071899414,-0.037414394319057465,-0.11598462611436844,0.016721943393349648
7.122236728668213,5.370092391967773,-3.6415770053863525,-7.635590736754239e-05,-0.16912832856178284,-0.049860406666994095
6.877869606018066,5.5019965171813965,-3.998107433319092,0.027259059250354767,-0.15202461183071136,-0.026037365198135376
6.908976078033447,5.49003267288208,-3.998107433319092,0.049554985016584396,-0.0164165198802948,0.05031854286789894
7.2227349281311035,5.248058319091797,-3.6176488399505615,0.06261184066534042,0.023899398744106293,0.08269345015287399
7.3399834632873535,5.137988567352295,-3.5120654106140137,0.07383616268634796,-0.05978667363524437,0.041766680777072906
7.28255558013916,5.152345180511475,-3.583850145339966,0.10674555599689484,-0.11537377536296844,-0.00038177953683771193
7.091129779815674,5.25045108795166,-4.055535316467285,0.1402658075094223,-0.07139277458190918,0.0051158457063138485
7.546065330505371,5.18105936050415,-3.91914439201355,0.06635328382253647,0.07093463838100433,-0.033978380262851715
7.246663570404053,5.286343574523926,-4.072285175323486,-0.05978667363524437,-0.07566870748996735,-0.09261971712112427
6.945167541503906,5.43499755859375,-4.153940200805664,-0.18585027754306793,-0.16668494045734406,-0.08040276914834976
6.937989234924316,5.422734260559082,-3.7731821537017822,-0.18898087739944458,-0.09032903611660004,-0.021150587126612663
6.99541711807251,5.372485160827637,-3.4067811965942383,-0.05169294774532318,0.0025197449140250683,0.030160583555698395
7.2227349281311035,5.269593715667725,-3.6726837158203125,0.10613471269607544,0.045889899134635925,0.04115583375096321
7.284948348999023,5.279164791107178,-4.168296813964844,0.10926530510187149,0.04283566400408745,0.0051158457063138485
7.091129779815674,5.405984401702881,-4.1057844161987305,0.009849912486970425,0.007406522985547781,-0.01382041908800602
7.000202655792236,5.463711261749268,-4.045963764190674,-0.0590994730591774,-0.013973130844533443,0.014889402315020561
7.0648088455200195,5.38205623626709,-3.9167516231536865,-0.027411770075559616,0.07643226534128189,0.05276193097233772
7.1820573806762695,5.269593715667725,-3.6870405673980713,0.022219568490982056,0.12530004978179932,0.06681142002344131
7.351947784423828,5.18823766708374,-3.675076484680176,0.0552053228020668,0.08192989230155945,0.0429883748292923
7.366304397583008,5.161916732788086,-3.9335012435913086,0.04092676565051079,-0.005421269219368696,-0.008322793990373611
7.203592777252197,5.315057277679443,-4.175475597381592,0.0029778804164379835,-0.026190076023340225,-0.03458922728896141
7.0959153175354,5.310271739959717,-4.060320854187012,-0.001374406274408102,0.05016583204269409,-0.015042114071547985
7.162914752960205,5.264808177947998,-3.8306100368499756,0.03405473381280899,0.11369394510984421,0.008780929259955883
7.234699249267578,5.260022163391113,-3.976572036743164,0.057648710906505585,0.1143047958612442,0.0014507622690871358
7.203592777252197,5.295914649963379,-4.048357009887695,0.03092414326965809,0.13018682599067688,0.0008399150101467967
7.28255558013916,5.310271739959717,-3.739682674407959,0.03588727489113808,0.1821088343858719,0.016721943393349648
7.277770042419434,5.18823766708374,-3.777967929840088,0.04023956134915352,0.1662268042564392,0.010002624243497849
7.244270324707031,5.255236625671387,-3.6822550296783447,0.027869906276464462,0.14729054272174835,-0.004657710436731577
7.232306480407715,5.231308460235596,-3.7516467571258545,0.02351761981844902,0.15706409513950348,-0.004046862944960594
7.261020183563232,5.255236625671387,-3.643969774246216,0.033443886786699295,0.1949366331100464,0.002672456670552492
7.277770042419434,5.248058319091797,-3.4857444763183594,0.059557609260082245,0.23708508908748627,0.008780929259955883
7.229913711547852,5.3078789710998535,-3.373281717300415,0.12041326612234116,0.2865637242794037,0.02160872146487236
7.191628456115723,5.248058319091797,-3.380460262298584,0.11170869320631027,0.24319356679916382,0.044820915907621384
7.41416072845459,5.164309501647949,-3.3708889484405518,0.08315158635377884,0.15706409513950348,0.0558161698281765
7.581957817077637,4.9704909324646,-3.1962127685546875,0.08254073560237885,0.09353598952293396,0.008780929259955883
7.519744396209717,5.114060401916504,-3.239283561706543,0.11361759155988693,0.0067956759594380856,-0.06696412712335587
7.110272407531738,5.317450046539307,-3.5814573764801025,0.0949103906750679,-0.07627955079078674,-0.10789089649915695
7.0169525146484375,5.545067310333252,-4.347758769989014,0.045889899134635925,-0.17157171666622162,-0.06696412712335587
7.1988067626953125,5.303092956542969,-4.240081787109375,-0.03489464893937111,-0.13247749209403992,-0.009544488042593002
7.361518859863281,5.310271739959717,-4.0818562507629395,-0.0653606578707695,-0.10010259598493576,-0.02176143415272236
7.289734363555908,5.3007001876831055,-4.036392688751221,-0.07154548168182373,-0.10315682739019394,-0.043141089379787445
7.115057945251465,5.480461120605469,-4.098606109619141,-0.07711946964263916,-0.0695602297782898,-0.04008685052394867
7.1509504318237305,5.588138103485107,-3.7971103191375732,-0.06719319522380829,0.0031305921729654074,-0.009544488042593002
7.289734363555908,5.521139144897461,-3.7181472778320312,-0.06841489672660828,0.012293301522731781,0.002672456670552492
7.2921271324157715,5.513960838317871,-3.531208038330078,-0.09391776472330093,0.000687203137204051,-0.0064902519807219505
7.227520942687988,5.405984401702881,-3.3613176345825195,-0.07773031294345856,-0.011529741808772087,-0.010766183026134968
7.167700290679932,5.389235019683838,-3.583850145339966,-0.03245126083493233,0.01779092662036419,-0.02176143415272236
7.052844524383545,5.403591632843018,-3.5120654106140137,-0.02557922899723053,0.07154548168182373,-0.015042114071547985
7.0648088455200195,5.362913608551025,-3.4307093620300293,-0.05978667363524437,-0.01885990984737873,-0.0016034740256145597
7.062416076660156,5.379663467407227,-3.3230323791503906,-0.06345175951719284,-0.10254598408937454,0.0295497365295887
7.229913711547852,5.341378211975098,-3.315854072570801,0.01046075951308012,-0.12331479042768478,0.06375718116760254
7.263412952423096,5.212165832519531,-3.7420754432678223,0.0558161698281765,-0.13797512650489807,0.07108735293149948
7.253841876983643,5.281557559967041,-4.036392688751221,0.05207473039627075,-0.11903885751962662,0.060092099010944366
7.296912670135498,5.274379253387451,-4.1297125816345215,-0.011911521665751934,-0.08849649876356125,0.0686439573764801
7.385447025299072,5.193023204803467,-3.974179267883301,-0.08521319180727005,-0.09338327497243881,0.05031854286789894
7.41416072845459,5.137988567352295,-3.7588253021240234,-0.13866232335567474,-0.1605764776468277,0.0008399150101467967
7.179664134979248,5.3078789710998535,-3.7612180709838867,-0.14049486815929413,-0.18989713490009308,-0.02176143415272236
7.107879638671875,5.401198863983154,-3.7612180709838867,-0.05543438717722893,-0.09827005118131638,0.02405211143195629
7.234699249267578,5.231308460235596,-3.646362543106079,0.04214845970273018,-0.012140588834881783,0.057648710906505585
7.3639116287231445,5.1188459396362305,-3.8210387229919434,0.06513158977031708,-0.05184566229581833,0.03626905754208565
7.306483745574951,5.12602424621582,-3.9646079540252686,-0.0007635590736754239,-0.12942326068878174,-0.010155336000025272
7.155735969543457,5.271986484527588,-3.864109516143799,-0.05413633957505226,-0.15019206702709198,-0.019928891211748123
7.100701332092285,5.310271739959717,-3.770789384841919,-0.05665608495473862,-0.14408360421657562,0.00022906772210262716
7.289734363555908,5.288736343383789,-3.801896095275879,-0.02244863659143448,-0.12331479042768478,0.02405211143195629
7.438089370727539,5.12602424621582,-3.859323740005493,-0.013744063675403595,-0.12759071588516235,-0.0022143214009702206
7.308876991271973,5.164309501647949,-3.7660038471221924,-0.001374406274408102,-0.1330883502960205,-0.05169294774532318
7.105486869812012,5.310271739959717,-3.840181350708008,0.0489441379904747,-0.10315682739019394,-0.06452073901891708
6.93529748916626,5.348556995391846,-4.084249019622803,0.06696412712335587,-0.07017108052968979,-0.04130854457616806
7.033702373504639,5.3557353019714355,-4.077070713043213,0.03161134570837021,-0.052456509321928024,-0.007711946498602629
7.22034215927124,5.24327278137207,-3.998107433319092,-0.013744063675403595,-0.08849649876356125,-0.004046862944960594
7.215556621551514,5.350949764251709,-3.974179267883301,-0.02244863659143448,-0.08299887180328369,-0.024815669283270836
7.170093059539795,5.389235019683838,-3.928715705871582,0.007330167107284069,-0.05306735634803772,-0.02176143415272236
7.024130821228027,5.432305812835693,-4.144069671630859,0.011071606539189816,-0.035352785140275955,-0.014431266114115715
6.997809886932373,5.470890045166016,-4.194618225097656,-0.05413633957505226,-0.03779617324471474,0.012446013279259205
7.004988193511963,5.2839508056640625,-4.124927043914795,-0.15355172753334045,-0.09093988686800003,0.016111096367239952
7.0169525146484375,5.31266450881958,-3.82582426071167,-0.21570543944835663,-0.1361425817012787,0.014278554357588291
7.067201614379883,5.212165832519531,-3.500101327896118,-0.1424037665128708,-0.12026055157184601,0.006337540224194527
7.124629497528076,5.2145586013793945,-3.5096726417541504,0.012293301522731781,-0.0823880210518837,-0.010155336000025272
7.021738052368164,5.310271739959717,-4.038785457611084,0.12354385852813721,-0.06467345356941223,-0.01748550310730934
7.045666217803955,5.3557353019714355,-4.335794448852539,0.13156123459339142,-0.017027366906404495,0.006948387715965509
7.229913711547852,5.202594757080078,-4.199403762817383,0.09307785332202911,-0.0017561858985573053,0.01122431829571724
7.261020183563232,5.185844898223877,-4.050749778747559,0.06322269141674042,-0.05184566229581833,-0.032756682485342026
7.129415035247803,5.221737384796143,-4.0818562507629395,0.06139015033841133,-0.07078192383050919,-0.05841226875782013
6.959524631500244,5.362913608551025,-4.187439441680908,0.06513158977031708,-0.07139277458190918,-0.07246175408363342
6.808477878570557,5.535496234893799,-4.29033088684082,0.0489441379904747,-0.0426829531788826,-0.032756682485342026
6.901797771453857,5.516353607177734,-4.280759811401367,-0.008780929259955883,-0.05795413255691528,0.018554486334323883
7.004988193511963,5.494818210601807,-4.244867324829102,-0.04856235533952713,-0.04818057641386986,0.048486001789569855
7.2059855461120605,5.295914649963379,-4.079463481903076,-0.035505495965480804,-0.013973130844533443,0.03749075159430504
7.0959153175354,5.336592674255371,-4.120141506195068,-0.029320668429136276,-0.021914144977927208,-0.007711946498602629
6.937989234924316,5.3940205574035645,-4.089034557342529,-0.024968381971120834,-0.024968381971120834,-0.018096350133419037
6.803691864013672,5.420341491699219,-4.158725738525391,-0.009391776286065578,-0.008475505746901035,-0.0009926267666742206
6.75583553314209,5.398806095123291,-4.091427803039551,0.004275931045413017,0.023288551717996597,0.03382566571235657
6.976274490356445,5.360520839691162,-4.024428367614746,0.01046075951308012,0.02695363573729992,0.06742226332426071
7.103094100952148,5.362913608551025,-4.057928085327148,0.005497625097632408,0.004963133949786425,0.06620056927204132
7.256234645843506,5.264808177947998,-3.9957146644592285,-0.0051158457063138485,-0.013973130844533443,0.05276193097233772
7.186842918395996,5.252843856811523,-4.033999919891357,0.006719320081174374,-0.03290939703583717,0.019776180386543274
7.055237770080566,5.25045108795166,-4.048357009887695,0.04650074616074562,0.012904148548841476,0.016111096367239952
6.81804895401001,5.334199905395508,-4.098606109619141,0.09055810421705246,0.05688514932990074,0.0295497365295887
6.904190540313721,5.291129112243652,-4.036392688751221,0.08437328040599823,0.05932854115962982,0.06558972597122192
7.028916358947754,5.25045108795166,-3.9239299297332764,0.0787992998957634,0.043446511030197144,0.07291989028453827
7.143772125244141,5.219344615936279,-3.959822416305542,0.07757759839296341,0.014736690558493137,0.06986565887928009
7.277770042419434,5.197809219360352,-4.077070713043213,0.06452073901891708,-0.03168770298361778,0.040544986724853516
7.172485828399658,5.224130153656006,-4.091427803039551,0.05085303261876106,-0.059175826609134674,0.009391776286065578
7.028916358947754,5.209773063659668,-4.057928085327148,0.04214845970273018,-0.07627955079078674,0.002061609411612153
6.837191581726074,5.291129112243652,-4.321437835693359,0.042759306728839874,-0.05062396824359894,0.01794363744556904
6.925725936889648,5.224130153656006,-4.07467794418335,0.03161134570837021,0.015347537584602833,0.0680331140756607
7.22034215927124,5.121238708496094,-3.9574296474456787,0.02473931387066841,-0.034131091088056564,0.07169819623231888
7.280162811279297,5.111667156219482,-4.0435709953308105,0.045889899134635925,-0.0420721061527729,0.041766680777072906
7.229913711547852,5.137988567352295,-3.9622151851654053,0.08872556686401367,-0.004810422193259001,0.024662958458065987
7.069594383239746,5.137988567352295,-4.122534275054932,0.10491301864385605,-0.03474193811416626,0.007559234742075205
6.973881721496582,5.140381336212158,-4.41475772857666,0.056427016854286194,-0.04634803533554077,0.02283041551709175
7.071987152099609,5.18105936050415,-4.024428367614746,0.05085303261876106,-0.04085041210055351,0.028938889503479004
7.117451190948486,5.456532955169678,-5.7170515060424805,0.020997874438762665,-0.054899897426366806,0.014889402315020561
7.28255558013916,5.288736343383789,-5.185545921325684,-0.09888090193271637,0.03978142887353897,0.008780929259955883
7.1748785972595215,4.994419097900391,-3.6272199153900146,-0.09827005118131638,0.09475768357515335,-0.010766183026134968
7.038487911224365,5.0638108253479,-3.6655051708221436,-0.03245126083493233,-0.02802261710166931,-0.02420482225716114
7.05763053894043,5.049454212188721,-3.866502285003662,-0.006948387715965509,-0.04879142343997955,-0.02298312820494175
7.1270222663879395,4.982454776763916,-3.9717864990234375,0.012904148548841476,-0.02680092304944992,-0.01626380905508995
7.1988067626953125,5.030311584472656,-4.0435709953308105,-0.007559234742075205,-0.05428905040025711,-0.03458922728896141
7.15812873840332,5.0638108253479,-4.201796531677246,-0.029320668429136276,-0.0695602297782898,-0.04558447748422623
7.045666217803955,5.176273345947266,-4.18983268737793,-0.07841751724481583,-0.05856497958302498,-0.0364217683672905
7.143772125244141,5.0949177742004395,-3.9167516231536865,-0.06658235192298889,-0.03718532621860504,-0.009544488042593002
7.167700290679932,5.059025287628174,-3.8306100368499756,0.011071606539189816,-0.013973130844533443,-0.016874656081199646
7.050451755523682,5.099703311920166,-3.9000017642974854,0.11422843486070633,0.011682453565299511,-0.02542651630938053
6.983452796936035,5.128417015075684,-4.252045631408691,0.15454435348510742,-0.0011453386396169662,-0.02298312820494175
7.036095142364502,5.152345180511475,-4.467400074005127,0.10857810080051422,-0.05123481526970863,-0.03092414326965809
6.9475603103637695,5.221737384796143,-4.658825874328613,0.011682453565299511,-0.08971819281578064,-0.032756682485342026
6.99541711807251,5.281557559967041,-4.515256404876709,-0.03176405653357506,-0.05734328553080559,-0.015652960166335106
7.052844524383545,5.226522922515869,-4.388436794281006,-0.05169294774532318,-0.031076854094862938,-0.004046862944960594
7.155735969543457,5.140381336212158,-4.072285175323486,-0.031153209507465363,-0.03352024406194687,-0.01748550310730934
7.217949390411377,5.161916732788086,-4.096213340759277,0.03779617324471474,-0.0561215914785862,-0.05474718660116196
7.000202655792236,5.240880012512207,-4.560719966888428,0.05894676223397255,-0.09032903611660004,-0.09200886636972427
6.789335250854492,5.346164226531982,-4.738088130950928,-0.02557922899723053,-0.09216158092021942,-0.07979192584753036
6.739085674285889,5.298307418823242,-4.512863636016846,-0.12125317752361298,-0.10437852889299393,-0.04130854457616806
6.94038200378418,5.2767720222473145,-4.268795490264893,-0.1336991935968399,-0.08360971510410309,-0.012598725035786629
6.983452796936035,5.279164791107178,-4.122534275054932,-0.082082599401474,-0.0426829531788826,-0.011987877078354359
6.981060028076172,5.262415409088135,-4.045963764190674,-0.006337540224194527,-0.007253811229020357,-0.01382041908800602
6.849155902862549,5.329414367675781,-4.278367042541504,0.05085303261876106,0.0037414394319057465,-0.010155336000025272
6.868298530578613,5.3007001876831055,-4.319045066833496,0.049554985016584396,0.03061871975660324,0.017332790419459343
6.978667259216309,5.207380294799805,-4.177868366241455,0.034665580838918686,0.015347537584602833,0.019776180386543274
7.0887370109558105,5.183452129364014,-4.208974838256836,-0.00259610079228878,-0.05428905040025711,-0.0064902519807219505
7.050451755523682,5.202594757080078,-4.204189300537109,-0.03802524134516716,-0.11170869320631027,-0.04558447748422623
6.803691864013672,5.346164226531982,-4.1368913650512695,-0.005726693198084831,-0.07933378964662552,-0.05474718660116196
6.707979202270508,5.425127029418945,-4.201796531677246,0.06635328382253647,-0.017027366906404495,-0.010155336000025272
6.916154861450195,5.281557559967041,-4.244867324829102,0.0949103906750679,-0.026190076023340225,0.020997874438762665
6.820441722869873,5.482853889465332,-5.434698581695557,0.05085303261876106,-0.1587439328432083,-0.008933641016483307
6.971488952636719,5.288736343383789,-4.9414777755737305,-0.07841751724481583,-0.0561215914785862,0.0014507622690871358
6.88026237487793,5.38205623626709,-4.077070713043213,-0.03924693539738655,0.01046075951308012,-0.007101099472492933
6.8395843505859375,5.36769962310791,-4.445864677429199,0.019776180386543274,-0.035352785140275955,0.010002624243497849
7.052844524383545,5.293521881103516,-4.73090934753418,-0.01748550310730934,-0.0811663269996643,0.0038941511884331703
6.997809886932373,5.231308460235596,-4.838586330413818,-0.1044548824429512,-0.12270393967628479,-0.030313294380903244
6.81804895401001,5.3246283531188965,-4.733302116394043,-0.15171918272972107,-0.1074327602982521,-0.04497363045811653
6.595516681671143,5.401198863983154,-4.46979284286499,-0.09452861547470093,0.007406522985547781,0.00022906772210262716
6.7917280197143555,5.2839508056640625,-4.409972190856934,-0.010078979656100273,0.05016583204269409,0.04665346071124077
6.928118705749512,5.233701229095459,-4.579862594604492,0.01916533336043358,0.058717694133520126,0.049707695841789246
6.93529748916626,5.2384867668151855,-4.6540398597717285,0.011071606539189816,0.07948649674654007,0.03687990456819534
6.959524631500244,5.271986484527588,-4.548755645751953,-0.024968381971120834,0.07643226534128189,0.022219568490982056
6.8156561851501465,5.475675582885742,-4.651647090911865,-0.07963921129703522,0.04405735805630684,0.014889402315020561
6.774978160858154,5.523531913757324,-4.572684288024902,-0.12438376992940903,0.049554985016584396,0.038101598620414734
6.75583553314209,5.487639427185059,-4.41475772857666,-0.16103461384773254,0.05444176122546196,0.0680331140756607
6.846762657165527,5.346164226531982,-4.18983268737793,-0.16225630044937134,0.0489441379904747,0.08452598750591278
6.945167541503906,5.295914649963379,-4.072285175323486,-0.12247487902641296,0.045889899134635925,0.0686439573764801
6.908976078033447,5.303092956542969,-4.115355968475342,-0.10384403169155121,0.024510245770215988,0.047264307737350464
7.0097737312316895,5.3557353019714355,-4.211368083953857,-0.1274380087852478,-0.02802261710166931,0.028938889503479004
6.8395843505859375,5.439783096313477,-4.34536600112915,-0.22876229882240295,-0.09643751382827759,0.02160872146487236
6.7055864334106445,5.461318492889404,-4.261617183685303,-0.26724568009376526,-0.08788564801216125,0.041766680777072906
6.7055864334106445,5.437390327453613,-4.065106391906738,-0.28404396772384644,-0.06284090876579285,0.07597412914037704
6.976274490356445,5.1906304359436035,-3.5120654106140137,-0.24365170300006866,-0.03474193811416626,0.13217207789421082
7.172485828399658,5.102096080780029,-3.3996028900146484,-0.0883437842130661,-0.0231358390301466,0.10712733864784241
7.091129779815674,5.169095039367676,-3.749253988265991,0.05390727147459984,-0.009697199799120426,0.06986565887928009
6.964310169219971,5.267200946807861,-4.098606109619141,0.09246700257062912,-0.019470756873488426,0.05948125198483467
6.916154861450195,5.408377170562744,-4.244867324829102,0.07689040154218674,-0.015194825828075409,0.07230904698371887
6.904190540313721,5.298307418823242,-4.53200626373291,0.01046075951308012,-0.030466007068753242,0.10101886838674545
7.024130821228027,5.255236625671387,-4.508078098297119,-0.0883437842130661,-0.019470756873488426,0.11751174181699753
7.191628456115723,5.087738990783691,-3.952643871307373,-0.1268271654844284,-0.022524992004036903,0.11201411485671997
7.1748785972595215,5.068596363067627,-3.739682674407959,-0.035505495965480804,-0.044515494257211685,0.06375718116760254
6.911369323730469,5.25762939453125,-4.161118507385254,0.06200099736452103,-0.054899897426366806,0.039323292672634125
6.846762657165527,5.315057277679443,-4.500899314880371,0.06200099736452103,-0.035352785140275955,0.07597412914037704
7.026523590087891,5.209773063659668,-4.326223373413086,0.01725643500685692,-0.010308047756552696,0.10346225649118423
7.1988067626953125,5.114060401916504,-4.041178226470947,0.018554486334323883,-0.010918894782662392,0.08819106966257095
7.2227349281311035,5.0566325187683105,-4.084249019622803,0.042759306728839874,-0.05673243850469589,0.04604261368513107
7.086344242095947,5.2145586013793945,-4.314259052276611,0.08063183724880219,-0.05428905040025711,0.02283041551709175
7.048058986663818,5.140381336212158,-4.429114818572998,0.07383616268634796,-0.02802261710166931,0.026495499536395073
7.0097737312316895,5.157131195068359,-4.3070807456970215,0.036574479192495346,-0.017027366906404495,0.031382277607917786
7.112665176391602,5.039882659912109,-4.2831525802612305,-0.023059483617544174,-0.12697987258434296,0.031382277607917786
7.105486869812012,5.051846981048584,-4.240081787109375,0.03161134570837021,-0.0952158197760582,0.019776180386543274
6.923333168029785,5.128417015075684,-4.412364959716797,0.11980241537094116,-0.011529741808772087,0.03749075159430504
6.981060028076172,5.109274387359619,-4.445864677429199,0.15767495334148407,0.062993623316288,0.07414158433675766
7.184450149536133,4.934598445892334,-4.551148891448975,0.08254073560237885,-0.013973130844533443,0.0692548081278801
7.366304397583008,4.896313190460205,-4.567898273468018,-0.024968381971120834,-0.1214822456240654,0.0130568603053689
7.2059855461120605,4.965705394744873,-4.460221290588379,-0.037414394319057465,-0.11659546941518784,-0.040697697550058365
6.868298530578613,5.128417015075684,-4.579862594604492,0.028480753302574158,-0.027411770075559616,-0.03336753323674202
6.765407085418701,5.30548620223999,-4.934299468994141,0.13408097624778748,0.16072918474674225,0.03565821051597595
7.189235687255859,4.903491973876953,-4.764409065246582,0.16637952625751495,0.1918824017047882,0.07169819623231888
7.194021224975586,4.879563808441162,-4.802694320678711,0.0558161698281765,0.01779092662036419,0.0038941511884331703
6.976274490356445,5.154737949371338,-4.874478816986084,-0.1268271654844284,-0.0958266630768776,-0.02053973823785782
6.954739093780518,5.1188459396362305,-4.460221290588379,-0.1963873952627182,-0.015805672854185104,0.009391776286065578
7.055237770080566,5.0327043533325195,-3.7037904262542725,-0.12873606383800507,0.04222481697797775,0.03443651273846626
7.191628456115723,4.972883701324463,-3.9311084747314453,-0.011300674639642239,0.023899398744106293,0.027717193588614464
7.325626373291016,4.90109920501709,-3.9957146644592285,0.0794101431965828,0.04283566400408745,0.0032833039294928312
7.153343200683594,5.066203594207764,-4.438685894012451,0.15645325183868408,0.07093463838100433,-0.040697697550058365
7.110272407531738,5.090131759643555,-4.740480899810791,0.07444700598716736,0.0745997205376625,-0.03214583545923233
6.957131862640381,5.13320255279541,-4.788337230682373,-0.08712209016084671,-0.006642963737249374,-0.04802786558866501
6.882655143737793,5.152345180511475,-4.376472473144531,-0.21005509793758392,-0.04818057641386986,-0.011987877078354359
7.083951473236084,4.968098163604736,-3.928715705871582,-0.16844113171100616,-0.03718532621860504,0.010002624243497849
7.134200572967529,4.927420139312744,-3.780360698699951,-0.018096350133419037,0.008017370477318764,-0.004657710436731577
6.911369323730469,5.13320255279541,-4.311866283416748,0.11545012891292572,0.037948887795209885,-0.022372281178832054
6.971488952636719,5.1906304359436035,-4.510470867156982,0.08933641016483307,0.061771929264068604,0.017332790419459343
7.0648088455200195,5.154737949371338,-4.453042984008789,0.0023670331574976444,0.011071606539189816,0.0295497365295887
7.194021224975586,5.092525005340576,-4.304687976837158,-0.044820915907621384,-0.010918894782662392,0.027717193588614464
7.227520942687988,5.018347263336182,-4.185046672821045,-0.029320668429136276,-0.021303297951817513,-0.0028251686599105597
7.143772125244141,4.999204635620117,-4.069892406463623,-0.008780929259955883,-0.04146125912666321,-0.03703261539340019
6.964310169219971,5.1188459396362305,-4.122534275054932,0.051463883370161057,-0.02924431301653385,-0.04497363045811653
6.93529748916626,5.1906304359436035,-4.402793884277344,0.11606097966432571,0.024510245770215988,-0.010766183026134968
7.021738052368164,5.171487808227539,-4.517649173736572,0.09620844572782516,0.07032378762960434,0.02405211143195629
7.0959153175354,5.070989608764648,-4.383651256561279,0.027869906276464462,0.028786176815629005,0.019776180386543274
7.098308563232422,5.042275428771973,-4.252045631408691,-0.01252236869186163,-0.030466007068753242,-0.0028251686599105597
6.9930243492126465,5.1188459396362305,-4.3310089111328125,0.027259059250354767,-0.010918894782662392,-0.005268557462841272
6.94038200378418,5.147559642791748,-4.299902439117432,0.09185615926980972,0.05932854115962982,0.024662958458065987
7.000202655792236,5.051846981048584,-4.438685894012451,0.09926267713308334,0.061771929264068604,0.041766680777072906
7.060023307800293,5.0327043533325195,-4.409972190856934,0.07444700598716736,0.04772244393825531,0.04359922185540199
7.179664134979248,4.992026329040527,-4.417150497436523,0.027259059250354767,-0.012140588834881783,0.022219568490982056
7.148557662963867,5.039882659912109,-4.467400074005127,-0.028098974376916885,-0.052456509321928024,0.0014507622690871358
7.179664134979248,5.049454212188721,-4.3310089111328125,-0.029320668429136276,-0.04085041210055351,0.00022906772210262716
7.11984395980835,5.0087761878967285,-4.185046672821045,0.015423892997205257,-0.0164165198802948,-0.0022143214009702206
7.043273448944092,4.982454776763916,-4.347758769989014,0.04650074616074562,-0.004810422193259001,0.005726693198084831
7.028916358947754,4.960919380187988,-4.285545349121094,0.043981000781059265,0.01046075951308012,0.012446013279259205
7.112665176391602,4.946562767028809,-4.333401679992676,0.01725643500685692,-0.034131091088056564,0.011835165321826935
7.172485828399658,4.975276470184326,-4.369294166564941,-0.01748550310730934,-0.07566870748996735,-0.005268557462841272
6.983452796936035,5.18823766708374,-4.838586330413818,0.051463883370161057,0.05444176122546196,-0.005879404954612255
6.904190540313721,5.12602424621582,-4.764409065246582,0.15087927877902985,0.17355698347091675,0.03626905754208565
7.208378314971924,4.881956577301025,-4.59421968460083,0.1471378356218338,0.13079766929149628,0.05154023692011833
7.270591735839844,4.893920421600342,-4.622933387756348,0.05459447205066681,0.02817532978951931,0.008780929259955883
7.05763053894043,4.996811866760254,-4.417150497436523,-0.10262233763933182,-0.03718532621860504,0.0008399150101467967
6.99541711807251,4.987240791320801,-4.086641788482666,-0.17035003006458282,-0.036574479192495346,0.017332790419459343
6.827620506286621,5.080560684204102,-3.88803768157959,-0.15233004093170166,-0.013973130844533443,0.0558161698281765
7.043273448944092,5.023132801055908,-3.622434377670288,-0.04543176665902138,0.022677704691886902,0.10407309979200363
7.287341594696045,4.946562767028809,-3.9263229370117188,0.08315158635377884,0.022677704691886902,0.08452598750591278
7.320840835571289,4.936991214752197,-4.153940200805664,0.13782241940498352,0.006184828467667103,0.05031854286789894
7.196413993835449,5.013561725616455,-4.4961137771606445,0.1483595222234726,-0.013973130844533443,0.01122431829571724
7.131807804107666,5.039882659912109,-4.6372904777526855,0.1241547018289566,-0.024968381971120834,0.005726693198084831
7.048058986663818,4.968098163604736,-4.567898273468018,0.042759306728839874,-0.06223006546497345,-0.0009926267666742206
6.937989234924316,5.044668197631836,-4.685146808624268,0.016034740954637527,-0.0811663269996643,-0.00038177953683771193
6.942774772644043,5.003990173339844,-4.666004180908203,-0.007559234742075205,-0.021303297951817513,0.050929389894008636
7.253841876983643,4.797908306121826,-4.216153621673584,0.027259059250354767,0.020845163613557816,0.0692548081278801
7.208378314971924,4.8553361892700195,-4.762016296386719,0.08498412370681763,0.004963133949786425,0.025273805484175682
7.186842918395996,4.929812908172607,-4.7596235275268555,0.045889899134635925,0.05322006717324257,0.038101598620414734
7.28255558013916,4.845765113830566,-4.570291042327881,-0.004428642801940441,0.02695363573729992,0.03199312463402748
7.172485828399658,4.886742115020752,-4.6372904777526855,-0.044820915907621384,0.022677704691886902,0.02710634656250477
7.098308563232422,4.829015254974365,-4.29033088684082,-0.04734066128730774,0.06482616811990738,0.044820915907621384
7.071987152099609,4.771587371826172,-4.100998878479004,-0.016874656081199646,0.08009734749794006,0.05276193097233772
7.177271366119385,4.7931227684021,-3.835395574569702,0.0558161698281765,0.09170344471931458,0.06131379306316376
7.225128173828125,4.790729999542236,-4.185046672821045,0.06016845628619194,0.014736690558493137,0.038101598620414734
7.3639116287231445,4.872086048126221,-4.2209391593933105,0.030313294380903244,-0.023746687918901443,0.024662958458065987
7.280162811279297,4.9154558181762695,-4.264009952545166,0.022219568490982056,-0.011529741808772087,0.015500249341130257
7.21316385269165,4.824229717254639,-4.144069671630859,0.04153761267662048,-0.006642963737249374,0.018554486334323883
7.2227349281311035,4.747659206390381,-4.2209391593933105,0.07505785673856735,-0.02008160389959812,0.012446013279259205
7.194021224975586,4.742873668670654,-4.3070807456970215,0.10926530510187149,-0.019470756873488426,-0.0009926267666742206
7.208378314971924,4.718945503234863,-4.34536600112915,0.12720894813537598,-0.013362283818423748,-0.008933641016483307
7.138986587524414,4.840979099273682,-4.591826438903809,0.09865183383226395,-0.044515494257211685,-0.010155336000025272
7.1509504318237305,4.850550651550293,-4.790729999542236,0.04337015375494957,-0.05184566229581833,0.008170082233846188
7.2227349281311035,4.829015254974365,-4.555934429168701,0.014813045971095562,0.005573981441557407,0.03321481868624687
7.325626373291016,4.656732082366943,-4.299902439117432,0.012293301522731781,-0.006032116711139679,0.023441264405846596
7.289734363555908,4.6974101066589355,-4.1129631996154785,0.057648710906505585,-0.023746687918901443,-0.012598725035786629
7.103094100952148,4.742873668670654,-4.2592244148254395,0.14278554916381836,7.635590736754239e-05,-0.024815669283270836
7.031309127807617,4.8553361892700195,-4.3788652420043945,0.17630578577518463,0.03367295488715172,0.0014507622690871358
7.115057945251465,4.826622486114502,-4.180261135101318,0.1949366331100464,0.06910209357738495,0.03382566571235657
7.2681989669799805,4.800301551818848,-4.237689018249512,0.20241950452327728,0.035505495965480804,0.03443651273846626
7.325626373291016,4.742873668670654,-4.460221290588379,0.12354385852813721,-0.0683385357260704,0.005726693198084831
7.239484786987305,4.733302116394043,-4.5200419425964355,0.045889899134635925,-0.1330883502960205,-0.02053973823785782
7.098308563232422,4.738088130950928,-4.386044025421143,0.06948387622833252,-0.11537377536296844,-0.02176143415272236
6.997809886932373,4.738088130950928,-4.436293125152588,0.18004722893238068,-0.03840702027082443,-0.0034360159188508987
7.021738052368164,4.747659206390381,-4.898406982421875,0.25647950172424316,0.019623467698693275,0.03382566571235657
7.21316385269165,4.6184468269348145,-5.214259624481201,0.21921780705451965,0.03245126083493233,0.04909684881567955
7.378268718719482,4.551447868347168,-5.1065826416015625,0.10857810080051422,-0.015805672854185104,0.02832804247736931
7.251449108123779,4.594518661499023,-5.063511848449707,0.016034740954637527,-0.05062396824359894,0.002061609411612153
7.117451190948486,4.680660247802734,-4.7835516929626465,-0.027411770075559616,-0.03596363216638565,0.01122431829571724
7.177271366119385,4.65433931350708,-4.8074798583984375,-0.023746687918901443,-0.021914144977927208,0.030160583555698395
7.253841876983643,4.582554340362549,-4.615755081176758,0.016034740954637527,0.034283801913261414,0.03687990456819534
7.241877555847168,4.553840637207031,-4.790729999542236,0.03962871432304382,0.027564482763409615,0.018554486334323883
7.241877555847168,4.572983264923096,-4.800301551818848,0.025961007922887802,0.023288551717996597,0.014889402315020561
7.251449108123779,4.568197727203369,-4.625326156616211,-0.031153209507465363,0.007406522985547781,0.002061609411612153
7.1820573806762695,4.628017902374268,-4.704289436340332,-0.03489464893937111,0.022066857665777206,0.006948387715965509
7.28255558013916,4.534698009490967,-4.398007869720459,-0.01252236869186163,0.05138752609491348,0.017332790419459343
7.33759069442749,4.513162612915039,-4.333401679992676,0.043981000781059265,0.043446511030197144,-0.004657710436731577
7.287341594696045,4.491627216339111,-4.493721008300781,0.07261446863412857,0.025121092796325684,-0.028480753302574158
7.162914752960205,4.632803916931152,-4.632504463195801,0.07566870748996735,0.022677704691886902,-0.031534988433122635
7.043273448944092,4.637589454650879,-4.596612453460693,0.0713164210319519,0.05993938818573952,-0.004046862944960594
7.1509504318237305,4.582554340362549,-4.4243292808532715,0.09124530851840973,0.0745997205376625,0.019776180386543274
7.311269760131836,4.572983264923096,-4.340580463409424,0.14217470586299896,0.09414683282375336,0.020997874438762665
7.392625331878662,4.561018943786621,-4.59421968460083,0.1701209545135498,0.0886492058634758,-0.004657710436731577
7.34476900100708,4.604089736938477,-4.6540398597717285,0.11109784245491028,0.04650074616074562,-0.032756682485342026
7.093522548675537,4.680660247802734,-4.781158924102783,0.014813045971095562,-0.015194825828075409,-0.0364217683672905
7.038487911224365,4.623232364654541,-4.6301116943359375,-0.04978405311703682,-0.03168770298361778,-0.004657710436731577
7.167700290679932,4.515555381774902,-4.431507587432861,-0.0590994730591774,-0.03168770298361778,0.02405211143195629
7.249056339263916,4.489234447479248,-4.393222332000732,-0.0429883748292923,-0.03474193811416626,0.017332790419459343
7.261020183563232,4.482056140899658,-4.386044025421143,-0.021837789565324783,-0.03596363216638565,0.012446013279259205
7.34476900100708,4.513162612915039,-4.323830604553223,0.049554985016584396,-0.02680092304944992,0.002061609411612153
7.335197925567627,4.53709077835083,-4.543970108032227,0.1178935244679451,-0.0029778804164379835,-0.02176143415272236
7.1820573806762695,4.647160530090332,-4.72373104095459,0.11048699915409088,-0.0017561858985573053,-0.02542651630938053
7.103094100952148,4.59930419921875,-4.7596235275268555,0.057648710906505585,-0.026190076023340225,-0.00038177953683771193
7.210771083831787,4.498805522918701,-4.72373104095459,0.07757759839296341,0.011682453565299511,0.020997874438762665
7.411767959594727,4.331307888031006,-4.721338272094727,0.15828579664230347,0.04222481697797775,0.006948387715965509
7.2681989669799805,4.379164695739746,-4.891228675842285,0.18691925704479218,0.06116108223795891,-0.029091600328683853
7.093522548675537,4.6423749923706055,-4.8074798583984375,0.13591352105140686,0.061771929264068604,-0.01626380905508995
7.241877555847168,4.594518661499023,-4.927121162414551,0.03092414326965809,0.048333290964365005,0.01916533336043358
7.361518859863281,4.443770885467529,-4.7835516929626465,-0.018096350133419037,0.02145601063966751,0.01122431829571724
7.3160552978515625,4.470091819763184,-4.570291042327881,-0.09139802306890488,-0.054899897426366806,-0.022372281178832054
7.237092018127441,4.46769905090332,-4.479363918304443,-0.04856235533952713,-0.043293800204992294,-0.033978380262851715
7.136593341827393,4.5083770751953125,-4.374079704284668,0.06948387622833252,0.05932854115962982,-0.009544488042593002
7.227520942687988,4.517948150634766,-4.67078971862793,0.15332266688346863,0.08315158635377884,0.006948387715965509
7.239484786987305,4.470091819763184,-5.049154758453369,0.07505785673856735,0.05444176122546196,0.005726693198084831
7.239484786987305,4.479662895202637,-4.809872627258301,-0.06406260281801224,-0.013973130844533443,-0.004657710436731577
7.301698207855225,4.407878398895264,-4.429114818572998,-0.10941801220178604,-0.06528430432081223,-0.01626380905508995
7.289734363555908,4.4389848709106445,-4.371686935424805,-0.015042114071547985,-0.020692450925707817,-0.02420482225716114
7.256234645843506,4.446163654327393,-4.445864677429199,0.11422843486070633,0.05322006717324257,-0.024815669283270836
7.263412952423096,4.470091819763184,-4.596612453460693,0.15889663994312286,0.062993623316288,-0.02420482225716114
7.261020183563232,4.47487735748291,-4.867300510406494,0.1023932695388794,0.0031305921729654074,-0.03825430944561958
7.28255558013916,4.494019985198975,-4.733302116394043,-0.001374406274408102,-0.05123481526970863,-0.04619532451033592
7.294519901275635,4.427021026611328,-4.488935470581055,-0.02435753494501114,-0.08483141660690308,-0.060244809836149216
7.170093059539795,4.53709077835083,-4.433900356292725,0.04023956134915352,-0.05734328553080559,-0.06574243307113647
7.091129779815674,4.513162612915039,-4.709373950958252,0.10422581434249878,-0.009697199799120426,-0.03886515647172928
7.203592777252197,4.494019985198975,-4.867300510406494,0.08376242965459824,-0.022524992004036903,-0.03214583545923233
7.160521984100342,4.549055099487305,-4.9175496101379395,0.03718532621860504,-0.02802261710166931,-0.0358109213411808
7.122236728668213,4.5083770751953125,-4.687539577484131,-0.027411770075559616,-0.03168770298361778,-0.010155336000025272
7.155735969543457,4.527519702911377,-4.639683246612549,-0.020616095513105392,-0.028633465990424156,-0.008322793990373611
7.246663570404053,4.527519702911377,-4.548755645751953,0.03962871432304382,-0.008475505746901035,-0.008933641016483307
7.251449108123779,4.517948150634766,-4.874478816986084,0.08750387281179428,0.007406522985547781,-0.019318044185638428
7.160521984100342,4.589733123779297,-4.907978534698486,0.06696412712335587,0.025121092796325684,-0.021150587126612663
7.067201614379883,4.5801615715026855,-4.927121162414551,0.0029778804164379835,0.012293301522731781,0.002061609411612153
7.232306480407715,4.453341960906982,-4.742873668670654,-0.05604523420333862,-0.024968381971120834,0.010613471269607544
7.229913711547852,4.436592102050781,-4.572684288024902,-0.04978405311703682,-0.024968381971120834,-0.008933641016483307
7.21316385269165,4.429413795471191,-4.479363918304443,0.016645587980747223,-0.00786465872079134,-0.022372281178832054
7.131807804107666,4.482056140899658,-4.599005222320557,0.06390989571809769,0.000687203137204051,-0.032756682485342026
7.11984395980835,4.53709077835083,-4.67078971862793,0.060779303312301636,-0.012751436792314053,-0.02542651630938053
7.249056339263916,4.54426908493042,-4.692325115203857,0.05207473039627075,-0.031076854094862938,-0.026037365198135376
7.3304123878479,4.510769844055176,-4.77876615524292,0.022219568490982056,-0.06650599837303162,-0.04253023862838745
7.313662528991699,4.486841678619385,-4.642076015472412,0.0035887276753783226,-0.08788564801216125,-0.05474718660116196
7.2681989669799805,4.453341960906982,-4.6995038986206055,-0.0032069480512291193,-0.11598462611436844,-0.06818582862615585
7.05763053894043,4.623232364654541,-4.773980140686035,0.03161134570837021,-0.06589514762163162,-0.06879667192697525
6.906583309173584,4.594518661499023,-5.125725269317627,0.07505785673856735,-0.03290939703583717,-0.033978380262851715
6.949953556060791,4.59930419921875,-5.425127029418945,0.02473931387066841,-0.013973130844533443,0.0032833039294928312
7.160521984100342,4.498805522918701,-5.3007001876831055,-0.04107947647571564,0.007406522985547781,0.01916533336043358
7.287341594696045,4.489234447479248,-4.864907741546631,-0.06910209357738495,0.02817532978951931,0.002672456670552492
7.136593341827393,4.601696968078613,-4.682754039764404,-0.04543176665902138,0.03245126083493233,-0.011377030052244663
7.143772125244141,4.616054058074951,-4.66361141204834,-0.005726693198084831,0.049554985016584396,0.002672456670552492
7.107879638671875,4.572983264923096,-4.860121726989746,0.0029778804164379835,0.022066857665777206,0.0008399150101467967
7.071987152099609,4.582554340362549,-4.979763031005859,-0.007559234742075205,0.025731941685080528,-0.00038177953683771193
7.043273448944092,4.6423749923706055,-4.850550651550293,-0.02870982140302658,0.037948887795209885,0.012446013279259205
7.048058986663818,4.709373950958252,-4.706981182098389,-0.019394399598240852,0.06543701142072678,0.03626905754208565
7.1270222663879395,4.539483547210693,-4.400400638580322,0.06696412712335587,0.13263021409511566,0.06497887521982193
7.165307521820068,4.419842720031738,-4.1297125816345215,0.24281178414821625,0.21570543944835663,0.082082599401474
7.335197925567627,4.4150567054748535,-4.252045631408691,0.47081053256988525,0.3000023663043976,0.07902836054563522
7.301698207855225,4.4389848709106445,-4.939085006713867,0.5112028121948242,0.2835094928741455,0.05215108394622803
7.093522548675537,4.448556423187256,-5.384449005126953,0.4434750974178314,0.25174543261528015,0.0423775278031826
7.110272407531738,4.651946544647217,-5.346164226531982,0.18936264514923096,0.13263021409511566,0.06558972597122192
7.277770042419434,4.458127498626709,-5.3078789710998535,-0.039857782423496246,0.03733803704380989,0.07963921129703522
7.304090976715088,4.434199333190918,-4.8074798583984375,-0.13240113854408264,0.036727190017700195,0.07597412914037704
7.306483745574951,4.348057746887207,-4.563112735748291,-0.12247487902641296,0.052609220147132874,0.07963921129703522
7.320840835571289,4.364807605743408,-4.498506546020508,-0.0423775278031826,0.0892600566148758,0.08025006204843521
7.263412952423096,4.3672003746032715,-4.673182487487793,0.005497625097632408,0.13446275889873505,0.09735377877950668
7.41416072845459,4.256831645965576,-4.584648132324219,-0.07528692483901978,0.07704310864210129,0.09368869662284851
7.4500532150268555,4.218546390533447,-4.529613494873047,-0.1336991935968399,0.01901262067258358,0.07047650218009949
7.440482139587402,4.244867324829102,-4.299902439117432,-0.12438376992940903,0.03184041380882263,0.06314633786678314
7.447660446166992,4.223331928253174,-4.007678985595703,-0.031153209507465363,0.08559497445821762,0.0692548081278801
7.385447025299072,4.18983268737793,-4.194618225097656,0.07689040154218674,0.11308310180902481,0.07658497244119644
7.574779033660889,4.1419758796691895,-4.371686935424805,0.10178242623806,0.11980241537094116,0.08635853230953217
7.610671520233154,4.089334011077881,-4.543970108032227,0.03779617324471474,0.03306210786104202,0.04787515476346016
7.514958381652832,4.130012035369873,-4.651647090911865,-0.05726693198084831,-0.03901786729693413,0.006948387715965509
7.4261250495910645,4.199403762817383,-4.433900356292725,-0.09643751382827759,-0.03596363216638565,0.011835165321826935
7.4811601638793945,4.185046672821045,-4.400400638580322,-0.06780404597520828,-0.027411770075559616,0.01916533336043358
7.519744396209717,4.161118507385254,-4.297509670257568,-0.010078979656100273,0.0019088976550847292,0.01916533336043358
7.519744396209717,4.175475597381592,-4.185046672821045,0.07689040154218674,0.036727190017700195,0.006948387715965509
7.471588611602783,4.187439441680908,-4.232903480529785,0.1782146841287613,0.06726955622434616,-0.0009926267666742206
7.4261250495910645,4.208974838256836,-4.5200419425964355,0.21982865035533905,0.08437328040599823,0.002061609411612153
7.4811601638793945,4.208974838256836,-4.264009952545166,0.23349636793136597,0.10514208674430847,0.006948387715965509
7.6274213790893555,4.237689018249512,-4.6995038986206055,0.2515163719654083,0.056274302303791046,-0.01626380905508995
7.28255558013916,4.623232364654541,-5.889633655548096,0.22288289666175842,0.25052374601364136,-0.005879404954612255
7.320840835571289,3.9912281036376953,-4.867300510406494,0.12972868978977203,0.29389387369155884,0.05154023692011833
7.249056339263916,4.201796531677246,-4.72373104095459,0.024128466844558716,0.13629528880119324,0.03687990456819534
7.380661487579346,4.199403762817383,-4.824229717254639,-0.1790546029806137,-0.09704835712909698,0.04665346071124077
7.5843505859375,4.130012035369873,-4.668396949768066,-0.22127941250801086,-0.09888090193271637,0.04665346071124077
7.718348503112793,4.177868366241455,-4.201796531677246,-0.1721825748682022,-0.03229855000972748,0.01794363744556904
7.502994537353516,4.232903480529785,-4.369294166564941,-0.05787777900695801,0.037948887795209885,0.005726693198084831
7.483552932739258,4.292723655700684,-4.4243292808532715,0.022906772792339325,0.1289651244878769,0.04604261368513107
7.581957817077637,4.1347975730896,-4.498506546020508,0.03901786729693413,0.14484715461730957,0.06192464008927345
7.65374231338501,3.9936211109161377,-4.575077056884766,-0.029320668429136276,0.05810684710741043,0.028938889503479004
7.629814147949219,3.9840497970581055,-4.53200626373291,-0.13988402485847473,-0.04390464723110199,-0.019318044185638428
7.478767395019531,4.158725738525391,-4.467400074005127,-0.17653486132621765,-0.028633465990424156,-0.021150587126612663
7.46919584274292,4.199403762817383,-4.091427803039551,-0.1113269105553627,0.05810684710741043,0.01916533336043358
7.703991413116455,4.12761926651001,-3.928715705871582,-0.008170082233846188,0.07154548168182373,0.03565821051597595
7.87148904800415,4.0079779624938965,-4.237689018249512,0.034665580838918686,-0.0029778804164379835,-0.008933641016483307
7.713562965393066,4.0558342933654785,-4.589433670043945,0.013591351918876171,-0.0426829531788826,-0.07246175408363342
7.507780075073242,4.204189300537109,-4.709373950958252,-0.019394399598240852,0.02695363573729992,-0.08101361989974976
7.385447025299072,4.252045631408691,-4.579862594604492,-0.0814717561006546,0.04772244393825531,-0.06818582862615585
7.466803073883057,4.261617183685303,-4.4410786628723145,-0.16844113171100616,-0.0035887276753783226,-0.05291464552283287
7.526922702789307,4.388735771179199,-4.280759811401367,-0.23677967488765717,-0.09093988686800003,-0.0492495596408844
7.478767395019531,4.280759811401367,-4.256831645965576,-0.21196399629116058,-0.09155073016881943,-0.04497363045811653
7.466803073883057,4.345664978027344,-4.1129631996154785,-0.126216322183609,-0.017027366906404495,-0.02664821222424507
7.466803073883057,4.355236530303955,-4.055535316467285,-0.03245126083493233,0.025121092796325684,-0.018707197159528732
7.505387306213379,4.292723655700684,-4.134498596191406,-0.007559234742075205,0.015958385542035103,-0.019318044185638428
7.320840835571289,4.4605207443237305,-4.333401679992676,-0.024968381971120834,-0.00908635277301073,-0.02053973823785782
7.356733322143555,4.41266393661499,-4.00528621673584,0.03527642786502838,0.07398887723684311,0.03382566571235657
7.550850868225098,4.232903480529785,-4.050749778747559,0.09994988143444061,0.06971294432878494,0.04909684881567955
7.684848785400391,4.132404804229736,-3.840181350708008,0.12850698828697205,0.03733803704380989,0.03077143058180809
7.720741271972656,4.086941242218018,-3.9095730781555176,0.21051323413848877,-0.019470756873488426,-0.010155336000025272
7.500601768493652,4.204189300537109,-4.1730828285217285,0.323596328496933,0.04772244393825531,-0.02176143415272236
7.452445983886719,4.256831645965576,-4.1730828285217285,0.4434750974178314,0.16317257285118103,0.01794363744556904
7.601100444793701,4.12761926651001,-4.563112735748291,0.4086568057537079,0.10636378079652786,0.023441264405846596
7.610671520233154,4.180261135101318,-4.639683246612549,0.2154763638973236,-0.1740151196718216,-0.021150587126612663
7.287341594696045,4.738088130950928,-6.727420806884766,-0.126216322183609,-0.4226299524307251,-0.08651123940944672
7.165307521820068,4.73090934753418,-6.301199436187744,-0.3504736125469208,-0.22166119515895844,-0.01382041908800602
7.395018577575684,4.29033088684082,-4.201796531677246,-0.25479966402053833,0.246247798204422,0.0955212414264679
7.5101728439331055,4.122833251953125,-3.2919256687164307,-0.10941801220178604,0.32993388175964355,0.11751174181699753
7.493124008178711,4.091726779937744,-3.287140130996704,0.026571854948997498,0.2712925374507904,0.10285140573978424
7.692027568817139,3.9792640209198,-4.060320854187012,0.11231953650712967,0.06849125027656555,0.07414158433675766
7.701598644256592,4.115654945373535,-4.591826438903809,0.06322269141674042,0.005573981441557407,0.022219568490982056
7.4261250495910645,4.324129581451416,-4.77876615524292,-0.015652960166335106,0.0489441379904747,0.004504998680204153
7.416553974151611,4.211368083953857,-4.323830604553223,-0.05787777900695801,0.0752105712890625,0.040544986724853516
7.514958381652832,4.225724697113037,-4.201796531677246,-0.09017632901668549,0.020845163613557816,0.07780666649341583
7.610671520233154,4.151547431945801,-4.311866283416748,-0.10140064358711243,-0.034131091088056564,0.10162971168756485
7.531708240509033,4.048655986785889,-4.551148891448975,-0.16042375564575195,-0.13736428320407867,0.1083490327000618
7.3304123878479,4.199403762817383,-4.4482574462890625,-0.2510582208633423,-0.21677441895008087,0.11690089106559753
7.375875949859619,4.048655986785889,-4.374079704284668,-0.3169533610343933,-0.2919086217880249,0.1492757946252823
7.493124008178711,4.110869407653809,-4.388436794281006,-0.32871219515800476,-0.32122930884361267,0.1474432498216629
7.589136123657227,4.161118507385254,-4.376472473144531,-0.31504446268081665,-0.32428354024887085,0.13217207789421082
7.684848785400391,4.153940200805664,-4.285545349121094,-0.23120568692684174,-0.28518930077552795,0.12911784648895264
7.93370246887207,3.981656789779663,-4.474578380584717,-0.16042375564575195,-0.2748049199581146,0.08513683825731277
7.885846138000488,4.027120590209961,-4.610969066619873,-0.09643751382827759,-0.1483595222234726,0.017332790419459343
7.713562965393066,4.094119548797607,-4.596612453460693,-0.019394399598240852,0.01901262067258358,-0.027869906276464462
7.694420337677002,4.022335052490234,-4.232903480529785,0.020997874438762665,0.10880716890096664,-0.04802786558866501
7.593921661376953,4.082155227661133,-3.9574296474456787,0.0713164210319519,0.09414683282375336,-0.08590039610862732
7.349554538726807,4.180261135101318,-3.9957146644592285,0.1322484314441681,7.635590736754239e-05,-0.0877329409122467
7.304090976715088,4.266402721405029,-4.524827480316162,0.14400723576545715,-0.06039752438664436,-0.04619532451033592
7.378268718719482,4.244867324829102,-4.824229717254639,0.11606097966432571,-0.011529741808772087,-0.011987877078354359
7.416553974151611,4.158725738525391,-4.905585289001465,0.08002099394798279,0.01779092662036419,0.0014507622690871358
7.406982421875,4.280759811401367,-4.388436794281006,-0.08025006204843521,-0.06100837141275406,-0.03458922728896141
7.397411346435547,4.357629299163818,-4.579862594604492,-0.082082599401474,-0.09949174523353577,-0.02542651630938053
7.349554538726807,4.340879440307617,-4.6995038986206055,-0.0889546349644661,-0.07566870748996735,0.004504998680204153
7.354340553283691,4.299902439117432,-4.462614059448242,-0.04856235533952713,-0.0023670331574976444,0.03687990456819534
7.524529933929443,4.223331928253174,-4.141676902770996,0.045889899134635925,0.05993938818573952,0.03565821051597595
7.500601768493652,4.1419758796691895,-4.335794448852539,0.09743013978004456,-0.015194825828075409,-0.0009926267666742206
7.421339511871338,4.249652862548828,-4.644468784332275,0.06696412712335587,-0.0811663269996643,-0.016874656081199646
7.409375190734863,4.29033088684082,-4.709373950958252,0.011071606539189816,-0.08788564801216125,0.002672456670552492
7.5101728439331055,4.144368648529053,-4.661218643188477,-0.0584886260330677,-0.09827005118131638,0.010613471269607544
7.546065330505371,4.1347975730896,-4.369294166564941,-0.10201149433851242,-0.11964970827102661,-0.009544488042593002
7.586743354797363,4.077369689941406,-4.292723655700684,-0.09827005118131638,-0.19661645591259003,-0.05047125369310379
7.277770042419434,4.383950233459473,-5.075475692749023,-0.04359922185540199,-0.13736428320407867,-0.08590039610862732
7.110272407531738,4.321736812591553,-4.402793884277344,0.048333290964365005,-0.021303297951817513,-0.028480753302574158
7.249056339263916,4.264009952545166,-4.53200626373291,0.05459447205066681,-0.17096087336540222,-0.0028251686599105597
7.46919584274292,4.223331928253174,-5.044369220733643,0.025961007922887802,-0.15080291032791138,0.020997874438762665
7.610671520233154,4.1036906242370605,-4.77876615524292,-0.00259610079228878,-0.0695602297782898,0.008170082233846188
7.641777992248535,4.0558342933654785,-4.675575256347656,-0.021226942539215088,-0.0823880210518837,-0.014431266114115715
7.6034932136535645,4.039084434509277,-4.716552734375,-0.039857782423496246,-0.1074327602982521,-0.04130854457616806
7.409375190734863,4.168296813964844,-4.709373950958252,-0.04978405311703682,-0.09643751382827759,-0.07001836597919464
7.27537727355957,4.2592244148254395,-4.584648132324219,-0.005726693198084831,-0.036574479192495346,-0.04497363045811653
7.428517818450928,4.161118507385254,-4.599005222320557,0.05894676223397255,0.0037414394319057465,-0.030313294380903244
7.33759069442749,4.211368083953857,-4.838586330413818,0.06261184066534042,0.000687203137204051,-0.05047125369310379
7.2921271324157715,4.254438877105713,-4.84815788269043,0.022906772792339325,-0.021914144977927208,-0.049860406666994095
7.308876991271973,4.2281174659729,-4.7931227684021,-0.010078979656100273,-0.034131091088056564,-0.048638712614774704
7.3160552978515625,4.240081787109375,-4.694717884063721,0.007330167107284069,-0.02557922899723053,-0.05291464552283287
7.378268718719482,4.264009952545166,-4.570291042327881,0.08254073560237885,0.014736690558493137,-0.0626882016658783
7.349554538726807,4.266402721405029,-4.697110652923584,0.13347013294696808,0.00129805039614439,-0.08406785130500793
7.258627414703369,4.304687976837158,-4.771587371826172,0.13469181954860687,-0.017027366906404495,-0.09567394852638245
7.136593341827393,4.371985912322998,-4.802694320678711,0.1322484314441681,0.004963133949786425,-0.08040276914834976
7.0408806800842285,4.429413795471191,-4.764409065246582,0.13033953309059143,0.023288551717996597,-0.057801421731710434
7.1988067626953125,4.316951274871826,-4.625326156616211,0.1172826737165451,0.004963133949786425,-0.005879404954612255
7.488338470458984,4.1970109939575195,-4.771587371826172,0.09804098308086395,-0.04818057641386986,-0.02420482225716114
7.505387306213379,4.216153621673584,-4.881657123565674,0.08376242965459824,-0.06223006546497345,-0.051082100719213486
7.217949390411377,4.345664978027344,-4.955834865570068,0.03527642786502838,-0.07139277458190918,-0.07979192584753036
7.162914752960205,4.4054856300354,-4.864907741546631,0.0029778804164379835,-0.07627955079078674,-0.05291464552283287
7.203592777252197,4.357629299163818,-4.754837512969971,0.007941014133393764,-0.054899897426366806,-0.032756682485342026
7.146164894104004,4.360022068023682,-4.78594446182251,0.02970244735479355,-0.061619218438863754,-0.02542651630938053
7.21316385269165,4.326522350311279,-5.046761989593506,0.033443886786699295,-0.05856497958302498,-0.015042114071547985
7.241877555847168,4.3121657371521,-5.923133373260498,0.02473931387066841,-0.03901786729693413,-0.018096350133419037
7.067201614379883,4.328915119171143,-5.755336761474609,-0.12499462068080902,0.09414683282375336,0.020997874438762665
7.249056339263916,4.2281174659729,-4.833800792694092,-0.20073968172073364,-0.02008160389959812,-0.013209572061896324
7.024130821228027,4.383950233459473,-4.366901397705078,-0.18401773273944855,-0.05123481526970863,-0.019928891211748123
7.170093059539795,4.450949192047119,-4.769194602966309,-0.07711946964263916,-0.03840702027082443,0.014889402315020561
7.2227349281311035,4.462913513183594,-4.738088130950928,-0.01252236869186163,0.07154548168182373,0.02710634656250477
7.148557662963867,4.46769905090332,-4.742873668670654,-0.027411770075559616,0.0752105712890625,0.04604261368513107
7.3160552978515625,4.376771926879883,-4.771587371826172,-0.07093463838100433,0.03061871975660324,0.04665346071124077
7.28255558013916,4.386343002319336,-4.706981182098389,-0.11812258511781693,-0.017027366906404495,0.02283041551709175
7.246663570404053,4.393521308898926,-4.7596235275268555,-0.14049486815929413,-0.04818057641386986,0.014278554357588291
7.107879638671875,4.453341960906982,-4.872086048126221,-0.18401773273944855,-0.07200361788272858,0.016721943393349648
7.0959153175354,4.4389848709106445,-4.872086048126221,-0.1957765519618988,-0.06345175951719284,0.028938889503479004
7.103094100952148,4.5011982917785645,-4.733302116394043,-0.2026485800743103,-0.03352024406194687,0.0558161698281765
7.3639116287231445,4.489234447479248,-5.104189872741699,-0.264725923538208,-0.10621106624603271,0.048486001789569855
7.442874908447266,4.5011982917785645,-5.755336761474609,-0.526321291923523,-0.3218401372432709,-0.028480753302574158
7.179664134979248,4.601696968078613,-6.002096652984619,-0.925128161907196,-0.537469208240509,-0.08040276914834976
6.765407085418701,4.824229717254639,-5.250152111053467,-1.1606098413467407,-0.546631932258606,-0.04680617153644562
6.830013275146484,4.7835516929626465,-4.340580463409424,-1.0599727630615234,-0.41041299700737,0.04115583375096321
7.124629497528076,4.620839595794678,-4.481756687164307,-0.7996754050254822,-0.2919086217880249,0.07108735293149948
7.141379356384277,4.628017902374268,-4.735694885253906,-0.6325323581695557,-0.17645850777626038,0.053983625024557114
7.067201614379883,4.742873668670654,-4.6540398597717285,-0.5157841444015503,-0.08483141660690308,0.038101598620414734
6.899405002593994,4.740480899810791,-4.505684852600098,-0.43438875675201416,-0.0017561858985573053,0.06375718116760254
7.0408806800842285,4.66151762008667,-3.79471755027771,-0.2715979516506195,0.1424037665128708,0.11629004776477814
7.251449108123779,4.491627216339111,-3.3948171138763428,-0.001985253533348441,0.25479966402053833,0.12423106282949448
7.502994537353516,4.47487735748291,-3.4139597415924072,0.2545706033706665,0.2853420376777649,0.08941277116537094
7.493124008178711,4.505984306335449,-4.053142547607422,0.3850628435611725,0.2865637242794037,0.02832804247736931
7.265805721282959,4.671088695526123,-4.572684288024902,0.3229091465473175,0.25235626101493835,-0.01382041908800602
7.141379356384277,4.718945503234863,-4.548755645751953,0.10117157548666,0.12346750497817993,-0.004657710436731577
7.227520942687988,4.735694885253906,-4.235296249389648,-0.07841751724481583,-0.03779617324471474,0.0032833039294928312
7.349554538726807,4.637589454650879,-4.141676902770996,-0.08956547826528549,-0.0817771777510643,-0.004657710436731577
7.301698207855225,4.771587371826172,-4.0818562507629395,0.045889899134635925,-0.0035887276753783226,-0.033978380262851715
7.0648088455200195,4.776372909545898,-4.376472473144531,0.14278554916381836,0.055052608251571655,-0.04497363045811653
7.11984395980835,4.886742115020752,-4.390829563140869,0.13591352105140686,0.0067956759594380856,-0.043141089379787445
6.9329047203063965,4.982454776763916,-5.271986484527588,0.03779617324471474,-0.054899897426366806,-0.039476003497838974
7.048058986663818,5.013561725616455,-4.72373104095459,-0.09330692142248154,-0.020692450925707817,0.014278554357588291
7.138986587524414,4.819443702697754,-4.409972190856934,-0.11873343586921692,-0.06039752438664436,0.01794363744556904
7.162914752960205,4.809872627258301,-4.192225456237793,-0.038636088371276855,-0.02802261710166931,0.008780929259955883
7.1748785972595215,4.769194602966309,-4.103391647338867,0.08376242965459824,0.0067956759594380856,0.0032833039294928312
7.143772125244141,4.860121726989746,-4.555934429168701,0.18065807223320007,0.035505495965480804,-0.004046862944960594
7.172485828399658,4.776372909545898,-4.771587371826172,0.1247655525803566,0.006184828467667103,-0.005268557462841272
7.091129779815674,4.874777793884277,-4.953442096710205,0.009239064529538155,-0.04940227046608925,-0.01748550310730934
7.076773166656494,4.893920421600342,-4.340580463409424,-0.02680092304944992,-0.018249060958623886,0.016111096367239952
7.131807804107666,4.809872627258301,-4.4721856117248535,0.0489441379904747,-0.0017561858985573053,0.030160583555698395
7.232306480407715,4.565804481506348,-3.928715705871582,0.23532891273498535,0.1918824017047882,0.056427016854286194
7.347161769866943,4.611268520355225,-4.357329845428467,0.48012593388557434,0.22670069336891174,0.02038702741265297
7.258627414703369,4.553840637207031,-4.934299468994141,0.50685054063797,0.22547899186611176,0.0014507622690871358
7.201199531555176,4.702195644378662,-5.226223945617676,0.3844519853591919,0.21570543944835663,-0.010766183026134968
6.997809886932373,4.78594446182251,-5.516054630279541,0.11231953650712967,0.0880383625626564,-0.00038177953683771193
7.098308563232422,4.742873668670654,-4.876871585845947,-0.16164545714855194,0.008017370477318764,0.04787515476346016
7.404589653015137,4.60648250579834,-4.206582069396973,-0.21196399629116058,-0.03596363216638565,0.06253548711538315
7.402196884155273,4.54426908493042,-4.460221290588379,-0.12377292662858963,0.00129805039614439,0.038101598620414734
7.368697166442871,4.53709077835083,-4.103391647338867,-0.014431266114115715,0.10758547484874725,0.03382566571235657
7.342376232147217,4.527519702911377,-4.299902439117432,0.0558161698281765,0.08070819079875946,0.002672456670552492
7.304090976715088,4.517948150634766,-4.508078098297119,0.03588727489113808,0.037948887795209885,-0.012598725035786629
7.239484786987305,4.687838554382324,-4.333401679992676,-0.05413633957505226,0.022677704691886902,0.016721943393349648
7.296912670135498,4.649553298950195,-4.314259052276611,-0.028098974376916885,0.03245126083493233,0.016111096367239952
7.296912670135498,4.683053016662598,-4.287938117980957,-0.001374406274408102,0.025731941685080528,0.002672456670552492
7.253841876983643,4.706981182098389,-4.309473514556885,0.004886778071522713,0.01901262067258358,-0.0009926267666742206
7.251449108123779,4.726123809814453,-4.333401679992676,0.016645587980747223,-0.0011453386396169662,-0.005879404954612255
7.2681989669799805,4.699802875518799,-4.426722049713135,-0.024968381971120834,-0.04085041210055351,-0.004657710436731577
7.1988067626953125,4.704588413238525,-4.457828521728516,-0.035505495965480804,-0.03290939703583717,0.006948387715965509
7.294519901275635,4.644767761230469,-4.273581027984619,0.026571854948997498,0.04100312292575836,0.024662958458065987
7.308876991271973,4.541876316070557,-4.146761417388916,0.13156123459339142,0.09048175066709518,0.022219568490982056
7.332805156707764,4.558626174926758,-4.429114818572998,0.17882554233074188,0.08559497445821762,0.006337540224194527
7.306483745574951,4.60648250579834,-4.603790760040283,0.125987246632576,0.057496000081300735,-0.004046862944960594
7.265805721282959,4.637589454650879,-4.625326156616211,0.03718532621860504,0.014125842601060867,0.0008399150101467967
7.244270324707031,4.59930419921875,-4.54636287689209,-0.00259610079228878,-0.0017561858985573053,0.008170082233846188
7.2681989669799805,4.6184468269348145,-4.493721008300781,-0.02870982140302658,-0.015194825828075409,0.010613471269607544
7.335197925567627,4.549055099487305,-4.362115859985352,-0.04107947647571564,-0.007253811229020357,0.022219568490982056
7.375875949859619,4.520340919494629,-4.261617183685303,-0.014431266114115715,-0.015805672854185104,0.002061609411612153
7.347161769866943,4.572983264923096,-4.299902439117432,0.02038702741265297,-0.01885990984737873,-0.013209572061896324
7.335197925567627,4.60648250579834,-4.374079704284668,0.07322531193494797,-0.0017561858985573053,-0.018707197159528732
7.237092018127441,4.625625133514404,-4.668396949768066,0.07627955079078674,-0.00908635277301073,-0.021150587126612663
7.208378314971924,4.671088695526123,-4.6301116943359375,0.0328330397605896,0.004963133949786425,-0.0028251686599105597
7.311269760131836,4.589733123779297,-4.445864677429199,0.01794363744556904,-0.0017561858985573053,0.008170082233846188
7.3399834632873535,4.522733688354492,-4.42193603515625,0.045889899134635925,7.635590736754239e-05,-0.00038177953683771193
7.421339511871338,4.491627216339111,-4.3788652420043945,0.09994988143444061,0.018401773646473885,-0.010766183026134968
7.229913711547852,4.683053016662598,-4.821836948394775,0.23410721123218536,0.15217731893062592,-0.010766183026134968
7.237092018127441,4.59212589263916,-5.19033145904541,0.3248180150985718,0.26212984323501587,0.024662958458065987
7.33759069442749,4.584947109222412,-5.44426965713501,0.21860696375370026,0.25418880581855774,0.027717193588614464
7.390232563018799,4.472484588623047,-5.049154758453369,0.012293301522731781,0.16500511765480042,0.017332790419459343
7.466803073883057,4.510769844055176,-4.836193561553955,-0.1113269105553627,0.0752105712890625,0.006948387715965509
7.466803073883057,4.522733688354492,-4.54636287689209,-0.2858765125274658,0.014736690558493137,-0.013209572061896324
7.3639116287231445,4.565804481506348,-3.91914439201355,-0.24487338960170746,0.06726955622434616,-0.0009926267666742206
7.354340553283691,4.5323052406311035,-3.7109687328338623,-0.16905197501182556,0.11125055700540543,0.008780929259955883
7.428517818450928,4.486841678619385,-3.57906436920166,0.0011453386396169662,0.1424037665128708,0.0130568603053689
7.385447025299072,4.563411712646484,-4.192225456237793,0.08628217875957489,0.11674818396568298,-0.008933641016483307
7.311269760131836,4.644767761230469,-4.433900356292725,0.05085303261876106,0.11186140775680542,-0.004046862944960594
7.2921271324157715,4.637589454650879,-4.350151538848877,-0.04611896723508835,0.06421531736850739,0.0032833039294928312
7.335197925567627,4.623232364654541,-4.235296249389648,-0.1113269105553627,0.01779092662036419,0.008170082233846188
7.3304123878479,4.630411148071289,-3.9382870197296143,-0.08086090534925461,0.05016583204269409,0.02160872146487236
7.418946743011475,4.632803916931152,-3.833002805709839,0.025961007922887802,0.08254073560237885,0.03687990456819534
7.495516777038574,4.568197727203369,-4.216153621673584,0.08933641016483307,0.07398887723684311,0.028938889503479004
7.5173516273498535,4.5801615715026855,-4.42193603515625,0.07444700598716736,0.058717694133520126,0.014278554357588291
7.428517818450928,4.575376033782959,-4.517649173736572,-0.0007635590736754239,0.031229566782712936,0.005726693198084831
7.375875949859619,4.577768802642822,-4.275974273681641,-0.0584886260330677,-0.004810422193259001,0.008780929259955883
7.354340553283691,4.52991247177124,-4.134498596191406,-0.013133215717971325,0.017180079594254494,0.02160872146487236
7.454838752746582,4.494019985198975,-4.031607151031494,0.09994988143444061,0.09597937762737274,0.03993413969874382
7.454838752746582,4.465306282043457,-4.486542224884033,0.1477486789226532,0.12224581092596054,0.03871244564652443
7.52931547164917,4.513162612915039,-4.438685894012451,0.09559759497642517,0.13446275889873505,0.04909684881567955
7.639385223388672,4.458127498626709,-4.42193603515625,0.009849912486970425,0.07276718318462372,0.03321481868624687
7.4739813804626465,4.422235488891602,-4.0196428298950195,-0.034283801913261414,-0.054899897426366806,0.0014507622690871358
7.447660446166992,4.546662330627441,-4.903192520141602,-0.06039752438664436,0.053830914199352264,0.002672456670552492
7.490731239318848,4.517948150634766,-4.438685894012451,-0.0590994730591774,0.2047101855278015,0.028938889503479004
7.464410305023193,4.4054856300354,-3.6583266258239746,-0.05169294774532318,0.13018682599067688,0.023441264405846596
7.581957817077637,4.450949192047119,-3.959822416305542,-0.05543438717722893,0.0745997205376625,0.022219568490982056
7.656135082244873,4.453341960906982,-4.010071754455566,-0.04359922185540199,0.06971294432878494,0.005726693198084831
7.505387306213379,4.522733688354492,-3.967000722885132,-0.06039752438664436,0.05444176122546196,-0.005268557462841272
7.613064289093018,4.434199333190918,-3.967000722885132,0.01794363744556904,0.1014770045876503,0.032603971660137177
7.720741271972656,4.371985912322998,-3.9406797885894775,-0.03924693539738655,0.011071606539189816,0.008780929259955883
7.500601768493652,4.505984306335449,-3.8545382022857666,-0.011300674639642239,0.06055023521184921,0.02038702741265297
7.665706634521484,4.513162612915039,-3.9502511024475098,-0.0032069480512291193,0.03978142887353897,0.016721943393349648
7.680063247680664,4.4605207443237305,-3.8234314918518066,-0.01252236869186163,0.019623467698693275,-0.005268557462841272
7.641777992248535,4.5011982917785645,-3.911965847015381,0.008551862090826035,-0.0029778804164379835,-0.02664821222424507
7.490731239318848,4.561018943786621,-4.065106391906738,0.004275931045413017,-0.015194825828075409,-0.0364217683672905
7.390232563018799,4.601696968078613,-4.026821613311768,-0.03245126083493233,-0.006642963737249374,-0.009544488042593002
7.514958381652832,4.587339878082275,-3.8162529468536377,-0.031153209507465363,0.00129805039614439,0.015500249341130257
7.754240989685059,4.515555381774902,-3.8712878227233887,-0.001985253533348441,-0.021914144977927208,0.011835165321826935
7.814061641693115,4.47487735748291,-3.904787540435791,0.025350160896778107,-0.015194825828075409,-0.02420482225716114
7.4811601638793945,4.52991247177124,-4.041178226470947,0.030313294380903244,-0.030466007068753242,-0.048638712614774704
7.172485828399658,4.647160530090332,-4.151547431945801,0.011071606539189816,-0.008475505746901035,-0.008322793990373611
7.256234645843506,4.584947109222412,-3.91914439201355,0.005497625097632408,0.026342788711190224,0.06620056927204132
7.548458099365234,4.422235488891602,-3.7995033264160156,0.016034740954637527,0.006184828467667103,0.07780666649341583
7.77816915512085,4.431806564331055,-3.8306100368499756,0.025350160896778107,-0.023746687918901443,0.05276193097233772
7.7470622062683105,4.47487735748291,-3.8712878227233887,0.022219568490982056,-0.0426829531788826,0.013667707331478596
7.519744396209717,4.821836948394775,-4.986941337585449,0.09804098308086395,-0.09093988686800003,0.009391776286065578
7.567600727081299,4.54426908493042,-4.929513931274414,0.08559497445821762,0.1008661538362503,0.047264307737350464
7.6513495445251465,4.29033088684082,-4.426722049713135,-0.005726693198084831,0.09292513877153397,0.03321481868624687
7.5843505859375,4.369593143463135,-4.124927043914795,-0.11690089106559753,-0.0035887276753783226,0.0008399150101467967
7.577171802520752,4.386343002319336,-3.6343984603881836,-0.10384403169155121,-0.04390464723110199,0.002061609411612153
7.70877742767334,4.427021026611328,-3.7133617401123047,-0.009391776286065578,0.0037414394319057465,-0.004657710436731577
7.555636405944824,4.486841678619385,-3.7372899055480957,0.06757497787475586,0.04283566400408745,0.002061609411612153
7.615457057952881,4.465306282043457,-3.904787540435791,0.11293038725852966,0.047111593186855316,0.012446013279259205
7.648956775665283,4.393521308898926,-4.122534275054932,0.06948387622833252,0.007406522985547781,-0.005879404954612255
7.52213716506958,4.491627216339111,-4.18983268737793,-7.635590736754239e-05,-0.03840702027082443,-0.02298312820494175
7.505387306213379,4.503591537475586,-4.010071754455566,-0.036727190017700195,-0.05062396824359894,-0.012598725035786629
7.567600727081299,4.491627216339111,-3.9406797885894775,-0.020005248486995697,-0.03901786729693413,0.0032833039294928312
7.634599685668945,4.496412754058838,-4.022035598754883,0.04459185153245926,-0.00786465872079134,0.0008399150101467967
7.586743354797363,4.5323052406311035,-4.1730828285217285,0.07322531193494797,0.023288551717996597,-0.00038177953683771193
7.519744396209717,4.525126934051514,-4.304687976837158,0.01916533336043358,0.000687203137204051,0.0008399150101467967
7.550850868225098,4.494019985198975,-4.1297125816345215,-0.05787777900695801,-0.043293800204992294,-0.0009926267666742206
7.5412797927856445,4.515555381774902,-4.01246452331543,-0.07902836054563522,-0.05734328553080559,-0.0022143214009702206
7.562815189361572,4.479662895202637,-3.8784663677215576,-0.015042114071547985,-0.0029778804164379835,0.008780929259955883
7.682456016540527,4.441378116607666,-3.9885363578796387,0.05329642444849014,0.02145601063966751,0.013667707331478596
7.703991413116455,4.46769905090332,-4.194618225097656,0.060779303312301636,0.009849912486970425,-0.007711946498602629
7.605885982513428,4.427021026611328,-4.314259052276611,-0.02870982140302658,-0.03168770298361778,-0.023593975231051445
7.493124008178711,4.477270126342773,-4.175475597381592,-0.09888090193271637,-0.06467345356941223,-0.022372281178832054
7.483552932739258,4.4605207443237305,-3.943072557449341,-0.10140064358711243,-0.05123481526970863,-0.005879404954612255
7.553243637084961,4.4389848709106445,-3.7995033264160156,-0.037414394319057465,-0.010308047756552696,0.009391776286065578
7.65374231338501,4.4150567054748535,-3.8712878227233887,0.027869906276464462,-0.0005344913806766272,0.007559234742075205
7.658527851104736,4.448556423187256,-3.974179267883301,0.043981000781059265,-0.0005344913806766272,-0.0034360159188508987
7.613064289093018,4.482056140899658,-4.089034557342529,0.025350160896778107,-0.026190076023340225,-0.011987877078354359
7.543672561645508,4.520340919494629,-4.1368913650512695,-7.635590736754239e-05,-0.015805672854185104,-0.011987877078354359
7.500601768493652,4.47487735748291,-3.945465326309204,-0.015042114071547985,-0.02557922899723053,-0.007711946498602629
7.5173516273498535,4.4844489097595215,-3.8760735988616943,0.0029778804164379835,-0.04390464723110199,-0.011377030052244663
7.483552932739258,4.6974101066589355,-4.254438877105713,0.08933641016483307,-0.004810422193259001,-0.015042114071547985
7.440482139587402,4.6902313232421875,-4.225724697113037,0.08192989230155945,0.015958385542035103,-0.00038177953683771193
7.383054256439209,4.568197727203369,-4.110570430755615,0.04214845970273018,-0.004199574701488018,0.02405211143195629
7.505387306213379,4.472484588623047,-4.084249019622803,-0.008170082233846188,-0.05856497958302498,0.03077143058180809
7.6274213790893555,4.4054856300354,-4.026821613311768,-0.020005248486995697,-0.09155073016881943,0.0130568603053689
7.581957817077637,4.4389848709106445,-4.098606109619141,0.02970244735479355,-0.06406260281801224,-0.0064902519807219505
7.454838752746582,4.699802875518799,-4.508078098297119,0.1253764033317566,0.025731941685080528,0.002672456670552492
7.342376232147217,4.565804481506348,-4.5583271980285645,0.18753011524677277,0.16989189386367798,0.05703786388039589
7.687242031097412,4.35045051574707,-4.412364959716797,0.08315158635377884,0.061771929264068604,0.06558972597122192
7.735098361968994,4.345664978027344,-4.467400074005127,-0.08338065445423126,-0.07872293889522552,0.018554486334323883
7.625028610229492,4.4054856300354,-4.273581027984619,-0.18340688943862915,-0.10621106624603271,0.0008399150101467967
7.553243637084961,4.434199333190918,-3.7899320125579834,-0.1280488520860672,-0.043293800204992294,0.011835165321826935
7.641777992248535,4.316951274871826,-3.8545382022857666,0.004886778071522713,0.015958385542035103,0.013667707331478596
7.65374231338501,4.336093902587891,-3.9311084747314453,0.06261184066534042,0.040392275899648666,0.01122431829571724
7.59870719909668,4.379164695739746,-4.223331928253174,0.11048699915409088,0.06116108223795891,0.00022906772210262716
7.586743354797363,4.4150567054748535,-4.299902439117432,0.09681928902864456,0.05810684710741043,-0.0016034740256145597
7.601100444793701,4.4054856300354,-4.429114818572998,0.0017561858985573053,0.006184828467667103,-0.009544488042593002
7.59152889251709,4.424628257751465,-4.275974273681641,-0.12308572232723236,-0.052456509321928024,-0.014431266114115715
7.5652079582214355,4.41266393661499,-4.124927043914795,-0.15355172753334045,-0.06650599837303162,-0.015042114071547985
7.59870719909668,4.424628257751465,-3.9622151851654053,0.09804098308086395,0.04161396995186806,-0.01748550310730934
7.548458099365234,4.4844489097595215,-4.213760852813721,0.13530266284942627,0.04527905210852623,-0.031534988433122635
7.320840835571289,4.625625133514404,-4.66361141204834,0.059557609260082245,0.0165692325681448,-0.03214583545923233
7.371089935302734,4.630411148071289,-4.390829563140869,-0.06841489672660828,0.00862821750342846,0.014278554357588291
7.6034932136535645,4.503591537475586,-4.089034557342529,-0.13866232335567474,-0.04390464723110199,0.031382277607917786
7.641777992248535,4.462913513183594,-3.8712878227233887,-0.08712209016084671,-0.0231358390301466,0.01122431829571724
7.569993495941162,4.455734729766846,-3.78753924369812,0.01046075951308012,0.009239064529538155,0.002061609411612153
7.502994537353516,4.4844489097595215,-3.9263229370117188,0.10361496359109879,0.047111593186855316,0.0051158457063138485
7.495516777038574,4.491627216339111,-4.287938117980957,0.11606097966432571,0.04772244393825531,0.01916533336043358
7.572386264801025,4.465306282043457,-4.359723091125488,0.022219568490982056,0.018401773646473885,0.02832804247736931
7.634599685668945,4.3672003746032715,-4.161118507385254,-0.07963921129703522,-0.03962871432304382,0.017332790419459343
7.692027568817139,4.345664978027344,-3.8473596572875977,-0.09704835712909698,-0.06772769242525101,-0.005268557462841272
7.6274213790893555,4.338486671447754,-3.809074640274048,-0.01626380905508995,-0.05856497958302498,-0.02542651630938053
7.505387306213379,4.443770885467529,-4.041178226470947,0.08628217875957489,0.00862821750342846,-0.016874656081199646
7.59870719909668,4.424628257751465,-4.295116424560547,0.11361759155988693,0.04527905210852623,0.0032833039294928312
7.65374231338501,4.407878398895264,-4.560719966888428,-0.007559234742075205,-0.028633465990424156,-0.012598725035786629
7.6034932136535645,4.419842720031738,-4.4410786628723145,-0.16660858690738678,-0.1080436110496521,-0.027869906276464462
7.546065330505371,4.427021026611328,-4.120141506195068,-0.20073968172073364,-0.10193513333797455,-0.02542651630938053
7.464410305023193,4.436592102050781,-3.8473596572875977,-0.08582404255867004,-0.012140588834881783,-0.016874656081199646
7.4572319984436035,4.5011982917785645,-3.9263229370117188,0.045889899134635925,0.053830914199352264,-0.0009926267666742206
7.601100444793701,4.496412754058838,-4.1368913650512695,0.07261446863412857,0.05444176122546196,0.011835165321826935
7.689634799957275,4.5011982917785645,-4.225724697113037,0.013591351918876171,-0.010308047756552696,-0.010155336000025272
7.550850868225098,4.515555381774902,-4.2281174659729,-0.05169294774532318,-0.059175826609134674,-0.032756682485342026
7.3304123878479,4.5562334060668945,-4.122534275054932,-0.05978667363524437,-0.052456509321928024,-0.027869906276464462
7.28255558013916,4.482056140899658,-3.804288864135742,-0.015652960166335106,-0.017027366906404495,0.002672456670552492
7.435696601867676,4.6184468269348145,-4.500899314880371,0.09185615926980972,-0.007253811229020357,0.02038702741265297
7.622635841369629,4.575376033782959,-4.764409065246582,0.10735640674829483,0.09842276573181152,0.03382566571235657
7.6609206199646,4.477270126342773,-4.2592244148254395,0.009239064529538155,0.07337802648544312,0.0130568603053689
7.560422420501709,4.5083770751953125,-4.247260093688965,-0.12934690713882446,-0.07078192383050919,-0.007101099472492933
7.440482139587402,4.517948150634766,-3.91914439201355,-0.16225630044937134,-0.06345175951719284,0.002672456670552492
7.493124008178711,4.462913513183594,-3.6320056915283203,-0.05474718660116196,0.0025197449140250683,0.031382277607917786
7.620242595672607,4.41266393661499,-3.7827534675598145,0.09185615926980972,0.043446511030197144,0.03321481868624687
7.670492172241211,4.419842720031738,-4.182653903961182,0.16019469499588013,0.053830914199352264,0.01916533336043358
7.617849826812744,4.458127498626709,-4.553541660308838,0.13095037639141083,0.049554985016584396,-0.00038177953683771193
7.406982421875,4.54426908493042,-4.642076015472412,-0.018783552572131157,0.015347537584602833,0.0014507622690871358
7.440482139587402,4.482056140899658,-4.161118507385254,-0.16783028841018677,-0.03962871432304382,0.02710634656250477
7.574779033660889,4.386343002319336,-3.7133617401123047,-0.15912571549415588,-0.059175826609134674,0.03749075159430504
7.684848785400391,4.326522350311279,-3.598506212234497,0.012293301522731781,0.012293301522731781,0.028938889503479004
7.706384658813477,4.3432722091674805,-3.722932815551758,0.11606097966432571,0.05932854115962982,0.018554486334323883
7.555636405944824,4.434199333190918,-4.2831525802612305,0.21295662224292755,0.10514208674430847,-0.0009926267666742206
7.375875949859619,4.608875751495361,-4.7141594886779785,0.11606097966432571,0.09475768357515335,0.014278554357588291
7.378268718719482,4.584947109222412,-4.646861553192139,0.01725643500685692,0.07215633243322372,0.03443651273846626
7.648956775665283,4.4150567054748535,-4.18983268737793,-0.17775654792785645,-0.03962871432304382,0.050929389894008636
7.780561923980713,4.292723655700684,-3.7755749225616455,-0.20700086653232574,-0.1074327602982521,0.016111096367239952
7.773383617401123,4.244867324829102,-3.5336008071899414,-0.07589777559041977,-0.07627955079078674,-0.02542651630938053
7.696813106536865,4.357629299163818,-4.091427803039551,0.049554985016584396,-0.0426829531788826,-0.06085565686225891
7.4500532150268555,4.470091819763184,-4.4410786628723145,-0.029320668429136276,-0.06528430432081223,-0.06757497787475586
7.454838752746582,4.498805522918701,-4.175475597381592,-0.17409147322177887,-0.12270393967628479,-0.04130854457616806
7.507780075073242,4.450949192047119,-3.8832521438598633,-0.24426254630088806,-0.16973918676376343,-0.032756682485342026
7.505387306213379,4.465306282043457,-3.7277185916900635,-0.22189027070999146,-0.17890189588069916,-0.028480753302574158
7.577171802520752,4.465306282043457,-3.6391842365264893,-0.1280488520860672,-0.14958122372627258,-0.031534988433122635
7.4811601638793945,4.517948150634766,-3.6511483192443848,0.013591351918876171,-0.09032903611660004,-0.03886515647172928
7.33759069442749,4.647160530090332,-3.9311084747314453,0.12972868978977203,-0.030466007068753242,-0.024815669283270836
7.359126091003418,4.620839595794678,-4.060320854187012,0.1396549493074417,-0.027411770075559616,-0.010766183026134968
7.440482139587402,4.601696968078613,-4.1297125816345215,0.11919157207012177,-0.04390464723110199,0.00022906772210262716
7.538887023925781,4.525126934051514,-4.096213340759277,0.03588727489113808,-0.12697987258434296,-0.014431266114115715
7.558029651641846,4.470091819763184,-4.249652862548828,-0.010078979656100273,-0.2015032321214676,-0.040697697550058365
7.256234645843506,4.735694885253906,-4.812265396118164,0.1483595222234726,0.024510245770215988,-0.03703261539340019
7.177271366119385,4.53709077835083,-4.364508628845215,0.29687178134918213,0.16134002804756165,0.02283041551709175
7.634599685668945,4.419842720031738,-4.689932346343994,0.18501035869121552,-0.06345175951719284,-0.004046862944960594
7.507780075073242,4.455734729766846,-4.156332969665527,-0.19829629361629486,-0.19234053790569305,-0.07918107509613037
7.373483180999756,4.446163654327393,-4.069892406463623,-0.1343100368976593,-0.1856212168931961,-0.10117157548666
7.184450149536133,4.4844489097595215,-4.115355968475342,-0.04856235533952713,-0.15813308954238892,-0.09445225447416306
7.234699249267578,4.52991247177124,-4.168296813964844,0.06635328382253647,-0.08544225990772247,-0.057801421731710434
7.335197925567627,4.52991247177124,-4.328616142272949,0.16699036955833435,0.0037414394319057465,-0.03703261539340019
7.304090976715088,4.577768802642822,-4.565505504608154,0.15584240853786469,0.012904148548841476,-0.02664821222424507
7.435696601867676,4.565804481506348,-4.579862594604492,0.06574243307113647,-0.036574479192495346,-0.028480753302574158
7.395018577575684,4.549055099487305,-4.455435752868652,-0.005726693198084831,-0.08727480471134186,-0.05474718660116196
7.261020183563232,4.59930419921875,-4.278367042541504,0.005497625097632408,-0.08422056585550308,-0.0626882016658783
7.234699249267578,4.628017902374268,-4.40757942199707,0.07757759839296341,-0.06284090876579285,-0.05841226875782013
7.253841876983643,4.6902313232421875,-4.412364959716797,0.033443886786699295,-0.05184566229581833,-0.027259059250354767
7.373483180999756,4.623232364654541,-4.548755645751953,0.03901786729693413,-0.07689040154218674,-0.04008685052394867
7.272984504699707,4.65433931350708,-4.627718925476074,0.028480753302574158,-0.08666395395994186,-0.05841226875782013
7.2059855461120605,4.659124851226807,-4.529613494873047,0.03527642786502838,-0.059175826609134674,-0.05169294774532318
7.179664134979248,4.659124851226807,-4.666004180908203,0.01916533336043358,-0.06711684167385101,-0.049860406666994095
7.215556621551514,4.59212589263916,-4.625326156616211,-0.06100837141275406,-0.11109784245491028,-0.05596888065338135
7.311269760131836,4.582554340362549,-4.409972190856934,-0.15355172753334045,-0.19356222450733185,-0.07429429888725281
7.308876991271973,4.510769844055176,-4.2592244148254395,-0.18959172070026398,-0.25892287492752075,-0.1023932695388794
7.141379356384277,4.623232364654541,-4.048357009887695,-0.09391776472330093,-0.20822255313396454,-0.09933903813362122
6.981060028076172,4.893920421600342,-4.797908306121826,0.11170869320631027,-0.05795413255691528,-0.06635328382253647
6.841977119445801,4.879563808441162,-5.0347981452941895,0.2309766262769699,0.09842276573181152,-0.008933641016483307
7.328019142150879,4.503591537475586,-4.84815788269043,0.1477486789226532,-0.0555107444524765,-0.02298312820494175
7.308876991271973,4.6663031578063965,-4.860121726989746,0.07261446863412857,-0.14041851460933685,-0.0626882016658783
