accX,accY,accZ,gyroX,gyroY,gyroZ
-2.0056145191192627,5.081408977508545,9.210615158081055,0.15246586501598358,-0.061652131378650665,0.23888537287712097
-2.6811394691467285,4.798742294311523,10.106523513793945,0.20679430663585663,-0.08615319430828094,0.3613906800746918
-2.3074448108673096,4.372347354888916,10.935359954833984,0.27710169553756714,-0.1681784987449646,0.36671701073646545
-2.111015558242798,4.67896842956543,10.441890716552734,0.1322258561849594,-0.2715090811252594,0.24421168863773346
-2.7242579460144043,4.42983865737915,11.03117847442627,-0.27896592020988464,-0.4067975580692291,0.06418213248252869
-3.39978289604187,3.811805248260498,11.553393363952637,-0.39081859588623047,-0.27790066599845886,0.12277163565158844
-3.5674664974212646,3.002133369445801,12.118725776672363,-0.555934488773346,-0.10000162571668625,0.2857569754123688
-3.1314892768859863,2.106224536895752,11.927087783813477,-0.5623260736465454,0.01504684891551733,0.4391549229621887
-2.7050940990448,1.1671968698501587,10.604783058166504,-0.3556649088859558,-0.07337003201246262,0.5350286364555359
-1.9097952842712402,1.282179832458496,9.100422859191895,-0.15539532899856567,-0.1777658760547638,0.6255760788917542
-1.1144963502883911,2.2212073802948,8.008084297180176,-0.09467530250549316,0.16205322742462158,0.6660560965538025
-1.5313096046447754,2.1876707077026367,8.65965461730957,-0.10426267981529236,0.801211416721344,0.6873613595962524
-2.09664249420166,1.7229479551315308,9.057304382324219,0.0011984215816482902,1.0131988525390625,0.7587340474128723
-1.7181569337844849,1.6127558946609497,8.391361236572266,0.0949416235089302,1.0174599885940552,0.7406245470046997
-1.286970853805542,1.7037841081619263,7.586480617523193,0.14394375681877136,0.8342345952987671,0.5936181545257568
-1.2198973894119263,2.2643260955810547,6.666616916656494,0.09707214683294296,0.6169208288192749,0.4348938763141632
-1.6271288394927979,2.8248679637908936,6.4989333152771,-0.05206476151943207,0.36125752329826355,0.4071970283985138
-2.03436017036438,3.433319568634033,7.126548767089844,-0.19374482333660126,0.1002679392695427,0.4647212624549866
-2.0774786472320557,3.7926414012908936,7.816446304321289,-0.23955115675926208,-0.13835111260414124,0.4593949317932129
-1.8762586116790771,4.2765278816223145,7.926638603210449,-0.31625014543533325,-0.20439745485782623,0.32836753129959106
-2.0918517112731934,4.6502227783203125,7.6918816566467285,-0.5122586488723755,-0.395079642534256,0.23675484955310822
-2.446382522583008,4.607104301452637,7.600853443145752,-0.8424903750419617,-0.7370292544364929,0.2644517123699188
-2.6044840812683105,4.415465831756592,8.127859115600586,-1.1386337280273438,-0.9255809187889099,0.38163068890571594
-2.6044840812683105,4.247782230377197,8.597372055053711,-1.201484203338623,-0.9788441061973572,0.4647212624549866
-2.3505632877349854,3.9507429599761963,9.133959770202637,-1.1780483722686768,-1.001214623451233,0.5350286364555359
-1.5169367790222168,3.2800090312957764,9.876558303833008,-0.90427565574646,-0.8403598666191101,0.58403080701828
-0.7791293859481812,2.72904896736145,10.197551727294922,-0.4078628122806549,-0.7380945682525635,0.49774444103240967
-0.10839540511369705,2.7146761417388916,9.42620849609375,0.016112113371491432,-0.6145239472389221,0.3741738498210907
0.48568326234817505,2.8296589851379395,9.201032638549805,0.1844237744808197,-0.28855329751968384,0.25806012749671936
0.5575476288795471,1.9433319568634033,11.802522659301758,0.4858933687210083,-0.3982754349708557,-0.05193160101771355
0.9408242106437683,3.409364938735962,10.379608154296875,0.6382260918617249,-0.3428817391395569,-0.3874896466732025
0.14073435962200165,4.104053497314453,10.06340503692627,0.6009418368339539,-0.13195952773094177,-0.45247071981430054
-0.9324400424957275,3.706404209136963,10.33169937133789,0.23342590034008026,0.23875221610069275,-0.30120328068733215
-1.176778793334961,3.4524834156036377,10.65748405456543,-0.008388951420783997,0.39001965522766113,-0.19893798232078552
-1.0713777542114258,2.508664846420288,12.032488822937012,-0.29707539081573486,0.5295692086219788,-0.05512739345431328
-1.191151738166809,0.6641464233398438,12.990679740905762,-0.195875346660614,0.311190128326416,-0.08815056830644608
-0.8509937524795532,-0.26050829887390137,13.297301292419434,0.2078595608472824,0.08322372287511826,-0.12223900109529495
-0.35752516984939575,1.1863607168197632,10.983268737792969,0.6254429221153259,-0.12769848108291626,-0.11371689289808273
0.14552532136440277,2.3936820030212402,7.883519649505615,0.7064029574394226,0.5625923871994019,-0.1861548274755478
-0.6545644998550415,2.7242579460144043,8.065576553344727,0.49228495359420776,0.855539858341217,-0.17763271927833557
-0.6785193085670471,2.6811394691467285,7.67750883102417,0.2728406488895416,0.9119988083839417,-0.12650005519390106
-0.673728346824646,2.293071746826172,8.717146873474121,0.12476900219917297,0.45606598258018494,-0.20852535963058472
-1.1624059677124023,3.0548341274261475,8.793801307678223,-0.01584579609334469,0.04913528636097908,-0.22450430691242218
-1.1863607168197632,2.101433515548706,8.362615585327148,-0.14580796658992767,-0.057391077280044556,-0.11797794699668884
-1.1384512186050415,2.2786989212036133,7.854773998260498,-0.196940615773201,0.055526867508888245,-0.09880319982767105
-1.2103155851364136,2.5038740634918213,7.902683734893799,-0.2150501012802124,0.1279647946357727,-0.04660528525710106
-1.1240782737731934,2.4655463695526123,7.979339122772217,-0.1117195263504982,0.07896266877651215,0.07483477145433426
-0.9659767150878906,2.9398510456085205,7.960175037384033,0.05659212917089462,0.09174583107233047,0.19414429366588593
-0.7120559811592102,3.486020088195801,7.859565258026123,0.29201540350914,0.08215846121311188,0.27723485231399536
-0.3335703909397125,3.591421127319336,7.782909870147705,0.44221755862236023,0.09174583107233047,0.31984540820121765
-0.30003368854522705,3.807014226913452,7.77811861038208,0.47950178384780884,0.19720692932605743,0.33902016282081604
-0.28086987137794495,3.5674664974212646,7.505034446716309,0.38469332456588745,0.21851220726966858,0.2793653905391693
-0.2521241307258606,3.696822166442871,7.629599094390869,0.20572903752326965,0.2707101106643677,0.14407691359519958
-0.33836135268211365,3.926788091659546,8.147022247314453,0.013981585390865803,0.19614167511463165,-0.011451584286987782
-0.6210278272628784,4.300482749938965,8.535090446472168,-0.08295740932226181,0.0906805694103241,-0.0966726765036583
-0.6976830959320068,4.453793525695801,8.602163314819336,-0.10319741815328598,0.06511423736810684,-0.12543480098247528
-0.87973952293396,4.7652058601379395,9.25373363494873,-0.0648479238152504,0.1237037405371666,-0.08282424509525299
-1.1336601972579956,4.367556095123291,10.940150260925293,0.02569948509335518,0.3814975321292877,0.007723161485046148
-1.320507526397705,4.118426322937012,11.716285705566406,0.0022636852227151394,0.3548659384250641,-0.008255792781710625
-1.2773889303207397,4.525657653808594,11.749822616577148,0.05020054802298546,0.06831002980470657,0.0002663159102667123
-1.1480331420898438,4.626267910003662,10.839540481567383,0.19294588267803192,-0.15006901323795319,-0.03275685757398605
-2.254744291305542,4.568776607513428,10.140060424804688,0.2504701018333435,0.031025802716612816,0.01837579719722271
-2.8009133338928223,4.70292329788208,10.17359733581543,0.24194800853729248,0.2035985141992569,0.10892320424318314
-2.772167444229126,4.30527400970459,11.424036979675293,0.22596904635429382,0.07789740711450577,0.24634221196174622
-2.700303077697754,3.5722572803497314,11.299471855163574,0.15885743498802185,-0.14367742836475372,0.19414429366588593
-2.7242579460144043,3.145862102508545,10.877867698669434,0.10879004746675491,-0.23102904856204987,0.16538217663764954
-2.475128173828125,2.7913312911987305,9.809484481811523,0.01078579481691122,-0.308793306350708,0.1483379602432251
-1.6846202611923218,3.1171164512634277,8.515926361083984,-0.0552605502307415,-0.2757701277732849,0.06631266325712204
-1.1815698146820068,3.026088237762451,8.34824275970459,-0.06271740049123764,-0.25553011894226074,0.008788425475358963
-1.2246884107589722,3.2656362056732178,8.697982788085938,0.022503694519400597,-0.17563533782958984,-0.008255792781710625
-1.3636261224746704,3.1266982555389404,9.177078247070312,0.13542163372039795,0.01504684891551733,0.00985368900001049
-1.8858405351638794,2.4511733055114746,9.397461891174316,0.042743705213069916,0.20679430663585663,-0.044474758207798004
-1.8331398963928223,2.398472785949707,9.066885948181152,-0.24487747251987457,0.17803218960762024,-0.13608743250370026
-1.286970853805542,2.398472785949707,8.51113510131836,-0.46219125390052795,-0.05632581561803818,-0.15845796465873718
-0.20900550484657288,2.7242579460144043,7.265486240386963,-0.3791007101535797,-0.5633913278579712,-0.1723063886165619
-0.03174009174108505,2.9781787395477295,6.819927215576172,-0.25020378828048706,-0.4984102249145508,-0.1861548274755478
0.035333309322595596,3.2416813373565674,6.6905717849731445,-0.21718062460422516,-0.3055975139141083,-0.1808284968137741
-0.1946326345205307,3.4908111095428467,7.116966724395752,-0.23955115675926208,-0.13409006595611572,-0.17550218105316162
-0.5491634607315063,3.6776583194732666,7.873938083648682,-0.24913853406906128,-0.053130023181438446,-0.13715268671512604
-0.6401916146278381,3.7591047286987305,8.45843505859375,-0.21398483216762543,-0.0978710949420929,-0.09347688406705856
-0.5874910950660706,3.8261780738830566,8.779428482055664,-0.16924376785755157,-0.17030902206897736,-0.08921582996845245
-0.4293895363807678,3.7207770347595215,8.990230560302734,-0.1351553201675415,-0.2810964286327362,-0.13715268671512604
-0.3048246502876282,3.5291388034820557,9.066885948181152,-0.08189214020967484,-0.3567301630973816,-0.1904158741235733
-0.0796496644616127,3.404573917388916,9.263315200805664,-0.013715269044041634,-0.35886070132255554,-0.2660495936870575
-0.0988134890794754,3.447692394256592,9.407044410705566,0.05659212917089462,-0.2821617126464844,-0.337422251701355
-0.04611296206712723,3.5291388034820557,9.876558303833008,0.13116058707237244,-0.24168169498443604,-0.3779022693634033
-0.18505071103572845,3.596212148666382,10.07298755645752,0.19294588267803192,-0.20333220064640045,-0.40559911727905273
-0.24254220724105835,4.0513529777526855,10.853913307189941,0.37510594725608826,-0.12982900440692902,-0.450340211391449
-0.16588689386844635,4.420256614685059,11.131789207458496,0.5966808199882507,-0.15113428235054016,-0.49934232234954834
-0.5683273077011108,5.335329532623291,10.825167655944824,0.6914892792701721,-0.05632581561803818,-0.5110602378845215
-2.0918517112731934,5.177227973937988,10.422727584838867,0.5807018280029297,0.14927007257938385,-0.41838228702545166
-2.4511733055114746,4.13279914855957,11.495901107788086,0.2696448564529419,0.39001965522766113,-0.25859275460243225
0.7779316306114197,2.7625856399536133,10.935359954833984,0.30373328924179077,-0.6752439737319946,-0.5121254920959473
0.7252311110496521,3.3039636611938477,9.8526029586792,0.649944007396698,-0.1724395453929901,-0.5898897647857666
0.20301680266857147,3.0069243907928467,9.066885948181152,0.746882975101471,0.3878891170024872,-0.7049382328987122
-0.45334431529045105,2.4942920207977295,8.645281791687012,0.5103944540023804,0.8779103755950928,-0.8040077090263367
-0.77433842420578,2.1924617290496826,8.774638175964355,0.348474383354187,0.9908283352851868,-0.8306393027305603
-1.2055245637893677,2.039151191711426,8.927948951721191,0.18122798204421997,0.9002809524536133,-0.7858982682228088
-1.1719878911972046,2.1541340351104736,8.947112083435059,0.21531641483306885,0.7202513813972473,-0.7283740043640137
-1.3875809907913208,2.398472785949707,7.969757080078125,0.4858933687210083,0.29947224259376526,-0.6101297736167908
-1.7085751295089722,2.882359504699707,6.417487144470215,0.6275734305381775,0.15992270410060883,-0.5334307551383972
-1.7229479551315308,3.696822166442871,5.430549621582031,0.582832396030426,-0.012650005519390106,-0.3320959508419037
-1.1959426403045654,3.361455202102661,6.829509258270264,0.3644533157348633,0.09387636184692383,-0.36192330718040466
-1.6894112825393677,3.5674664974212646,6.858254909515381,0.14820480346679688,0.23875221610069275,-0.45566651225090027
-2.1972527503967285,3.624957799911499,6.772017955780029,0.07257108390331268,0.34208279848098755,-0.448209673166275
-1.454654335975647,3.6057941913604736,7.145712375640869,0.022503694519400597,0.33249542117118835,-0.383228600025177
-0.7791293859481812,3.6776583194732666,7.869146823883057,0.0342215932905674,0.2557964324951172,-0.4492749273777008
-1.2630161046981812,4.0896806716918945,8.611745834350586,0.0672447681427002,0.13116058707237244,-0.5110602378845215
-1.3684171438217163,4.175918102264404,8.199723243713379,0.42410808801651,0.5199818015098572,-0.32037803530693054
-1.3779990673065186,4.463375568389893,8.089530944824219,0.591354489326477,0.6222470998764038,-0.24154852330684662
-2.1301794052124023,4.487329959869385,8.147022247314453,0.7532745599746704,0.6936197876930237,-0.11797794699668884
-3.7207770347595215,5.2107648849487305,9.42620849609375,0.6520745158195496,0.8416914343833923,-0.2095906287431717
-3.9076244831085205,5.407194137573242,9.857394218444824,0.801211416721344,1.1559442281723022,-0.14034847915172577
-4.266946315765381,6.408504009246826,9.081258773803711,0.7649924755096436,1.1612704992294312,-0.19787272810935974
-5.64674186706543,6.758244037628174,6.944492340087891,0.13116058707237244,-0.25126907229423523,-0.25965800881385803
-5.0574541091918945,5.675487518310547,10.532918930053711,-0.33435961604118347,-0.35886070132255554,-0.5302349925041199
-5.608414173126221,5.234719276428223,9.761574745178223,-0.33009856939315796,-0.451538622379303,-0.5366265773773193
-5.915035247802734,4.956843852996826,9.258524894714355,-0.3332943618297577,-0.5910881757736206,-0.5078644156455994
-5.440730571746826,4.664595603942871,8.889620780944824,-0.3929491341114044,-0.9426251649856567,-0.3960117697715759
-5.320956707000732,4.477748394012451,9.10521411895752,-0.4653870463371277,-0.8339682817459106,-0.29268118739128113
-5.517385959625244,4.410675048828125,8.674027442932129,-0.5303681492805481,-0.8851009011268616,-0.204264298081398
-5.493431091308594,4.6502227783203125,8.549463272094727,-0.5783050060272217,-0.9980188608169556,-0.1573926955461502
-4.980798721313477,4.674177646636963,8.444062232971191,-0.7103977203369141,-1.343164324760437,-0.056192658841609955
-4.0561442375183105,4.175918102264404,8.415316581726074,-0.8946883082389832,-1.3932316303253174,-0.07004108279943466
-3.227308511734009,3.0452520847320557,8.309914588928223,-1.10454523563385,-1.1855052709579468,-0.1531316488981247
-2.657184600830078,2.216416597366333,8.578208923339844,-1.3026843070983887,-1.0108020305633545,-0.25433170795440674
-2.1589250564575195,2.106224536895752,9.018977165222168,-1.367665410041809,-1.1524821519851685,-0.3022685647010803
-1.97207772731781,2.3745181560516357,8.678818702697754,-1.15461266040802,-1.3261200189590454,-0.2980075180530548
-1.5217278003692627,2.6380207538604736,7.711045265197754,-0.8648608922958374,-1.300553798675537,-0.2607232630252838
-1.1384512186050415,2.7577946186065674,6.963655948638916,-0.6869618892669678,-1.1737873554229736,-0.28735485672950745
-1.3396713733673096,3.2464723587036133,7.093011856079102,-0.5836313366889954,-0.9980188608169556,-0.3129211962223053
-1.454654335975647,3.289590835571289,7.308605194091797,-0.4259723126888275,-0.6933534741401672,-0.2522011697292328
-1.6702474355697632,3.5770483016967773,7.6535539627075195,-0.195875346660614,-0.3332943618297577,-0.14034847915172577
-1.4259085655212402,3.596212148666382,8.343451499938965,0.1940111368894577,-0.12769848108291626,0.2239716798067093
-1.3300894498825073,3.5387206077575684,8.362615585327148,0.21531641483306885,-0.17670060694217682,0.21971063315868378
-1.2965527772903442,3.553093433380127,8.319497108459473,0.17377112805843353,-0.24700801074504852,0.19307903945446014
-1.2103155851364136,3.5291388034820557,8.4488525390625,0.08002793043851852,-0.25126907229423523,0.16964323818683624
-1.1288692951202393,3.586630344390869,8.664445877075195,0.03315633162856102,-0.2480732649564743,0.16538217663764954
-1.042631983757019,3.8261780738830566,9.435790061950684,-0.032890014350414276,-0.2853575050830841,0.1621863842010498
-1.1049144268035889,4.171126842498779,10.178388595581055,-0.004127896390855312,-0.29814067482948303,0.17496955394744873
-0.6545644998550415,4.4058837890625,12.324737548828125,0.22383852303028107,-0.28748801350593567,0.31451907753944397
1.4390836954116821,0.39585283398628235,11.409664154052734,-0.9969536066055298,-1.025715708732605,-0.32890015840530396
1.980461835861206,1.1576149463653564,9.866975784301758,-0.5793702602386475,-0.8893619775772095,-0.5994771122932434
1.606767177581787,1.4642362594604492,9.071677207946777,-0.18522271513938904,-0.5111933946609497,-0.6740455627441406
1.5205299854278564,1.492982029914856,8.903993606567383,-0.007323687430471182,-0.3002711832523346,-0.6367613673210144
1.1228805780410767,1.358835220336914,8.453643798828125,0.30053749680519104,0.114116370677948,-0.5376918315887451
0.4952651858329773,1.4977729320526123,8.415316581726074,0.4773712754249573,0.44115230441093445,-0.4119907021522522
0.04491522163152695,2.139761209487915,7.8451924324035645,0.4059986174106598,0.4539354741573334,-0.20852535963058472
0.20301680266857147,2.101433515548706,7.3613057136535645,0.21425114572048187,0.40706387162208557,-0.16804534196853638
0.054497137665748596,2.03436017036438,7.394842147827148,-0.02649843320250511,0.4432828426361084,-0.16378428041934967
-0.2904517650604248,2.1301794052124023,7.749372959136963,-0.15965639054775238,0.4571312665939331,-0.09241162240505219
-0.21858741343021393,2.288280963897705,8.041621208190918,-0.15965639054775238,0.43156492710113525,0.00985368900001049
0.31320881843566895,2.3553543090820312,7.88831090927124,-0.0882837250828743,0.3303648829460144,0.019441060721874237
0.6629486680030823,2.4511733055114746,8.084739685058594,-0.01584579609334469,0.20146799087524414,-0.08495477586984634
0.49047422409057617,2.5374107360839844,8.204513549804688,-0.009454214945435524,0.07576687633991241,-0.2000032514333725
0.41381892561912537,2.4176366329193115,7.988921165466309,-0.12982900440692902,0.07683213800191879,-0.24048326909542084
0.38986414670944214,2.690721273422241,8.333869934082031,-0.2864227592945099,0.1418132185935974,-0.2287653684616089
0.10719766467809677,3.069206953048706,9.014185905456543,-0.19267955422401428,0.08215846121311188,-0.14993585646152496
0.20301680266857147,3.0117154121398926,9.090841293334961,-0.013715269044041634,-0.0062584239058196545,-0.12756532430648804
0.31320881843566895,3.1314892768859863,9.028558731079102,0.0672447681427002,-0.04354264959692955,-0.11265163123607635
0.43298274278640747,3.323127508163452,8.616536140441895,0.13542163372039795,0.016112113371491432,-0.08815056830644608
0.19822585582733154,3.227308511734009,10.005913734436035,0.15353111922740936,0.4677838981151581,-0.09028109163045883
-1.2678070068359375,3.1554441452026367,11.792941093444824,0.32290804386138916,0.39321544766426086,-0.023169483989477158
-1.6127558946609497,3.1698169708251953,11.174907684326172,0.46352285146713257,0.42623862624168396,0.2900180220603943
-0.7216379046440125,2.997342586517334,10.489800453186035,0.3016027808189392,0.2984069883823395,0.08016108721494675
-1.4067447185516357,2.891941547393799,11.323427200317383,0.2696448564529419,0.16844481229782104,0.016245270147919655
-2.2739078998565674,2.4511733055114746,11.620466232299805,0.2696448564529419,0.11944268643856049,0.10679268091917038
-2.4942920207977295,1.526518702507019,10.54729175567627,0.29521119594573975,0.45073968172073364,0.1344895362854004
-3.8213870525360107,2.1205973625183105,10.714975357055664,0.26644906401634216,1.3231905698776245,0.9302414655685425
-2.139761209487915,2.106224536895752,7.883519649505615,0.26112276315689087,1.0345041751861572,0.7821698188781738
-1.6127558946609497,2.6380207538604736,7.016356468200684,0.3303648829460144,0.7053377032279968,0.5946834087371826
-1.1719878911972046,3.4956021308898926,6.0629563331604,0.16951008141040802,0.45073968172073364,0.42743703722953796
-1.97207772731781,3.33750057220459,8.266796112060547,-0.3514038324356079,0.03741738572716713,0.07590003311634064
-3.327918529510498,3.5818393230438232,8.362615585327148,-0.6539387106895447,-0.5101281404495239,-0.16484954953193665
-3.1554441452026367,3.433319568634033,8.94232177734375,-0.7519429922103882,-0.8414251208305359,-0.22024326026439667
-3.2081446647644043,3.888460636138916,9.833439826965332,-0.7093324065208435,-1.1066757440567017,-0.2852243483066559
-2.556574583053589,4.104053497314453,10.144851684570312,-0.5665870904922485,-1.2323769330978394,-0.2553969621658325
-2.072687864303589,3.8597147464752197,10.360445022583008,-0.5410207509994507,-2.1026973724365234,-0.39068543910980225
-1.5025639533996582,3.696822166442871,11.194070816040039,-0.627307116985321,-2.4393205642700195,-0.2756369709968567
-0.9276490807533264,2.920687198638916,11.17969799041748,-0.715723991394043,-2.0718045234680176,-0.27244117856025696
-0.8318299055099487,2.7242579460144043,11.424036979675293,-0.7498124241828918,-1.6595475673675537,-0.2905506491661072
-0.9228581190109253,2.3074448108673096,12.564285278320312,-0.6368945240974426,-1.0161283016204834,-0.23515695333480835
-0.137141153216362,1.7852303981781006,12.870905876159668,-0.33542490005493164,-0.7487471699714661,-0.025300011038780212
0.6198300719261169,1.2965527772903442,11.88875961303711,-0.07656582444906235,-0.594283938407898,0.06524740159511566
0.9647789597511292,0.913276195526123,10.75809383392334,0.05659212917089462,-0.6422207951545715,-0.03382211923599243
1.165999174118042,1.6079649925231934,10.269416809082031,0.1993374526500702,-0.6656566262245178,-0.12756532430648804
0.7012763619422913,2.106224536895752,10.192761421203613,0.47843652963638306,-0.3812312185764313,-0.0732368752360344
1.7600778341293335,1.382789969444275,9.972376823425293,0.9194557070732117,0.18655429780483246,-0.12223900109529495
1.1755810976028442,0.9084852337837219,9.565145492553711,0.7447524666786194,0.43582597374916077,-0.3842938542366028
0.9168694019317627,0.8030841946601868,9.656173706054688,0.5487439036369324,0.5253081321716309,-0.5036033987998962
0.14073435962200165,1.2725980281829834,9.641800880432129,0.1471395343542099,0.39854174852371216,-0.6154560446739197
-0.08444061875343323,2.254744291305542,8.755474090576172,-0.05845634266734123,0.09174583107233047,-0.5430181622505188
-0.0796496644616127,2.6523935794830322,6.944492340087891,-0.12343742698431015,0.21851220726966858,-0.3043990731239319
-0.841411828994751,2.9446420669555664,6.89658260345459,-0.09361004084348679,0.5476786494255066,-0.13076111674308777
-1.4594453573226929,2.6428117752075195,7.457124710083008,-0.05632581561803818,0.7649924755096436,0.12277163565158844
-1.526518702507019,2.585320234298706,8.24763298034668,-0.09467530250549316,0.7543398141860962,0.2665822207927704
-1.3684171438217163,2.8392410278320312,8.501553535461426,-0.16178691387176514,0.5008070468902588,0.28256118297576904
0.020960437133908272,2.9350600242614746,8.190140724182129,0.2600574791431427,0.4198470413684845,-0.048735812306404114
-0.20900550484657288,3.035670280456543,8.290751457214355,0.18548902869224548,0.35593122243881226,-0.08495477586984634
-0.1754688024520874,3.0117154121398926,8.530299186706543,0.07683213800191879,0.33249542117118835,-0.13608743250370026
-0.05569487437605858,3.217726469039917,8.760265350341797,0.02143843099474907,0.34208279848098755,-0.19893798232078552
-0.46771717071533203,3.5818393230438232,9.387880325317383,0.01717737689614296,0.29521119594573975,-0.15632744133472443
-1.009095311164856,3.3087546825408936,10.101733207702637,0.08535424619913101,0.2696448564529419,0.013049479573965073
-1.416326642036438,2.585320234298706,10.82995891571045,0.18229323625564575,0.3058638274669647,0.11105373501777649
-1.5169367790222168,2.9350600242614746,10.748512268066406,0.25366589426994324,0.3495396375656128,0.10892320424318314
-1.4211176633834839,3.7878503799438477,10.537710189819336,0.23342590034008026,0.2696448564529419,0.15686006844043732
-1.382789969444275,3.4524834156036377,10.834749221801758,0.2323606312274933,0.06617950648069382,0.1994706094264984
-1.3684171438217163,3.0117154121398926,11.14137077331543,0.28455856442451477,-0.02756369672715664,0.14407691359519958
-1.8475128412246704,1.9768686294555664,11.361754417419434,0.2451438009738922,-0.08295740932226181,0.04713791608810425
-2.700303077697754,1.1671968698501587,11.016805648803711,0.020373167470097542,0.04593949392437935,-0.019973693415522575
-3.3854100704193115,1.6894112825393677,10.379608154296875,-0.30772802233695984,0.2781669795513153,0.12170637398958206
-2.72904896736145,2.211625576019287,9.857394218444824,-0.4131891429424286,0.1609879732131958,0.3922833502292633
-1.866676688194275,2.805704355239868,10.077777862548828,-0.3002711832523346,0.14607428014278412,0.48496127128601074
-1.660665512084961,2.7242579460144043,10.259834289550781,-0.09041424840688705,0.1940111368894577,0.4263717830181122
-2.0774786472320557,1.9864505529403687,9.37829875946045,-0.13835111260414124,0.24727432429790497,0.30067065358161926
-1.9289591312408447,1.8858405351638794,8.72193717956543,-0.3290333151817322,0.2653838098049164,0.3134538233280182
-1.4642362594604492,1.8427218198776245,8.41052532196045,-0.308793306350708,0.2824280261993408,0.3518033027648926
-0.7120559811592102,2.925478219985962,6.954074382781982,0.6147902607917786,0.3218427896499634,0.284691721200943
-0.9659767150878906,3.3854100704193115,6.671407699584961,0.5593965649604797,0.31864699721336365,0.25379905104637146
-1.2390612363815308,3.6872403621673584,6.431859970092773,0.44115230441093445,0.3388870060443878,0.2559295892715454
-1.8523037433624268,4.080098628997803,7.049893379211426,0.3261038362979889,0.31971225142478943,0.3070622384548187
-2.139761209487915,4.185499668121338,7.457124710083008,0.28029748797416687,0.28455856442451477,0.36671701073646545
-1.900213360786438,3.5770483016967773,8.381779670715332,0.15459638833999634,0.10346373170614243,0.3976096510887146
-1.97207772731781,3.3470823764801025,8.803383827209473,0.00013315795513335615,-0.07976161688566208,0.2420811653137207
-2.1589250564575195,3.6776583194732666,8.741101264953613,-0.07763108611106873,-0.1916143000125885,0.12064110487699509
-1.790021300315857,4.338810443878174,8.9327392578125,-0.16604797542095184,-0.23742063343524933,0.1771000772714615
-1.6175469160079956,4.655013561248779,9.555563926696777,-0.13409006595611572,-0.1585911214351654,0.21651484072208405
-1.4786090850830078,4.501703262329102,10.178388595581055,-0.11278478801250458,-0.16604797542095184,0.2090579867362976
-1.325298547744751,4.161545276641846,11.213234901428223,-0.06378266215324402,-0.33009856939315796,0.1483379602432251
-1.2198973894119263,4.626267910003662,11.270726203918457,-0.04354264959692955,-0.39614492654800415,0.15899059176445007
-1.0617958307266235,4.171126842498779,9.876558303833008,-0.05419528856873512,-0.1490037590265274,0.2047969400882721
-0.980349600315094,3.7495226860046387,11.28989028930664,-0.10745847225189209,0.02143843099474907,0.19307903945446014
-1.2103155851364136,2.987760543823242,12.607403755187988,-0.16711322963237762,-0.08615319430828094,0.08655267208814621
-1.7469027042388916,2.810495138168335,13.747651100158691,-0.2480732649564743,-0.25126907229423523,0.006657897960394621
-0.8557847142219543,1.655874490737915,12.674476623535156,-0.23742063343524933,-0.4696480929851532,-0.04234423115849495
0.41381892561912537,1.1624059677124023,10.925777435302734,-0.11385004967451096,-0.627307116985321,-0.21598219871520996
0.2078077644109726,2.436800479888916,9.84781265258789,0.013981585390865803,-0.19374482333660126,-0.5781718492507935
-0.18025976419448853,1.7564846277236938,9.670546531677246,-0.13728585839271545,-0.21398483216762543,-0.571780264377594
-0.15151402354240417,1.7085751295089722,8.947112083435059,-0.40040597319602966,-0.25020378828048706,-0.5249086618423462
-0.4437623918056488,2.432009696960449,7.6152262687683105,-0.061652131378650665,0.311190128326416,-0.0679105594754219
-0.4054347574710846,3.217726469039917,9.248942375183105,0.2653838098049164,0.2035985141992569,-0.3704454302787781
-0.35752516984939575,3.481229305267334,9.292060852050781,0.3548659384250641,0.21212062239646912,-0.3352917432785034
-0.45334431529045105,3.596212148666382,9.349553108215332,0.39854174852371216,0.19294588267803192,-0.2990727722644806
-0.6258187890052795,3.7926414012908936,9.498072624206543,0.4336954653263092,0.1993374526500702,-0.20319904386997223
-1.023468255996704,3.5722572803497314,9.819067001342773,0.38043227791786194,0.30905961990356445,-0.16484954953193665
-1.9816596508026123,2.9446420669555664,11.615675926208496,0.28988486528396606,-0.0691089779138565,-0.11371689289808273
-2.0439419746398926,2.8679866790771484,10.935359954833984,0.24940484762191772,-0.23209431767463684,-0.2713759243488312
-2.4607553482055664,2.882359504699707,11.261144638061523,0.09707214683294296,-0.29814067482948303,-0.34807488322257996
-2.6332297325134277,2.364936113357544,11.46236515045166,0.03741738572716713,-0.34501224756240845,-0.3821633458137512
-3.0931615829467773,1.3157166242599487,11.539020538330078,-0.05206476151943207,-0.2906838059425354,-0.4354265034198761
-3.5770483016967773,1.4834001064300537,10.70539379119873,-0.05845634266734123,-0.09680583328008652,-0.3086601495742798
-3.0835797786712646,2.0774786472320557,9.512445449829102,-0.03075948730111122,-0.10532794147729874,-0.044474758207798004
-1.900213360786438,2.7194669246673584,8.966276168823242,0.20999009907245636,-0.08508793264627457,0.07376950979232788
-1.9912415742874146,2.1589250564575195,8.372197151184082,-0.037151068449020386,-0.15539532899856567,-0.008255792781710625
-1.9145861864089966,2.2020435333251953,7.7254180908203125,-0.34501224756240845,-0.1873532384634018,-0.014647374860942364
-1.7229479551315308,2.259535074234009,7.528988838195801,-0.4547344148159027,-0.17670060694217682,0.019441060721874237
-1.1863607168197632,2.2739078998565674,7.562525749206543,-0.4866923391819,-0.22357220947742462,0.06737792491912842
-0.9084852337837219,2.293071746826172,7.70146369934082,-0.252334326505661,-0.2992059290409088,0.05352949723601341
-0.9611857533454895,2.5326197147369385,7.86435604095459,-0.022237379103899002,-0.31092381477355957,0.031158961355686188
-1.5552644729614258,3.4908111095428467,7.054684162139893,0.41239017248153687,0.16418376564979553,0.1813611388206482
-1.4642362594604492,3.5722572803497314,6.987610816955566,0.3623228073120117,0.26112276315689087,0.2601906359195709
-1.3779990673065186,3.5051839351654053,7.203204154968262,0.3154512047767639,0.23449115455150604,0.2655169665813446
-1.2342703342437744,3.3087546825408936,7.974547863006592,0.17909744381904602,0.0576573945581913,0.23036326467990875
-1.5217278003692627,3.2752180099487305,9.066885948181152,0.01078579481691122,-0.3886880576610565,0.1664474457502365
-1.4019538164138794,3.433319568634033,9.062095642089844,-0.01904158666729927,-0.44727757573127747,0.08974846452474594
-1.3540441989898682,3.557884454727173,8.76984691619873,0.0011984215816482902,-0.27044379711151123,0.06524740159511566
-1.191151738166809,4.67896842956543,9.445371627807617,0.02143843099474907,0.08215846121311188,0.20586219429969788
-0.9707676768302917,4.372347354888916,10.101733207702637,-0.03928159549832344,0.042743705213069916,0.21544957160949707
-1.4067447185516357,4.698132514953613,11.232398986816406,-0.04034686088562012,-0.08295740932226181,0.12703268229961395
-2.1205973625183105,3.8597147464752197,11.711494445800781,-0.08082687854766846,0.06298371404409409,0.2516685426235199
-1.6798293590545654,2.9446420669555664,12.564285278320312,-0.25553011894226074,0.1759016513824463,0.24527695775032043
-1.2198973894119263,2.2978627681732178,12.799041748046875,-0.45793020725250244,0.04593949392437935,0.17816534638404846
-0.07485870271921158,1.042631983757019,12.094771385192871,-0.09680583328008652,-0.6976145505905151,-0.18402428925037384
0.21738967299461365,2.331399440765381,10.187970161437988,0.2781669795513153,-0.594283938407898,-0.24367906153202057
0.14073435962200165,2.695512294769287,9.066885948181152,0.5146554708480835,-0.26405221223831177,-0.1808284968137741
0.04970617964863777,2.590111255645752,8.903993606567383,0.5285038948059082,0.1322258561849594,-0.16591481864452362
-0.13235019147396088,2.144552230834961,9.114795684814453,0.25686168670654297,0.26751431822776794,-0.2426137924194336
-0.16588689386844635,1.7037841081619263,9.483699798583984,-0.15006901323795319,0.12689952552318573,-0.3683148920536041
-0.41022568941116333,1.7756484746932983,9.224987983703613,-0.44727757573127747,-0.07017423957586288,-0.43649178743362427
-0.22816933691501617,2.6428117752075195,7.433169841766357,-0.41425439715385437,-0.21398483216762543,-0.19148114323616028
-0.3862709105014801,2.7482128143310547,6.915746688842773,-0.2384859025478363,0.051265813410282135,-0.0732368752360344
-0.5683273077011108,2.877568483352661,6.853464126586914,-0.04993423447012901,0.3314301371574402,0.04607265070080757
-0.5204176902770996,3.0835797786712646,7.2846503257751465,0.11837742477655411,0.40280282497406006,0.1344895362854004
-0.23775124549865723,3.3039636611938477,7.629599094390869,0.2078595608472824,0.3921501636505127,0.13129374384880066
-0.18025976419448853,3.5674664974212646,7.624808311462402,0.20999009907245636,0.4102596640586853,0.060986343771219254
-0.22337837517261505,3.404573917388916,7.648763179779053,0.10665952414274216,0.4198470413684845,-0.009321057237684727
-0.39585283398628235,2.992551565170288,8.118276596069336,-0.02649843320250511,0.5274386405944824,-0.04340949282050133
-0.6641464233398438,2.7146761417388916,9.201032638549805,-0.029694223776459694,0.5562008023262024,-0.056192658841609955
-0.8078751564025879,2.666766405105591,9.96279525756836,0.11944268643856049,0.37084490060806274,-0.02210422046482563
-0.3096156120300293,2.954223871231079,9.598682403564453,0.2973417043685913,0.1940111368894577,-0.04660528525710106
-0.31919750571250916,3.4524834156036377,9.028558731079102,0.42623862624168396,0.1279647946357727,-0.11904320865869522
-0.9851405620574951,3.9890706539154053,9.090841293334961,0.5050681233406067,0.246209055185318,-0.09880319982767105
-2.24516224861145,4.156754016876221,9.986749649047852,0.591354489326477,0.39854174852371216,0.05992107838392258
-2.9398510456085205,4.142381191253662,10.700602531433105,0.6776408553123474,0.31971225142478943,0.24421168863773346
-2.848822832107544,4.468166351318359,10.255043983459473,0.5934849977493286,0.12903006374835968,0.35393384099006653
-2.024778127670288,4.746041774749756,10.135270118713379,0.38362807035446167,-0.007323687430471182,0.22929799556732178
-2.000823497772217,4.487329959869385,10.724557876586914,0.05339634045958519,-0.33009856939315796,-0.05512739345431328
-2.4272186756134033,3.2704269886016846,11.740240097045898,-0.23315958678722382,-0.5356944799423218,-0.2000032514333725
-3.1985626220703125,1.3636261224746704,12.410974502563477,-0.31625014543533325,-0.29387959837913513,-0.21172115206718445
-4.118426322937012,0.7839203476905823,11.160534858703613,-0.2203764170408249,0.2749711871147156,-0.13182637095451355
-4.228618621826172,2.063105821609497,9.646592140197754,-0.037151068449020386,0.5817670822143555,0.22929799556732178
-3.8022232055664062,2.930269241333008,8.468016624450684,0.23981747031211853,0.40812912583351135,0.6159886717796326
-3.6105849742889404,3.294381856918335,8.257214546203613,0.42730388045310974,0.3580617308616638,0.8950877785682678
-3.256054162979126,3.366246223449707,7.821237564086914,0.4965460002422333,0.5359607934951782,0.9078709483146667
-2.733839988708496,2.7530035972595215,8.17576789855957,0.24194800853729248,0.1897500902414322,0.613858163356781
-2.24516224861145,3.069206953048706,8.046412467956543,-0.2864227592945099,-0.028628960251808167,0.30067065358161926
-1.8331398963928223,2.3457722663879395,7.164876461029053,-0.7551387548446655,-0.03608580678701401,0.24847275018692017
-1.4354904890060425,2.216416597366333,6.934910297393799,-0.9863009452819824,-0.05419528856873512,0.2559295892715454
-1.694202184677124,2.925478219985962,7.7254180908203125,-0.9096019864082336,-0.07656582444906235,0.28149592876434326
-2.03436017036438,3.3087546825408936,8.0128755569458,-0.5633913278579712,-0.057391077280044556,0.39547911286354065
-2.0918517112731934,3.3183367252349854,7.8068647384643555,-0.3577954173088074,0.011851058341562748,0.47963494062423706
-2.063105821609497,3.2704269886016846,7.270277500152588,-0.06697845458984375,0.2312953621149063,0.6277065873146057
-1.9145861864089966,3.519556760787964,7.2463226318359375,-0.04034686088562012,0.44008705019950867,0.6767086982727051
-2.0056145191192627,3.3902010917663574,9.507654190063477,-0.04460791498422623,0.17164060473442078,0.5861613154411316
-1.69899320602417,3.7303590774536133,8.765055656433105,0.19614167511463165,0.30373328924179077,0.5787044763565063
-1.8187670707702637,4.151963233947754,8.539880752563477,0.2792322337627411,0.348474383354187,0.5872265696525574
-2.111015558242798,4.185499668121338,9.172286987304688,0.2035985141992569,0.3410175144672394,0.559529721736908
-2.139761209487915,4.060935020446777,10.480218887329102,0.09174583107233047,0.2739059031009674,0.5648560523986816
-1.5552644729614258,4.080098628997803,11.342591285705566,0.02143843099474907,0.11198583990335464,0.5169191956520081
-1.5169367790222168,3.878878593444824,11.687540054321289,-0.0648479238152504,-0.1639174371957779,0.45193809270858765
-1.454654335975647,3.553093433380127,11.654003143310547,-0.1820269227027893,-0.23315958678722382,0.3368896245956421
-1.5744283199310303,3.7878503799438477,11.529438018798828,-0.2438122183084488,-0.16498270630836487,0.2996053993701935
-1.828348994255066,3.8261780738830566,11.424036979675293,-0.34394699335098267,0.011851058341562748,0.31984540820121765
-1.3875809907913208,2.5230376720428467,11.701912879943848,-0.3375554084777832,-0.021172115579247475,0.29747486114501953
-1.4834001064300537,1.8331398963928223,12.2720365524292,-0.2800311744213104,-0.28855329751968384,0.2655169665813446
-0.40064379572868347,1.5696372985839844,12.918815612792969,-0.1351553201675415,-0.5655218362808228,0.14940322935581207
-0.03174009174108505,2.2786989212036133,10.90661334991455,0.07683213800191879,-0.6709829568862915,0.0023968431632965803
0.3659093379974365,2.590111255645752,9.42620849609375,0.2707101106643677,-0.5612607598304749,-0.11797794699668884
0.45214658975601196,2.623647928237915,9.066885948181152,0.3399522602558136,-0.4589954614639282,-0.18722008168697357
-0.017367219552397728,2.542201519012451,9.119586944580078,0.34740909934043884,-0.25020378828048706,-0.3129211962223053
-0.5922820568084717,2.063105821609497,9.335180282592773,-0.008388951420783997,-0.29174908995628357,-0.3693801760673523
-0.606654942035675,2.0774786472320557,8.899202346801758,-0.25979116559028625,-0.4504733681678772,-0.3470096290111542
-0.4820900559425354,2.331399440765381,8.07515811920166,-0.33968594670295715,-0.5261070728302002,-0.2798980176448822
-0.2904517650604248,2.479919195175171,7.327768802642822,-0.25553011894226074,-0.4547344148159027,-0.21278640627861023
-0.5156267285346985,3.0452520847320557,7.097803115844727,0.1045289933681488,-0.028628960251808167,-0.11584742367267609
-0.506044864654541,3.3422913551330566,7.198412895202637,0.180162712931633,0.011851058341562748,-0.0913463607430458
0.2509263753890991,3.1314892768859863,7.77811861038208,-0.13302479684352875,0.09813741594552994,-0.25859275460243225
0.20301680266857147,2.9685966968536377,8.530299186706543,-0.19374482333660126,0.18335850536823273,-0.27670222520828247
0.03054235130548477,3.1171164512634277,9.263315200805664,-0.10852373391389847,0.20572903752326965,-0.25433170795440674
0.06887000799179077,3.514765977859497,9.148332595825195,0.3154512047767639,-0.03502054139971733,-0.24900537729263306
0.22218063473701477,3.7926414012908936,8.9327392578125,0.38043227791786194,-0.07017423957586288,-0.23835274577140808
0.11677958071231842,4.065725803375244,9.009394645690918,0.3953459560871124,-0.05952160432934761,-0.2330264151096344
-0.35273420810699463,4.468166351318359,9.450162887573242,0.3953459560871124,0.02569948509335518,-0.2138516753911972
-1.0138863325119019,4.348392486572266,10.154433250427246,0.3772364854812622,0.08961530029773712,-0.19361166656017303
-1.2773889303207397,4.171126842498779,10.192761421203613,0.2749711871147156,0.09281109273433685,-0.19787272810935974
-1.3684171438217163,4.511284828186035,10.255043983459473,0.06085318699479103,0.04061317816376686,-0.18295903503894806
-1.2390612363815308,3.811805248260498,10.662275314331055,-0.08615319430828094,-0.08934898674488068,-0.20213377475738525
-1.382789969444275,3.3902010917663574,11.016805648803711,-0.1543300747871399,-0.15326480567455292,-0.2522011697292328
-1.957704782485962,3.1602351665496826,11.361754417419434,-0.1628521829843521,-0.20652799308300018,-0.2287653684616089
-2.178088903427124,2.09664249420166,11.40487289428711,-0.12237215787172318,-0.29174908995628357,-0.20852535963058472
-2.805704355239868,2.0056145191192627,10.441890716552734,-0.13409006595611572,-0.16711322963237762,-0.14674006402492523
-2.9685966968536377,2.446382522583008,9.445371627807617,-0.25126907229423523,0.043808966875076294,0.08548741042613983
-2.283489942550659,2.6380207538604736,9.258524894714355,-0.29387959837913513,0.04061317816376686,0.2601906359195709
-1.6462926864624023,2.542201519012451,9.330389022827148,-0.24594274163246155,0.04487423226237297,0.23888537287712097
-1.8570947647094727,2.408054828643799,9.15312385559082,-0.23742063343524933,0.11198583990335464,0.1994706094264984
-2.0774786472320557,1.957704782485962,8.990230560302734,-0.33862069249153137,0.23662169277668,0.228232741355896
-1.9481229782104492,1.900213360786438,8.73151969909668,-0.4589954614639282,0.34208279848098755,0.2804306447505951
-1.286970853805542,1.9672867059707642,8.367406845092773,-0.4845618009567261,0.3623228073120117,0.35286858677864075
-0.7551746368408203,1.933750033378601,8.257214546203613,-0.3609912097454071,0.24407853186130524,0.3560643792152405
-0.7695474624633789,2.2691171169281006,8.084739685058594,-0.13409006595611572,0.13968269526958466,0.31558436155319214
-0.9324400424957275,2.8584048748016357,7.859565258026123,0.07470161467790604,0.06937529146671295,0.31451907753944397
-0.8462027907371521,3.1362802982330322,7.270277500152588,0.14927007257938385,0.07896266877651215,0.3262369930744171
-0.606654942035675,3.1698169708251953,7.064266204833984,0.05339634045958519,0.06617950648069382,0.3070622384548187
-0.9468128681182861,3.073997735977173,8.544672012329102,0.0715058222413063,-0.10958899557590485,0.20266640186309814
-0.913276195526123,3.2800090312957764,8.640491485595703,0.09813741594552994,0.02143843099474907,0.2324937880039215
-1.1815698146820068,3.634539842605591,8.841711044311523,0.16311849653720856,0.12476900219917297,0.2601906359195709
-1.3684171438217163,4.046562194824219,9.857394218444824,0.26325327157974243,0.14074796438217163,0.34860754013061523
-1.1144963502883911,3.9507429599761963,10.849122047424316,0.40812912583351135,0.058722659945487976,0.37097805738449097
-0.77433842420578,3.7255680561065674,10.17359733581543,0.5135902166366577,-0.013715269044041634,0.29534435272216797
-0.381479948759079,4.669386386871338,11.424036979675293,0.3825628161430359,-0.31731539964675903,0.18029586970806122
-0.7120559811592102,3.8022232055664062,12.104352951049805,-0.024367906153202057,-0.40040597319602966,0.0002663159102667123
-1.0043044090270996,2.8296589851379395,12.492420196533203,-0.4834965467453003,-0.23955115675926208,-0.04554001986980438
-0.5395815372467041,1.9241681098937988,12.779877662658691,-0.7423555850982666,-0.08508793264627457,-0.03382211923599243
0.4761013686656952,0.8653666377067566,13.086499214172363,-0.572978675365448,-0.30240172147750854,-0.18508955836296082
0.9120784401893616,1.0043044090270996,12.152262687683105,-0.032890014350414276,-0.6795050501823425,-0.39068543910980225
0.9264513254165649,2.0918517112731934,10.32211685180664,0.4486091434955597,-0.6262418627738953,-0.45247071981430054
0.998315691947937,2.3936820030212402,9.157914161682129,0.5998765826225281,-0.3663175404071808,-0.4258391261100769
0.17906202375888824,1.5840102434158325,9.090841293334961,-0.14367742836475372,0.11624689400196075,-0.5962813496589661
-0.19942358136177063,1.8427218198776245,8.947112083435059,-0.4131891429424286,-0.05206476151943207,-0.5536707639694214
-0.213796466588974,2.4990830421447754,8.252423286437988,-0.4557996690273285,-0.2533995807170868,-0.4301002025604248
-0.14193210005760193,2.72904896736145,7.873938083648682,-0.4089280664920807,-0.308793306350708,-0.36192330718040466
-0.11318635940551758,2.7961223125457764,7.332559585571289,-0.22570273280143738,-0.17030902206897736,-0.251135915517807
-0.4198076128959656,2.628438949584961,7.59127140045166,-0.021172115579247475,0.03315633162856102,-0.17443692684173584
-0.6928921937942505,2.72904896736145,7.7637457847595215,0.15353111922740936,0.3154512047767639,-0.11478215456008911
-0.673728346824646,2.9446420669555664,7.735000133514404,0.19720692932605743,0.36551859974861145,-0.09347688406705856
-0.022158175706863403,2.666766405105591,9.359134674072266,-0.09680583328008652,0.12903006374835968,-0.30120328068733215
0.08324287831783295,3.0979526042938232,9.282479286193848,0.26325327157974243,-0.06378266215324402,-0.3502054214477539
0.3946550786495209,3.3422913551330566,9.09563159942627,0.36551859974861145,-0.15752586722373962,-0.36298859119415283
0.35632744431495667,3.8309690952301025,9.35434341430664,0.4443480968475342,-0.11065425723791122,-0.36192330718040466
-0.1179773211479187,4.175918102264404,10.049032211303711,0.5636576414108276,0.06937529146671295,-0.2937464416027069
-1.047423005104065,3.553093433380127,10.053823471069336,0.44008705019950867,0.36658385396003723,-0.20852535963058472
-1.1671968698501587,4.377138137817383,9.804693222045898,0.1897500902414322,0.3058638274669647,-0.11371689289808273
-1.1528240442276,4.017816543579102,10.278998374938965,0.02889527566730976,0.1982721984386444,-0.05193160101771355
-1.6798293590545654,3.002133369445801,11.117416381835938,0.039547912776470184,-0.017976323142647743,-0.11691268533468246
-2.3026537895202637,2.992551565170288,10.59520149230957,0.14500901103019714,-0.1255679577589035,-0.09241162240505219
-2.072687864303589,2.9015233516693115,8.803383827209473,0.10346373170614243,0.3761712312698364,-0.029561065137386322
-2.618856906890869,3.256054162979126,9.723247528076172,0.08855003863573074,0.24301326274871826,0.04287686198949814
-2.551783561706543,3.6105849742889404,10.599992752075195,0.006524739786982536,-0.0062584239058196545,0.14407691359519958
-2.1493430137634277,3.227308511734009,10.580828666687012,-0.05206476151943207,-0.09041424840688705,0.15899059176445007
-2.3840999603271484,2.3840999603271484,9.392671585083008,-0.252334326505661,0.26644906401634216,0.18668745458126068
-2.3840999603271484,1.7469027042388916,10.068196296691895,-0.451538622379303,0.7564703226089478,0.20160114765167236
-2.513455867767334,1.804394245147705,10.259834289550781,-0.4653870463371277,0.8363651037216187,0.26338642835617065
-1.7085751295089722,3.509974956512451,7.236740589141846,0.08215846121311188,0.6052029132843018,0.43702441453933716
-1.7804393768310547,3.39978289604187,8.18535041809082,0.07044056057929993,0.41665124893188477,0.36671701073646545
-1.7756484746932983,3.366246223449707,8.372197151184082,0.01078579481691122,0.27177539467811584,0.2751043438911438
-2.259535074234009,3.256054162979126,8.616536140441895,-0.0456731803715229,0.2653838098049164,0.21118851006031036
-2.8248679637908936,3.3902010917663574,9.301643371582031,0.026764748618006706,-0.10106688737869263,0.25806012749671936
-3.217726469039917,4.003443717956543,10.12089729309082,0.14500901103019714,-0.140481635928154,0.23675484955310822
-1.8570947647094727,3.878878593444824,10.604783058166504,0.2792322337627411,-0.5463470816612244,0.13129374384880066
-1.1528240442276,4.118426322937012,10.55687427520752,0.1237037405371666,-0.798814594745636,-0.10519478470087051
-1.1240782737731934,4.669386386871338,10.652692794799805,-0.1490037590265274,-0.8968188166618347,-0.2798980176448822
-1.4211176633834839,4.42983865737915,10.988059997558594,-0.3247722387313843,-0.7924230098724365,-0.3352917432785034
-2.216416597366333,3.8261780738830566,11.035969734191895,-0.40999335050582886,-0.4312986135482788,-0.21491694450378418
-2.3074448108673096,2.1637160778045654,12.276827812194824,-0.5197154879570007,-0.041412122547626495,-0.05938844755291939
-1.4019538164138794,0.5970730185508728,13.675786972045898,-0.5079975724220276,-0.2661827504634857,-0.12863057851791382
-0.37668898701667786,1.2678070068359375,12.458884239196777,-0.31625014543533325,-0.7785745859146118,-0.2990727722644806
0.17427106201648712,2.623647928237915,9.84781265258789,-0.07656582444906235,-0.8797746300697327,-0.41944757103919983
-0.2664969861507416,2.882359504699707,8.032039642333984,0.1375521719455719,-0.4984102249145508,-0.42796966433525085
-0.7312198281288147,2.628438949584961,8.051203727722168,0.28668907284736633,0.04913528636097908,-0.27350643277168274
-0.7551746368408203,2.446382522583008,8.525507926940918,0.3314301371574402,0.30373328924179077,-0.16911059617996216
-0.5539544224739075,2.585320234298706,8.281168937683105,0.26325327157974243,0.2973417043685913,-0.14993585646152496
-0.3096156120300293,2.6332297325134277,7.70146369934082,0.20572903752326965,0.23981747031211853,-0.1627190262079239
-0.7120559811592102,2.4559643268585205,7.447542667388916,0.180162712931633,0.3825628161430359,-0.14674006402492523
-1.4786090850830078,2.36972713470459,7.955384254455566,0.15779218077659607,0.5359607934951782,-0.08388951420783997
-0.6497735381126404,2.4942920207977295,8.606954574584961,0.005459476262331009,0.26218801736831665,-0.13715268671512604
-0.7551746368408203,3.5722572803497314,8.362615585327148,-0.0882837250828743,-0.14580796658992767,-0.2564622163772583
-0.2856608033180237,3.3470823764801025,8.0128755569458,-0.14154690504074097,-0.2768353819847107,-0.3075948655605316
-0.22337837517261505,3.2464723587036133,8.218887329101562,-0.1447426974773407,-0.27044379711151123,-0.3448790907859802
-0.5012539029121399,3.1554441452026367,9.052513122558594,-0.15006901323795319,-0.1628521829843521,-0.4258391261100769
-0.6018639802932739,3.361455202102661,9.502862930297852,-0.048868969082832336,-0.23955115675926208,-0.40879490971565247
-0.41022568941116333,3.481229305267334,9.359134674072266,0.0949416235089302,-0.327968031167984,-0.40986019372940063
-0.137141153216362,3.5291388034820557,8.72193717956543,0.1428784877061844,-0.4078628122806549,-0.49827706813812256
0.025751395151019096,4.104053497314453,8.697982788085938,-0.041412122547626495,-0.5878923535346985,-0.6239781975746155
-0.20421454310417175,4.190290927886963,9.387880325317383,-0.029694223776459694,-0.4281028211116791,-0.5994771122932434
-2.2355804443359375,3.9746978282928467,10.901823043823242,0.2131858915090561,-0.005193160381168127,-0.3555317521095276
-1.009095311164856,3.744731903076172,10.393980979919434,0.3069290816783905,-0.11385004967451096,-0.33955278992652893
-0.87973952293396,3.663285493850708,9.713665962219238,0.3314301371574402,-0.024367906153202057,-0.45140546560287476
-2.4895009994506836,3.1985626220703125,9.129168510437012,0.4283691346645355,0.21425114572048187,-0.1808284968137741
-2.0199873447418213,3.2368903160095215,8.626118659973145,0.38362807035446167,0.3079943358898163,-0.15526217222213745
-2.6332297325134277,3.332709550857544,8.477598190307617,0.28562381863594055,0.5125249624252319,-0.07536740601062775
-3.6824493408203125,3.7207770347595215,9.287270545959473,0.17377112805843353,0.7394261360168457,0.10998847335577011
-3.5339298248291016,2.9111053943634033,7.859565258026123,-0.07123950868844986,0.7777756452560425,0.2996053993701935
-2.067896842956543,1.9672867059707642,9.732829093933105,-0.4685828387737274,0.006524739786982536,0.14727269113063812
-1.3348804712295532,2.5996930599212646,9.325597763061523,-0.6070671081542969,-0.5079975724220276,-0.20213377475738525
-1.9241681098937988,3.0212972164154053,8.444062232971191,-0.555934488773346,-0.8041408658027649,-0.2692453861236572
