accX,accY,accZ,gyroX,gyroY,gyroZ
0.09441773593425751,0.2784169018268585,9.228689193725586,-0.0013264502631500363,-0.001483529806137085,-0.00012217304902151227
0.08064628392457962,0.2842012941837311,9.243026733398438,-0.0019024088978767395,0.0007504915702156723,-0.0012217304902151227
0.07604941725730896,0.2781200408935547,9.23442554473877,-0.0019024088978767395,-0.00027925267932005227,-0.0012217304902151227
0.10578540712594986,0.28217101097106934,9.226046562194824,0.0012740903766825795,0.0007504915702156723,0.0008901178953237832
0.08893980085849762,0.2884534001350403,9.256279945373535,0.00020943951676599681,0.0018325956771150231,-0.0012217304902151227
0.08067502081394196,0.2777273952960968,9.24057388305664,-0.0013613568153232336,0.0006806784076616168,-0.0006457717972807586
0.10433930903673172,0.2795757055282593,9.233152389526367,-0.00020943951676599681,0.0005410520825535059,-0.0005585053586401045
0.08490796387195587,0.29159459471702576,9.241743087768555,-0.0011519172694534063,3.490658491500653e-05,-0.0012042771559208632
0.09334513545036316,0.2801886200904846,9.282176971435547,-0.002024581888690591,-0.00020943951676599681,0.00020943951676599681
0.09717585146427155,0.2824104428291321,9.236265182495117,-0.001972222002223134,0.00015707963029854,-0.00020943951676599681
0.08659348636865616,0.29240861535072327,9.27421760559082,-0.0027925267349928617,3.490658491500653e-05,-0.0012217304902151227
0.09083601087331772,0.2783498764038086,9.236859321594238,-0.0011344640515744686,0.0,-0.00043633230961859226
0.08216899633407593,0.2730347514152527,9.288457870483398,-0.00188495556358248,-0.00020943951676599681,-0.00010471975838299841
0.09020394086837769,0.27403074502944946,9.258118629455566,-0.002321287989616394,-0.0005585053586401045,-0.00012217304902151227
0.08538680523633957,0.2678441107273102,9.258378028869629,-0.0012391837080940604,-0.00047123889089562,-0.00043633230961859226
0.09487742185592651,0.28179752826690674,9.257027626037598,-0.0023561944253742695,-0.00047123889089562,-0.00013962633966002613
0.10367850959300995,0.26869645714759827,9.305697441101074,-0.002251474652439356,-0.00062831852119416,0.00029670598451048136
0.0803302526473999,0.273599773645401,9.226545333862305,-0.00038397242315113544,-0.00027925267932005227,-0.0005235987482592463
0.10688673704862595,0.2822955250740051,9.261500358581543,-0.0011693706037476659,0.00013962633966002613,-0.0005759586347267032
0.0889972597360611,0.26196396350860596,9.248974800109863,-0.0017976891249418259,0.00043633230961859226,0.0
0.10046070069074631,0.28326278924942017,9.27918815612793,-0.0011868239380419254,-0.0009075712296180427,-0.00013962633966002613
0.08972509950399399,0.2704298496246338,9.305083274841309,-0.0005585053586401045,0.0007504915702156723,-0.00012217304902151227
0.09609367698431015,0.2833681106567383,9.375262260437012,-0.0011519172694534063,0.0007330382941290736,0.00029670598451048136
0.07529285550117493,0.2888747751712799,9.200332641601562,0.0013962633674964309,-0.00024434609804302454,-0.00024434609804302454
0.10185891389846802,0.26384100317955017,9.308148384094238,0.0008726646192371845,0.00047123889089562,-0.0005061454721726477
0.07098329067230225,0.27187594771385193,9.343544960021973,0.0003490658418741077,-0.0012217304902151227,-0.00013962633966002613
0.08636364340782166,0.2886641025543213,9.212017059326172,-0.00062831852119416,0.0010995573829859495,-0.0006457717972807586
0.07138551771640778,0.2678249776363373,9.338689804077148,0.002146754879504442,0.00024434609804302454,-0.00012217304902151227
0.09710881859064102,0.2695392072200775,9.285614013671875,-0.001518436474725604,0.00019198621157556772,-0.00015707963029854
0.08017702400684357,0.27738261222839355,9.297412872314453,1.7453292457503267e-05,0.00040142572834156454,-0.00013962633966002613
0.07470867037773132,0.2724505662918091,9.308991432189941,-0.0012042771559208632,-0.00010471975838299841,-0.0005759586347267032
0.10432015359401703,0.2759077847003937,9.256903648376465,-0.0005235987482592463,0.00015707963029854,-0.0005759586347267032
0.10185891389846802,0.2781200408935547,9.296205520629883,-0.0005235987482592463,-0.00047123889089562,-0.0005061454721726477
0.09137231111526489,0.2622416913509369,9.306529998779297,-0.001343903481028974,0.0003316125657875091,-0.00013962633966002613
0.09542329609394073,0.2666182816028595,9.302133560180664,-0.0008203047327697277,0.00015707963029854,-0.00012217304902151227
0.09260771423578262,0.2674514651298523,9.271651268005371,-0.00043633230961859226,0.0003316125657875091,-0.00041887903353199363
0.09570102393627167,0.2827743589878082,9.341764450073242,-0.0022165682166814804,-0.002460914198309183,-0.0005410520825535059
0.09287586808204651,0.2620788812637329,9.313645362854004,-0.0018325956771150231,-0.0033335788175463676,-0.00094247778179124
0.10394665598869324,0.2734178304672241,9.299118995666504,5.2359879191499203e-05,-0.0008377580670639873,-0.0005759586347267032
0.09638097882270813,0.2780625820159912,9.314909934997559,0.004502949304878712,0.005532693583518267,-0.00125663704238832
0.08538680523633957,0.26646506786346436,9.193437576293945,-0.00205948855727911,0.00062831852119416,-0.00047123889089562
0.09317275136709213,0.2778902053833008,9.278116226196289,-0.0005410520825535059,-0.0009075712296180427,-0.000715585018042475
0.1003745049238205,0.2740977704524994,9.323241233825684,-0.0004886921960860491,0.0002617993741296232,-0.00027925267932005227
0.08388324826955795,0.2797097861766815,9.275721549987793,0.00045378561480902135,-0.00047123889089562,-0.0012391837080940604
0.08844180405139923,0.2778039872646332,9.295334815979004,-0.0009250245057046413,-0.0006632251315750182,-0.0010646508308127522
0.07632714509963989,0.282640278339386,9.294464111328125,-0.00012217304902151227,0.0007853981805965304,-0.00045378561480902135
0.09592129290103912,0.2855420708656311,9.280500411987305,0.0005410520825535059,-0.0006457717972807586,-0.00043633230961859226
0.09167876839637756,0.2734178304672241,9.314209938049316,-0.0008726646192371845,0.00015707963029854,-0.00012217304902151227
0.083892822265625,0.2918148636817932,9.273566246032715,-0.0008203047327697277,0.0002617993741296232,-0.0007330382941290736
0.08283937722444534,0.2751416563987732,9.268528938293457,0.00020943951676599681,-0.001117010717280209,-0.0008901178953237832
0.08810661733150482,0.2707650363445282,9.289511680603027,1.7453292457503267e-05,-0.00015707963029854,-0.00012217304902151227
0.08134539425373077,0.27796679735183716,9.298160552978516,-0.0009948377264663577,-0.0002617993741296232,-0.0006108652451075613
0.07915230840444565,0.26271095871925354,9.295919418334961,-0.00010471975838299841,-3.490658491500653e-05,-0.00038397242315113544
0.06856993585824966,0.2834926247596741,9.288813591003418,-0.001483529806137085,-0.00027925267932005227,-0.00012217304902151227
0.07864473760128021,0.26338133215904236,9.306501388549805,-0.0007504915702156723,0.00012217304902151227,-0.00031415926059708
0.08688078820705414,0.2759939730167389,9.289118766784668,-0.0008552113431505859,5.2359879191499203e-05,-0.00012217304902151227
0.0946667343378067,0.2653445899486542,9.2848482131958,-0.0009948377264663577,6.981316983001307e-05,-0.0007504915702156723
0.07740932703018188,0.29003357887268066,9.290718078613281,-0.00125663704238832,-0.00013962633966002613,-0.00012217304902151227
0.09260771423578262,0.29299280047416687,9.287232398986816,-0.0006981316837482154,-1.7453292457503267e-05,-0.00043633230961859226
0.08880572766065598,0.2945251166820526,9.293889999389648,-0.00029670598451048136,0.00012217304902151227,-0.00043633230961859226
0.06190447509288788,0.2790873050689697,9.195611000061035,-0.01869247667491436,0.0008203047327697277,0.00017453292093705386
0.08157523721456528,0.27575457096099854,9.265713691711426,0.00041887903353199363,-0.0026354470755904913,-0.0005235987482592463
0.07822335511445999,0.27114811539649963,9.328384399414062,-0.0019024088978767395,8.726646046852693e-05,-0.00010471975838299841
0.09025182574987411,0.288644939661026,9.22957992553711,-0.0009075712296180427,-0.0006806784076616168,-0.00013962633966002613
0.07131847739219666,0.2872754633426666,9.307132720947266,-0.0004886921960860491,-0.00019198621157556772,3.490658491500653e-05
0.08338525146245956,0.2729581296443939,9.28114128112793,0.00022689280740451068,-0.00017453292093705386,-0.0007679448463022709
0.087436243891716,0.2799108922481537,9.289406776428223,3.490658491500653e-05,0.0,-0.0003316125657875091
0.10256759822368622,0.2794128954410553,9.304347038269043,-0.0005585053586401045,0.00012217304902151227,-0.00031415926059708
0.0875607430934906,0.2845173478126526,9.263042449951172,-0.0005061454721726477,-0.0002617993741296232,-0.00017453292093705386
0.09350793808698654,0.2740403115749359,9.2855863571167,0.00017453292093705386,0.00015707963029854,-0.0007504915702156723
0.08079951256513596,0.2890375852584839,9.287952423095703,-0.0007330382941290736,-0.0005759586347267032,-0.0003490658418741077
0.07388506084680557,0.29423779249191284,9.021255493164062,-0.009878563694655895,0.005916666239500046,-0.00012217304902151227
0.07920018583536148,0.2893727719783783,9.146559715270996,0.003455751808360219,5.2359879191499203e-05,-0.0007504915702156723
0.07546523213386536,0.2729964554309845,9.208358764648438,0.0005410520825535059,-0.0009773843921720982,3.490658491500653e-05
0.09561483561992645,0.29168078303337097,9.306568145751953,-0.0012042771559208632,0.00047123889089562,-0.00012217304902151227
0.09250237047672272,0.2929162085056305,9.23945426940918,-8.726646046852693e-05,0.00041887903353199363,-0.00031415926059708
0.08481219410896301,0.2897462844848633,9.281085014343262,0.00017453292093705386,-0.00027925267932005227,-0.00012217304902151227
0.08955271542072296,0.2709182798862457,9.254949569702148,-0.0003316125657875091,0.0007853981805965304,0.0
0.0955190658569336,0.2932322323322296,9.293410301208496,-0.00031415926059708,-0.0007330382941290736,0.0004886921960860491
0.07817547023296356,0.2884534001350403,9.27265739440918,-0.0013788101496174932,0.0009599310578778386,-0.0006108652451075613
0.08966764062643051,0.2779093384742737,9.290451049804688,-0.0005934119690209627,-0.0006108652451075613,-0.0005759586347267032
0.08599971979856491,0.2618107199668884,9.287988662719727,0.00019198621157556772,-6.981316983001307e-05,-0.0007853981805965304
0.08524315059185028,0.28355008363723755,9.309680938720703,-0.00010471975838299841,0.00013962633966002613,-0.00013962633966002613
0.07664318382740021,0.27481603622436523,9.267313003540039,-0.00040142572834156454,0.00012217304902151227,-0.0003665191470645368
0.07422982901334763,0.2703053653240204,9.29395580291748,-0.00041887903353199363,-0.0006806784076616168,-0.0007504915702156723
0.09390058368444443,0.275812029838562,9.271172523498535,-0.001343903481028974,-0.0003490658418741077,-0.00012217304902151227
0.09804734587669373,0.27742093801498413,9.277349472045898,-0.00027925267932005227,-0.0005759586347267032,-0.0014137167017906904
0.10673350840806961,0.2736859619617462,9.288084983825684,-0.0007330382941290736,0.00017453292093705386,-0.00013962633966002613
0.07804139703512192,0.27656859159469604,9.263396263122559,-0.0013089969288557768,-0.0006806784076616168,-0.00019198621157556772
0.07781155407428741,0.2787425220012665,9.293113708496094,-0.0012042771559208632,-0.00047123889089562,-0.00015707963029854
0.07831912487745285,0.2509506344795227,9.682199478149414,-0.0023387412074953318,0.0009773843921720982,-0.0005759586347267032
0.08157523721456528,0.26781538128852844,9.40134048461914,-0.0036477381363511086,0.0011519172694534063,-0.00012217304902151227
0.09642886370420456,0.29080930352211,9.209478378295898,-0.00094247778179124,-0.0002617993741296232,-0.0005235987482592463
0.09037632495164871,0.2689741849899292,9.318099021911621,-0.0007504915702156723,0.00029670598451048136,-0.0010821041651070118
0.09048166871070862,0.27771779894828796,9.299739837646484,-0.0015009831404313445,-0.0012042771559208632,-6.981316983001307e-05
0.07438305765390396,0.28936320543289185,9.269333839416504,-0.0009948377264663577,-0.0017104226863011718,0.0002617993741296232
0.08011956512928009,0.269807368516922,9.285443305969238,-0.00045378561480902135,3.490658491500653e-05,-0.0003316125657875091
0.0936228558421135,0.27607059478759766,9.121505737304688,-0.006370451766997576,-0.0033335788175463676,0.0005585053586401045
0.08047390729188919,0.2789819538593292,9.182136535644531,-8.726646046852693e-05,0.0003316125657875091,-0.0005759586347267032
0.08742666244506836,0.2876010835170746,9.227435111999512,0.0024434609804302454,6.981316983001307e-05,-0.00043633230961859226
0.10364977270364761,0.2714737355709076,9.253589630126953,-0.0016406094655394554,-0.0005410520825535059,0.0
0.09854533523321152,0.28140488266944885,9.3383150100708,-0.0005061454721726477,0.0003490658418741077,-0.00027925267932005227
0.11174217611551285,0.27640578150749207,9.27624797821045,-0.0007330382941290736,3.490658491500653e-05,-0.00017453292093705386
0.08017702400684357,0.28909504413604736,9.301148414611816,-0.0008552113431505859,-0.0005061454721726477,-0.00012217304902151227
0.09330682456493378,0.26471251249313354,9.279255867004395,-0.0008901178953237832,0.00010471975838299841,0.0006108652451075613
0.08752243220806122,0.266014963388443,9.294032096862793,-0.0008726646192371845,-0.0003316125657875091,-0.0008726646192371845
0.08266699314117432,0.27286237478256226,9.294079780578613,-5.2359879191499203e-05,1.7453292457503267e-05,-0.00040142572834156454
0.0843716636300087,0.26872518658638,9.290651321411133,-0.0005410520825535059,8.726646046852693e-05,-0.0009599310578778386
0.08705317229032516,0.2728240489959717,9.266565322875977,-0.0005061454721726477,-0.0005934119690209627,-0.00040142572834156454
0.09404423832893372,0.2891620993614197,9.289071083068848,-0.0003490658418741077,0.00045378561480902135,-0.0003316125657875091
0.08771397173404694,0.28369373083114624,9.290555953979492,-0.00038397242315113544,-0.00024434609804302454,-0.00012217304902151227
0.08646898716688156,0.2873903810977936,9.277828216552734,-0.0005410520825535059,-0.0014137167017906904,-0.0005235987482592463
0.09986693412065506,0.29205429553985596,9.299979209899902,-0.0005934119690209627,0.0,-0.00045378561480902135
0.089102603495121,0.2866242527961731,9.293830871582031,-0.0005410520825535059,-0.00013962633966002613,-0.0005235987482592463
0.0962277501821518,0.28096434473991394,9.304978370666504,-0.0005410520825535059,0.00015707963029854,-0.00013962633966002613
0.08050263673067093,0.2710331976413727,9.257927894592285,-8.726646046852693e-05,-0.0002617993741296232,0.00029670598451048136
0.08670840412378311,0.27929797768592834,9.3036470413208,-0.00010471975838299841,5.2359879191499203e-05,-0.00045378561480902135
0.09166919440031052,0.2764728367328644,9.292767524719238,-0.0010122909443452954,0.00010471975838299841,-0.00012217304902151227
0.08938991278409958,0.27000847458839417,9.25197982788086,0.0005585053586401045,-0.0005934119690209627,-0.00019198621157556772
0.09531795233488083,0.2735614776611328,9.328614234924316,-0.00015707963029854,0.00012217304902151227,-0.00047123889089562
0.09634267538785934,0.28328192234039307,9.298111915588379,-0.0006457717972807586,0.00015707963029854,-0.0005759586347267032
0.10890743881464005,0.2923511564731598,9.265704154968262,6.981316983001307e-05,-0.001029744278639555,-0.0003316125657875091
0.10258675366640091,0.2772485315799713,9.327235221862793,-0.00010471975838299841,-0.0003665191470645368,-0.0005759586347267032
0.09674489498138428,0.2849195599555969,9.309269905090332,-0.0004886921960860491,0.00031415926059708,-0.00024434609804302454
0.0970417782664299,0.2818070948123932,9.294529914855957,-0.0008901178953237832,-0.0006981316837482154,0.00017453292093705386
0.09819099307060242,0.2799108922481537,9.261307716369629,-0.0005585053586401045,-0.00010471975838299841,-0.0012042771559208632
0.08903557062149048,0.2762908637523651,9.283853530883789,-0.0006632251315750182,-0.00012217304902151227,-0.0005759586347267032
0.07665275782346725,0.29296407103538513,9.31363582611084,0.0027925267349928617,6.981316983001307e-05,-0.00012217304902151227
0.08274360746145248,0.2830233573913574,9.274466514587402,-0.0010122909443452954,0.0011693706037476659,-0.00012217304902151227
0.07236234843730927,0.2760610282421112,9.292070388793945,0.0002617993741296232,0.0,-0.0005759586347267032
0.07973649352788925,0.2703532576560974,9.270828247070312,-0.0009948377264663577,1.7453292457503267e-05,-0.0007504915702156723
0.08659348636865616,0.2794320583343506,9.286438941955566,-0.0008552113431505859,0.0008901178953237832,-0.00031415926059708
0.09689812362194061,0.2827743589878082,9.264114379882812,-0.0003665191470645368,-0.0007504915702156723,-0.00015707963029854
0.08973467350006104,0.2788095772266388,9.256855010986328,-0.00013962633966002613,-0.00010471975838299841,-0.00019198621157556772
0.08024406433105469,0.27800512313842773,9.292530059814453,-0.00010471975838299841,8.726646046852693e-05,-0.0010471974965184927
0.09715670347213745,0.2647891342639923,9.29386043548584,-0.0006108652451075613,-0.00045378561480902135,-0.00012217304902151227
0.07610688358545303,0.29150840640068054,9.266929626464844,-0.00047123889089562,-0.0008726646192371845,-0.00012217304902151227
0.08620083332061768,0.2882331311702728,9.255773544311523,-0.00013962633966002613,-0.0005759586347267032,-0.00024434609804302454
0.09374735504388809,0.2868923842906952,9.25900936126709,-0.000715585018042475,-0.00022689280740451068,-0.00012217304902151227
0.08656474947929382,0.2780817151069641,9.27456283569336,-0.0008552113431505859,0.00017453292093705386,-0.0005759586347267032
0.08966764062643051,0.2833681106567383,9.269793510437012,-0.0003665191470645368,-0.0005934119690209627,-0.0005934119690209627
0.09248322248458862,0.27406904101371765,9.253464698791504,-0.0009075712296180427,0.0,1.7453292457503267e-05
0.07261134684085846,0.28158682584762573,9.2608003616333,-0.00015707963029854,0.00024434609804302454,-0.001029744278639555
0.08237969130277634,0.2690986692905426,9.278489112854004,-0.0005410520825535059,-5.2359879191499203e-05,-0.00012217304902151227
0.08255206793546677,0.288597047328949,9.257286071777344,-0.0012042771559208632,-0.00012217304902151227,-0.0003316125657875091
0.07798393815755844,0.27000847458839417,9.231850624084473,0.00045378561480902135,-0.00019198621157556772,-0.00013962633966002613
0.08538680523633957,0.27802425622940063,9.267274856567383,0.00031415926059708,-0.00027925267932005227,0.00029670598451048136
0.09617986530065536,0.2831287086009979,9.255026817321777,-0.0005410520825535059,0.00043633230961859226,-0.00015707963029854
0.08338525146245956,0.30582574009895325,8.973698616027832,-0.011571533046662807,-0.0006632251315750182,-0.00012217304902151227
0.06486371159553528,0.3103364109992981,9.063077926635742,0.007208209950476885,-0.0018151424592360854,-0.00020943951676599681
0.08625829219818115,0.2731592357158661,9.249950408935547,0.00041887903353199363,8.726646046852693e-05,0.0
0.08673713356256485,0.2814719080924988,9.254843711853027,-0.0015707963611930609,-0.00013962633966002613,-0.00012217304902151227
0.0816422775387764,0.28742867708206177,9.242527961730957,-0.0005061454721726477,-0.0006981316837482154,-0.00013962633966002613
0.08825027197599411,0.2925426959991455,9.202699661254883,-0.0008552113431505859,0.0002617993741296232,-0.0005934119690209627
0.08237010985612869,0.2803705930709839,9.23621654510498,0.00029670598451048136,-0.0007330382941290736,0.00024434609804302454
0.08249460905790329,0.2777465283870697,9.302258491516113,-0.00027925267932005227,0.0006632251315750182,-0.0008203047327697277
0.08717767149209976,0.28736165165901184,9.280539512634277,-6.981316983001307e-05,0.00010471975838299841,0.0
0.09816226363182068,0.291776567697525,9.222857475280762,-0.00045378561480902135,0.00041887903353199363,-0.00043633230961859226
0.09190861135721207,0.28358837962150574,9.273843765258789,-0.0005585053586401045,-0.00017453292093705386,-6.981316983001307e-05
0.09592129290103912,0.2833298146724701,9.262860298156738,-0.0006457717972807586,-0.0005235987482592463,-0.0005759586347267032
0.0937090516090393,0.27754542231559753,9.258578300476074,0.00017453292093705386,0.00019198621157556772,0.0
0.0893324464559555,0.27227818965911865,9.245697975158691,-0.0009773843921720982,0.00013962633966002613,-0.00040142572834156454
0.0853101909160614,0.28315743803977966,9.250114440917969,-0.00045378561480902135,-3.490658491500653e-05,-0.0005061454721726477
0.08689994364976883,0.2694338858127594,9.695884704589844,-0.006859143730252981,-0.009651671163737774,-0.0005235987482592463
0.08988790214061737,0.27834030985832214,9.267045021057129,-0.006719517521560192,-0.002146754879504442,0.00020943951676599681
0.07651868462562561,0.27671223878860474,9.254049301147461,-0.0003665191470645368,0.0018151424592360854,-0.00019198621157556772
0.08586564660072327,0.28473761677742004,9.25741958618164,0.002251474652439356,0.005462880712002516,-0.00020943951676599681
0.09684066474437714,0.270018070936203,9.107916831970215,0.0015009831404313445,0.00040142572834156454,-0.00012217304902151227
0.08142200857400894,0.28246790170669556,9.266728401184082,0.00188495556358248,-5.2359879191499203e-05,-0.0004886921960860491
0.09760680794715881,0.27902984619140625,9.256672859191895,-0.0007330382941290736,0.0,-0.00012217304902151227
0.09116162359714508,0.2794512212276459,9.265425682067871,-0.0011693706037476659,-3.490658491500653e-05,-0.00043633230961859226
0.09755893051624298,0.27392539381980896,9.237164497375488,-0.00062831852119416,0.00019198621157556772,-0.00013962633966002613
0.08220730721950531,0.2868349254131317,9.261576652526855,-0.0003665191470645368,-0.0006806784076616168,-0.00041887903353199363
0.11001835018396378,0.2944006025791168,9.224418640136719,-0.0012391837080940604,0.00029670598451048136,-0.00062831852119416
0.09485826641321182,0.2820177972316742,9.249567031860352,-0.001029744278639555,-6.981316983001307e-05,-0.0006806784076616168
0.0834139809012413,0.2748543322086334,9.239540100097656,-0.0005934119690209627,-0.00015707963029854,-0.00010471975838299841
0.07879796624183655,0.26548823714256287,9.238812446594238,-0.00010471975838299841,-0.00017453292093705386,-0.00045378561480902135
0.07580042630434036,0.266675740480423,9.24331283569336,-0.0044156829826533794,-0.0007679448463022709,-0.00040142572834156454
0.09736739099025726,0.29182443022727966,9.255572319030762,-0.0010995573829859495,0.00015707963029854,-0.0005061454721726477
0.1013130322098732,0.2849961817264557,9.192259788513184,-0.00043633230961859226,8.726646046852693e-05,-0.0005235987482592463
0.09294290840625763,0.2875436246395111,9.244827270507812,-8.726646046852693e-05,-0.00010471975838299841,-0.00041887903353199363
0.10059477388858795,0.2901293635368347,9.247106552124023,-0.001029744278639555,0.00013962633966002613,1.7453292457503267e-05
0.08772354573011398,0.27931714057922363,9.247939109802246,-0.000715585018042475,0.00015707963029854,-0.00020943951676599681
0.09080728143453598,0.28377991914749146,9.23879337310791,-0.0005934119690209627,0.00047123889089562,0.0003490658418741077
0.09682150930166245,0.27623340487480164,9.232702255249023,-0.0006806784076616168,0.00017453292093705386,-0.00031415926059708
0.09017521142959595,0.28507280349731445,9.24488353729248,-0.0007679448463022709,0.0005759586347267032,-0.00017453292093705386
0.09450392425060272,0.27944162487983704,9.241752624511719,-0.0010995573829859495,-0.00045378561480902135,-0.00012217304902151227
0.09441773593425751,0.28649017214775085,9.231630325317383,-8.726646046852693e-05,-0.0014486232539638877,-0.00017453292093705386
0.08372043818235397,0.2962776720523834,9.241033554077148,-0.0005759586347267032,-0.0006632251315750182,-0.00029670598451048136
0.09070193022489548,0.2802269458770752,9.246588706970215,-0.00010471975838299841,0.00015707963029854,-0.0007504915702156723
0.08957187086343765,0.28649017214775085,9.239099502563477,-0.0006457717972807586,0.00045378561480902135,-0.0008552113431505859
0.08417055010795593,0.2793267071247101,9.231974601745605,-0.00010471975838299841,0.00015707963029854,-0.00013962633966002613
0.08466854691505432,0.2818932831287384,9.243026733398438,-6.981316983001307e-05,-0.000715585018042475,-0.00041887903353199363
0.08169015496969223,0.28133782744407654,9.23078727722168,-0.0006632251315750182,-3.490658491500653e-05,0.0
0.0851856917142868,0.2887502908706665,9.2308349609375,0.00062831852119416,0.0008028514566831291,-0.00015707963029854
0.08921752870082855,0.28925785422325134,9.23612117767334,-0.00031415926059708,0.00012217304902151227,0.0002617993741296232
0.08704359084367752,0.2848716974258423,9.207267761230469,-0.0005759586347267032,-0.00045378561480902135,0.00024434609804302454
0.09556695073843002,0.28083986043930054,9.225051879882812,-0.0005759586347267032,0.00010471975838299841,-0.00029670598451048136
0.09758765995502472,0.28746700286865234,9.222484588623047,-0.0005585053586401045,0.00019198621157556772,-0.0008552113431505859
0.09220549464225769,0.27330291271209717,9.218079566955566,-0.0008726646192371845,-8.726646046852693e-05,-0.0005759586347267032
0.0927705243229866,0.27871379256248474,9.215818405151367,-0.0005061454721726477,0.0005759586347267032,-0.0008901178953237832
0.07983225584030151,0.2933950424194336,9.226314544677734,-0.0009948377264663577,0.00029670598451048136,-0.0006108652451075613
0.08932287245988846,0.2955881357192993,9.213347434997559,-0.0005235987482592463,-1.7453292457503267e-05,-0.0005759586347267032
0.08256164938211441,0.27465322613716125,9.213193893432617,-0.0009948377264663577,0.0,-0.00013962633966002613
0.08821196109056473,0.2854941785335541,9.23616886138916,-0.001483529806137085,-0.0009075712296180427,-0.00027925267932005227
0.09558610618114471,0.28140488266944885,9.222301483154297,-0.00017453292093705386,-0.0005759586347267032,-0.00031415926059708
0.0969172790646553,0.27996835112571716,9.214105606079102,-0.00094247778179124,0.00040142572834156454,-0.00031415926059708
0.0867275595664978,0.28335854411125183,9.205648422241211,-0.00027925267932005227,-0.00031415926059708,0.00031415926059708
0.10062350332736969,0.2970629632472992,9.222665786743164,-0.0008726646192371845,0.00047123889089562,-0.00019198621157556772
0.09023267030715942,0.29673734307289124,9.219610214233398,-0.0005585053586401045,-0.00045378561480902135,-0.00015707963029854
0.09617986530065536,0.28121334314346313,9.226927757263184,-0.0005410520825535059,0.00013962633966002613,0.0003665191470645368
0.08097189664840698,0.28941109776496887,9.224580764770508,-0.00043633230961859226,-0.00027925267932005227,-0.0007679448463022709
0.08539637923240662,0.2770378589630127,9.25101375579834,-0.0005934119690209627,-0.0002617993741296232,-0.00012217304902151227
0.07941088080406189,0.27429887652397156,9.219803810119629,-0.0011693706037476659,0.00024434609804302454,0.00029670598451048136
0.08938991278409958,0.29322266578674316,9.196866035461426,-0.00047123889089562,0.00024434609804302454,5.2359879191499203e-05
0.09768342226743698,0.27663561701774597,9.134089469909668,0.0031415927223861217,0.0037350046914070845,-0.0009075712296180427
0.11261366307735443,0.26496151089668274,9.415841102600098,0.007941247895359993,0.0007504915702156723,-0.0005585053586401045
0.07934384047985077,0.2718472182750702,9.303302764892578,0.00518362782895565,-0.0047996556386351585,0.0003316125657875091
0.10352528095245361,0.2784743905067444,9.266624450683594,-0.0005759586347267032,0.0007853981805965304,-0.00012217304902151227
0.07309018820524216,0.2860783636569977,9.228344917297363,-0.0005061454721726477,0.0004886921960860491,0.00012217304902151227
0.09507853537797928,0.28411510586738586,9.195208549499512,0.0005235987482592463,-0.0007853981805965304,-0.00013962633966002613
0.08657433092594147,0.2742414176464081,9.240134239196777,-0.0005585053586401045,0.00015707963029854,-0.00020943951676599681
0.08303090929985046,0.2692614793777466,9.213951110839844,-0.0005585053586401045,0.0009075712296180427,-0.00027925267932005227
0.09142976999282837,0.2623278796672821,9.23075008392334,-0.00041887903353199363,-0.0003490658418741077,-0.00024434609804302454
0.09917740523815155,0.3008936941623688,9.223682403564453,-0.0005235987482592463,-0.0008726646192371845,-0.00020943951676599681
0.09657251834869385,0.291517972946167,9.242681503295898,-0.0006981316837482154,1.7453292457503267e-05,-0.00012217304902151227
0.0832894816994667,0.2717897593975067,9.229647636413574,-0.0005585053586401045,-0.0009250245057046413,0.00012217304902151227
0.08227434754371643,0.28909504413604736,9.234455108642578,-0.0005585053586401045,0.0007853981805965304,-3.490658491500653e-05
0.07206546515226364,0.28650930523872375,9.227952003479004,-0.0006108652451075613,-0.0007853981805965304,-0.0006806784076616168
0.08155608177185059,0.27509376406669617,9.236417770385742,-0.0012217304902151227,-0.00043633230961859226,-0.00013962633966002613
0.07408617436885834,0.26462632417678833,9.229857444763184,-0.00019198621157556772,-0.00027925267932005227,-0.00012217304902151227
0.09102754294872284,0.2822859585285187,9.235872268676758,-0.0005410520825535059,-0.00043633230961859226,0.0004886921960860491
0.08550173044204712,0.2741839587688446,9.238018035888672,0.00013962633966002613,-0.00012217304902151227,-0.00017453292093705386
0.09427408128976822,0.2807440757751465,9.255476951599121,-0.0005410520825535059,1.7453292457503267e-05,-0.00017453292093705386
0.09471461176872253,0.29329928755760193,9.273423194885254,-0.0017976891249418259,-8.726646046852693e-05,-0.00062831852119416
0.07269753515720367,0.27817749977111816,9.196762084960938,-0.0013613568153232336,-0.00038397242315113544,-0.00043633230961859226
0.0844961628317833,0.2863081991672516,9.250170707702637,-0.00045378561480902135,-0.00020943951676599681,-0.00013962633966002613
0.08160396665334702,0.2894206643104553,9.25705623626709,-0.0012042771559208632,-0.0005061454721726477,-0.0005759586347267032
0.08619125932455063,0.2835788130760193,9.272982597351074,-0.00047123889089562,-0.00012217304902151227,-0.00012217304902151227
0.08309794962406158,0.2845556437969208,9.237874031066895,-0.0011868239380419254,-8.726646046852693e-05,-0.0008901178953237832
0.07241980731487274,0.28417256474494934,9.231572151184082,-0.0014486232539638877,-0.0005934119690209627,-0.001029744278639555
0.07715075463056564,0.2792884111404419,9.241848945617676,-0.00038397242315113544,-0.00020943951676599681,-0.0005759586347267032
0.09376651048660278,0.2855037450790405,9.266585350036621,-0.0008377580670639873,0.00012217304902151227,-5.2359879191499203e-05
0.08370129019021988,0.28877902030944824,9.239798545837402,-0.0003665191470645368,0.00017453292093705386,-0.00013962633966002613
0.10223241150379181,0.29338547587394714,8.691795349121094,0.000715585018042475,0.014311700128018856,-0.00017453292093705386
0.08975382894277573,0.29712042212486267,8.957388877868652,0.019390607252717018,-0.0004886921960860491,-0.00010471975838299841
0.09046251326799393,0.2624523937702179,9.482264518737793,0.012723450548946857,-0.004694935865700245,-0.0012391837080940604
0.10685800760984421,0.2850440740585327,9.296225547790527,0.006928957067430019,-0.0033859387040138245,0.00024434609804302454
0.09029971063137054,0.28530263900756836,9.247345924377441,-0.0015009831404313445,-0.00015707963029854,-0.00094247778179124
0.09470503777265549,0.2907901406288147,9.268375396728516,-0.00125663704238832,-0.00045378561480902135,-0.00024434609804302454
0.09236829727888107,0.2804184556007385,9.211671829223633,-0.0005585053586401045,-0.00019198621157556772,-0.0006806784076616168
0.09530837833881378,0.28452691435813904,9.262639999389648,0.0007679448463022709,-0.0012217304902151227,0.0003665191470645368
0.08415139466524124,0.2833968698978424,9.266201972961426,0.0005061454721726477,-0.00027925267932005227,-0.00040142572834156454
0.07861600071191788,0.2767505645751953,9.25318717956543,-0.0017627825727686286,0.00015707963029854,-0.00013962633966002613
0.08869080245494843,0.27390623092651367,9.258406639099121,-0.00017453292093705386,-3.490658491500653e-05,0.00017453292093705386
0.07733271270990372,0.2867295742034912,9.256433486938477,-0.00047123889089562,-0.00020943951676599681,-0.00015707963029854
0.08367256075143814,0.28290843963623047,9.262323379516602,-0.00041887903353199363,-0.00043633230961859226,-0.00012217304902151227
0.07847235351800919,0.283607542514801,9.27100944519043,-0.00038397242315113544,0.00015707963029854,-0.00012217304902151227
0.08427589386701584,0.2864997386932373,9.261077880859375,-0.0005759586347267032,-0.0004886921960860491,-0.0006806784076616168
0.08742666244506836,0.27740177512168884,9.257803916931152,-0.0005585053586401045,-0.00045378561480902135,0.00029670598451048136
0.08529103547334671,0.2818262577056885,9.260944366455078,-0.0006806784076616168,-0.00041887903353199363,0.0
0.08272445201873779,0.2844311594963074,9.261547088623047,-0.000715585018042475,-0.0015358896926045418,-0.0008901178953237832
0.09625647962093353,0.27876168489456177,9.276468276977539,-0.0012042771559208632,-0.0005585053586401045,-0.0006108652451075613
0.09285671263933182,0.27584075927734375,9.255284309387207,-0.0005585053586401045,-0.00045378561480902135,-0.00013962633966002613
0.08050263673067093,0.2872658967971802,9.269218444824219,-0.0005585053586401045,0.00015707963029854,-0.0003665191470645368
0.09708008915185928,0.2968331277370453,9.263769149780273,0.0011693706037476659,-0.0008377580670639873,-0.00019198621157556772
0.10327628254890442,0.2805429697036743,9.272072792053223,-0.0008552113431505859,-0.0015009831404313445,-0.0008377580670639873
0.09494446218013763,0.27878084778785706,9.26567554473877,-0.0009948377264663577,-0.0015009831404313445,-0.00017453292093705386
0.09000282734632492,0.28113672137260437,9.275443077087402,0.00094247778179124,-0.0009948377264663577,-0.0005061454721726477
0.06501694023609161,0.28223806619644165,9.28604507446289,-0.0003665191470645368,0.00017453292093705386,-0.00012217304902151227
0.08334694802761078,0.28884604573249817,9.220769882202148,0.0008203047327697277,-0.0031066860537976027,-0.00019198621157556772
0.0812879353761673,0.27653029561042786,9.185929298400879,0.00041887903353199363,-0.0010995573829859495,-0.0007679448463022709
0.09429323673248291,0.2936727702617645,9.319381713867188,0.0019024088978767395,0.0,1.7453292457503267e-05
0.09662997722625732,0.2825445234775543,9.364019393920898,-0.0024260077625513077,0.00015707963029854,-0.0007853981805965304
0.11085153371095657,0.2853313684463501,9.183305740356445,-0.0020420351065695286,0.00010471975838299841,-0.0007504915702156723
0.08410351723432541,0.28742867708206177,9.289071083068848,1.7453292457503267e-05,-0.0005235987482592463,0.00045378561480902135
0.10034577548503876,0.266560822725296,9.279513359069824,-0.0008377580670639873,-0.00013962633966002613,-0.00022689280740451068
0.06380068510770798,0.28060999512672424,9.303772926330566,-0.00010471975838299841,-0.0005061454721726477,0.00029670598451048136
0.07056190818548203,0.2841055393218994,9.32066535949707,-0.0011519172694534063,-0.00024434609804302454,0.001029744278639555
0.08907387405633926,0.2637069523334503,9.207669258117676,-0.0005410520825535059,-0.0005585053586401045,0.00015707963029854
0.1003745049238205,0.28771600127220154,9.31989860534668,-0.00017453292093705386,0.0006108652451075613,-0.00094247778179124
0.09723331779241562,0.28452691435813904,9.294856071472168,-0.0012915435945615172,0.00038397242315113544,-0.00015707963029854
0.09271306544542313,0.27473941445350647,9.275196075439453,-0.0009773843921720982,0.00038397242315113544,-0.00022689280740451068
0.08670840412378311,0.2802939713001251,9.269938468933105,0.0,0.00017453292093705386,-0.0009250245057046413
0.08632533252239227,0.2822955250740051,9.295594215393066,0.00022689280740451068,-0.0005759586347267032,-0.00031415926059708
0.0908934697508812,0.2788287103176117,9.278871536254883,-0.00022689280740451068,8.726646046852693e-05,-0.0005759586347267032
0.09644801914691925,0.27254632115364075,9.289684295654297,-0.0016755161341279745,-0.00040142572834156454,-0.00043633230961859226
0.0952509194612503,0.27777525782585144,9.277255058288574,-0.0006981316837482154,0.00041887903353199363,-0.0012391837080940604
0.09296205639839172,0.2743467688560486,9.278182029724121,-0.0005585053586401045,-8.726646046852693e-05,-0.00041887903353199363
0.08522400259971619,0.27121517062187195,9.280365943908691,-0.0006981316837482154,-0.0006632251315750182,-0.00015707963029854
0.10127472877502441,0.2839618921279907,9.275452613830566,-0.0005585053586401045,-0.0005934119690209627,-0.00041887903353199363
0.08220730721950531,0.27471068501472473,9.27808666229248,0.0008901178953237832,-0.00019198621157556772,-0.0012042771559208632
0.03723462298512459,0.2952050566673279,9.339436531066895,0.003543018363416195,-0.02134537696838379,-0.0003665191470645368
0.0813932791352272,0.2818549871444702,9.301129341125488,0.0047996556386351585,-0.003630284918472171,0.00020943951676599681
0.0938335508108139,0.2671641707420349,9.307326316833496,0.0019024088978767395,0.003403391921892762,-0.00010471975838299841
0.084352508187294,0.27692294120788574,9.294836044311523,0.0019024088978767395,-0.0011519172694534063,-0.0008203047327697277
0.09766427427530289,0.29877719283103943,9.29804515838623,-0.0003490658418741077,-0.00012217304902151227,-0.00013962633966002613
0.09765469282865524,0.2785988748073578,9.25177001953125,-0.00043633230961859226,5.2359879191499203e-05,-0.00012217304902151227
0.09090304374694824,0.2818549871444702,9.29186725616455,-0.00040142572834156454,-1.7453292457503267e-05,-0.00013962633966002613
0.09134358167648315,0.288099080324173,9.284608840942383,-0.0005934119690209627,0.00010471975838299841,-0.00019198621157556772
0.08296387642621994,0.26606282591819763,9.292750358581543,-0.00045378561480902135,-0.00045378561480902135,-0.0003490658418741077
0.07952579855918884,0.2740403115749359,9.304786682128906,-0.0012391837080940604,-0.00020943951676599681,-8.726646046852693e-05
0.09715670347213745,0.2988346815109253,9.286639213562012,0.00020943951676599681,-0.0002617993741296232,-0.0006981316837482154
0.09118077158927917,0.2766452133655548,9.26857852935791,-0.0006806784076616168,-0.00013962633966002613,-0.0012042771559208632
0.08184339106082916,0.2610733211040497,9.282665252685547,-0.00094247778179124,-0.00017453292093705386,0.00027925267932005227
0.09172665327787399,0.26648420095443726,9.273853302001953,-0.0006632251315750182,0.00013962633966002613,-0.0005759586347267032
0.08972509950399399,0.28753402829170227,9.274811744689941,-0.0005585053586401045,0.00015707963029854,0.00017453292093705386
0.0893324464559555,0.2869402766227722,9.289052963256836,-0.00010471975838299841,3.490658491500653e-05,-0.00031415926059708
0.0874553993344307,0.2864518463611603,9.293496131896973,-0.0005585053586401045,-0.00020943951676599681,-0.00012217304902151227
0.0883939266204834,0.27915433049201965,9.289531707763672,-0.0008203047327697277,-0.0008901178953237832,-0.00043633230961859226
0.08398859202861786,0.2787042260169983,9.265425682067871,-0.0004886921960860491,-0.0007853981805965304,-0.0005061454721726477
0.09730993211269379,0.2755821943283081,9.31445026397705,-0.0005585053586401045,-0.00027925267932005227,-0.0006457717972807586
0.09860280156135559,0.25992411375045776,9.278871536254883,-0.0008028514566831291,-0.00045378561480902135,-0.0003665191470645368
0.0860380306839943,0.2849961817264557,9.27727222442627,-0.00038397242315113544,-0.00038397242315113544,-0.00019198621157556772
0.07966945320367813,0.2830616533756256,9.3036470413208,-0.0005585053586401045,-0.00029670598451048136,-0.00029670598451048136
0.09457096457481384,0.2821901738643646,9.284014701843262,-0.0006108652451075613,-3.490658491500653e-05,-0.00015707963029854
0.09802819043397903,0.2779093384742737,9.269505500793457,-0.0009599310578778386,-0.0009599310578778386,-0.0005061454721726477
0.10105445981025696,0.2737913131713867,9.287596702575684,-0.0005410520825535059,0.00015707963029854,-0.00013962633966002613
0.08763735741376877,0.28473761677742004,9.280644416809082,-0.0005759586347267032,-0.00020943951676599681,-0.00012217304902151227
0.11613792926073074,0.24395956099033356,9.36373233795166,-0.006981316953897476,0.00024434609804302454,-0.0004886921960860491
0.08609548956155777,0.2841821610927582,9.41230583190918,-0.002809980185702443,-0.00024434609804302454,-0.00012217304902151227
0.09829634428024292,0.27472028136253357,9.121180534362793,-0.0009250245057046413,-0.003001966280862689,-0.0004886921960860491
0.10290278494358063,0.2936919331550598,9.364163398742676,0.00043633230961859226,0.00031415926059708,-0.00012217304902151227
0.09366116672754288,0.27702829241752625,9.270894050598145,-0.0009250245057046413,-0.0003490658418741077,-0.00031415926059708
0.09654378890991211,0.27346569299697876,9.294922828674316,-0.0009075712296180427,0.00015707963029854,-0.00045378561480902135
0.09644801914691925,0.27020958065986633,9.295700073242188,-0.0005235987482592463,-0.00022689280740451068,-0.00038397242315113544
0.08716809004545212,0.26885926723480225,9.287252426147461,-0.00045378561480902135,-0.0002617993741296232,-0.0007679448463022709
0.085894376039505,0.28060999512672424,9.278000831604004,-0.00017453292093705386,0.00010471975838299841,-0.0008203047327697277
0.09818141907453537,0.2643868923187256,9.497176170349121,-0.004939281847327948,0.0045378562062978745,-0.00012217304902151227
0.08035898208618164,0.2832436263561249,9.282645225524902,-0.004258603323251009,-0.00043633230961859226,-0.00013962633966002613
0.08063670992851257,0.27769866585731506,9.221161842346191,-0.003228859044611454,-0.0003490658418741077,-0.0006457717972807586
0.10027874261140823,0.28471845388412476,9.3036470413208,-0.0004886921960860491,0.00012217304902151227,-0.00012217304902151227
0.08998367190361023,0.2849961817264557,9.232396125793457,-0.0008377580670639873,-0.00045378561480902135,-0.0008028514566831291
0.08738835901021957,0.2871605455875397,9.309471130371094,-1.7453292457503267e-05,5.2359879191499203e-05,-0.00017453292093705386
0.09344089776277542,0.2566392719745636,9.304049491882324,-0.00047123889089562,-0.00027925267932005227,0.0
0.08043559640645981,0.2868923842906952,9.300477981567383,-0.0016231562476605177,-0.0006632251315750182,0.00013962633966002613
0.08201576769351959,0.2931460440158844,9.26364517211914,0.0007853981805965304,-0.0009075712296180427,-0.00013962633966002613
0.07319553196430206,0.27948951721191406,9.323662757873535,0.0,-0.000715585018042475,-5.2359879191499203e-05
0.07385633140802383,0.28736165165901184,9.314603805541992,5.2359879191499203e-05,-0.0006457717972807586,-0.00031415926059708
0.09125738590955734,0.2847854793071747,9.277168273925781,-0.0005759586347267032,-0.0008901178953237832,-0.0008552113431505859
0.08005252480506897,0.2850344777107239,9.279868125915527,-0.00022689280740451068,0.0005934119690209627,-0.00031415926059708
0.08082824945449829,0.2740020155906677,9.305007934570312,3.490658491500653e-05,-0.000715585018042475,-0.00012217304902151227
0.09262686967849731,0.2756683826446533,9.296915054321289,-0.0006981316837482154,0.00038397242315113544,-0.00031415926059708
0.09126696735620499,0.28911420702934265,9.30630111694336,-0.0005934119690209627,-0.00019198621157556772,-5.2359879191499203e-05
0.0824563056230545,0.28624117374420166,9.28208065032959,-0.0008552113431505859,0.00015707963029854,0.00019198621157556772
0.0847068503499031,0.2850632071495056,9.3192777633667,-0.0005934119690209627,-0.0005934119690209627,-0.00045378561480902135
0.06929776817560196,0.29418033361434937,9.27759838104248,-0.001658062799833715,-0.00013962633966002613,-0.0009075712296180427
0.07415321469306946,0.27879998087882996,9.286198616027832,-0.0006806784076616168,0.00017453292093705386,-0.00062831852119416
0.06490201503038406,0.28879818320274353,9.347661972045898,5.2359879191499203e-05,-0.006370451766997576,0.0
0.06878062337636948,0.2885587513446808,9.354777336120605,0.002722713630646467,-0.00027925267932005227,-0.00012217304902151227
0.08423759043216705,0.2841821610927582,9.331353187561035,0.00094247778179124,0.00031415926059708,-0.00020943951676599681
0.07362648844718933,0.2857336103916168,9.303457260131836,-0.0005410520825535059,-0.0009075712296180427,-0.00013962633966002613
0.09584467858076096,0.28457480669021606,9.30003833770752,-0.0008377580670639873,-0.0002617993741296232,-0.00031415926059708
0.08702444285154343,0.2828126847743988,9.29793930053711,-0.0004886921960860491,0.00017453292093705386,-0.00022689280740451068
0.07965987920761108,0.2899952828884125,9.28226375579834,-0.0005759586347267032,-0.0003490658418741077,-0.00013962633966002613
0.06702806800603867,0.2815006375312805,9.307372093200684,-0.00022689280740451068,-0.0007853981805965304,-0.00013962633966002613
0.07315722107887268,0.2811846137046814,9.288333892822266,-0.0005759586347267032,-0.001483529806137085,-0.0005759586347267032
0.09632351994514465,0.2848333716392517,9.287272453308105,-0.00017453292093705386,-0.002321287989616394,-8.726646046852693e-05
0.08232222497463226,0.2818358242511749,9.2880277633667,-0.0006108652451075613,0.0002617993741296232,0.0006108652451075613
0.09549033641815186,0.2813953161239624,9.276506423950195,-1.7453292457503267e-05,-0.0023387412074953318,-0.00012217304902151227
0.08004295080900192,0.28530263900756836,9.285767555236816,-0.00047123889089562,-5.2359879191499203e-05,-0.00031415926059708
0.08867164701223373,0.310729056596756,9.289262771606445,-0.0005585053586401045,-0.00015707963029854,-0.00031415926059708
0.08487923443317413,0.2847663462162018,9.28577709197998,-0.0005585053586401045,-0.00022689280740451068,-0.0008901178953237832
0.0883939266204834,0.27844566106796265,9.290096282958984,-0.00043633230961859226,-0.0009599310578778386,-0.00013962633966002613
0.07459374517202377,0.28213271498680115,9.294290542602539,-0.0005934119690209627,0.0006806784076616168,-0.0005061454721726477
0.0917074978351593,0.2831287086009979,9.295286178588867,-6.981316983001307e-05,-0.0007853981805965304,-0.0009075712296180427
0.09185115247964859,0.27004680037498474,9.285317420959473,-0.0007679448463022709,-0.001029744278639555,-0.00012217304902151227
0.08505161851644516,0.28436410427093506,9.295306205749512,-0.00094247778179124,-0.00015707963029854,-0.00019198621157556772
0.09712797403335571,0.286691278219223,9.30683708190918,-0.00024434609804302454,-0.0007330382941290736,-0.00010471975838299841
0.08323202282190323,0.28007370233535767,9.28737735748291,-0.0006108652451075613,0.0005934119690209627,-0.00012217304902151227
0.09364201128482819,0.27865633368492126,9.291790962219238,-0.0005235987482592463,-0.0002617993741296232,-0.00031415926059708
0.10592905431985855,0.24923638999462128,9.951567649841309,-0.012339477427303791,0.002740166848525405,-6.981316983001307e-05
0.08940906822681427,0.27786147594451904,9.703603744506836,-0.005410520825535059,0.00024434609804302454,-0.00012217304902151227
0.10784441977739334,0.3004148304462433,9.003146171569824,-0.004136430099606514,-0.001029744278639555,-0.00015707963029854
0.09257898479700089,0.2667236328125,9.312007904052734,-0.0007330382941290736,0.0006981316837482154,-1.7453292457503267e-05
0.08913134038448334,0.27653029561042786,9.414422988891602,-0.00062831852119416,-0.0003665191470645368,-0.00031415926059708
0.09244491159915924,0.27654942870140076,9.272599220275879,-0.001483529806137085,-0.0008203047327697277,-0.0005410520825535059
0.08161354064941406,0.2807919681072235,9.303732872009277,-0.0010995573829859495,0.0002617993741296232,-0.00013962633966002613
0.07644207030534744,0.2809739112854004,9.302574157714844,-0.00019198621157556772,-0.0009773843921720982,-0.0008901178953237832
0.09134358167648315,0.29171910881996155,9.289080619812012,-3.490658491500653e-05,-1.7453292457503267e-05,-0.00020943951676599681
0.0950210765004158,0.2874574065208435,9.303227424621582,-0.0005585053586401045,-0.0005759586347267032,-1.7453292457503267e-05
0.09248322248458862,0.28371289372444153,9.275558471679688,-0.0005235987482592463,0.0,0.00043633230961859226
0.08795338869094849,0.29767587780952454,9.293496131896973,-0.0005585053586401045,-0.0005934119690209627,-0.000715585018042475
0.09248322248458862,0.2832915186882019,9.304327011108398,-0.00038397242315113544,-0.0005934119690209627,-0.00020943951676599681
0.08663178980350494,0.29342377185821533,9.292634010314941,-0.00022689280740451068,-0.0005410520825535059,-0.00031415926059708
0.08574114739894867,0.28826186060905457,9.284255027770996,-0.00020943951676599681,-6.981316983001307e-05,-0.00012217304902151227
0.10526825487613678,0.2740594744682312,9.520513534545898,-0.003403391921892762,-0.0038746309000998735,-0.0005410520825535059
0.08973467350006104,0.2780146896839142,9.328585624694824,0.00047123889089562,0.004380776546895504,-0.00013962633966002613
0.06473921239376068,0.27686548233032227,9.293227195739746,-0.0003665191470645368,-0.00062831852119416,-0.00010471975838299841
0.07055233418941498,0.26872518658638,9.300026893615723,-0.0005585053586401045,5.2359879191499203e-05,-0.00013962633966002613
0.09357497841119766,0.27715277671813965,9.278651237487793,-0.000715585018042475,-0.0006632251315750182,-0.0012042771559208632
0.08990705758333206,0.2853888273239136,9.312860488891602,-0.0004886921960860491,-0.00043633230961859226,-0.00012217304902151227
0.10033620148897171,0.278847873210907,9.295804023742676,-0.00047123889089562,0.0,-0.0006108652451075613
0.09938810020685196,0.27552470564842224,9.288573265075684,-0.0015358896926045418,-0.0006981316837482154,-0.00012217304902151227
0.09070193022489548,0.2860592007637024,9.301071166992188,-0.0006108652451075613,0.00012217304902151227,-0.00010471975838299841
0.0840173214673996,0.29024428129196167,9.300353050231934,-0.0005585053586401045,-0.0002617993741296232,0.00017453292093705386
0.09481996297836304,0.2953774333000183,9.290047645568848,-0.001029744278639555,-0.00031415926059708,-0.00024434609804302454
0.1071070060133934,0.278895765542984,9.29093074798584,-0.00041887903353199363,-0.0003490658418741077,-0.00043633230961859226
0.08869080245494843,0.2848333716392517,9.045610427856445,0.0016755161341279745,0.010035643354058266,-0.0013962633674964309
0.0877905860543251,0.29161375761032104,9.375588417053223,0.0002617993741296232,0.0003665191470645368,-0.0005410520825535059
0.09234914183616638,0.2641857862472534,9.224006652832031,0.0015882495790719986,-0.004363323096185923,0.0
0.10307516902685165,0.27892449498176575,9.26555061340332,-0.000715585018042475,-0.00045378561480902135,-0.0008901178953237832
0.09295248240232468,0.2824966311454773,9.320971488952637,0.00043633230961859226,-0.0010471974965184927,0.0
0.10047027468681335,0.2750841975212097,9.285154342651367,-0.0014486232539638877,-0.0009948377264663577,-0.00031415926059708
0.09214802831411362,0.279058575630188,9.314805030822754,-0.0010821041651070118,0.00041887903353199363,-0.00012217304902151227
0.08487923443317413,0.2840672433376312,9.255974769592285,-0.0019198621157556772,0.00019198621157556772,-0.0008028514566831291
0.07277414947748184,0.28098350763320923,9.277875900268555,-0.0005585053586401045,0.0,-0.00012217304902151227
0.08788635581731796,0.29388347268104553,9.288726806640625,-0.0008028514566831291,-0.0005759586347267032,-0.0012217304902151227
0.09992440044879913,0.2818549871444702,9.302603721618652,-0.0005235987482592463,-3.490658491500653e-05,-3.490658491500653e-05
0.09088389575481415,0.2873712182044983,9.30026626586914,0.00019198621157556772,-0.0009250245057046413,-0.00024434609804302454
0.08278191089630127,0.2883768081665039,9.307698249816895,-0.00017453292093705386,-0.0008726646192371845,-0.0007679448463022709
0.08377790451049805,0.2701808512210846,9.297318458557129,-0.0006108652451075613,0.00012217304902151227,-0.0003316125657875091
0.08878657221794128,0.28167304396629333,9.292759895324707,-0.0005759586347267032,-0.0005759586347267032,-0.00013962633966002613
0.0825808048248291,0.28971755504608154,9.287137031555176,-0.0008377580670639873,-0.00038397242315113544,-0.0011868239380419254
0.08365340530872345,0.28590598702430725,9.28168773651123,-0.0008028514566831291,-0.0006981316837482154,0.00013962633966002613
0.08718724548816681,0.2707075774669647,9.270483016967773,-0.0005235987482592463,0.0005410520825535059,-0.00043633230961859226
0.08772354573011398,0.285771906375885,9.301187515258789,-0.0008726646192371845,0.0005934119690209627,-0.00038397242315113544
0.09543287754058838,0.28223806619644165,9.30306339263916,-0.0011693706037476659,-0.0002617993741296232,-0.00012217304902151227
0.0927896797657013,0.28384697437286377,9.297154426574707,-0.0010122909443452954,-0.0006981316837482154,-0.00022689280740451068
0.095394566655159,0.2800162434577942,9.233851432800293,-0.00855211354792118,0.0006108652451075613,-0.00045378561480902135
0.10541190952062607,0.29859524965286255,9.299138069152832,-0.0010122909443452954,0.0019547687843441963,-0.00015707963029854
0.10054688900709152,0.270889550447464,9.36479663848877,-0.0018151424592360854,-0.0009599310578778386,-5.2359879191499203e-05
0.08200619369745255,0.2857527434825897,9.294340133666992,-0.0009250245057046413,-5.2359879191499203e-05,-0.00012217304902151227
0.0915829986333847,0.2896696627140045,9.275090217590332,-0.002687806962057948,0.00012217304902151227,-0.00031415926059708
0.09873687475919724,0.27392539381980896,9.344300270080566,3.490658491500653e-05,-0.0007679448463022709,8.726646046852693e-05
0.09471461176872253,0.2968522608280182,9.303589820861816,-0.0009599310578778386,0.00019198621157556772,-0.0006457717972807586
0.09381439536809921,0.2835021913051605,9.285443305969238,-0.0008901178953237832,0.00015707963029854,0.0002617993741296232
0.08551130443811417,0.29251396656036377,9.263031959533691,-0.0005410520825535059,-0.00010471975838299841,-0.0005235987482592463
0.09382396936416626,0.2751416563987732,9.288555145263672,-0.0008552113431505859,0.0003316125657875091,-0.00031415926059708
0.08707232028245926,0.28611665964126587,9.297202110290527,5.2359879191499203e-05,0.00031415926059708,-0.00038397242315113544
0.08030152320861816,0.2655360996723175,9.314689636230469,-0.0005410520825535059,-0.00040142572834156454,-0.0003316125657875091
0.09832507371902466,0.2803897261619568,9.276362419128418,-0.0007504915702156723,0.0003316125657875091,-0.0008203047327697277
0.09567229449748993,0.2796427607536316,9.303561210632324,-0.0004886921960860491,0.00040142572834156454,-0.00031415926059708
0.08916006982326508,0.29076141119003296,9.283853530883789,-0.00029670598451048136,0.0,0.0005759586347267032
0.07566634565591812,0.2741169333457947,9.296072006225586,-0.00015707963029854,0.00017453292093705386,-0.00012217304902151227
0.1016482263803482,0.28542712330818176,9.287357330322266,-0.0005585053586401045,-0.00012217304902151227,-0.00012217304902151227
0.09772173315286636,0.286480575799942,9.284456253051758,6.981316983001307e-05,0.0007679448463022709,-0.0002617993741296232
0.07054275274276733,0.2945155203342438,9.157410621643066,-0.025411993265151978,0.0008552113431505859,-0.00015707963029854
0.062383316457271576,0.28186455368995667,9.404480934143066,0.0,-0.0018325956771150231,-0.00015707963029854
0.10337204486131668,0.2658904492855072,9.107457160949707,-0.0033684854861348867,-0.0027576202992349863,0.00012217304902151227
0.08415139466524124,0.28788837790489197,9.267601013183594,-0.0005235987482592463,0.0,-0.0007679448463022709
0.0876660868525505,0.28553247451782227,9.249338150024414,-0.0006806784076616168,-0.0005759586347267032,-0.00024434609804302454
0.0892271026968956,0.2731592357158661,9.289348602294922,-0.0005585053586401045,0.00010471975838299841,-0.0007853981805965304
0.08594226092100143,0.297733336687088,9.301846504211426,-0.0003665191470645368,-0.0002617993741296232,-0.00013962633966002613
0.08053136616945267,0.2886641025543213,9.283928871154785,0.00029670598451048136,-0.0005235987482592463,-0.00012217304902151227
0.08960060030221939,0.28126123547554016,9.284062385559082,0.00012217304902151227,0.00015707963029854,-0.00012217304902151227
0.09453265368938446,0.2763483226299286,9.298111915588379,-0.00038397242315113544,0.0006632251315750182,-0.00041887903353199363
0.09688854962587357,0.27107149362564087,9.29030704498291,-0.0005585053586401045,-0.00043633230961859226,-0.0005759586347267032
0.08410351723432541,0.26990312337875366,9.27857494354248,0.00040142572834156454,-6.981316983001307e-05,-0.00020943951676599681
0.12347376346588135,0.24656446278095245,9.709033012390137,-0.006073745898902416,0.008621926419436932,-0.0011519172694534063
0.08944737166166306,0.2906848192214966,9.316184043884277,0.005427973810583353,-0.011501720175147057,-0.0006806784076616168
0.07900865375995636,0.26657041907310486,9.28878402709961,-0.003228859044611454,-0.0002617993741296232,-0.0005410520825535059
0.08024406433105469,0.2810409665107727,9.322484970092773,0.0018151424592360854,0.0003316125657875091,-0.0006457717972807586
0.08462066203355789,0.2845460772514343,9.31217098236084,3.490658491500653e-05,0.00012217304902151227,0.00029670598451048136
0.08706274628639221,0.2837320566177368,9.310762405395508,-0.0009773843921720982,0.0,-0.0005585053586401045
0.09487742185592651,0.2681027054786682,9.2605619430542,0.0013788101496174932,-0.0005061454721726477,-0.00094247778179124
0.09291417896747589,0.27552470564842224,9.312477111816406,-0.0006632251315750182,-0.0007679448463022709,0.00022689280740451068
0.08988790214061737,0.27156949043273926,9.294290542602539,-0.0014137167017906904,-0.0005934119690209627,-0.0007504915702156723
0.07978437095880508,0.29474538564682007,9.266173362731934,-0.0010471974965184927,0.00015707963029854,-0.00013962633966002613
0.08786720037460327,0.284852534532547,9.308196067810059,-0.001745329238474369,-0.00013962633966002613,0.0
0.09807607531547546,0.29019638895988464,9.291359901428223,-0.00031415926059708,-8.726646046852693e-05,-0.00062831852119416
0.10928093641996384,0.30550968647003174,9.289292335510254,0.00017453292093705386,-0.00015707963029854,-0.0007330382941290736
0.1015428751707077,0.28713181614875793,9.29688549041748,-0.0005585053586401045,6.981316983001307e-05,-0.00010471975838299841
0.08406520634889603,0.2681601643562317,9.270023345947266,-0.0010471974965184927,3.490658491500653e-05,-8.726646046852693e-05
0.07958326488733292,0.28713181614875793,9.286744117736816,5.2359879191499203e-05,-0.00010471975838299841,5.2359879191499203e-05
0.09365159273147583,0.27314966917037964,9.32011890411377,-0.0003665191470645368,-0.0015882495790719986,-0.00043633230961859226
0.10030747205018997,0.2960669696331024,9.279417991638184,-0.0002617993741296232,-0.0013788101496174932,-0.00013962633966002613
0.086976557970047,0.28831931948661804,9.318538665771484,-0.0003665191470645368,1.7453292457503267e-05,-0.00043633230961859226
0.09014648199081421,0.283770352602005,9.302507400512695,-0.0010995573829859495,-0.0008901178953237832,-0.00012217304902151227
0.08675628900527954,0.2822859585285187,9.282493591308594,-0.0011344640515744686,-0.0011519172694534063,-0.00015707963029854
0.07036079466342926,0.2868349254131317,9.296062469482422,-0.0006108652451075613,-0.0003316125657875091,0.0006108652451075613
0.083433136343956,0.2753044664859772,9.312774658203125,-0.0011693706037476659,-0.0003490658418741077,-0.00041887903353199363
0.09249279648065567,0.28369373083114624,9.29395580291748,-0.0006108652451075613,-0.0009075712296180427,-0.0006981316837482154
0.09263645112514496,0.28110799193382263,9.3038969039917,-0.0008552113431505859,0.00020943951676599681,-0.00045378561480902135
0.09327809512615204,0.2815772593021393,9.295008659362793,-0.0005585053586401045,-0.0008203047327697277,0.0004886921960860491
0.10958739370107651,0.27362850308418274,9.288429260253906,-0.0008901178953237832,-0.0010471974965184927,-0.0012042771559208632
0.09212888032197952,0.269855260848999,9.280385971069336,-6.981316983001307e-05,-0.0002617993741296232,0.00017453292093705386
0.09025182574987411,0.28280308842658997,9.293686866760254,-0.00024434609804302454,-0.00027925267932005227,-1.7453292457503267e-05
0.10423395782709122,0.27423185110092163,9.289885520935059,-0.00022689280740451068,8.726646046852693e-05,-0.0010122909443452954
0.08904514461755753,0.28036099672317505,9.297192573547363,-0.00040142572834156454,-0.0006108652451075613,-0.00045378561480902135
0.08742666244506836,0.2927725613117218,9.305964469909668,-0.0013962633674964309,-1.7453292457503267e-05,-0.00043633230961859226
0.0863923728466034,0.2782062292098999,9.280911445617676,-0.0013089969288557768,0.0,-0.0007679448463022709
0.08178592473268509,0.29278212785720825,9.306961059570312,-0.00015707963029854,-0.00019198621157556772,-0.00012217304902151227
0.08489838987588882,0.29281085729599,9.305161476135254,-0.00010471975838299841,-0.00040142572834156454,0.00029670598451048136
0.10184933245182037,0.26806437969207764,9.285249710083008,-0.0006981316837482154,-0.0012391837080940604,-0.00012217304902151227
0.08689994364976883,0.29055073857307434,9.285614013671875,-0.0005410520825535059,-0.00012217304902151227,-0.00012217304902151227
0.08450573682785034,0.2759365141391754,9.303532600402832,-0.00045378561480902135,0.00019198621157556772,-0.00012217304902151227
0.10010635852813721,0.28807035088539124,9.302833557128906,-0.001029744278639555,-0.0013613568153232336,-0.00012217304902151227
0.0814124345779419,0.2831382751464844,9.297873497009277,-0.0005061454721726477,-0.00094247778179124,-0.00029670598451048136
0.08938033133745193,0.28381824493408203,9.296895980834961,-0.0009250245057046413,-0.0009250245057046413,-0.00015707963029854
0.10057561844587326,0.27876168489456177,9.304386138916016,-0.0008726646192371845,-0.00017453292093705386,-0.0005759586347267032
0.10493306815624237,0.28863537311553955,9.285317420959473,-0.0008028514566831291,-0.0005759586347267032,-0.0005934119690209627
0.08617210388183594,0.2940271198749542,9.311020851135254,0.0004886921960860491,-0.001029744278639555,-0.00027925267932005227
0.08877699822187424,0.287936270236969,9.283095359802246,-0.0005235987482592463,-0.00047123889089562,0.00010471975838299841
0.06628108024597168,0.27002763748168945,9.297853469848633,-1.7453292457503267e-05,-3.490658491500653e-05,-0.0009075712296180427
0.08671798557043076,0.283607542514801,9.297222137451172,-0.00047123889089562,-0.00019198621157556772,-0.00013962633966002613
0.08604760468006134,0.28080153465270996,9.314325332641602,0.00020943951676599681,-0.0002617993741296232,0.0
0.09780792146921158,0.29565516114234924,9.182787895202637,-0.023666664958000183,-0.0023387412074953318,-0.00012217304902151227
0.10486602783203125,0.2929353415966034,9.080421447753906,-0.004782202187925577,0.00019198621157556772,-0.00045378561480902135
0.09641928970813751,0.29171910881996155,9.038437843322754,0.004642575979232788,-0.00125663704238832,-0.00031415926059708
