accX,accY,accZ,gyroX,gyroY,gyroZ
0.030435090884566307,0.42689570784568787,9.960290908813477,0.004625122528523207,0.004660028964281082,0.001658062799833715
0.05091030150651932,0.44429677724838257,10.106374740600586,-0.0039618974551558495,-0.002007128670811653,0.0012740903766825795
0.050345271825790405,0.418803334236145,9.70797061920166,-0.00029670598451048136,-0.002007128670811653,5.2359879191499203e-05
0.04196556657552719,0.435964971780777,9.764033317565918,0.002199114765971899,0.0032463124953210354,-0.00027925267932005227
0.015093047171831131,0.45443862676620483,10.013240814208984,-0.005096361506730318,0.0047996556386351585,0.000715585018042475
0.024612393230199814,0.4491330683231354,10.019515037536621,-8.726646046852693e-05,-0.004066617228090763,-0.0006981316837482154
-0.011875240132212639,0.42712557315826416,9.715669631958008,-0.00038397242315113544,0.0018675023457035422,0.0005235987482592463
0.004127603489905596,0.4708724319934845,9.822558403015137,-0.0014137167017906904,0.003525565145537257,-0.00010471975838299841
0.021892579272389412,0.44231438636779785,9.959754943847656,-0.00010471975838299841,0.000715585018042475,-0.00010471975838299841
0.03333686292171478,0.4164474308490753,9.948731422424316,-0.002007128670811653,-0.0003490658418741077,-0.00017453292093705386
0.023587673902511597,0.4562486410140991,9.71299934387207,-0.0008203047327697277,0.00031415926059708,-0.00015707963029854
0.027667393907904625,0.425679475069046,9.827363967895508,-0.002548180753365159,0.007661995477974415,0.0010122909443452954
0.02400905452668667,0.43097543716430664,10.016487121582031,0.0026354470755904913,0.0010821041651070118,5.2359879191499203e-05
-0.012995726428925991,0.44541725516319275,9.77588939666748,-0.003036872949451208,0.0009250245057046413,0.0
0.009184157475829124,0.435802161693573,9.752302169799805,0.002199114765971899,0.0035953782498836517,0.0
0.03993528336286545,0.4351796507835388,9.973716735839844,0.00143117003608495,0.002478367416188121,-0.00024434609804302454
0.048755522817373276,0.44474688172340393,10.001154899597168,-0.001745329238474369,-0.0008552113431505859,0.0005235987482592463
0.03618117421865463,0.43285250663757324,9.786165237426758,-0.002722713630646467,-0.0005235987482592463,-0.00024434609804302454
0.02992752008140087,0.43648210167884827,9.782448768615723,0.002007128670811653,0.0012740903766825795,-0.0005410520825535059
0.00793917290866375,0.44616425037384033,9.951757431030273,-0.0003316125657875091,0.0014137167017906904,-0.0003490658418741077
-0.010477025993168354,0.45225510001182556,9.747675895690918,-0.0036128314677625895,0.0031066860537976027,-0.00022689280740451068
0.02317587099969387,0.4367119371891022,9.897208213806152,-0.002007128670811653,0.00043633230961859226,-0.00020943951676599681
0.05754702910780907,0.42114007472991943,9.907876968383789,-0.0019373154500499368,0.00041887903353199363,-0.00027925267932005227
0.012813767418265343,0.443808376789093,9.8447847366333,-0.00022689280740451068,0.0006108652451075613,0.005602506920695305
0.0050948611460626125,0.4091115891933441,9.767701148986816,0.004084070213139057,0.040596358478069305,0.009651671163737774
-0.03487873077392578,0.44045647978782654,10.245219230651855,0.016510814428329468,0.02736676298081875,0.0005934119690209627
0.12205639481544495,0.2782445251941681,10.32764720916748,-0.01457349956035614,-0.016807520762085915,0.0035604715812951326
0.016654066741466522,0.49115610122680664,10.148292541503906,0.003926991019397974,0.0017802357906475663,0.04588470607995987
0.06336972862482071,0.43164581060409546,10.065826416015625,-0.000715585018042475,0.001343903481028974,0.019425515085458755
0.004232948645949364,0.457560658454895,9.806831359863281,-0.00799360778182745,-0.0020769417751580477,0.01869247667491436
0.052528783679008484,0.4285142123699188,9.657377243041992,0.0014660765882581472,0.0018151424592360854,0.011501720175147057
0.06680779904127121,0.456430584192276,9.980774879455566,0.002251474652439356,0.0026354470755904913,0.007347836159169674
0.02627875655889511,0.43658745288848877,9.926292419433594,-0.00376991112716496,-0.00045378561480902135,0.005235987715423107
0.03729208558797836,0.43583089113235474,9.881444931030273,-0.003804817795753479,-0.0013089969288557768,0.0003316125657875091
0.07511088997125626,0.4611998498439789,9.72579288482666,-0.0019198621157556772,0.0019547687843441963,6.981316983001307e-05
0.054990023374557495,0.4376600384712219,9.904448509216309,0.00022689280740451068,0.0028623400721699,-0.00031415926059708
0.01803312636911869,0.4283226728439331,9.949498176574707,-0.0007679448463022709,-3.490658491500653e-05,0.00017453292093705386
-0.008312667720019817,0.44793596863746643,9.853978157043457,-0.0024260077625513077,-0.0005410520825535059,-0.0002617993741296232
-0.0181288942694664,0.41867882013320923,9.731549263000488,0.0004886921960860491,0.0011693706037476659,-0.00024434609804302454
0.01817677915096283,0.4496597945690155,9.925968170166016,0.0016406094655394554,0.00047123889089562,-0.0007330382941290736
0.07238150388002396,0.4448905289173126,9.945685386657715,-0.0032114058267325163,-0.00010471975838299841,0.0003316125657875091
0.08408436179161072,0.4408586919307709,9.731070518493652,-0.0010821041651070118,0.0013962633674964309,-0.00020943951676599681
0.04049073904752731,0.44064801931381226,9.816197395324707,0.003089232835918665,0.00188495556358248,-0.0005061454721726477
-0.009653421118855476,0.4331302344799042,9.977041244506836,0.0009075712296180427,0.0008203047327697277,-8.726646046852693e-05
0.03927448391914368,0.44637495279312134,9.902475357055664,-0.0010821041651070118,0.002949606394395232,-0.00029670598451048136
0.03651636466383934,0.4551568925380707,9.815192222595215,0.001483529806137085,-0.00038397242315113544,0.00040142572834156454
0.02106897346675396,0.44285067915916443,9.854504585266113,-0.0018151424592360854,0.0006632251315750182,0.00012217304902151227
-0.001130063203163445,0.4208240211009979,9.901413917541504,-0.001029744278639555,0.0009599310578778386,-0.00029670598451048136
0.0161177646368742,0.4430996775627136,9.919628143310547,-1.7453292457503267e-05,0.0003316125657875091,0.0008028514566831291
0.015322890132665634,0.45581766963005066,9.799572944641113,-0.0014486232539638877,0.001117010717280209,0.0005934119690209627
0.034016817808151245,0.47248131036758423,9.903472900390625,-0.0021816615480929613,0.0005235987482592463,6.981316983001307e-05
0.0016663642600178719,0.44102150201797485,9.813037872314453,-0.003926991019397974,0.00020943951676599681,5.2359879191499203e-05
-0.0027964275795966387,0.46480071544647217,9.914083480834961,0.0002617993741296232,0.00062831852119416,-0.0005061454721726477
0.04696466028690338,0.45523348450660706,9.904314041137695,-0.0028448866214603186,-8.726646046852693e-05,-0.00027925267932005227
0.07990887016057968,0.42732667922973633,9.83913516998291,0.0005410520825535059,0.00020943951676599681,0.0006108652451075613
0.05306508392095566,0.45220720767974854,9.85855770111084,0.0005410520825535059,0.0013788101496174932,0.0006108652451075613
0.024583661928772926,0.4422377645969391,9.900053977966309,0.00012217304902151227,0.0014137167017906904,-6.981316983001307e-05
-0.024842236191034317,0.44894152879714966,9.89651870727539,-0.001343903481028974,0.0007504915702156723,-0.00043633230961859226
-0.02706405520439148,0.4389529228210449,9.835821151733398,-0.0011519172694534063,0.0010122909443452954,-6.981316983001307e-05
0.013723563402891159,0.43494024872779846,9.864312171936035,-0.00024434609804302454,0.0007853981805965304,0.00012217304902151227
0.07898949831724167,0.46333548426628113,9.914149284362793,-0.00041887903353199363,0.0010995573829859495,-0.00027925267932005227
0.07827123999595642,0.4384261965751648,9.851422309875488,-0.00024434609804302454,0.0003665191470645368,-0.0007853981805965304
0.02396116964519024,0.43216297030448914,9.865950584411621,-0.00043633230961859226,0.0018151424592360854,-0.00027925267932005227
-0.013876792043447495,0.4391636252403259,9.884519577026367,-0.00020943951676599681,0.0013613568153232336,0.000715585018042475
-0.003409343073144555,0.44243887066841125,9.891969680786133,-0.00040142572834156454,-0.00010471975838299841,0.0009075712296180427
0.009500191546976566,0.44510123133659363,9.832268714904785,-0.0010471974965184927,0.0008203047327697277,-0.00027925267932005227
0.07513004541397095,0.46402499079704285,9.874970436096191,0.00010471975838299841,0.0009773843921720982,-0.00027925267932005227
0.06144478917121887,0.4464036822319031,9.889910697937012,-0.0009075712296180427,0.0011344640515744686,-0.00015707963029854
0.014489708468317986,0.42243292927742004,9.861161231994629,-0.00024434609804302454,0.001029744278639555,-0.00038397242315113544
-0.017525555565953255,0.4468058943748474,9.857973098754883,0.0013962633674964309,0.0025307273026555777,0.000715585018042475
-0.018856732174754143,0.4439520239830017,9.900493621826172,0.00040142572834156454,0.0011344640515744686,0.0004886921960860491
0.02372174896299839,0.4350360035896301,9.899248123168945,-8.726646046852693e-05,0.0004886921960860491,-0.00031415926059708
0.06875189393758774,0.44222819805145264,9.866801261901855,0.00012217304902151227,0.0012740903766825795,0.00015707963029854
0.05192544311285019,0.45521435141563416,9.882497787475586,0.00012217304902151227,0.0007679448463022709,0.00038397242315113544
0.0494067445397377,0.44073420763015747,9.921063423156738,0.0003490658418741077,0.00143117003608495,0.0005585053586401045
-0.015313313342630863,0.4372003674507141,9.88807201385498,0.00022689280740451068,0.0008028514566831291,0.0005061454721726477
-0.03394020348787308,0.44197919964790344,9.860356330871582,0.0024958208668977022,0.0005585053586401045,-0.00024434609804302454
-0.020743362605571747,0.44920969009399414,9.933025360107422,0.00040142572834156454,0.0015533430268988013,-0.000715585018042475
0.014853626489639282,0.43035295605659485,9.924128532409668,-0.001483529806137085,0.0007679448463022709,-0.00029670598451048136
0.06541916728019714,0.4523700177669525,9.870183944702148,-0.0009948377264663577,0.0010122909443452954,-0.00027925267932005227
0.06855078041553497,0.44671013951301575,9.853758811950684,-0.00125663704238832,0.00010471975838299841,0.00024434609804302454
-0.025991452857851982,0.4555974006652832,9.864781379699707,-0.0019198621157556772,0.0016057029133662581,-5.2359879191499203e-05
-0.013235146179795265,0.43214380741119385,9.88028621673584,-0.0006806784076616168,0.0016929693520069122,-0.00027925267932005227
0.08696697652339935,0.4501003324985504,9.88927936553955,-0.0024434609804302454,-0.00013962633966002613,0.0
0.061866167932748795,0.446633517742157,9.869560241699219,-0.0005759586347267032,0.00022689280740451068,0.0
0.04886086657643318,0.45800119638442993,9.855894088745117,-1.7453292457503267e-05,0.0021118484437465668,0.0
-0.018167201429605484,0.43816763162612915,9.890820503234863,-0.0008552113431505859,0.00188495556358248,0.0009250245057046413
-0.017238251864910126,0.43205761909484863,9.865930557250977,0.0006108652451075613,0.0005585053586401045,-0.00027925267932005227
0.03553953021764755,0.45144107937812805,9.865001678466797,0.0020769417751580477,0.0019024088978767395,-6.981316983001307e-05
0.032005686312913895,0.46985727548599243,9.7323637008667,-0.00020943951676599681,0.0007330382941290736,-0.00010471975838299841
0.028184540569782257,0.4849981963634491,9.723599433898926,0.0007330382941290736,0.0033335788175463676,-0.00027925267932005227
0.026403255760669708,0.40463921427726746,9.990381240844727,0.0062831854447722435,0.003979350905865431,-0.0002617993741296232
0.013024456799030304,0.4303146302700043,9.983859062194824,0.0012915435945615172,0.00010471975838299841,0.00015707963029854
-0.013915100134909153,0.48636770248413086,9.759982109069824,-0.003455751808360219,-0.0015533430268988013,0.00012217304902151227
0.0020973205100744963,0.4288015067577362,9.729759216308594,-0.00027925267932005227,0.0034732052590698004,-0.00029670598451048136
0.02722685970366001,0.4067556858062744,9.759753227233887,0.0021118484437465668,0.0017627825727686286,-0.00024434609804302454
0.01784159056842327,0.45719674229621887,9.941146850585938,0.003176499158143997,0.0019024088978767395,-0.00062831852119416
0.02201707847416401,0.43726739287376404,9.974176406860352,-0.0012217304902151227,0.00094247778179124,-0.00040142572834156454
0.02483265846967697,0.45523348450660706,9.780208587646484,0.0009599310578778386,0.002478367416188121,0.0005235987482592463
0.01068771630525589,0.4717247486114502,9.87059497833252,0.00094247778179124,0.0034208453726023436,-0.00022689280740451068
0.027456704527139664,0.42795875668525696,9.97669506072998,-0.0013788101496174932,0.00047123889089562,-0.0002617993741296232
0.11955685168504715,0.4101746082305908,9.866199493408203,0.002373647876083851,-0.020839231088757515,-0.003298672381788492
0.05208824947476387,0.4609316885471344,10.062264442443848,-0.004450589418411255,-0.0027925267349928617,-0.00022689280740451068
0.15067189931869507,0.4011915624141693,9.85948657989502,-0.012077677994966507,-0.016982054337859154,0.0011868239380419254
-0.009615113958716393,0.46204259991645813,9.572803497314453,0.0026529005263000727,0.0012391837080940604,0.0012391837080940604
-0.03796245902776718,0.46927309036254883,9.853423118591309,0.0012391837080940604,0.003543018363416195,0.0005759586347267032
0.020005948841571808,0.4226340353488922,10.114840507507324,-0.002024581888690591,-0.0005061454721726477,-0.00027925267932005227
0.019900603219866753,0.4695987105369568,9.758373260498047,-0.00251327408477664,-0.0025656339712440968,-0.0006806784076616168
0.040557775646448135,0.43495938181877136,9.674528121948242,-0.0007330382941290736,0.002914699725806713,0.00010471975838299841
0.06223008781671524,0.4100501239299774,10.056719779968262,0.001117010717280209,0.00724311638623476,-0.00027925267932005227
0.007067683152854443,0.46434104442596436,9.941117286682129,-0.00125663704238832,-0.0006981316837482154,0.00038397242315113544
-0.005046977195888758,0.4295676648616791,9.699983596801758,-0.00027925267932005227,0.0024434609804302454,0.0003665191470645368
0.025340229272842407,0.434882789850235,9.959046363830566,0.005096361506730318,0.004468042869120836,0.00029670598451048136
0.1179000660777092,0.4435306489467621,9.6664457321167,0.006230825558304787,-0.023265238851308823,-0.011833332479000092
0.020513519644737244,0.46581587195396423,9.830880165100098,-0.01286307629197836,-0.016598081216216087,-0.0003316125657875091
0.09875603020191193,0.4193396270275116,9.747235298156738,-0.021240657195448875,-0.010768681764602661,0.008709193207323551
0.0036583400797098875,0.4195502996444702,9.484054565429688,0.006440265104174614,0.004241149872541428,0.0016057029133662581
-0.03206314891576767,0.48357126116752625,9.930554389953613,0.0010821041651070118,0.007155850064009428,0.0015009831404313445
0.042597636580467224,0.374912828207016,10.140565872192383,-0.00678933085873723,-0.0009250245057046413,0.00038397242315113544
0.05144660547375679,0.4593036472797394,9.72796630859375,0.002321287989616394,-0.0014137167017906904,0.00029670598451048136
0.07946833968162537,0.4747893214225769,9.739056587219238,-0.0031241392716765404,-0.0006108652451075613,0.0005934119690209627
0.053141698241233826,0.39234259724617004,10.014726638793945,0.0021642083302140236,0.004834562074393034,0.00019198621157556772
0.05481763929128647,0.432718425989151,10.059698104858398,0.003263765713199973,0.00029670598451048136,0.0007679448463022709
-0.0013407529331743717,0.4113334119319916,9.972136497497559,0.007470009382814169,0.005166174378246069,-0.0002617993741296232
0.039159562438726425,0.5152130126953125,10.03580379486084,-0.0014660765882581472,-0.0038746309000998735,-0.00041887903353199363
0.0697861909866333,0.40345171093940735,9.728972434997559,-0.004049163777381182,0.0005410520825535059,-0.00015707963029854
0.08620083332061768,0.41174522042274475,9.669002532958984,0.0026529005263000727,0.0008203047327697277,-0.0005061454721726477
0.03678451478481293,0.4967489540576935,9.94597339630127,0.0020420351065695286,0.003577925032004714,3.490658491500653e-05
-0.011520897969603539,0.4308605194091797,9.920853614807129,-0.005602506920695305,0.00029670598451048136,0.0003316125657875091
-0.017199944704771042,0.4237162172794342,9.715047836303711,0.0008203047327697277,0.0013089969288557768,0.0012915435945615172
-0.016414646059274673,0.44020748138427734,9.791251182556152,0.0014137167017906904,0.0014486232539638877,0.0008901178953237832
0.05516240373253822,0.455559104681015,9.937451362609863,-0.0035604715812951326,6.981316983001307e-05,-0.00027925267932005227
0.0752258151769638,0.43512219190597534,9.90104866027832,-0.0023387412074953318,0.0008377580670639873,-0.00041887903353199363
0.04220498725771904,0.4617840349674225,9.743921279907227,-0.0008028514566831291,0.0016231562476605177,-0.00029670598451048136
0.01976652815937996,0.4058171808719635,9.865155220031738,-0.00017453292093705386,0.0024260077625513077,-0.00015707963029854
-0.013168108649551868,0.4223180115222931,9.964868545532227,0.0008028514566831291,0.000715585018042475,0.00010471975838299841
0.005133168306201696,0.45633482933044434,9.80433177947998,-0.0025656339712440968,-0.00019198621157556772,-0.0005061454721726477
0.03313574939966202,0.4349115192890167,9.790849685668945,-0.0003490658418741077,0.0014486232539638877,0.00029670598451048136
0.06047753244638443,0.45859494805336,9.972530364990234,0.00022689280740451068,0.0025656339712440968,-0.0005235987482592463
0.04753926768898964,0.45314574241638184,9.87243366241455,-0.00815068744122982,0.002478367416188121,0.0006108652451075613
0.02194046415388584,0.41587281227111816,9.772499084472656,-0.0009075712296180427,0.0006806784076616168,3.490658491500653e-05
0.008408435620367527,0.4353999197483063,9.902246475219727,0.006021386012434959,-0.00411897711455822,-0.00041887903353199363
-0.002269703196361661,0.4441818594932556,9.908432960510254,-0.0040317103266716,0.00094247778179124,-1.7453292457503267e-05
0.016261417418718338,0.423630028963089,9.768372535705566,-0.0003316125657875091,0.00062831852119416,-0.00040142572834156454
0.05375461280345917,0.4637855887413025,9.831167221069336,0.0006108652451075613,0.002827433403581381,-0.00062831852119416
0.056484002619981766,0.44350191950798035,9.921178817749023,-0.0027576202992349863,0.0009075712296180427,-6.981316983001307e-05
0.029036877676844597,0.43177032470703125,9.816447257995605,0.0,0.0009948377264663577,0.0003665191470645368
-7.661445124540478e-05,0.44773486256599426,9.80233097076416,0.0007853981805965304,-0.0002617993741296232,-1.7453292457503267e-05
-0.014853626489639282,0.4875839352607727,9.788597106933594,8.726646046852693e-05,0.0019373154500499368,6.981316983001307e-05
0.04221456125378609,0.47409021854400635,9.895120620727539,-0.004380776546895504,0.0013264502631500363,-0.0003665191470645368
0.06125325337052345,0.3832733631134033,9.920939445495605,-0.0028448866214603186,0.00027925267932005227,-0.0005410520825535059
0.07897034287452698,0.41224321722984314,9.8450345993042,0.0012915435945615172,0.0009948377264663577,-0.0008552113431505859
0.03431369736790657,0.4418642818927765,9.837937355041504,-0.002827433403581381,0.0003665191470645368,-0.00027925267932005227
0.004376600496470928,0.43756428360939026,9.829174041748047,0.0009250245057046413,0.001343903481028974,-0.0008726646192371845
0.0035529951564967632,0.46373769640922546,9.804350852966309,0.0006806784076616168,0.0016406094655394554,-0.0008552113431505859
0.020772093906998634,0.4351126253604889,9.834796905517578,-0.002234021434560418,-0.00031415926059708,-0.00029670598451048136
0.005353434942662716,0.43825381994247437,9.88566780090332,-0.0050090947188436985,0.0018675023457035422,-0.00027925267932005227
0.01653914526104927,0.47715479135513306,9.848549842834473,-0.005218534264713526,0.0012740903766825795,-0.00094247778179124
0.03746446594595909,0.44975554943084717,9.884078979492188,-0.0034382985904812813,-0.00010471975838299841,0.00024434609804302454
0.044187385588884354,0.4099830687046051,9.832612037658691,-0.00502654816955328,0.0016755161341279745,-0.0003490658418741077
0.05760449171066284,0.4218774735927582,9.90034008026123,-1.7453292457503267e-05,0.0006981316837482154,-0.001117010717280209
0.04117069020867348,0.44316670298576355,9.85873794555664,-0.0031939526088535786,-5.2359879191499203e-05,0.0006108652451075613
0.02047521248459816,0.41929173469543457,9.830592155456543,-0.00031415926059708,0.0017104226863011718,-0.00027925267932005227
-0.0016567874699831009,0.4381963610649109,9.844383239746094,0.0008203047327697277,0.00205948855727911,-0.00027925267932005227
-0.006023811176419258,0.4581640064716339,9.897514343261719,-0.0018151424592360854,0.00038397242315113544,-0.00027925267932005227
0.005305550526827574,0.41486725211143494,9.87374496459961,-0.0011693706037476659,0.0008726646192371845,-0.0005061454721726477
0.06975746154785156,0.4260050654411316,9.839852333068848,0.0008552113431505859,-6.981316983001307e-05,-1.7453292457503267e-05
0.07169197499752045,0.45198696851730347,9.886502265930176,-0.0026354470755904913,0.002007128670811653,0.0005934119690209627
0.024593239650130272,0.4147331714630127,9.884825706481934,-0.0010122909443452954,-0.00013962633966002613,0.0007504915702156723
-0.014949394389986992,0.4303816854953766,9.846566200256348,0.003036872949451208,0.0016406094655394554,-0.0005585053586401045
-0.003754108212888241,0.4593898355960846,9.842314720153809,0.0003316125657875091,0.0036477381363511086,0.0
0.0005458779633045197,0.4145320653915405,9.925057411193848,0.0010471974965184927,0.00376991112716496,-0.00027925267932005227
0.05223190039396286,0.43629056215286255,9.938685417175293,0.0017278759041801095,1.7453292457503267e-05,-0.00024434609804302454
0.05043146386742592,0.4410119354724884,9.823543548583984,-0.0016755161341279745,0.0038397242315113544,-0.00041887903353199363
0.015610194765031338,0.42537301778793335,9.836385726928711,-6.981316983001307e-05,0.00043633230961859226,-0.0002617993741296232
0.017707515507936478,0.4570818245410919,9.883196830749512,0.0004886921960860491,0.0008203047327697277,-0.0003665191470645368
0.020819976925849915,0.45663172006607056,9.887527465820312,-0.0014486232539638877,0.0008901178953237832,-0.0003316125657875091
0.04616978392004967,0.4274894893169403,9.83963394165039,-0.00024434609804302454,0.0005585053586401045,-0.000715585018042475
0.060822296887636185,0.4451969861984253,9.843031883239746,-0.0010471974965184927,0.0009948377264663577,-0.00024434609804302454
0.054606951773166656,0.43731528520584106,9.881914138793945,-0.00031415926059708,0.0010122909443452954,0.0
0.02272576093673706,0.4375068247318268,9.859513282775879,0.00012217304902151227,0.002199114765971899,0.00012217304902151227
-0.014508862048387527,0.43430817127227783,9.842276573181152,0.0008552113431505859,0.00010471975838299841,8.726646046852693e-05
0.006885723676532507,0.44897982478141785,9.872269630432129,1.7453292457503267e-05,0.0019198621157556772,-0.00022689280740451068
0.03354755416512489,0.45165178179740906,9.896566390991211,0.0003665191470645368,0.0006981316837482154,-0.0003490658418741077
0.05241386219859123,0.44579076766967773,9.796076774597168,0.00013962633966002613,0.00020943951676599681,-0.0002617993741296232
0.015399504452943802,0.43806228041648865,9.788195610046387,0.004660028964281082,-0.007347836159169674,0.00027925267932005227
0.044637493789196014,0.601538360118866,9.836788177490234,0.0,0.009913469664752483,0.0007504915702156723
0.012995726428925991,0.4890874922275543,10.081820487976074,-0.018535396084189415,-0.006003932561725378,-0.00708603672683239
-0.05364926904439926,0.3803524374961853,9.428566932678223,-0.003228859044611454,0.007627088576555252,5.2359879191499203e-05
0.050345271825790405,0.4530787169933319,9.538250923156738,-0.0047996556386351585,-0.0023038345389068127,0.0006457717972807586
0.10767203569412231,0.4986259937286377,9.908231735229492,-0.0036826448049396276,0.00047123889089562,-0.00031415926059708
0.17602169513702393,0.42062291502952576,10.090852737426758,-0.013089969754219055,-0.005462880712002516,0.00022689280740451068
-0.05251920595765114,0.40753141045570374,10.090937614440918,0.002809980185702443,0.0009075712296180427,-0.0005061454721726477
-0.00461602071300149,0.46102747321128845,9.84091567993164,-0.00017453292093705386,-0.0011344640515744686,-0.0006457717972807586
0.0818721204996109,0.4663330018520355,9.569537162780762,0.0026529005263000727,0.0005410520825535059,-0.00027925267932005227
0.10599609464406967,0.44654732942581177,10.13266372680664,-0.0009250245057046413,0.0003490658418741077,0.0007504915702156723
-0.06504566967487335,0.43356117606163025,9.618647575378418,0.004590216092765331,0.003281218931078911,0.00015707963029854
-0.1128147765994072,0.4039784371852875,9.684832572937012,0.003717551240697503,-0.025900686159729958,0.0021118484437465668
0.13645991683006287,0.341901570558548,10.309481620788574,0.05455899238586426,0.03220132365822792,-0.0014660765882581472
0.28509193658828735,0.41583451628685,10.794135093688965,0.024905849248170853,0.03892084211111069,6.981316983001307e-05
-0.05420472472906113,0.473850816488266,9.682286262512207,-0.016179202124476433,-0.007522369269281626,0.002809980185702443
0.07188350707292557,0.4421994686126709,9.684115409851074,-0.00930260494351387,-0.002687806962057948,-6.981316983001307e-05
-0.06449978798627853,0.44927671551704407,9.873629570007324,0.00031415926059708,0.00017453292093705386,0.00019198621157556772
-0.0788075402379036,0.4760343134403229,9.799976348876953,-0.00015707963029854,0.0008028514566831291,0.0022689281031489372
-0.011022903956472874,0.4479742646217346,9.860481262207031,0.0024260077625513077,-0.002914699725806713,-0.0007330382941290736
0.09530837833881378,0.44860634207725525,9.968268394470215,-0.005288347601890564,0.00331612559966743,-3.490658491500653e-05
0.11874282360076904,0.4615733325481415,9.82518196105957,-0.005270894151180983,-3.490658491500653e-05,0.00027925267932005227
-0.022955605760216713,0.44562795758247375,9.884940147399902,0.00045378561480902135,0.00022689280740451068,-0.0007504915702156723
0.05282566323876381,0.44983217120170593,9.854074478149414,0.0005585053586401045,0.0012391837080940604,-0.0002617993741296232
0.10384131222963333,0.4481370747089386,9.895685195922852,-0.00015707963029854,0.001745329238474369,-0.0005235987482592463
0.06904877722263336,0.45296379923820496,9.881425857543945,-0.004328416660428047,0.0008726646192371845,0.00015707963029854
0.03703350946307182,0.450847327709198,9.85543441772461,-0.004817108623683453,0.0005759586347267032,0.00019198621157556772
-0.02308010309934616,0.4339442551136017,9.836950302124023,-0.0016929693520069122,0.0016755161341279745,-0.00022689280740451068
-0.01234450377523899,0.42766186594963074,9.88944149017334,-0.000715585018042475,0.0008377580670639873,-0.0006806784076616168
0.0074411784298717976,0.43412619829177856,9.86735725402832,-0.00019198621157556772,0.0014486232539638877,-0.00027925267932005227
0.07452670484781265,0.4481370747089386,9.84485149383545,0.0009773843921720982,0.0015358896926045418,-0.00040142572834156454
0.06342718750238419,0.4605773389339447,9.890628814697266,0.0010646508308127522,0.0009773843921720982,-0.00027925267932005227
-0.031555578112602234,0.4413471221923828,9.85727310180664,-0.0017627825727686286,0.0005410520825535059,-0.00017453292093705386
0.034658461809158325,0.46256932616233826,9.854151725769043,-0.00047123889089562,0.0011344640515744686,0.0003490658418741077
0.08476431667804718,0.4444500207901001,9.83423137664795,-3.490658491500653e-05,-3.490658491500653e-05,-0.0007853981805965304
0.08498457819223404,0.43387719988822937,9.86295223236084,-0.0011693706037476659,0.0067369709722697735,-0.00010471975838299841
0.04042369872331619,0.45946642756462097,9.881952285766602,0.0012740903766825795,0.0010821041651070118,1.7453292457503267e-05
-0.0009576806332916021,0.4295101761817932,9.850205421447754,-0.001972222002223134,0.0032114058267325163,0.0008203047327697277
-0.013484143652021885,0.44935333728790283,9.853738784790039,-0.0016406094655394554,0.0014660765882581472,-0.00022689280740451068
0.017697937786579132,0.44617384672164917,9.884099006652832,-0.002460914198309183,-0.0005585053586401045,-5.2359879191499203e-05
-0.006876146886497736,0.42505696415901184,9.536880493164062,-0.005672320257872343,-0.03289945796132088,0.0019024088978767395
0.0932493656873703,0.46888044476509094,9.666751861572266,0.02237512171268463,0.01219985168427229,0.0005410520825535059
0.12446974962949753,0.42928993701934814,10.36826229095459,0.01825614459812641,0.02591813914477825,-0.0007330382941290736
0.007402871269732714,0.4078378677368164,10.245861053466797,0.004904375411570072,0.015289084054529667,-0.0019896754529327154
-0.04972277954220772,0.461353063583374,9.792093276977539,-0.00251327408477664,0.005218534264713526,0.0006108652451075613
0.014250287786126137,0.4435689449310303,9.876761436462402,-0.002687806962057948,-0.004136430099606514,-0.0005410520825535059
0.09250237047672272,0.4676162898540497,9.932278633117676,-0.008185594342648983,-0.0019373154500499368,-0.00040142572834156454
0.12384726107120514,0.4356297552585602,9.729403495788574,-0.01120501384139061,0.001972222002223134,0.0009773843921720982
0.06123410165309906,0.42374494671821594,9.666934967041016,0.001658062799833715,0.002024581888690591,0.00094247778179124
0.0006033388199284673,0.4697710871696472,9.924118995666504,0.004241149872541428,0.004625122528523207,-0.00027925267932005227
-0.05237555503845215,0.4335324466228485,9.892668724060059,0.00010471975838299841,0.0009599310578778386,-0.00010471975838299841
-0.01912488229572773,0.4668980538845062,9.747963905334473,0.0019024088978767395,0.0013962633674964309,-0.00040142572834156454
0.06038176268339157,0.4631343483924866,9.922816276550293,-0.00031415926059708,0.0024260077625513077,-0.0013089969288557768
0.1069825068116188,0.4306785464286804,9.968901634216309,-0.0036477381363511086,0.00010471975838299841,0.00012217304902151227
0.05891651287674904,0.46843990683555603,9.781759262084961,-0.002809980185702443,-8.726646046852693e-05,-1.7453292457503267e-05
0.0070964135229587555,0.4397190809249878,9.785408020019531,0.00029670598451048136,0.0027576202992349863,0.00017453292093705386
-0.031842879951000214,0.42652222514152527,9.935151100158691,0.0002617993741296232,0.0010471974965184927,-0.00017453292093705386
-0.02004425600171089,0.440724641084671,9.815767288208008,0.0016406094655394554,-0.00020943951676599681,0.00015707963029854
0.020226215943694115,0.4441339671611786,9.793233871459961,0.0013788101496174932,0.0011693706037476659,-0.0007504915702156723
0.06915412098169327,0.45264774560928345,9.91456127166748,-0.003944444004446268,0.007470009382814169,0.00022689280740451068
0.0634080320596695,0.4475337266921997,9.936128616333008,-0.0034382985904812813,0.0005585053586401045,-0.00027925267932005227
0.010620677843689919,0.42643603682518005,9.789755821228027,-0.003752457909286022,0.0005585053586401045,-0.0002617993741296232
0.0007374141132459044,0.4442201554775238,9.765316009521484,-0.0026179938577115536,0.00205948855727911,0.00015707963029854
-0.006981492042541504,0.41059598326683044,9.926015853881836,0.0,0.0017976891249418259,-0.00027925267932005227
0.009902417659759521,0.4385985732078552,9.886041641235352,-0.00125663704238832,0.0008028514566831291,-0.00024434609804302454
0.055938124656677246,0.4318852424621582,9.769099235534668,0.0012217304902151227,0.0005759586347267032,-0.0005235987482592463
0.0784531980752945,0.45371079444885254,9.886606216430664,0.00125663704238832,0.0018500490114092827,0.0
0.0004213794891256839,0.4379856586456299,9.809906005859375,-0.001343903481028974,0.001117010717280209,-0.00027925267932005227
-0.00014365209790412337,0.43343669176101685,9.823793411254883,-0.0016406094655394554,0.0015358896926045418,-0.0002617993741296232
-0.0021835118532180786,0.43196186423301697,9.894651412963867,-0.0009250245057046413,0.0005410520825535059,0.00010471975838299841
0.03606625273823738,0.433800607919693,9.829347610473633,-0.00024434609804302454,0.0007330382941290736,0.00027925267932005227
0.06021896004676819,0.4637472629547119,9.796451568603516,0.00010471975838299841,0.0012915435945615172,-0.00022689280740451068
0.06135859712958336,0.4403702914714813,9.887707710266113,0.00041887903353199363,0.00376991112716496,-0.00027925267932005227
0.02175850421190262,0.4547259211540222,9.889068603515625,-0.00024434609804302454,0.0013613568153232336,-0.0005061454721726477
0.010678139515221119,0.43745893239974976,9.83704662322998,-0.005864306353032589,0.008220500312745571,0.00019198621157556772
0.027600355446338654,0.45071324706077576,9.886425018310547,-0.002286381321027875,0.0009773843921720982,0.0003316125657875091
0.0031986532267183065,0.42381200194358826,9.80005168914795,-0.004433136433362961,0.002775073517113924,-0.00013962633966002613
0.021203048527240753,0.43070730566978455,9.807990074157715,0.003228859044611454,0.0023038345389068127,-3.490658491500653e-05
0.0799759104847908,0.46154460310935974,9.854141235351562,-0.0005759586347267032,0.0012391837080940604,-0.00043633230961859226
0.049971774220466614,0.452427476644516,9.840197563171387,0.0003665191470645368,0.001658062799833715,-0.00038397242315113544
-0.012650961056351662,0.4206324815750122,9.891863822937012,-0.0013089969288557768,0.00024434609804302454,-0.0004886921960860491
0.0016759411664679646,0.4474954307079315,9.817758560180664,-0.0006632251315750182,0.0008203047327697277,-0.0005759586347267032
0.07243896275758743,0.4428889751434326,9.853059768676758,-0.0008377580670639873,0.0019896754529327154,0.00029670598451048136
0.03762727230787277,0.4416344165802002,9.864197731018066,0.0003490658418741077,0.0012042771559208632,-0.0005585053586401045
0.04891832545399666,0.4410119354724884,9.840216636657715,0.002024581888690591,0.0017278759041801095,-0.00041887903353199363
0.07863515615463257,0.4524466395378113,9.871906280517578,0.0038920841179788113,0.003176499158143997,0.00017453292093705386
-0.07328172028064728,0.4484052360057831,9.38449478149414,0.0051312679424881935,-0.01811651699244976,-0.0005061454721726477
-0.063973069190979,0.5154141187667847,9.832585334777832,-0.006248278543353081,0.00043633230961859226,0.0006981316837482154
-0.027341783046722412,0.4103853106498718,9.589515686035156,-0.010733774863183498,-0.0080634206533432,0.00029670598451048136
0.08592310547828674,0.5268488526344299,9.797591209411621,-0.008203047327697277,-0.0009773843921720982,-0.00010471975838299841
0.10753796249628067,0.4026951193809509,9.911372184753418,-0.00945968460291624,-0.00015707963029854,0.0
0.04481945559382439,0.42883023619651794,9.746650695800781,0.0024434609804302454,0.0026703537441790104,3.490658491500653e-05
-0.007201758213341236,0.4447852075099945,9.82116985321045,0.00024434609804302454,0.0028623400721699,0.0003316125657875091
0.006856993306428194,0.38838738203048706,10.012514114379883,0.0021816615480929613,0.0008726646192371845,-0.00020943951676599681
0.017286134883761406,0.4604720175266266,9.887104034423828,6.981316983001307e-05,0.0005934119690209627,-0.00040142572834156454
-0.020954051986336708,0.461515873670578,9.730015754699707,-0.006946410518139601,-0.0014137167017906904,-0.00031415926059708
0.03474465385079384,0.3941430449485779,9.879013061523438,-0.00017453292093705386,0.0020943949930369854,0.00015707963029854
0.09323978424072266,0.4938759207725525,9.926255226135254,-0.004014257341623306,-0.0006806784076616168,-0.00027925267932005227
0.07388506084680557,0.3987495005130768,9.692312240600586,-0.004607669077813625,0.0010646508308127522,0.00031415926059708
0.045700520277023315,0.40488821268081665,9.7942476272583,0.0091455252841115,0.004502949304878712,-0.0002617993741296232
0.1157740131020546,0.4263019561767578,10.446792602539062,0.037053339183330536,0.07698646932840347,-0.0049916417337954044
-0.09961794316768646,0.41174522042274475,10.539888381958008,0.018622662872076035,-0.003577925032004714,-0.00022689280740451068
0.0010726023465394974,0.46609359979629517,10.446428298950195,-0.02188642881810665,-0.018395770341157913,0.01679006777703762
0.02246718853712082,0.4646857976913452,9.820066452026367,-0.021066123619675636,-0.018099064007401466,0.0017627825727686286
-0.03457226976752281,0.5037687420845032,9.633790016174316,-0.00663225119933486,-0.0024434609804302454,-0.00040142572834156454
0.009011775255203247,0.4441531300544739,9.926657676696777,-0.0126710906624794,-0.0017627825727686286,-0.0005235987482592463
0.05118802934885025,0.3625970482826233,9.800482749938965,-0.0020420351065695286,0.0007853981805965304,0.00038397242315113544
0.04391923546791077,0.46467623114585876,9.696124076843262,0.004747295752167702,0.005270894151180983,-0.00020943951676599681
0.07004476338624954,0.40949466824531555,10.022789001464844,0.0027576202992349863,0.0036651913542300463,-0.00029670598451048136
0.023827094584703445,0.42041221261024475,10.033812522888184,0.003909537568688393,-1.7453292457503267e-05,-0.00012217304902151227
0.09719500690698624,0.4125496745109558,9.857397079467773,0.005689773242920637,0.002740166848525405,-0.00027925267932005227
0.0031411924865096807,0.44781145453453064,9.898118019104004,-0.00012217304902151227,0.0007504915702156723,-0.00015707963029854
-0.02063801698386669,0.4385890066623688,9.762749671936035,0.0033859387040138245,0.0023387412074953318,-0.0005410520825535059
0.02561795711517334,0.48763182759284973,9.94109058380127,0.00020943951676599681,0.0015533430268988013,5.2359879191499203e-05
0.045250412076711655,0.4524945318698883,9.986005783081055,-0.0077667152509093285,0.0013613568153232336,-0.0003316125657875091
0.015207968652248383,0.4631439447402954,9.753461837768555,-0.002478367416188121,0.0012042771559208632,0.00020943951676599681
0.008734047412872314,0.43552443385124207,9.815585136413574,-0.00143117003608495,0.0020769417751580477,-0.0004886921960860491
0.02737051248550415,0.4091690480709076,9.949631690979004,5.2359879191499203e-05,0.0020769417751580477,0.0006457717972807586
0.04772122576832771,0.4483286142349243,9.785187721252441,0.0017104226863011718,0.0018675023457035422,-5.2359879191499203e-05
0.03559698909521103,0.44525447487831116,9.85548210144043,0.0013613568153232336,0.0029321531765162945,1.7453292457503267e-05
0.010821791365742683,0.4522263705730438,9.973583221435547,-0.0004886921960860491,0.0010646508308127522,-0.00027925267932005227
0.023549366742372513,0.4450342059135437,9.852388381958008,-0.005689773242920637,0.0018500490114092827,5.2359879191499203e-05
0.03360501304268837,0.4366928040981293,9.80686092376709,-0.0025307273026555777,0.0011519172694534063,-0.00010471975838299841
0.06371448934078217,0.4370471239089966,9.941424369812012,-0.0008028514566831291,0.0024085543118417263,-0.00041887903353199363
0.06095637381076813,0.44508206844329834,9.940964698791504,-0.0009250245057046413,0.0009075712296180427,-0.0005934119690209627
0.05028780922293663,0.4436838626861572,9.80335521697998,1.7453292457503267e-05,0.0006108652451075613,-0.00022689280740451068
0.011856086552143097,0.4511154592037201,9.819070816040039,0.004642575979232788,0.0021293016616255045,0.0
0.01482489611953497,0.45992612838745117,9.893463134765625,0.002460914198309183,0.002373647876083851,-0.00024434609804302454
-0.009605537168681622,0.4622054100036621,9.957819938659668,-0.0023911010939627886,0.0003665191470645368,-0.0005235987482592463
0.020858284085989,0.44218987226486206,9.90927505493164,-0.0037000980228185654,0.0006806784076616168,-0.00019198621157556772
0.0305691659450531,0.4502056837081909,9.819099426269531,-0.0035604715812951326,0.0006632251315750182,-0.00027925267932005227
0.05133168399333954,0.4480317234992981,9.89762020111084,-0.004834562074393034,0.001518436474725604,-0.00027925267932005227
0.04030877724289894,0.41977056860923767,9.916093826293945,-0.0011868239380419254,0.0004886921960860491,0.0
0.042482711374759674,0.42518147826194763,9.808890342712402,0.001658062799833715,-6.981316983001307e-05,-0.00013962633966002613
0.012612653896212578,0.45160388946533203,9.960865020751953,0.002827433403581381,0.001972222002223134,-0.00027925267932005227
0.017602169886231422,0.4544673562049866,9.886482238769531,-0.0007330382941290736,0.0015533430268988013,-0.00017453292093705386
0.028194118291139603,0.4446128010749817,9.844554901123047,-0.0023387412074953318,0.0011519172694534063,6.981316983001307e-05
0.03000413440167904,0.444631963968277,9.906115531921387,-0.00251327408477664,0.0005410520825535059,-0.00020943951676599681
0.05184882879257202,0.43666407465934753,9.848980903625488,-0.002548180753365159,0.00029670598451048136,-0.00027925267932005227
0.046083591878414154,0.4226149022579193,9.833101272583008,0.0019024088978767395,0.0025656339712440968,-0.00027925267932005227
0.05521028861403465,0.4423910081386566,9.902752876281738,0.005061454605311155,0.0023911010939627886,-0.0007330382941290736
0.04008851200342178,0.48447147011756897,9.788474082946777,0.030682887881994247,0.024155355989933014,-0.011571533046662807
0.02545515075325966,0.524358868598938,10.128746032714844,-0.005061454605311155,0.0008028514566831291,-0.01441641990095377
0.083433136343956,0.4714087247848511,9.698575973510742,-0.02068215236067772,-0.011152653954923153,0.003909537568688393
-0.010448295623064041,0.49728524684906006,9.542991638183594,0.0012740903766825795,0.0024260077625513077,-1.7453292457503267e-05
0.028826186433434486,0.4921903908252716,9.93336009979248,-0.008342674002051353,0.0005759586347267032,-0.0007330382941290736
0.11700942367315292,0.35010889172554016,9.937901496887207,-0.002914699725806713,0.000715585018042475,0.00015707963029854
0.0926651805639267,0.47176307439804077,9.668209075927734,0.010541788302361965,-0.005654866807162762,0.00022689280740451068
0.07060979306697845,0.4388667345046997,9.843664169311523,0.0013788101496174932,0.0014486232539638877,-0.0002617993741296232
-0.004328716546297073,0.4225861728191376,10.009821891784668,-6.981316983001307e-05,0.007627088576555252,0.0005061454721726477
0.0030454243533313274,0.43203845620155334,9.711091995239258,-0.0057246801443398,0.0005759586347267032,-0.0007679448463022709
0.06086060404777527,0.42589014768600464,9.996969223022461,0.0024260077625513077,0.00205948855727911,-0.0005585053586401045
0.05348646268248558,0.4012586176395416,9.744458198547363,0.005410520825535059,0.0013962633674964309,-0.001029744278639555
0.036794088780879974,0.4163229167461395,10.017799377441406,0.021816615015268326,0.022078415378928185,0.003089232835918665
0.027044901624321938,0.5890023112297058,10.031752586364746,0.010681414976716042,0.006230825558304787,0.012077677994966507
-0.07681556046009064,0.49113693833351135,9.87015438079834,-0.0052534411661326885,-0.005235987715423107,0.012234757654368877
-0.035913024097681046,0.4534713625907898,9.814713478088379,-0.0021118484437465668,0.010978121310472488,-0.001658062799833715
0.02405693754553795,0.40662163496017456,9.863986015319824,-0.009110618382692337,0.003577925032004714,-0.00017453292093705386
0.0986889898777008,0.44958317279815674,9.924320220947266,-3.490658491500653e-05,0.004433136433362961,0.00015707963029854
0.1289229691028595,0.4473709464073181,9.86072063446045,-0.010279988870024681,0.0011868239380419254,0.0008203047327697277
0.06640557199716568,0.3986632823944092,9.713103294372559,-0.003543018363416195,6.981316983001307e-05,0.00041887903353199363
0.013292606920003891,0.4080006778240204,9.715957641601562,0.006894050631672144,0.0010995573829859495,-0.0002617993741296232
-0.028596343472599983,0.4679993689060211,9.879289627075195,0.004764748737215996,0.001745329238474369,-0.0003665191470645368
-0.02862507477402687,0.45477381348609924,9.985352516174316,0.00012217304902151227,0.0015009831404313445,-0.00027925267932005227
0.031153351068496704,0.43001776933670044,9.896749496459961,-0.00029670598451048136,-0.0015009831404313445,0.00012217304902151227
0.07950664311647415,0.42414718866348267,9.868066787719727,-0.0037000980228185654,0.0011693706037476659,0.0
0.03338474780321121,0.44164401292800903,9.79099178314209,0.0005934119690209627,0.0008377580670639873,-0.0004886921960860491
-0.0016855179565027356,0.42285430431365967,9.842141151428223,0.001029744278639555,0.002007128670811653,-0.00027925267932005227
0.007259219419211149,0.4150300621986389,9.943253517150879,0.0031241392716765404,0.004398229531943798,0.00013962633966002613
0.0127371521666646,0.4619564116001129,9.84669017791748,0.0008726646192371845,0.00125663704238832,8.726646046852693e-05
0.07117482274770737,0.46298113465309143,9.823064804077148,0.001029744278639555,0.0009250245057046413,-0.0007330382941290736
0.060036998242139816,0.43820592761039734,9.925661087036133,-0.003455751808360219,0.002234021434560418,-5.2359879191499203e-05
0.04473326355218887,0.45081859827041626,9.870920181274414,0.0020769417751580477,-0.006265731994062662,-0.00029670598451048136
-0.4754596948623657,0.6187574863433838,7.8254194259643555,-0.011397000402212143,-0.04907865822315216,0.0012915435945615172
-0.053677998483181,0.5127038955688477,9.291857719421387,0.05141739919781685,0.060702551156282425,-0.0011868239380419254
0.07146213203668594,0.3866922855377197,10.017827987670898,0.02537708729505539,0.026720991358160973,-0.00029670598451048136
