accX,accY,accZ,gyroX,gyroY,gyroZ
2.001974105834961,6.741267681121826,7.616032123565674,-0.203348308801651,0.46844637393951416,0.0596204474568367
1.9596445560455322,7.064915657043457,7.483029365539551,0.10433578491210938,0.42905429005622864,0.22677062451839447
2.296757698059082,7.308760166168213,7.094010353088379,0.1543743759393692,0.5898165702819824,0.3609166443347931
2.692030668258667,7.4694108963012695,6.870362758636475,0.08943066745996475,0.6100449562072754,0.38114500045776367
1.8584463596343994,6.901947498321533,6.807921886444092,-0.1714087873697281,1.0529396533966064,0.32045990228652954
1.4133163690567017,6.904006481170654,6.617966175079346,-0.5962044596672058,1.124271273612976,0.16608552634716034
1.0371968746185303,6.655900001525879,6.218297481536865,-1.120012640953064,0.8730136752128601,0.10965903848409653
0.6859004497528076,6.180937767028809,6.934690475463867,-1.4638949632644653,0.736738383769989,0.09049531817436218
0.39080074429512024,5.647567272186279,7.445746898651123,-1.3755289316177368,0.7271565198898315,0.09049531817436218
0.5122729539871216,5.539158344268799,7.504318714141846,-1.0689094066619873,0.7537727952003479,0.1543743759393692
0.7607432007789612,5.221236705780029,7.63409423828125,-0.7793244123458862,0.8879188299179077,0.19589576125144958
0.8358157873153687,5.088253498077393,7.835935115814209,-0.6366612315177917,0.9145350456237793,0.1511804163455963
0.6267445683479309,5.249095916748047,8.21873950958252,-0.3130073547363281,0.8538499474525452,0.06494370102882385
0.4342028498649597,5.546225547790527,8.217781066894531,-0.02342231757938862,0.9720262289047241,0.005323254037648439
0.3792702853679657,5.537156105041504,8.052265167236328,0.11604694277048111,0.9411513209342957,-0.020228365436196327
0.2950614392757416,5.736574172973633,7.992305278778076,0.19483110308647156,0.8229750990867615,-0.039392080157995224
0.07000645250082016,5.703266143798828,8.179981231689453,0.12349949777126312,0.5089030861854553,-0.010646508075296879
0.5940780639648438,5.677657604217529,7.691583633422852,0.0596204474568367,-0.043650683015584946,0.0734609067440033
0.7354987859725952,5.588986396789551,7.719931125640869,0.02342231757938862,0.06600835174322128,0.0734609067440033
0.6480816602706909,5.381743907928467,7.86906099319458,-0.014905111864209175,0.19057250022888184,0.03619812801480293
0.6322703957557678,5.741171360015869,7.786930084228516,0.02874557301402092,0.11178833991289139,0.038327429443597794
0.18551233410835266,5.367618083953857,7.509222030639648,0.019163714721798897,0.15863297879695892,0.06174974888563156
0.1482010781764984,5.465617656707764,7.438554763793945,-0.021293016150593758,0.22251202166080475,0.17034412920475006
0.3482893109321594,5.410694599151611,7.697617053985596,-0.09155996888875961,0.1927018016576767,0.18631389737129211
0.44713154435157776,5.249124526977539,7.8686299324035645,-0.06174974888563156,0.14159856736660004,0.0947539210319519
0.4938567876815796,5.32526969909668,8.061966896057129,-0.004258603323251009,0.13946926593780518,-0.03300417587161064
0.18801186978816986,5.543170928955078,8.030621528625488,0.02555162087082863,0.08836601674556732,-0.0841074138879776
0.4036240875720978,5.547144889831543,7.47379732131958,-0.13201670348644257,-0.04684463515877724,-0.10327113419771194
0.2838374078273773,5.634476184844971,7.397843837738037,-0.21186551451683044,-0.010646508075296879,-0.10220648348331451
0.06310158222913742,5.559508800506592,7.497873306274414,-0.357722669839859,-0.06387905031442642,-0.06174974888563156
-0.04956955462694168,5.44401216506958,7.898576736450195,-0.5163556337356567,-0.2661627233028412,-0.03619812801480293
0.024708162993192673,5.369112491607666,8.121984481811523,-0.5397779941558838,-0.3864682614803314,-0.02874557301402092
0.24754130840301514,5.315682888031006,8.259201049804688,-0.4130845367908478,-0.3822096586227417,-0.018099064007401466
0.6910049319267273,5.173946380615234,7.861456871032715,0.03406882658600807,0.12030554562807083,0.05536184459924698
0.8151586055755615,5.227461814880371,7.794361591339111,0.02661627158522606,0.3438822329044342,0.012775810435414314
0.19393034279346466,5.119502544403076,7.913803577423096,-0.02342231757938862,0.2629687488079071,-0.0596204474568367
0.010764330625534058,5.427196025848389,8.23447322845459,0.05855579674243927,-0.5344547033309937,0.008517206646502018
0.05220317468047142,5.619162559509277,8.35692310333252,0.09262461960315704,-0.4758989214897156,0.04684463515877724
0.34612494707107544,5.390420436859131,8.747254371643066,0.18099063634872437,-0.3758217394351959,0.12562879920005798
0.6560878753662109,5.320270538330078,8.633932113647461,0.36304593086242676,-0.6132388710975647,0.012775810435414314
0.6124272346496582,5.490584373474121,8.537148475646973,0.5003858804702759,-0.7878416180610657,-0.14905111491680145
0.41911938786506653,5.551521301269531,8.333555221557617,0.5440365672111511,-0.9347634315490723,-0.12456414848566055
0.7891097664833069,5.463942050933838,8.149431228637695,0.5536184310913086,-1.0486810207366943,-0.0947539210319519
1.111972689628601,5.589196681976318,7.862750053405762,0.6025923490524292,-1.1157541275024414,-0.22144737839698792
1.0354443788528442,5.797952175140381,7.4521636962890625,0.6228207349777222,-1.2711931467056274,-0.3992440700531006
1.0481528043746948,5.741927623748779,7.37199592590332,0.5887519121170044,-1.3659470081329346,-0.4769635796546936
1.5081076622009277,5.93583869934082,7.5111565589904785,0.5227435827255249,-1.2669345140457153,-0.35665804147720337
1.588073968887329,5.857433795928955,7.223957538604736,0.456735223531723,-1.1892149448394775,-0.2842617630958557
1.9420807361602783,6.1019392013549805,6.82741117477417,0.39072686433792114,-1.1168187856674194,-0.3609166443347931
2.3261873722076416,6.4229536056518555,6.665764331817627,0.30023154616355896,-0.9209229946136475,-0.406696617603302
2.362598180770874,6.30791711807251,6.651216983795166,0.23741713166236877,-0.8261690735816956,-0.39498546719551086
2.1446971893310547,6.189681529998779,6.589685916900635,0.08091346174478531,-0.6483723521232605,-0.3119426965713501
1.9149590730667114,6.259113788604736,6.91359281539917,-0.20760691165924072,-0.560006320476532,-0.2597748041152954
2.2649147510528564,6.531363487243652,6.755958557128906,-0.1192408949136734,-0.3704984784126282,-0.17460273206233978
2.754232168197632,6.518214225769043,6.8242506980896,0.1054004356265068,-0.02768092229962349,-0.0351334773004055
2.5611445903778076,6.302209377288818,6.73934268951416,0.3162012994289398,0.6494370102882385,0.12243484705686569
2.059147357940674,6.217004299163818,6.576737880706787,0.17460273206233978,0.5280668139457703,0.08304276317358017
1.5467883348464966,6.179491996765137,6.5596723556518555,-0.039392080157995224,0.2906496822834015,0.018099064007401466
1.985923171043396,6.622084140777588,6.981770038604736,-0.09901253134012222,0.39072686433792114,0.039392080157995224
2.3620426654815674,6.552661895751953,7.15647029876709,-0.203348308801651,0.2555162012577057,0.06387905031442642
1.9006227254867554,5.992456912994385,7.397269248962402,-0.3193952441215515,0.16395622491836548,-0.11391764134168625
1.6695247888565063,5.927286624908447,7.782525062561035,-0.23422318696975708,-0.004258603323251009,-0.27148595452308655
0.9825612306594849,6.816818714141846,7.5239033699035645,-0.2246413230895996,-0.5908812284469604,-0.11178833991289139
1.1736855506896973,6.87532377243042,7.163614273071289,-0.15650367736816406,-0.2970375716686249,0.15863297879695892
2.0619630813598633,5.8516106605529785,7.899400234222412,0.08943066745996475,-0.26509806513786316,0.2629687488079071
2.3462698459625244,6.178295135498047,7.705249309539795,0.03619812801480293,-0.5663942694664001,0.13840460777282715
2.3810622692108154,6.049343109130859,7.638882160186768,0.12030554562807083,-0.4386361539363861,0.11817624419927597
2.5948455333709717,5.962605953216553,7.270031929016113,0.20760691165924072,-0.39498546719551086,-0.02981022372841835
2.767371654510498,5.545363903045654,7.328977108001709,0.06600835174322128,-0.8155225515365601,-0.07771950960159302
2.740422248840332,5.7843146324157715,7.228966236114502,0.070266954600811,-0.8719490170478821,-0.17034412920475006
2.3791470527648926,6.387471675872803,6.941279411315918,0.1054004356265068,-0.7473849058151245,-0.03619812801480293
3.1169345378875732,6.3144001960754395,6.7017822265625,0.14266321063041687,-0.4514119625091553,0.21612411737442017
3.9090514183044434,6.055242538452148,6.337413787841797,0.09155996888875961,-0.21825341880321503,0.070266954600811
3.8020594120025635,6.242085933685303,6.121753215789795,0.05749114602804184,0.05855579674243927,-0.05110324174165726
3.0730535984039307,6.567439079284668,6.524496555328369,-0.013840461149811745,0.4758989214897156,-0.16289158165454865
2.705840587615967,6.582168102264404,6.6724677085876465,0.043650683015584946,0.8165872097015381,0.10752973705530167
2.87218976020813,6.6276774406433105,6.697607040405273,0.02768092229962349,1.0540043115615845,0.19163715839385986
2.1735329627990723,6.1825666427612305,7.03106164932251,-0.02874557301402092,1.028452754020691,0.2831971347332001
2.188434362411499,6.1389055252075195,7.135879993438721,-0.10327113419771194,0.8975006341934204,0.3130073547363281
2.357283115386963,5.605496406555176,7.797550678253174,-0.06174974888563156,0.5951398015022278,0.1895078420639038
2.257167339324951,5.837427616119385,7.953461647033691,-0.08091346174478531,0.11817624419927597,-0.05536184459924698
1.951255202293396,6.101278305053711,7.785168170928955,-0.06920230388641357,-0.140533909201622,-0.1469218134880066
2.060593843460083,6.32454252243042,7.484638690948486,0.08304276317358017,-0.06281439960002899,-0.09155996888875961
2.2576842308044434,6.413980007171631,7.035007476806641,0.17034412920475006,0.09049531817436218,-0.047909289598464966
1.8886804580688477,6.357419490814209,6.907108783721924,-0.0031939526088535786,-0.12562879920005798,-0.07133160531520844
1.7255586385726929,6.17580509185791,7.443611145019531,-0.20547761023044586,-0.5089030861854553,-0.06813765317201614
1.9562734365463257,6.254536151885986,7.534073829650879,-0.1650208830833435,-0.6505016684532166,-0.05642649531364441
2.576687812805176,6.581593036651611,6.910087585449219,0.18844319880008698,-0.009581857360899448,0.03726277872920036
2.569859266281128,6.333803176879883,6.770055294036865,0.2778738737106323,0.36943385004997253,0.03406882658600807
2.2627599239349365,6.161841869354248,6.6299567222595215,-0.0010646508308127522,-0.02768092229962349,-0.009581857360899448
2.1280717849731445,6.178582191467285,6.683787822723389,-0.14585717022418976,-0.08197811245918274,-0.02981022372841835
2.0447535514831543,6.265022277832031,6.667756080627441,-0.17247343063354492,-0.02661627158522606,-0.006387905217707157
2.2439510822296143,6.202447891235352,6.696332931518555,-0.17673203349113464,0.15543901920318604,0.08836601674556732
2.4790139198303223,6.158422946929932,6.922776699066162,-0.19908970594406128,0.2874557375907898,0.06174974888563156
2.269578695297241,6.027853012084961,7.445383071899414,-0.18631389737129211,-0.010646508075296879,-0.21293017268180847
2.3931097984313965,5.880973815917969,7.756025791168213,-0.16927948594093323,-0.27148595452308655,0.01171115878969431
1.9735404253005981,6.151470184326172,7.853642463684082,-0.19802506268024445,-1.01248300075531,-0.047909289598464966
2.778595447540283,5.8958940505981445,8.113059043884277,0.018099064007401466,-0.9496685266494751,0.012775810435414314
3.5641045570373535,5.741869926452637,7.7712626457214355,0.16076228022575378,-0.9837373495101929,-0.1852492392063141
3.141460657119751,6.181943893432617,6.203635215759277,0.30023154616355896,-0.6057863235473633,-0.29597294330596924
3.0594451427459717,5.9245100021362305,6.364353179931641,-0.0010646508308127522,0.038327429443597794,-0.2917143404483795
2.5634143352508545,5.924145698547363,6.770476341247559,-0.10752973705530167,-0.15969762206077576,-0.21505947411060333
2.3285911083221436,5.897761821746826,7.498543739318848,-0.09688322991132736,-0.08304276317358017,-0.17779669165611267
2.138568162918091,6.159974575042725,7.731164455413818,0.0074525559321045876,-0.2065422683954239,-0.06387905031442642
2.660618782043457,6.208088397979736,7.353579521179199,0.17992599308490753,-0.09262461960315704,0.05110324174165726
3.3254120349884033,6.35458517074585,6.670801162719727,0.22144737839698792,0.2629687488079071,0.024486970156431198
3.47404408454895,6.29780387878418,6.5146613121032715,0.1714087873697281,0.38753291964530945,-0.05536184459924698
3.1122515201568604,6.249392986297607,6.959819793701172,-0.07771950960159302,0.10114183276891708,-0.20973621308803558
2.3770878314971924,6.399988174438477,7.3237481117248535,-0.3130073547363281,-0.47164031863212585,-0.19057250022888184
2.0561020374298096,6.335871696472168,7.230958461761475,-0.18631389737129211,-0.3012961745262146,-0.05003859102725983
1.9149017333984375,6.4730305671691895,7.407927989959717,-0.09368927031755447,-0.15011577308177948,0.05536184459924698
2.631333112716675,6.043156623840332,7.599435329437256,-0.02874557301402092,-0.19908970594406128,0.16395622491836548
3.1019084453582764,5.630472660064697,7.1379289627075195,-0.1714087873697281,-1.0401638746261597,0.17353808879852295
2.887617826461792,6.282385349273682,6.93841552734375,-0.24486969411373138,-0.793164849281311,0.14479251205921173
2.8678226470947266,6.120929718017578,7.0549845695495605,-0.16395622491836548,-0.4908040463924408,0.18844319880008698
3.044830799102783,5.725398063659668,7.7019267082214355,-0.02981022372841835,-0.2352878302335739,0.2108008712530136
3.2335610389709473,6.071417808532715,7.625513076782227,-0.02981022372841835,-1.0178061723709106,0.2587101459503174
4.01677131652832,6.246395587921143,6.578576564788818,0.11604694277048111,-0.40776127576828003,0.23954643309116364
4.4183173179626465,6.025209426879883,6.329407215118408,0.15011577308177948,-0.017034413293004036,0.13201670348644257
4.153231620788574,5.917576313018799,6.616903305053711,0.06920230388641357,0.1756673902273178,-0.10327113419771194
3.2359838485717773,5.975553512573242,7.062722682952881,0.07771950960159302,0.13414600491523743,-0.09688322991132736
3.0877254009246826,6.140590667724609,7.090083599090576,0.12456414848566055,0.17673203349113464,-0.009581857360899448
3.254476547241211,5.953853130340576,7.195141315460205,0.19802506268024445,0.252322256565094,0.12243484705686569
3.767238140106201,6.116237163543701,6.876377105712891,0.20441296696662903,0.22144737839698792,0.1714087873697281
4.177795886993408,5.980437755584717,6.197688102722168,0.16927948594093323,0.44395941495895386,0.08943066745996475
3.9016199111938477,5.930715560913086,6.467840194702148,0.02661627158522606,0.582364022731781,-0.05003859102725983
2.784609794616699,5.922527313232422,7.39077615737915,-0.07133160531520844,0.3332357108592987,-0.05536184459924698
2.517598867416382,6.120450973510742,7.524142742156982,0.13201670348644257,0.4024380147457123,0.08730136603116989
3.153364658355713,6.0765509605407715,6.986596584320068,0.2917143404483795,0.5706528425216675,0.19163715839385986
3.418527364730835,5.917413234710693,6.678328514099121,0.23209388554096222,0.4769635796546936,0.15650367736816406
3.506049871444702,5.888165473937988,6.477273464202881,-0.008517206646502018,0.13414600491523743,0.03619812801480293
2.9917848110198975,6.154104232788086,6.525358200073242,-0.16289158165454865,0.08091346174478531,-0.017034413293004036
2.6651198863983154,6.3580708503723145,6.619594097137451,-0.1575683206319809,0.2384817898273468,0.02874557301402092
2.5061161518096924,6.347536087036133,6.756331920623779,-0.08943066745996475,0.5408426523208618,0.24380503594875336
2.948172092437744,6.113364219665527,6.849571704864502,-0.20760691165924072,0.3396236300468445,0.3928561508655548
3.455379009246826,6.044554710388184,7.096126556396484,-0.13521066308021545,0.637725830078125,0.2587101459503174
2.8316128253936768,5.617400169372559,7.388458728790283,0.04684463515877724,0.833621621131897,0.17247343063354492
2.3631346225738525,5.461691379547119,7.461989402770996,-0.33536502718925476,0.18631389737129211,0.1054004356265068
2.5098321437835693,5.764883518218994,7.7706403732299805,-0.3332357108592987,0.12456414848566055,0.17673203349113464
2.6350295543670654,5.756072521209717,7.79779052734375,-0.2917143404483795,0.16182692348957062,0.22357667982578278
2.942741870880127,5.521469593048096,8.085123062133789,-0.1650208830833435,0.23315852880477905,0.20441296696662903
3.019318103790283,5.415138244628906,8.2318115234375,-0.047909289598464966,0.12137019634246826,0.06707300245761871
2.697786331176758,5.478211402893066,8.28670597076416,0.03406882658600807,-0.015969762578606606,-0.06707300245761871
2.5750694274902344,5.765084266662598,7.971188068389893,0.11711159348487854,-0.06387905031442642,-0.04684463515877724
2.664114475250244,5.815822124481201,7.789027690887451,0.1362753063440323,-0.07133160531520844,-0.021293016150593758
2.8430473804473877,5.861676216125488,7.673330307006836,0.14905111491680145,-0.06920230388641357,-0.014905111864209175
2.936249017715454,5.87947940826416,7.534734725952148,0.18311993777751923,0.0010646508308127522,0.039392080157995224
2.903975009918213,5.601081371307373,7.619833946228027,0.18631389737129211,0.07771950960159302,-0.03300417587161064
2.802049160003662,5.531630992889404,7.671261787414551,0.16608552634716034,-0.02874557301402092,-0.08836601674556732
2.560321092605591,5.762441635131836,7.579668998718262,0.07665485888719559,-0.2672273516654968,-0.1575683206319809
2.449460029602051,5.969692707061768,7.496130466461182,0.08197811245918274,-0.23741713166236877,-0.09049531817436218
2.6576597690582275,5.910776138305664,7.2841477394104,0.14798647165298462,-0.045779984444379807,0.013840461149811745
2.7763354778289795,5.77020788192749,7.25261116027832,0.13946926593780518,-0.021293016150593758,-0.020228365436196327
2.7185585498809814,5.660390853881836,7.354872703552246,0.06920230388641357,-0.1437278687953949,-0.07559020817279816
2.6639420986175537,5.831365585327148,7.326582908630371,0.008517206646502018,-0.2597748041152954,-0.11604694277048111
2.676612138748169,5.965527057647705,7.258109092712402,0.02768092229962349,-0.15224507451057434,-0.06707300245761871
2.7479403018951416,5.9300737380981445,7.203846454620361,0.041521381586790085,-0.10646508634090424,-0.03193952515721321
2.84104585647583,5.707001209259033,7.295486927032471,0.0074525559321045876,-0.12349949777126312,-0.02661627158522606
2.936450242996216,5.547375202178955,7.450832366943359,-0.08091346174478531,-0.34601151943206787,-0.09262461960315704
2.8893609046936035,5.7101616859436035,7.251998424530029,-0.12243484705686569,-0.4492826461791992,-0.13095206022262573
3.029029130935669,6.23314094543457,6.5647382736206055,-0.04684463515877724,-0.13414600491523743,-0.038327429443597794
3.2012581825256348,5.948997497558594,6.816311359405518,0.01171115878969431,0.24274039268493652,0.06494370102882385
2.619926929473877,5.670657157897949,7.889382839202881,-0.02768092229962349,0.015969762578606606,0.020228365436196327
2.7767279148101807,5.570330619812012,7.769730567932129,0.070266954600811,0.0734609067440033,-0.008517206646502018
3.203432321548462,5.7140212059021,7.493851661682129,0.08304276317358017,-0.010646508075296879,-0.16289158165454865
2.870772123336792,5.943710803985596,7.476095676422119,-0.012775810435414314,-0.12137019634246826,-0.2384817898273468
2.5570554733276367,5.970114231109619,7.510467052459717,-0.013840461149811745,0.020228365436196327,-0.1469218134880066
2.4522275924682617,5.614987373352051,7.67598295211792,-0.13840460777282715,-0.23315852880477905,-0.05642649531364441
2.726181745529175,5.750843524932861,7.917663097381592,-0.36623987555503845,-0.8048760294914246,-0.07452555745840073
3.1979639530181885,6.124502182006836,7.798834323883057,-0.20867156982421875,-0.7921002507209778,0.015969762578606606
3.450762987136841,5.8625569343566895,7.409115791320801,0.07665485888719559,-0.2629687488079071,-0.014905111864209175
3.4062211513519287,5.648266792297363,7.326984882354736,0.13201670348644257,-0.1852492392063141,-0.12775810062885284
3.179844617843628,5.937553405761719,6.784209728240967,0.1469218134880066,0.27574455738067627,-0.13414600491523743
2.900881767272949,5.907309532165527,6.908114910125732,0.05003859102725983,0.09368927031755447,0.0
3.410090446472168,6.151240348815918,6.622859954833984,0.10220648348331451,0.4939979910850525,0.140533909201622
3.7475385665893555,5.841631889343262,6.848958492279053,0.1927018016576767,0.9006946086883545,0.13840460777282715
3.5624284744262695,6.090897083282471,7.178056240081787,0.23635248839855194,0.9262462258338928,0.126693457365036
2.8019628524780273,6.480069637298584,7.63651704788208,0.22677062451839447,0.7239625453948975,0.34920546412467957
2.199648857116699,6.599731922149658,7.7073564529418945,0.3130073547363281,0.56107097864151,0.7473849058151245
2.3520541191101074,6.693345069885254,7.1245503425598145,0.3854036033153534,0.8091346621513367,1.0965903997421265
2.7935163974761963,6.390756130218506,6.481860160827637,0.21931807696819305,0.9975778460502625,1.3095204830169678
2.8602378368377686,6.696658611297607,6.294557571411133,-0.13414600491523743,1.4117270708084106,1.4202442169189453
2.4220032691955566,6.218623161315918,7.048261642456055,-0.49186867475509644,1.6746957302093506,1.6959887742996216
1.684838056564331,5.812182903289795,8.132087707519531,-0.3960501253604889,0.9155997037887573,2.128237009048462
2.6881139278411865,4.2598114013671875,7.652682781219482,-0.3683691918849945,1.3648823499679565,1.6118813753128052
2.7229831218719482,4.322032451629639,7.810049057006836,-0.8570439219474792,0.3162012994289398,0.6568895578384399
2.5423741340637207,4.5236334800720215,8.680868148803711,-1.0263234376907349,-0.42266637086868286,0.05855579674243927
3.429464101791382,4.642529487609863,8.167263984680176,0.42266637086868286,1.2520294189453125,-0.06600835174322128
1.5064988136291504,5.356738567352295,7.353809356689453,0.4950626492500305,1.167922019958496,-0.27893853187561035
1.3440569639205933,5.423259258270264,7.0394511222839355,0.05003859102725983,0.8208457827568054,-0.20973621308803558
1.253690242767334,5.361144542694092,7.227903366088867,-0.3193952441215515,0.5131617188453674,-0.09049531817436218
1.4241859912872314,5.3785834312438965,7.455256938934326,-0.50357985496521,0.6441137790679932,-0.06174974888563156
1.588964581489563,5.225316524505615,7.788874626159668,-0.5152910351753235,0.7186393141746521,0.0
1.6694194078445435,5.089067459106445,8.301520347595215,-0.5472305417060852,0.5408426523208618,-0.09049531817436218
1.1036887168884277,4.862499237060547,8.55271053314209,-0.5419072508811951,0.38008034229278564,-0.14159856736660004
0.42528682947158813,4.881661891937256,8.752358436584473,-0.43224823474884033,0.20547761023044586,-0.0351334773004055
0.9514749050140381,4.728203773498535,8.614174842834473,-0.25019294023513794,0.1714087873697281,0.07984881103038788
1.2648279666900635,4.551301002502441,8.600393295288086,-0.18631389737129211,0.21505947411060333,0.08623671531677246
1.755313754081726,4.349910259246826,8.656006813049316,-0.14585717022418976,0.20547761023044586,0.0010646508308127522
1.343664288520813,4.399977684020996,8.66586971282959,-0.17034412920475006,0.11498229205608368,-0.10965903848409653
0.7673608064651489,4.708494663238525,8.65302848815918,-0.15224507451057434,-0.017034413293004036,-0.12349949777126312
0.6488094925880432,4.613368034362793,8.705509185791016,0.01171115878969431,-0.2938436269760132,-0.013840461149811745
0.9503448605537415,4.306479454040527,8.873466491699219,0.1469218134880066,-0.4407654404640198,0.045779984444379807
2.0967462062835693,4.623921871185303,8.874740600585938,0.26829200983047485,-0.1682148277759552,-0.07878416031599045
1.3902076482772827,4.683959007263184,9.053223609924316,0.38753291964530945,-0.10433578491210938,-0.253386914730072
0.7034355998039246,4.842953205108643,9.056967735290527,0.5216789245605469,-0.5376486778259277,-0.3545287251472473
0.6679343581199646,4.9882330894470215,9.13908863067627,0.7058635354042053,-1.3478479385375977,-0.48867473006248474
0.9791710376739502,5.281072616577148,8.962703704833984,0.9155997037887573,-1.6214631795883179,-0.4247956871986389
1.8991574048995972,5.330623149871826,8.011697769165039,1.0635862350463867,-1.1168187856674194,-0.280003160238266
2.2062857151031494,5.238523006439209,7.682926177978516,1.1083015203475952,-0.9251815676689148,-0.3321710526943207
2.423008680343628,5.134461402893066,7.299077987670898,1.0454871654510498,-0.8655611276626587,-0.5578770637512207
2.2400341033935547,5.488046169281006,7.148205280303955,0.8432034850120544,-0.8676904439926147,-0.6483723521232605
1.9158402681350708,5.601589202880859,6.855193138122559,0.6345319151878357,-0.8368155360221863,-0.5855579376220703
2.0440833568573,5.754655361175537,6.711004734039307,0.45354124903678894,-0.7324797511100769,-0.5227435827255249
2.2405033111572266,5.659117221832275,6.9130754470825195,0.357722669839859,-0.6025923490524292,-0.5578770637512207
2.06203031539917,5.930782318115234,7.046873092651367,0.29277896881103516,-0.638790488243103,-0.5419072508811951
1.8868703842163086,6.043951511383057,6.966044902801514,0.1543743759393692,-0.7111867666244507,-0.3087487518787384
2.148135185241699,6.143521308898926,6.846765518188477,0.17353808879852295,-0.6089802980422974,-0.3130073547363281
2.3537204265594482,6.403800010681152,6.787159442901611,0.24061109125614166,-0.45779985189437866,-0.3609166443347931
2.534932851791382,6.954839706420898,6.15126895904541,0.4003087282180786,-0.019163714721798897,-0.23315852880477905
1.811941385269165,6.740252494812012,6.316737174987793,0.16395622491836548,0.5120970606803894,0.06068509817123413
1.5307568311691284,6.52263879776001,6.592137813568115,-0.14266321063041687,0.1192408949136734,0.11711159348487854
1.917908787727356,6.233246803283691,6.5661845207214355,-0.2693566679954529,-0.15543901920318604,0.12882275879383087
2.2824883460998535,6.351539611816406,7.0932440757751465,-0.2597748041152954,0.021293016150593758,-0.0031939526088535786
1.6395589113235474,6.273852348327637,8.013824462890625,-0.1543743759393692,-0.5461658835411072,-0.16182692348957062
2.5511367321014404,5.914952278137207,7.676146030426025,0.2949082851409912,-0.8687551021575928,-0.3758217394351959
2.8400306701660156,5.980179786682129,7.56573486328125,0.3758217394351959,-0.9507331848144531,-0.5482951998710632
2.5960423946380615,6.464900016784668,7.125718593597412,0.18844319880008698,-1.1892149448394775,-0.6717946529388428
2.5323760509490967,6.6769208908081055,7.311020374298096,0.05003859102725983,-1.2307363748550415,-0.5504244565963745
2.6142959594726562,6.506309986114502,7.375328540802002,0.17673203349113464,-1.0518749952316284,-0.4482180178165436
2.9631216526031494,6.368203163146973,7.371976852416992,0.3864682614803314,-0.813393235206604,-0.377951055765152
3.0483264923095703,6.031530380249023,6.841613292694092,0.4908040463924408,-0.48867473006248474,-0.46844637393951416
2.682971239089966,6.490996837615967,6.715908050537109,0.09581857919692993,-0.832556962966919,-0.5461658835411072
2.7783467769622803,6.775475978851318,6.81541109085083,-0.03619812801480293,-1.0784913301467896,-0.39392080903053284
3.0080080032348633,6.367321968078613,6.64493465423584,-0.03406882658600807,-1.0359052419662476,-0.31726595759391785
3.28047776222229,6.735415935516357,6.1277008056640625,0.13733996450901031,-0.5333900451660156,-0.20441296696662903
3.0788381099700928,6.515197277069092,5.694350242614746,-0.01171115878969431,-0.27467992901802063,-0.0841074138879776
3.0058627128601074,5.835129261016846,6.050894737243652,-0.40456733107566833,-0.4492826461791992,0.06813765317201614
3.5612313747406006,6.196557998657227,6.726595878601074,-0.679247260093689,-0.7527081370353699,-0.043650683015584946
3.335237741470337,6.3751654624938965,7.367935657501221,-0.5419072508811951,-0.6451784372329712,-0.018099064007401466
3.697413682937622,6.597069263458252,7.2280378341674805,-0.16927948594093323,-0.43011894822120667,0.06174974888563156
4.294460296630859,6.2951226234436035,6.422972679138184,-0.06920230388641357,-0.4407654404640198,-0.015969762578606606
3.8411996364593506,6.021685600280762,6.368288993835449,-0.13946926593780518,-0.281067818403244,-0.041521381586790085
4.16088342666626,6.840291500091553,6.309669494628906,-0.05429719388484955,0.5131617188453674,-0.09901253134012222
3.3897011280059814,7.043578624725342,6.956583023071289,-0.08517206460237503,0.2565808594226837,-0.03726277872920036
2.9908366203308105,6.875342845916748,7.088072299957275,0.039392080157995224,0.5216789245605469,0.1756673902273178
3.397324323654175,6.771338939666748,6.876405715942383,0.24061109125614166,0.8261690735816956,0.2310292273759842
3.66778302192688,6.5737786293029785,6.647453308105469,0.5025151968002319,1.3308135271072388,0.020228365436196327
2.7440712451934814,6.649224758148193,6.618119239807129,0.4450240433216095,1.2168959379196167,0.0351334773004055
2.216590404510498,6.465273380279541,6.498074054718018,0.31726595759391785,0.9603150486946106,0.12349949777126312
2.205146074295044,6.507679462432861,6.327913761138916,0.06494370102882385,0.661148190498352,0.2874557375907898
2.6706936359405518,6.178160667419434,6.305207252502441,-0.11498229205608368,0.49293333292007446,0.2938436269760132
2.9867377281188965,6.3117475509643555,6.4672369956970215,-0.1437278687953949,0.7303504943847656,0.21825341880321503
2.8482093811035156,6.61440372467041,6.80814266204834,0.0596204474568367,1.3787227869033813,0.19163715839385986
2.6069600582122803,6.5377888679504395,7.117588520050049,0.46418777108192444,2.0036728382110596,0.30342549085617065
2.0521180629730225,6.533134937286377,6.788337230682373,0.6164328455924988,2.376300573348999,0.3438822329044342
1.4412806034088135,6.301462173461914,6.740204811096191,0.140533909201622,1.2509647607803345,0.1437278687953949
0.9340259432792664,6.035457134246826,7.004055023193359,-0.4705756604671478,0.05110324174165726,0.13201670348644257
1.2901681661605835,5.919022083282471,7.396359443664551,-0.6675360798835754,-0.455670565366745,0.16927948594093323
1.6943286657333374,6.298895359039307,7.503791809082031,-0.3502701222896576,-0.27574455738067627,-0.020228365436196327
1.959242343902588,6.600114822387695,7.384848117828369,-0.03619812801480293,0.008517206646502018,-0.10114183276891708
1.8816605806350708,6.6171040534973145,7.1500725746154785,0.06813765317201614,0.13414600491523743,-0.18099063634872437
1.6885634660720825,6.497786521911621,7.09031343460083,0.047909289598464966,0.0734609067440033,-0.2139948159456253
1.0527209043502808,6.7632269859313965,7.071849346160889,-0.0947539210319519,-0.18737854063510895,-0.19376645982265472
0.834561288356781,6.798383712768555,7.2277021408081055,-0.2736152708530426,-0.4758989214897156,-0.06600835174322128
0.9658401608467102,6.7474541664123535,7.364363193511963,-0.3119426965713501,-0.5951398015022278,0.024486970156431198
1.8754452466964722,6.514881134033203,7.2465972900390625,-0.21612411737442017,-0.6132388710975647,0.12349949777126312
3.0538809299468994,6.545191764831543,6.929585933685303,-0.018099064007401466,-0.14585717022418976,0.043650683015584946
2.962815046310425,6.608849048614502,6.9593505859375,0.07133160531520844,0.21931807696819305,-0.006387905217707157
2.187687397003174,6.59751033782959,7.376851558685303,0.1362753063440323,0.3130073547363281,0.02555162087082863
1.50742769241333,6.60306453704834,7.446072578430176,0.1298874020576477,0.11711159348487854,0.20121900737285614
1.4844624996185303,6.1135077476501465,7.126705169677734,0.11711159348487854,0.03087487444281578,0.27574455738067627
2.5485031604766846,5.9938554763793945,6.683260917663574,0.15863297879695892,0.15969762206077576,0.19376645982265472
3.005431890487671,6.298732757568359,6.765678882598877,0.09155996888875961,0.435442179441452,-0.010646508075296879
2.7240939140319824,6.314036846160889,6.904303073883057,0.040456730872392654,0.4407654404640198,-0.06174974888563156
2.0653438568115234,6.055424213409424,7.2334771156311035,0.02661627158522606,0.3928561508655548,-0.07239625602960587
1.2042547464370728,5.971991062164307,6.985035419464111,0.06707300245761871,0.35665804147720337,-0.024486970156431198
1.6012133359909058,6.322023391723633,7.007110118865967,0.11498229205608368,0.5514891147613525,0.05003859102725983
1.7254915237426758,6.164609909057617,6.921435832977295,0.2246413230895996,0.6441137790679932,0.070266954600811
1.8813254833221436,6.22028923034668,7.0438947677612305,0.22677062451839447,0.6451784372329712,0.03726277872920036
1.7941477298736572,6.170691013336182,7.07180118560791,0.1714087873697281,0.5397779941558838,-0.020228365436196327
1.6645256280899048,6.394625663757324,7.21304988861084,0.05749114602804184,0.17247343063354492,-0.11072368919849396
1.1962677240371704,6.404345512390137,7.172741413116455,-0.03406882658600807,0.10646508634090424,-0.10433578491210938
1.4536826610565186,6.588048458099365,7.2450456619262695,-0.06174974888563156,0.09794788062572479,-0.06494370102882385
1.6567397117614746,6.535241603851318,7.437310218811035,-0.08197811245918274,-0.018099064007401466,-0.07452555745840073
1.9910660982131958,6.550670146942139,7.513023853302002,-0.1543743759393692,-0.26829200983047485,-0.1437278687953949
1.1106702089309692,6.555486679077148,7.543219566345215,-0.13946926593780518,-0.4663170576095581,-0.12882275879383087
1.3332256078720093,6.806006908416748,7.434762001037598,-0.06707300245761871,-0.34494686126708984,-0.020228365436196327
1.3548883199691772,6.723818302154541,7.33223295211792,-0.018099064007401466,-0.2065422683954239,0.013840461149811745
1.86530339717865,6.80098819732666,7.070230960845947,0.040456730872392654,0.10114183276891708,0.0734609067440033
1.8575844764709473,6.428124904632568,6.740788459777832,0.02874557301402092,0.12243484705686569,0.05855579674243927
1.5934369564056396,6.191051483154297,6.735454559326172,-0.3193952441215515,-0.32791244983673096,-0.05536184459924698
1.200117588043213,6.27787446975708,6.982679843902588,-0.5238082408905029,-0.47483426332473755,0.017034413293004036
1.422452688217163,6.148501396179199,7.37912130355835,-0.583428680896759,-0.35985198616981506,0.16395622491836548
1.8276091814041138,5.917288780212402,7.973313808441162,-0.506773829460144,-0.435442179441452,0.09794788062572479
1.8848304748535156,6.140629291534424,8.092267990112305,-0.11498229205608368,-0.3896622061729431,0.024486970156431198
1.8985540866851807,6.132709503173828,7.980965614318848,0.24699899554252625,-0.08091346174478531,-0.042586032301187515
1.7895125150680542,6.174751281738281,7.521576404571533,0.5419072508811951,-0.10007718205451965,-0.1650208830833435
2.1263861656188965,6.2146196365356445,6.958890914916992,0.5855579376220703,-0.02874557301402092,-0.2065422683954239
1.832273006439209,6.543525218963623,6.472647666931152,0.3502701222896576,-0.09688322991132736,-0.22144737839698792
1.327833890914917,6.2345871925354,6.280479431152344,0.07133160531520844,-0.18099063634872437,-0.07665485888719559
1.434366226196289,6.065240859985352,6.7690019607543945,-0.0947539210319519,-0.3193952441215515,-0.11285299062728882
1.931747317314148,6.454748630523682,7.136349201202393,-0.12456414848566055,-0.34175291657447815,-0.24274039268493652
1.9766433238983154,6.520962715148926,7.2923359870910645,-0.06281439960002899,-0.33536502718925476,-0.16715018451213837
1.9219406843185425,6.359449863433838,7.2514238357543945,0.005323254037648439,-0.28639107942581177,-0.03619812801480293
1.9877046346664429,6.207878112792969,7.272981643676758,0.06494370102882385,-0.2725506126880646,-0.05323254317045212
2.103459358215332,6.088512420654297,7.372647285461426,0.17034412920475006,-0.24061109125614166,-0.17992599308490753
1.8323112726211548,6.120872497558594,7.4815168380737305,0.21186551451683044,-0.456735223531723,-0.3438822329044342
2.7734146118164062,6.813495635986328,6.4783172607421875,-0.13733996450901031,-0.08091346174478531,0.045779984444379807
2.9668853282928467,6.527733325958252,7.129788875579834,0.047909289598464966,0.4801575243473053,0.14585717022418976
2.7656381130218506,6.83445930480957,6.98077392578125,0.2981022298336029,0.8879188299179077,0.1437278687953949
2.26122784614563,6.197754859924316,6.693134307861328,0.405631959438324,1.2605465650558472,0.2065422683954239
1.8441578149795532,6.249728679656982,6.780025005340576,-0.02768092229962349,0.9496685266494751,0.09262461960315704
1.351967453956604,6.052455425262451,7.170260906219482,-0.22889992594718933,0.5632002949714661,0.05110324174165726
1.3254684209823608,6.082268238067627,7.247076034545898,-0.2629687488079071,0.21825341880321503,0.02342231757938862
1.5392897129058838,6.188168525695801,7.225681781768799,-0.2352878302335739,0.12775810062885284,-0.01171115878969431
1.5333234071731567,6.316038131713867,7.291301727294922,-0.07239625602960587,0.3193952441215515,-0.06387905031442642
1.4307941198349,6.351922512054443,7.166497230529785,-0.03300417587161064,0.3119426965713501,-0.1192408949136734
1.316830039024353,6.439942836761475,6.8840484619140625,-0.08943066745996475,0.19483110308647156,-0.13521066308021545
1.2918634414672852,6.583671569824219,6.899868965148926,-0.20441296696662903,0.18418459594249725,-0.12137019634246826
1.1610345840454102,6.61031436920166,7.204631805419922,-0.26829200983047485,0.2310292273759842,-0.11391764134168625
0.9779739379882812,6.37874698638916,7.500382900238037,-0.2842617630958557,0.12775810062885284,-0.10114183276891708
1.2310889959335327,6.47477388381958,7.574957370758057,-0.24806363880634308,0.008517206646502018,-0.12349949777126312
1.0943992137908936,6.419956207275391,7.3838043212890625,0.015969762578606606,0.2736152708530426,-0.1543743759393692
0.7963497638702393,6.1242241859436035,7.429763317108154,0.10327113419771194,0.32791244983673096,-0.10114183276891708
0.8544618487358093,6.006554126739502,7.46657657623291,0.05110324174165726,-0.15543901920318604,-0.08304276317358017
0.9362190365791321,6.141586780548096,7.3015875816345215,0.0,-0.32791244983673096,-0.021293016150593758
1.0385950803756714,6.137478351593018,7.093301296234131,-0.08730136603116989,-0.281067818403244,0.070266954600811
1.1649419069290161,6.204746246337891,7.060070037841797,-0.22996458411216736,-0.203348308801651,0.09049531817436218
1.4994598627090454,6.238772392272949,7.434513092041016,-0.3332357108592987,-0.03726277872920036,0.11498229205608368
1.6408518552780151,5.848191738128662,7.80910062789917,-0.34175291657447815,-0.05536184459924698,0.13946926593780518
1.579521894454956,5.773703575134277,7.901057243347168,-0.2842617630958557,-0.23315852880477905,0.02874557301402092
1.1781866550445557,6.01237678527832,7.931501865386963,-0.12882275879383087,-0.10433578491210938,-0.06281439960002899
1.0541861057281494,6.125038146972656,8.08931827545166,0.1852492392063141,0.2672273516654968,-0.0021293016616255045
1.2450902462005615,5.839534759521484,8.118345260620117,0.46099382638931274,0.32791244983673096,0.08730136603116989
1.4062391519546509,5.657307147979736,7.741230010986328,0.5014505386352539,-0.03087487444281578,-0.05216789245605469
1.23727548122406,5.966264724731445,7.2882561683654785,0.37262779474258423,-0.3268478214740753,-0.2108008712530136
1.169366478919983,6.107407093048096,7.213442325592041,0.30661943554878235,-0.3822096586227417,-0.23635248839855194
1.2586030960083008,6.272904396057129,7.077432632446289,0.253386914730072,-0.3758217394351959,-0.24593433737754822
1.326339840888977,6.362380504608154,7.090658187866211,0.24380503594875336,-0.3321710526943207,-0.24380503594875336
1.3194254636764526,6.442423343658447,7.06911039352417,0.2629687488079071,-0.30661943554878235,-0.23209388554096222
1.2734758853912354,6.540030479431152,6.943749904632568,0.2384817898273468,-0.2874557375907898,-0.203348308801651
1.340101718902588,6.502383708953857,6.905567169189453,0.19696040451526642,-0.2704213261604309,-0.16395622491836548
1.2758604288101196,6.49959659576416,6.953116416931152,0.1362753063440323,-0.23635248839855194,-0.1927018016576767
1.1827644109725952,6.5593180656433105,7.002627849578857,0.11391764134168625,-0.16927948594093323,-0.13733996450901031
1.2913366556167603,6.432051658630371,6.969291687011719,0.11817624419927597,-0.1575683206319809,-0.07771950960159302
1.5020169019699097,6.3565673828125,6.790722370147705,0.09155996888875961,-0.16182692348957062,-0.08197811245918274
1.51675546169281,6.440000534057617,6.811015605926514,0.043650683015584946,-0.18631389737129211,-0.11498229205608368
1.4191774129867554,6.45885705947876,6.856064796447754,0.0,-0.20121900737285614,-0.12137019634246826
1.5480141639709473,6.39946174621582,6.888405799865723,-0.01171115878969431,-0.18631389737129211,-0.09688322991132736
1.594681978225708,6.354010105133057,6.913487434387207,-0.038327429443597794,-0.15969762206077576,-0.11178833991289139
1.340647578239441,6.374543190002441,7.062483310699463,-0.08197811245918274,-0.21186551451683044,-0.12243484705686569
1.1941320896148682,6.49722146987915,7.142909049987793,-0.11391764134168625,-0.2778738737106323,-0.0734609067440033
1.5409369468688965,6.422656536102295,6.987391471862793,-0.140533909201622,-0.32365384697914124,-0.03406882658600807
2.1544559001922607,6.755517959594727,6.867738723754883,0.05855579674243927,0.070266954600811,0.0351334773004055
1.5042481422424316,6.755948543548584,6.838376522064209,-0.0021293016616255045,0.28639107942581177,-0.02661627158522606
0.8418875336647034,7.1132402420043945,6.8288092613220215,-0.16182692348957062,0.17673203349113464,0.17779669165611267
1.3544957637786865,7.158663272857666,6.699120044708252,-0.2171887755393982,0.5195496082305908,0.5429719090461731
2.0050768852233887,6.86134147644043,6.6518874168396,-0.18844319880008698,1.0987197160720825,0.7271565198898315
1.6376721858978271,6.978264808654785,6.460475444793701,-0.3268478214740753,1.7438980340957642,0.8261690735816956
0.8928744792938232,6.735157489776611,6.265261650085449,-0.582364022731781,2.2347021102905273,1.0838145017623901
0.12626062333583832,6.142104148864746,6.296568393707275,-0.8559792637825012,2.526416540145874,1.342524766921997
0.21119733154773712,4.916483402252197,8.247584342956543,-1.3925633430480957,0.8038113713264465,0.14266321063041687
-0.16860924661159515,5.015642166137695,9.0584716796875,-1.2594819068908691,0.012775810435414314,0.008517206646502018
-0.3328802287578583,5.154361724853516,9.346906661987305,-0.8559792637825012,-0.4908040463924408,-0.0074525559321045876
0.3856484293937683,5.177671909332275,8.76694393157959,0.1543743759393692,-0.15969762206077576,0.19908970594406128
1.2089760303497314,4.973140239715576,8.365379333496094,0.32152456045150757,0.5781053900718689,0.10965903848409653
0.8718054890632629,4.908046245574951,8.365954399108887,0.06281439960002899,-0.01171115878969431,-0.11285299062728882
0.5313020348548889,5.145359992980957,8.48969554901123,-0.08730136603116989,-0.39817941188812256,-0.19589576125144958
-0.5033090710639954,5.980802059173584,8.631115913391113,-0.23422318696975708,-0.8570439219474792,-0.24274039268493652
-0.8688557744026184,5.741669178009033,8.758622169494629,-0.126693457365036,-0.9581857323646545,-0.08091346174478531
0.5043721199035645,5.467657566070557,8.799169540405273,0.10220648348331451,-0.7441909313201904,-0.05642649531364441
1.3677594661712646,5.480615139007568,8.954141616821289,0.27893853187561035,-0.6324025988578796,-0.18844319880008698
1.549125075340271,5.445937633514404,8.86819076538086,0.34494686126708984,-0.7995527982711792,-0.3885975480079651
1.0013221502304077,5.455408573150635,8.556992530822754,0.4162784814834595,-1.0731680393218994,-0.7537727952003479
0.25205197930336,5.364256858825684,7.85537576675415,0.4109552204608917,-1.3308135271072388,-0.9081471562385559
0.6857089400291443,5.143597602844238,7.763725757598877,0.30342549085617065,-1.0220648050308228,-0.4386361539363861
0.9901460409164429,4.6679463386535645,8.249814987182617,0.44715335965156555,-1.1264005899429321,-0.3790156841278076
1.2255152463912964,4.79740571975708,8.262371063232422,0.5919458866119385,-1.3318781852722168,-0.4695110321044922
1.8036096096038818,5.431189060211182,7.660248756408691,0.6813765168190002,-1.2871628999710083,-0.5983337759971619
1.9656778573989868,5.562075138092041,7.147841453552246,0.6302732825279236,-0.8197811245918274,-0.45034730434417725
2.102003574371338,5.498523235321045,6.96199369430542,0.5195496082305908,-0.637725830078125,-0.38433894515037537
1.7454017400741577,5.596456050872803,6.836815357208252,0.3193952441215515,-0.6824411749839783,-0.4514119625091553
1.6797144412994385,5.851869583129883,6.748651504516602,0.05216789245605469,-0.813393235206604,-0.36623987555503845
2.0022709369659424,5.966341018676758,6.883214950561523,-0.11711159348487854,-0.7612253427505493,-0.2938436269760132
1.6823863983154297,6.243579864501953,7.043722152709961,-0.10965903848409653,-0.5174202919006348,-0.02661627158522606
1.64512300491333,6.283936500549316,7.266622543334961,-0.038327429443597794,-0.1852492392063141,0.02981022372841835
2.082246780395508,5.680300712585449,7.5113959312438965,0.07771950960159302,-0.20760691165924072,0.047909289598464966
2.776622772216797,5.685577869415283,6.879691123962402,-0.2565808594226837,-0.6696653962135315,-0.13840460777282715
2.563596248626709,6.242631912231445,7.422638416290283,0.20760691165924072,0.17034412920475006,-0.044715333729982376
1.9523087739944458,6.123937129974365,7.54915714263916,0.2970375716686249,0.4620584547519684,-0.06068509817123413
1.8309322595596313,6.180248737335205,7.541687488555908,0.2768092155456543,0.3641105890274048,0.024486970156431198
2.1991031169891357,6.183868885040283,7.265118598937988,0.19589576125144958,0.25019294023513794,0.18631389737129211
2.559727191925049,5.861149311065674,7.283602237701416,0.10114183276891708,0.23422318696975708,0.13414600491523743
2.207674264907837,5.917940139770508,7.766531944274902,0.21505947411060333,0.005323254037648439,-0.2565808594226837
1.6893582344055176,6.176102161407471,7.919549942016602,0.23635248839855194,-0.11391764134168625,-0.33110642433166504
1.9579781293869019,5.948949813842773,7.40225887298584,0.28639107942581177,-0.6441137790679932,-0.48867473006248474
1.98892080783844,6.3507537841796875,6.836690902709961,0.20867156982421875,-0.6334672570228577,-0.5781053900718689
1.887282133102417,6.498112201690674,6.679928302764893,0.06707300245761871,-0.6238853931427002,-0.50357985496521
2.0682742595672607,6.219369411468506,6.753793716430664,-0.021293016150593758,-0.504644513130188,-0.4247956871986389
1.8245636224746704,6.512535095214844,6.752711772918701,-0.08623671531677246,-0.4386361539363861,-0.4141491651535034
2.5092382431030273,6.29058313369751,6.747300624847412,0.5578770637512207,0.5972691178321838,-0.12349949777126312
2.0891804695129395,6.426190376281738,6.559978485107422,0.28213247656822205,0.16608552634716034,-0.2108008712530136
1.4527825117111206,6.530693054199219,6.640931129455566,0.0596204474568367,0.13095206022262573,-0.140533909201622
1.0133697986602783,6.334779739379883,7.110884189605713,-0.10646508634090424,-0.08623671531677246,0.02981022372841835
2.0949456691741943,6.35296630859375,7.315435409545898,-0.03300417587161064,-0.3513347804546356,-0.03726277872920036
2.770627737045288,6.3993754386901855,7.373365879058838,-0.08517206460237503,-0.4758989214897156,-0.44395941495895386
1.9378668069839478,6.311201572418213,7.9166765213012695,-0.15224507451057434,-0.6345319151878357,-0.5493598580360413
2.0333092212677,6.222644805908203,7.783751010894775,0.02555162087082863,-0.7069281339645386,-0.4599291682243347
2.7647476196289062,6.398599624633789,6.897436618804932,0.16182692348957062,-0.5546830892562866,-0.4588645100593567
2.993298053741455,6.922317028045654,5.890751361846924,0.2587101459503174,0.02768092229962349,-0.43970078229904175
2.5389645099639893,6.79210090637207,5.96135139465332,0.25125759840011597,0.6068509817123413,-0.32471850514411926
1.0406157970428467,7.109859943389893,6.263739109039307,-0.03193952515721321,0.4098905622959137,-0.05003859102725983
1.6882665157318115,7.611674785614014,6.16929292678833,0.18418459594249725,1.1285299062728882,0.912405788898468
2.1052215099334717,7.801056385040283,5.995512008666992,0.3534640669822693,1.666178584098816,1.2073140144348145
1.6695725917816162,7.679612636566162,6.030515193939209,0.47164031863212585,2.689307928085327,1.8950785398483276
0.6329407095909119,6.860326290130615,6.474668502807617,0.21612411737442017,2.87349271774292,2.356072425842285
0.9081685543060303,6.089939594268799,5.672160625457764,-0.25019294023513794,2.774480104446411,2.5051233768463135
1.527471899986267,5.729526042938232,5.184155464172363,-0.9038885831832886,2.9778285026550293,2.152724027633667
1.6186431646347046,4.735548973083496,5.8863654136657715,-1.5469377040863037,2.8947856426239014,1.3883047103881836
1.3941437005996704,4.619746208190918,7.062397003173828,-1.954698920249939,2.031353712081909,0.3396236300468445
0.16001886129379272,4.868465423583984,8.011553764343262,-2.031353712081909,1.3606237173080444,-0.06387905031442642
-1.054023265838623,4.79860258102417,9.05136489868164,-1.6565966606140137,0.9730908870697021,0.2171887755393982
-0.4868752658367157,5.050070285797119,9.840829849243164,-0.8943067193031311,0.9581857323646545,0.3885975480079651
-0.17723795771598816,5.05239725112915,9.994470596313477,-0.4705756604671478,1.0497456789016724,0.330041766166687
-0.01563892513513565,4.986949920654297,9.74655532836914,0.18844319880008698,1.008224368095398,0.07878416031599045
-0.48711472749710083,5.495641231536865,8.627744674682617,0.3545287251472473,0.280003160238266,-0.06600835174322128
-0.49655744433403015,5.726240634918213,7.942477226257324,0.039392080157995224,-0.08517206460237503,0.0021293016616255045
-0.26733654737472534,5.449069023132324,8.170117378234863,0.07452555745840073,-0.580234706401825,0.11391764134168625
0.3994007408618927,5.9291253089904785,8.094346046447754,-0.15330971777439117,0.05216789245605469,0.09794788062572479
0.1311926692724228,5.501980781555176,8.552902221679688,-0.3651752471923828,-0.21505947411060333,0.0596204474568367
0.48622405529022217,5.094956874847412,9.082806587219238,-0.4737696349620819,-0.4695110321044922,-0.004258603323251009
0.5007903575897217,4.881633758544922,8.852272987365723,0.18631389737129211,-0.005323254037648439,-0.07878416031599045
0.02772485464811325,4.936163902282715,8.08865737915039,0.4343775510787964,0.5163556337356567,0.015969762578606606
-0.12341630458831787,4.9306960105896,8.147956848144531,0.2171887755393982,0.5685235261917114,0.10114183276891708
0.054424989968538284,4.638325214385986,8.287347793579102,0.08730136603116989,-0.16182692348957062,0.07878416031599045
0.3982323706150055,4.827831268310547,8.028553009033203,-0.0351334773004055,-0.8080700039863586,-0.06494370102882385
0.28966009616851807,5.035619258880615,7.880744457244873,0.045779984444379807,-0.7218332886695862,-0.08517206460237503
0.7196874618530273,4.989765167236328,8.021160125732422,0.2778738737106323,-0.1895078420639038,-0.02874557301402092
0.8354614973068237,4.966129779815674,8.146577835083008,0.4109552204608917,-0.03619812801480293,-0.06813765317201614
0.7162014842033386,4.7035813331604,7.92924165725708,0.5993984341621399,-0.3960501253604889,-0.10752973705530167
0.9246790409088135,5.276820182800293,7.406865119934082,0.4620584547519684,-0.3928561508655548,-0.17034412920475006
0.25388115644454956,5.3834967613220215,7.260081768035889,0.14585717022418976,-0.33430036902427673,-0.19589576125144958
0.023999476805329323,5.834066390991211,7.314487457275391,0.05216789245605469,-0.36943385004997253,-0.14905111491680145
-0.06637685000896454,5.597949981689453,7.465991973876953,0.09368927031755447,-0.377951055765152,-0.08943066745996475
0.271148145198822,5.60404109954834,8.04695987701416,0.2693566679954529,-0.34175291657447815,-0.06600835174322128
0.2961244583129883,5.634428024291992,8.55591869354248,0.46418777108192444,-0.6121742129325867,-0.12456414848566055
0.3163411021232605,5.689437389373779,8.346492767333984,0.6462430357933044,-0.989060640335083,-0.1852492392063141
0.8112321496009827,5.709261417388916,7.649168014526367,0.7111867666244507,-1.0923317670822144,-0.35985198616981506
1.1444092988967896,5.779238700866699,7.433507919311523,0.6675360798835754,-0.9922545552253723,-0.4514119625091553
0.9493009448051453,5.740156173706055,7.4707231521606445,0.6281439661979675,-1.1519522666931152,-0.5855579376220703
0.7605516910552979,5.9213972091674805,7.52719783782959,0.560006320476532,-1.182827115058899,-0.638790488243103
1.212663173675537,6.031673908233643,7.734027862548828,0.5738468170166016,-1.1700512170791626,-0.5653296113014221
1.9276963472366333,5.909445285797119,7.932019233703613,0.7729365229606628,-0.8751429915428162,-0.560006320476532
1.7406517267227173,5.88761043548584,7.679775238037109,0.9975778460502625,-0.7069281339645386,-0.7527081370353699
1.342151165008545,6.2041144371032715,7.237844467163086,0.9432806372642517,-0.9251815676689148,-0.913470447063446
1.4191774129867554,6.8834547996521,6.770074844360352,0.6930876970291138,-0.986931324005127,-0.7431262731552124
1.6870503425598145,6.664097785949707,6.723310947418213,0.581299364566803,-0.8219104409217834,-0.5163556337356567
1.8684637546539307,6.547701358795166,6.702107906341553,0.582364022731781,-0.7122514247894287,-0.5291314721107483
1.9817572832107544,6.745347023010254,6.638805389404297,0.5387133359909058,-0.6803118586540222,-0.660083532333374
1.886391520500183,6.952780723571777,6.579955577850342,0.4663170576095581,-0.6952170133590698,-0.6717946529388428
1.6380553245544434,7.157322406768799,6.574516296386719,0.3609166443347931,-0.5972691178321838,-0.5930105447769165
1.5686713457107544,7.03390645980835,6.534303188323975,0.43011894822120667,-0.3832743167877197,-0.4343775510787964
1.6361973285675049,6.936653137207031,6.495593547821045,0.4663170576095581,-0.31087803840637207,-0.4141491651535034
1.6966079473495483,6.855863571166992,6.438085079193115,0.4216017425060272,-0.4514119625091553,-0.4801575243473053
1.5144283771514893,7.1853532791137695,6.1502251625061035,0.26403340697288513,-0.6430491209030151,-0.43650683760643005
1.5775011777877808,7.273134708404541,5.934986591339111,0.2065422683954239,-0.49293333292007446,-0.330041766166687
1.6788238286972046,7.1498236656188965,5.919654369354248,0.22357667982578278,-0.35239943861961365,-0.30661943554878235
1.6054846048355103,6.9964799880981445,6.024232864379883,0.16395622491836548,-0.3832743167877197,-0.3193952441215515
1.4672720432281494,7.265444278717041,6.235957145690918,0.013840461149811745,-0.5887519121170044,-0.27467992901802063
1.9089161157608032,7.204535961151123,6.236110210418701,-0.07665485888719559,-0.5993984341621399,-0.07771950960159302
1.8232420682907104,7.095092296600342,6.435566425323486,-0.14266321063041687,-0.6803118586540222,-0.10327113419771194
1.9142025709152222,7.13316011428833,6.3172831535339355,-0.2139948159456253,-0.679247260093689,-0.10433578491210938
2.3279781341552734,7.248684883117676,6.394740104675293,-0.08517206460237503,-0.6707300543785095,-0.09368927031755447
3.0683417320251465,7.259334564208984,5.885982036590576,0.28958502411842346,0.281067818403244,-0.10327113419771194
2.053363084793091,7.277741432189941,6.024702072143555,0.1682148277759552,0.1575683206319809,-0.21931807696819305
1.5091131925582886,7.388008117675781,5.962261199951172,0.07559020817279816,0.015969762578606606,-0.13840460777282715
1.1854170560836792,7.749743461608887,5.757078170776367,-0.03300417587161064,0.06494370102882385,0.10965903848409653
1.319645643234253,7.7621355056762695,5.671921253204346,-0.02661627158522606,0.24486969411373138,0.2352878302335739
2.1670591831207275,7.789477348327637,5.639235973358154,0.09794788062572479,0.8272337317466736,0.3396236300468445
2.318190574645996,7.662661552429199,5.993538856506348,0.26509806513786316,1.297809362411499,0.36943385004997253
1.6154636144638062,7.320769309997559,6.195916652679443,0.3704984784126282,1.433019995689392,0.43011894822120667
0.9735302925109863,6.8259358406066895,6.323029518127441,0.14479251205921173,0.7633546590805054,0.4663170576095581
1.4249234199523926,6.55370569229126,6.025439262390137,-0.22144737839698792,-0.0351334773004055,0.2672273516654968
2.0890369415283203,6.846277236938477,6.003556728363037,-0.28958502411842346,0.10007718205451965,-0.04684463515877724
1.6705399751663208,7.344069957733154,6.658447265625,-0.06068509817123413,0.456735223531723,-0.1192408949136734
1.2260420322418213,7.0214080810546875,6.988473415374756,0.253386914730072,0.5120970606803894,-0.08091346174478531
0.9750146865844727,6.733213424682617,6.5026326179504395,0.377951055765152,0.23209388554096222,-0.10327113419771194
1.0722001791000366,7.295554161071777,5.867278575897217,0.23422318696975708,-0.1511804163455963,-0.24274039268493652
0.8684439659118652,7.721492290496826,5.684562683105469,0.047909289598464966,-0.1543743759393692,-0.2278352826833725
1.004970908164978,7.637148857116699,5.83734130859375,-0.013840461149811745,-0.09901253134012222,-0.06707300245761871
1.8016176223754883,7.361691474914551,6.526497840881348,-0.06920230388641357,-0.4269249737262726,-0.06387905031442642
1.8555828332901,7.292000770568848,6.412476539611816,0.0010646508308127522,-0.32045990228652954,-0.07452555745840073
2.1355035305023193,7.8641862869262695,5.6357879638671875,0.12882275879383087,-0.09794788062572479,-0.0596204474568367
1.6610397100448608,7.339099407196045,5.939526081085205,0.07665485888719559,0.3332357108592987,0.0351334773004055
1.5491538047790527,7.154717445373535,6.143885135650635,0.038327429443597794,0.17992599308490753,0.05216789245605469
1.7120457887649536,7.248483657836914,5.806102275848389,-0.015969762578606606,0.07239625602960587,0.08517206460237503
1.8754165172576904,7.228477954864502,5.715447902679443,-0.03087487444281578,0.405631959438324,0.09049531817436218
