accX,accY,accZ,gyroX,gyroY,gyroZ
-0.839110255241394,5.032793998718262,7.605727672576904,-0.5828352570533752,-0.18961256742477417,0.5748940110206604
-0.5805747509002686,4.871865272521973,7.805566787719727,-0.5285555124282837,-0.06291911751031876,0.5557302832603455
-0.4100213944911957,4.32624626159668,8.111871719360352,-0.25385814905166626,0.05204571783542633,0.4513944983482361
-0.3700574040412903,4.548130989074707,8.016016960144043,-0.1517738252878189,0.12578587234020233,0.402647465467453
-0.3703734278678894,4.6002960205078125,8.044488906860352,-0.12374384701251984,0.1555437445640564,0.38580504059791565
-0.3649721145629883,4.429886341094971,7.977997303009033,-0.11431906372308731,0.16603317856788635,0.33456215262413025
-0.43940305709838867,4.222098350524902,8.098779678344727,-0.08594001084566116,0.20603612065315247,0.2575233280658722
-0.6719375252723694,4.659193515777588,8.391456604003906,0.250576913356781,0.278798907995224,0.14236651360988617
-0.7253952026367188,4.931404113769531,8.245736122131348,0.24954716861248016,0.10892599821090698,0.06932447850704193
-0.9224188923835754,4.99501371383667,7.859771251678467,0.12074187397956848,-0.01869247667491436,0.01392772700637579
-0.8162887096405029,5.526852130889893,8.611196517944336,0.19322539865970612,0.24289746582508087,-0.06792821735143661
-0.9411128163337708,5.750767230987549,8.393678665161133,0.31145399808883667,0.31925562024116516,-0.090425506234169
-1.3597438335418701,5.211851596832275,8.03699016571045,0.2283763289451599,0.4198912978172302,-0.07496189326047897
-1.4279115200042725,4.835483074188232,8.65699291229248,-0.0337023064494133,0.3934321105480194,-0.07358308136463165
-1.064059853553772,4.924585342407227,9.396820068359375,-0.17027431726455688,0.167062908411026,-0.07571238279342651
-0.5034431219100952,4.745269298553467,9.488968849182129,-0.14234904944896698,0.058276545256376266,-0.09386380761861801
-0.28046637773513794,4.612133026123047,9.433662414550781,-0.09789551794528961,0.09583602845668793,-0.1799958050251007
-0.48222094774246216,4.640546798706055,9.613984107971191,-0.09138543903827667,0.10566223412752151,-0.2185850292444229
-0.5910804867744446,4.627378940582275,10.185748100280762,-0.06551966071128845,-0.07888887822628021,-0.22762584686279297
-1.0185987949371338,4.904761791229248,7.430883884429932,-0.05902703478932381,-0.46214574575424194,-0.21210986375808716
-0.1989773064851761,5.074405193328857,7.963871479034424,-0.020298179239034653,-0.025761060416698456,-0.09731955826282501
-0.16259503364562988,4.184595108032227,8.79529094696045,-0.09412560611963272,0.01607448235154152,-0.16144295036792755
0.04064396768808365,4.45365571975708,8.420072555541992,-0.09529497474431992,-0.27518606185913086,-0.08038986474275589
0.5789563059806824,4.05618953704834,8.097869873046875,-0.03923500329256058,-0.2952922582626343,-0.02675589732825756
0.8566932082176208,3.9809348583221436,8.101940155029297,-0.07618362456560135,-0.23685863614082336,-0.009948376566171646
0.9791327714920044,3.8967549800872803,8.426709175109863,-0.055833082646131516,-0.2174505740404129,-0.045029494911432266
0.9311338067054749,4.005566596984863,8.51858901977539,-0.051399946212768555,-0.2609267234802246,-0.08288568258285522
1.005622148513794,4.029910564422607,8.35964298248291,-0.09681341052055359,-0.3188716471195221,-0.10667452216148376
1.1238957643508911,3.980848550796509,8.440299034118652,-0.15950563549995422,-0.3174753785133362,-0.1347568780183792
1.1676808595657349,3.9851486682891846,8.61377239227295,-0.20980602502822876,-0.37374481558799744,-0.19401079416275024
1.1700847148895264,4.088788986206055,8.651313781738281,-0.21352358162403107,-0.4129972457885742,-0.2497217059135437
1.252004623413086,4.104983329772949,8.607576370239258,-0.16006414592266083,-0.38238418102264404,-0.2969154119491577
1.421485424041748,4.048460960388184,8.480751037597656,-0.0449422262609005,-0.27063074707984924,-0.349624365568161
0.8940811157226562,4.492068290710449,8.045552253723145,0.07614871859550476,-0.11295770853757858,-0.540929913520813
0.7027652859687805,4.41318416595459,8.030803680419922,0.007400196045637131,-0.15720181167125702,-0.5461833477020264
0.5589024424552917,4.357964515686035,8.116669654846191,-0.013055062852799892,-0.20174260437488556,-0.5567076802253723
0.04469495639204979,5.1887617111206055,7.872393608093262,0.04427900165319443,0.16399113833904266,-0.3056071400642395
0.45004287362098694,4.563722133636475,8.8316068649292,-0.1713738739490509,-0.20381954312324524,-0.37318629026412964
0.41881293058395386,4.885024070739746,8.84636402130127,-0.3242996335029602,-0.5717698335647583,-0.48401471972465515
0.6109044551849365,4.981098175048828,8.88447093963623,-0.26164230704307556,-0.5682442784309387,-0.5137725472450256
0.5517677068710327,4.994745254516602,8.899803161621094,-0.1857553869485855,-0.5143136382102966,-0.5191481709480286
0.42435789108276367,5.082900047302246,8.777219772338867,-0.030281461775302887,-0.3698701858520508,-0.49239230155944824
0.35344162583351135,5.188962936401367,8.812356948852539,0.08101818710565567,-0.2203129082918167,-0.41123446822166443
0.40749314427375793,5.159217357635498,8.934940338134766,0.1356469839811325,-0.17011724412441254,-0.36533230543136597
0.6935714483261108,5.198367118835449,9.155531883239746,0.2102947235107422,-0.1754230409860611,-0.3081553280353546
0.8234137892723083,5.24880838394165,8.875669479370117,0.179734006524086,-0.2502627670764923,-0.30834731459617615
0.04653370380401611,5.6077375411987305,8.067463874816895,0.15568336844444275,0.1085943877696991,-0.29628708958625793
-0.18999426066875458,4.887264728546143,9.339628219604492,-0.0019198621157556772,-0.05539675056934357,-0.26139795780181885
0.26963502168655396,4.521574020385742,10.076179504394531,-0.1941678822040558,-0.6840468645095825,-0.3289596438407898
0.6010020971298218,4.139766216278076,9.36434555053711,-0.18336428701877594,-0.8635714650154114,-0.44057345390319824
0.5934555530548096,4.470836639404297,8.950148582458496,-0.053302355110645294,-0.6974859237670898,-0.4901582598686218
0.14687947928905487,4.674707412719727,8.683558464050293,0.02298598550260067,-0.427448570728302,-0.4210257828235626
-0.07624095678329468,4.581563472747803,8.714980125427246,0.06091199070215225,-0.24996605515480042,-0.3018198013305664
0.008226476609706879,4.250426292419434,8.854667663574219,0.08604472875595093,-0.18905405700206757,-0.20807814598083496
-0.014317326247692108,3.7438323497772217,8.83561897277832,0.08777260780334473,-0.2344849854707718,-0.19898498058319092
-0.09678321331739426,3.369896173477173,8.91096019744873,0.05349434167146683,-0.32183870673179626,-0.26747170090675354
-0.3773740828037262,3.2900354862213135,8.752340316772461,0.036582101136446,-0.3865380585193634,-0.3536560535430908
-0.8193820118904114,3.716050148010254,8.586211204528809,0.05909684672951698,-0.36646679043769836,-0.37720054388046265
-0.780672550201416,3.8232815265655518,8.49848747253418,0.11716394871473312,-0.319168359041214,-0.3177546560764313
-0.4409257471561432,3.7889678478240967,8.25741958618164,0.1411447823047638,-0.23048818111419678,-0.2811201810836792
-0.21760420501232147,3.6666910648345947,8.098779678344727,0.12852604687213898,-0.16805775463581085,-0.32562607526779175
-0.1781860589981079,3.9299097061157227,7.854629039764404,0.07606144994497299,-0.0677013248205185,-0.38376298546791077
-0.3608061969280243,4.262282371520996,8.12048053741455,0.009599311277270317,-0.04771730303764343,-0.39884263277053833
-0.42129331827163696,4.430068016052246,8.441667556762695,-0.08911651372909546,-0.20991075038909912,-0.39507272839546204
-0.2784169316291809,4.450514793395996,8.06619930267334,-0.16756905615329742,-0.338716059923172,-0.3822445571422577
-0.04054819792509079,4.45118522644043,7.999382495880127,-0.19882790744304657,-0.2685014605522156,-0.38121482729911804
-0.057499147951602936,4.470836639404297,8.28164005279541,-0.15617206692695618,-0.17935003340244293,-0.4076216518878937
-0.44417229294776917,4.6352128982543945,8.011822700500488,0.040456730872392654,0.05976007506251335,-0.36215582489967346
-0.42654141783714294,4.7164812088012695,8.182835578918457,0.05801474303007126,0.1460666060447693,-0.30455994606018066
-0.3889428377151489,4.727485179901123,8.286504745483398,0.06672393530607224,0.1290670931339264,-0.32791244983673096
-0.3634972870349884,4.770944595336914,8.299012184143066,0.06377433240413666,0.09175195544958115,-0.3615100383758545
-0.419014036655426,4.808591365814209,8.328977584838867,0.029077185317873955,0.006492624990642071,-0.3951425552368164
-0.47571828961372375,4.708466053009033,8.459012031555176,-0.04658283665776253,-0.0630761981010437,-0.4234517812728882
-0.4793287515640259,4.576458930969238,8.783904075622559,-0.0587652362883091,-0.15683528780937195,-0.45429176092147827
-0.6507152915000916,4.603590488433838,9.369440078735352,0.016091935336589813,-0.26808255910873413,-0.7884175777435303
-0.816394031047821,5.046115398406982,9.30056381225586,-0.0016406094655394554,-0.45835837721824646,-0.7203671932220459
-0.7177242040634155,4.975179672241211,7.58446741104126,-0.06141813471913338,-0.4868421256542206,-0.5661848187446594
0.25829604268074036,4.732551097869873,8.321805000305176,-0.2580294609069824,-0.20872391760349274,-0.47546258568763733
-0.04575798287987709,4.003469467163086,9.096108436584473,-0.4029267132282257,-0.18999654054641724,-0.4985358417034149
-0.04391923546791077,3.8369572162628174,9.83629035949707,-0.38667768239974976,-0.29160961508750916,-0.48832565546035767
0.10663773864507675,3.267242670059204,9.713190078735352,-0.1814793348312378,-0.5134932994842529,-0.4674340784549713
0.46802812814712524,3.115191698074341,8.86005973815918,-0.0990997925400734,-0.49954813718795776,-0.4968079626560211
0.3424474596977234,3.599088430404663,8.713889122009277,0.03548254445195198,-0.3092897832393646,-0.5840744376182556
0.5275862812995911,3.7069616317749023,8.466222763061523,-0.00013962633966002613,-0.35358625650405884,-0.5449092388153076
0.8019235134124756,3.6427109241485596,8.687820434570312,-0.03981095924973488,-0.2554114758968353,-0.5269498229026794
0.662140429019928,3.617227077484131,8.926033973693848,-0.021903881803154945,-0.2957285940647125,-0.5223770141601562
0.43183737993240356,3.5771384239196777,9.348151206970215,-0.08852309733629227,-0.4305552840232849,-0.5775294303894043
0.4990091025829315,3.7512927055358887,9.147775650024414,-0.012095131911337376,-0.46352455019950867,-0.5966233611106873
0.5226829648017883,3.9373891353607178,8.959197998046875,0.0576133169233799,-0.4308345317840576,-0.5999394655227661
0.6212761998176575,4.026740550994873,8.670687675476074,0.1298874020576477,-0.32991957664489746,-0.5793445706367493
0.7781538963317871,4.070209980010986,8.431142807006836,0.16711527109146118,-0.18765780329704285,-0.5683664679527283
0.8719778656959534,4.113544940948486,8.443344116210938,0.14906856417655945,-0.13955652713775635,-0.582364022731781
0.7680503726005554,4.166466236114502,8.465533256530762,0.07466518878936768,-0.22540926933288574,-0.6170611381530762
0.5826816558837891,4.4369635581970215,8.436103820800781,-0.031066861003637314,-0.33737215399742126,-0.6294704675674438
0.5109896659851074,4.479570388793945,8.429495811462402,-0.07677703350782394,-0.3759264647960663,-0.6164153814315796
0.38305312395095825,4.272347450256348,8.218940734863281,-0.08222246170043945,-0.36102133989334106,-0.578873336315155
0.25517401099205017,4.502593040466309,7.933426856994629,-0.023858651518821716,-0.13240067660808563,-0.5065294504165649
0.485314279794693,4.209447383880615,8.899017333984375,-0.016929693520069122,-0.1783028393983841,-0.47598618268966675
0.49053362011909485,4.082305431365967,8.733109474182129,-0.0077841682359576225,-0.2964092791080475,-0.5032656788825989
0.5750297904014587,4.305416584014893,8.54982852935791,0.0154810706153512,-0.2750289738178253,-0.5146103501319885
0.5173007845878601,4.375144958496094,8.430548667907715,0.0544368177652359,-0.2042209804058075,-0.4961971044540405
0.5014799237251282,4.440056800842285,8.41808032989502,0.06515314429998398,-0.15343189239501953,-0.4780980348587036
0.4382059574127197,4.502229690551758,8.394770622253418,0.0426209419965744,-0.15968017280101776,-0.4525115191936493
0.6765822768211365,4.226263999938965,8.355170249938965,-0.05907939374446869,-0.19191640615463257,-0.4522322714328766
0.6300198435783386,4.315385818481445,8.546687126159668,-0.08826129883527756,-0.2120051383972168,-0.5174552202224731
0.3787243962287903,4.501904010772705,8.680580139160156,-0.07007496803998947,-0.2275385707616806,-0.5474050641059875
0.17615577578544617,4.52008056640625,8.606704711914062,-0.0119555052369833,-0.22085396945476532,-0.5318541526794434
-0.15771086513996124,4.61784029006958,8.15739917755127,0.13072516024112701,-0.27180013060569763,-0.5470560193061829
-0.08664137125015259,5.110414028167725,7.77012300491333,0.054541539400815964,0.025586526840925217,-0.4247956871986389
0.22877076268196106,4.7290940284729,8.173249244689941,-0.04518657550215721,0.027872908860445023,-0.36187657713890076
0.138116717338562,4.645910263061523,8.678387641906738,-0.08384561538696289,-0.09492845833301544,-0.36997488141059875
0.27865633368492126,4.851112365722656,8.762615203857422,0.016406094655394554,-0.058276545256376266,-0.3442138433456421
0.3126348555088043,4.938146591186523,8.52169132232666,0.13063789904117584,0.014748032204806805,-0.2912081778049469
0.38628047704696655,5.047389030456543,8.29301643371582,0.17765706777572632,0.10499900579452515,-0.23636993765830994
0.5049371123313904,5.0602216720581055,8.342816352844238,0.14205235242843628,0.1512153297662735,-0.2117258906364441
0.5598697066307068,4.911245346069336,8.572209358215332,0.0944746732711792,0.12437216192483902,-0.2183581441640854
0.5605879426002502,4.883424282073975,8.807243347167969,0.09766862541437149,0.05235987901687622,-0.24900612235069275
0.42560288310050964,5.093520641326904,8.832612037658691,0.15372860431671143,-0.012339477427303791,-0.259251207113266
0.42787259817123413,5.307265281677246,8.633702278137207,0.22945843636989594,-0.016179202124476433,-0.21841050684452057
0.5135850310325623,5.355340957641602,8.345171928405762,0.2946639358997345,0.07360053062438965,-0.17037904262542725
0.5995559692382812,5.479053974151611,8.323078155517578,0.2828305959701538,0.19308577477931976,-0.1524021476507187
0.015409082174301147,5.146298408508301,9.153990745544434,0.03892084211111069,0.18296286463737488,-0.1762782484292984
-0.3807642459869385,4.850834369659424,9.91010856628418,-0.07641051709651947,-0.08766788989305496,-0.23860396444797516
-0.7246674299240112,4.765629768371582,9.66561222076416,0.017505653202533722,-0.31290262937545776,-0.24989624321460724
-0.7102830410003662,4.856810569763184,8.914713859558105,0.1707979142665863,-0.12925907969474792,-0.1731017529964447
-0.7920689582824707,4.6688947677612305,8.567219734191895,0.21930061280727386,0.1497666984796524,-0.07021459192037582
-0.8601217865943909,4.4186906814575195,9.011602401733398,0.1650732457637787,0.186628058552742,-0.003577925032004714
-0.6542779207229614,4.2093610763549805,9.328978538513184,0.14128440618515015,0.020141098648309708,0.030019663274288177
-0.32760339975357056,3.7823405265808105,9.155407905578613,0.20587903261184692,-0.10159561783075333,0.009494591504335403
-0.7416566610336304,3.85268235206604,7.515657901763916,0.3104417026042938,-0.3467969298362732,-0.07937757670879364
-0.7129837274551392,4.1784186363220215,7.5125837326049805,0.1123468428850174,0.036250486969947815,-0.010332348756492138
-0.9792667627334595,3.802624225616455,8.73815631866455,0.11601203680038452,0.005864306353032589,-0.010000736452639103
-1.0572985410690308,3.7372915744781494,8.697243690490723,0.1250179409980774,-0.30548498034477234,-0.012566370889544487
-0.5211697816848755,3.7659642696380615,8.202841758728027,0.14449581503868103,-0.4099254906177521,-0.10752973705530167
-0.5143415331840515,3.93803071975708,7.739870071411133,0.1454208344221115,-0.3330437242984772,-0.24874432384967804
-0.7304613590240479,4.436455726623535,7.480903148651123,0.1206895187497139,-0.1961575597524643,-0.3216816186904907
-0.8859025239944458,4.603053569793701,7.337519645690918,0.042411502450704575,-0.05215043947100639,-0.31782445311546326
-0.8237202763557434,4.420825958251953,7.63296365737915,-0.06063273921608925,0.041346848011016846,-0.32107076048851013
-0.7818025946617126,4.343503475189209,8.234090805053711,-0.11992157250642776,0.003263765713199973,-0.37056830525398254
-0.8461970686912537,4.442317008972168,8.613504409790039,-0.11669271439313889,-0.10929251462221146,-0.4099080264568329
-0.8924051523208618,4.543035984039307,8.624585151672363,-0.09602801501750946,-0.1664869636297226,-0.4240102767944336
-1.1321700811386108,4.7345147132873535,8.484025955200195,-0.04783947393298149,-0.22364649176597595,-0.4144807755947113
-1.316810965538025,4.845528602600098,8.409231185913086,0.00724311638623476,-0.24326398968696594,-0.3629586696624756
-1.0839508771896362,5.091116905212402,7.538651943206787,-0.03991568088531494,-0.1123119369149208,-0.15198327600955963
-1.2730449438095093,5.104236602783203,7.819280624389648,-0.08213519304990768,-0.20603612065315247,-0.1497317999601364
-0.8503725528717041,5.08317756652832,7.95115327835083,-0.15020303428173065,-0.17694148421287537,-0.13110913336277008
-0.6778846979141235,5.057760715484619,8.118651390075684,-0.11356857419013977,-0.1370781660079956,-0.13377948105335236
-0.6708266139030457,4.999380588531494,8.291071891784668,-0.08595746755599976,-0.12683308124542236,-0.16283921897411346
-0.6674555540084839,5.507420539855957,7.7002410888671875,-0.1673247218132019,-0.08932594954967499,-0.10997319221496582
-0.8179838061332703,4.743066787719727,8.664750099182129,-0.17381733655929565,-0.12683308124542236,-0.14587461948394775
-1.0008050203323364,4.901782989501953,8.7863187789917,-0.14383257925510406,-0.2439446747303009,-0.15749850869178772
-0.8923572897911072,5.243206024169922,8.630378723144531,-0.06670648604631424,-0.30607840418815613,-0.13802063465118408
-0.9457767605781555,5.1705851554870605,8.284378051757812,-0.012636183761060238,-0.30686378479003906,-0.1356295347213745
-0.9818812608718872,5.26707124710083,8.02073860168457,0.00020943951676599681,-0.262131005525589,-0.09944885969161987
-0.7713256478309631,5.054399490356445,8.378393173217773,-0.03652974218130112,-0.22937117516994476,-0.11876965314149857
-0.7621414065361023,5.078283786773682,8.559423446655273,0.006195918656885624,-0.23628267645835876,-0.13210396468639374
-0.44541728496551514,5.39345645904541,8.538949012756348,0.06677629798650742,-0.22889992594718933,-0.13177235424518585
-0.2511996328830719,5.423087120056152,8.321459770202637,0.05811946466565132,-0.13383184373378754,-0.1327497363090515
-0.21978771686553955,5.232231140136719,8.472562789916992,-0.038030724972486496,-0.05141739919781685,-0.14959217607975006
-0.3966138958930969,5.070507526397705,8.809886932373047,-0.1583886295557022,-0.04801400750875473,-0.14102260768413544
-0.32585087418556213,4.777830600738525,9.3977689743042,-0.21820105612277985,-0.12695525586605072,-0.12433725595474243
0.05132210999727249,4.768349647521973,9.562307357788086,-0.1794198453426361,-0.2212030291557312,-0.1399753987789154
0.22910593450069427,4.6015214920043945,9.426336288452148,-0.13946926593780518,-0.22155208885669708,-0.17472490668296814
0.22627121210098267,4.342698574066162,9.250045776367188,-0.15903440117835999,-0.20807814598083496,-0.19174186885356903
0.2787042260169983,4.345571994781494,7.757079601287842,0.19231782853603363,0.2689552307128906,-0.1642005741596222
0.8240842223167419,3.805976390838623,8.55009651184082,0.00518362782895565,-0.08876744657754898,-0.1302364617586136
1.0110617876052856,3.9117233753204346,8.329935073852539,-0.05581562966108322,-0.15454889833927155,-0.11863002926111221
1.0285778045654297,3.7836334705352783,8.252756118774414,-0.0527089424431324,-0.06517059355974197,-0.1252971887588501
0.7997782826423645,3.8699207305908203,8.378250122070312,-0.010873401537537575,0.04242895543575287,-0.12494812160730362
0.5282853841781616,3.9346117973327637,8.441887855529785,-0.022514747455716133,0.04749041050672531,-0.10173524171113968
0.4091978073120117,3.9203999042510986,8.40351390838623,-0.12463396042585373,-0.01595230959355831,-0.08541641384363174
0.39317581057548523,3.9088408946990967,8.496753692626953,-0.17894861102104187,-0.05173156037926674,-0.0852418839931488
0.4246356189250946,3.7292661666870117,8.694927215576172,-0.2413964867591858,-0.10896090418100357,-0.10632545500993729
0.47249090671539307,3.8157734870910645,9.051231384277344,-0.2163335531949997,-0.15224507451057434,-0.15084880590438843
0.6528796553611755,4.362446308135986,8.08265209197998,-0.029338983818888664,0.19018852710723877,-0.02975786291062832
0.5271840691566467,4.360645294189453,8.611771583557129,-0.1538333147764206,-0.16912239789962769,-0.1114567220211029
0.6043922901153564,4.6297926902771,8.251137733459473,-0.2056521475315094,-0.24984388053417206,-0.08494517207145691
0.8850597739219666,4.584503650665283,8.255389213562012,-0.2071182280778885,-0.1725432425737381,-0.07953465729951859
0.7902014851570129,4.5237579345703125,8.442117691040039,-0.12074187397956848,-0.02834414690732956,-0.05834635719656944
0.9255313277244568,4.50416374206543,8.63956356048584,-0.03733259439468384,-0.0009599310578778386,-0.023108160123229027
0.6662297248840332,4.548849105834961,8.746392250061035,0.1745852828025818,0.08011060953140259,-0.18882717192173004
0.6190064549446106,4.634188175201416,8.537243843078613,0.23628267645835876,0.1390852928161621,-0.16582372784614563
0.6198013424873352,4.660074234008789,8.455314636230469,0.23087215423583984,0.15484561026096344,-0.1647939831018448
0.4740231931209564,4.837331771850586,8.449712753295898,0.18767525255680084,0.14097024500370026,-0.14755013585090637
0.4212741255760193,4.923934459686279,8.56472110748291,0.142314150929451,0.09087929129600525,-0.13138838112354279
0.4916253685951233,5.060164451599121,8.501800537109375,0.13875368237495422,0.04743804782629013,-0.11218976229429245
-0.4856877326965332,6.168689250946045,7.295802593231201,0.37894588708877563,0.4804717004299164,-0.03560471534729004
-0.7411777973175049,6.316488265991211,7.465887069702148,0.1174955666065216,0.5301437377929688,0.09086184203624725
0.1463623344898224,5.148137092590332,9.550030708312988,-0.361248254776001,-0.08559094369411469,0.03986331820487976
-0.0406343899667263,4.567380428314209,9.862234115600586,-0.45235443115234375,-0.6388777494430542,-0.20788615942001343
-0.19223524630069733,4.964550018310547,9.409595489501953,-0.14742796123027802,-0.38463565707206726,-0.18449875712394714
-0.3962786793708801,4.732359886169434,9.039902687072754,0.16811011731624603,0.018744835630059242,-0.05873033031821251
-0.4000615179538727,4.573681831359863,8.87837028503418,0.3334975242614746,0.2603682279586792,0.040683623403310776
-0.2527606785297394,4.321955680847168,8.81411075592041,0.27639034390449524,0.21853268146514893,0.08649851381778717
-0.2497439682483673,3.7502105236053467,8.870938301086426,0.10299187898635864,-0.005427973810583353,0.02206096239387989
-0.34493744373321533,3.5313804149627686,8.922510147094727,0.034836772829294205,-0.1273392289876938,-0.02312561310827732
-0.5533095598220825,3.3403615951538086,8.959179878234863,0.014503685757517815,-0.29368653893470764,-0.11515682190656662
-1.1378108263015747,3.7769200801849365,7.6228413581848145,0.3021688461303711,-0.059323739260435104,-0.037053339183330536
-0.9510056376457214,3.8697290420532227,7.42417049407959,0.19448204338550568,0.010506882332265377,0.009738937020301819
-0.6734697818756104,3.917546033859253,7.4530158042907715,0.05281366407871246,0.03871140256524086,-0.015865042805671692
-0.6636056303977966,4.479513168334961,7.884077548980713,-0.07471754401922226,0.12255702167749405,-0.17189747095108032
-0.8679842948913574,4.601789474487305,8.044306755065918,-0.16830210387706757,0.08073893189430237,-0.17877407371997833
-0.9692686200141907,4.5797247886657715,8.386113166809082,-0.2563888728618622,0.015184364281594753,-0.15851080417633057
-1.0137050151824951,4.538506507873535,8.645672798156738,-0.24851742386817932,-0.04773475602269173,-0.13721778988838196
-1.107643961906433,4.520224094390869,8.663992881774902,-0.17664477229118347,-0.07525859773159027,-0.11166616529226303
-1.2928593158721924,4.610265254974365,8.588892936706543,-0.11189305782318115,-0.10793115943670273,-0.06380923837423325
-1.3152307271957397,4.593505859375,8.438316345214844,-0.07960446923971176,-0.15512485802173615,0.0013264502631500363
-1.1437102556228638,4.511940002441406,8.123526573181152,-0.05564109608530998,-0.13039354979991913,0.03553490340709686
-1.0459308624267578,4.475950717926025,8.043512344360352,-0.023666664958000183,-0.04372049868106842,0.04979424178600311
-0.9854151010513306,4.454565525054932,7.938512325286865,-0.02427753061056137,0.0012042771559208632,0.05106833204627037
-1.0247470140457153,4.518615245819092,7.98004674911499,-0.058136917650699615,0.017645278945565224,0.06023131310939789
-0.8918880224227905,4.505676746368408,8.090457916259766,-0.09278170019388199,0.004084070213139057,0.07360053062438965
-0.7265348434448242,4.468806266784668,8.134693145751953,-0.10700613260269165,0.004869468510150909,0.06236061453819275
-0.7753574252128601,4.484799385070801,8.273518562316895,-0.10547024756669998,0.01722639985382557,0.01869247667491436
-0.8469727635383606,4.747970104217529,8.537445068359375,-0.12074187397956848,-0.016598081216216087,-0.014608405530452728
-0.9176879525184631,4.740193843841553,8.625858306884766,-0.10611601918935776,-0.06414084881544113,-0.00905825849622488
-0.8763448596000671,4.57154655456543,8.717758178710938,-0.04539601504802704,-0.08946557343006134,-0.02378883771598339
-0.9194692373275757,4.748784065246582,8.580416679382324,-0.0012740903766825795,-0.09662142395973206,-0.032759830355644226
-0.9294769763946533,4.885991096496582,8.465829849243164,-0.015917403623461723,-0.10231120139360428,-0.027523841708898544
-0.9478932023048401,4.885799407958984,8.627429962158203,-0.04527384042739868,-0.12294099479913712,-0.014294246211647987
-0.894655704498291,4.81302547454834,8.74130630493164,-0.00024434609804302454,-0.1941678822040558,-0.012915436178445816
0.3971501886844635,4.44251823425293,8.989058494567871,0.0027052604127675295,-0.21352358162403107,0.04677482321858406
0.6902004480361938,4.410157680511475,8.74846076965332,-0.005061454605311155,-0.0892910435795784,0.0011868239380419254
0.4298645555973053,4.405580043792725,8.962655067443848,-0.10332348942756653,-0.048834312707185745,-0.049235738813877106
0.20022229850292206,4.138942718505859,9.416519165039062,-0.1843591332435608,-0.1241278126835823,-0.04230678081512451
0.4113430082798004,3.7015891075134277,9.460601806640625,-0.16776104271411896,-0.18308503925800323,-0.024609142914414406
0.70673006772995,3.2977540493011475,9.316681861877441,-0.06101670861244202,-0.15421728789806366,-0.06531021744012833
0.8402019739151001,3.26064395904541,9.099882125854492,0.04509930685162544,-0.056845374405384064,-0.12723450362682343
0.7900195121765137,3.3294055461883545,8.998635292053223,0.1206720620393753,0.009808750823140144,-0.13271483778953552
0.7723598480224609,3.4155874252319336,8.875727653503418,0.14674727618694305,-0.03712315484881401,-0.10480701923370361
0.678057074546814,3.3824517726898193,8.181523323059082,0.2943323254585266,-0.1927192509174347,-0.10732029378414154
0.904395341873169,4.129260540008545,7.616530418395996,0.10758209228515625,0.12884020805358887,0.013962633907794952
1.0475302934646606,3.3995556831359863,8.258540153503418,-0.18299777805805206,0.06871361285448074,0.027890361845493317
0.9945801496505737,3.216332197189331,8.73702621459961,-0.27171286940574646,-0.16781340539455414,-0.05438445881009102
1.1335108280181885,3.544059991836548,8.805394172668457,-0.22186625003814697,-0.16264723241329193,-0.11566296964883804
0.84227055311203,3.5547478199005127,8.888378143310547,-0.14055135846138,-0.12564624845981598,-0.16999506950378418
0.5984354615211487,3.7100260257720947,8.757002830505371,-0.09979792684316635,-0.1304982602596283,-0.16393877565860748
0.533112108707428,3.6724562644958496,8.72464370727539,-0.13781119883060455,-0.1472010612487793,-0.1419825404882431
0.5757001638412476,3.684551954269409,8.837956428527832,-0.16287413239479065,-0.1785995364189148,-0.12665854394435883
0.7440316677093506,3.65590763092041,8.931435585021973,-0.12157963216304779,-0.16470672190189362,-0.10248573124408722
0.930817723274231,3.465482473373413,8.907417297363281,-0.02015855349600315,-0.11527899652719498,-0.10581931471824646
1.116904616355896,3.4778268337249756,8.810652732849121,0.047368235886096954,-0.08543386310338974,-0.15432201325893402
1.061589002609253,3.6556971073150635,8.658869743347168,0.04738568887114525,-0.10622073709964752,-0.21409954130649567
0.9286150336265564,3.8973007202148438,8.603851318359375,0.004974188283085823,-0.1425410360097885,-0.24094270169734955
0.8950962424278259,3.9515914916992188,8.611186981201172,-0.01679006777703762,-0.14594443142414093,-0.24555036425590515
0.8751669526100159,4.049667835235596,8.570419311523438,0.01665044017136097,-0.10967648774385452,-0.2347642332315445
0.6904494762420654,4.424810409545898,7.604961395263672,0.16315338015556335,0.08794713765382767,-0.2324080467224121
0.22253625094890594,4.714719295501709,7.42632532119751,0.2606823742389679,0.4781503975391388,-0.11625637859106064
0.37092888355255127,4.397545337677002,8.475455284118652,0.026162484660744667,0.21275563538074493,-0.08943066745996475
0.7114610075950623,4.345667362213135,8.864550590515137,-0.3225193917751312,-0.35812410712242126,-0.1616000384092331
0.8863239288330078,4.163555145263672,8.511061668395996,-0.2232101559638977,-0.21533872187137604,-0.21291270852088928
0.7659242749214172,4.39423131942749,8.76437759399414,-0.06656685471534729,-0.03611086308956146,-0.1935919225215912
0.5925553441047668,4.541149616241455,8.850665092468262,0.22759093344211578,0.24315926432609558,-0.09716247767210007
0.6975075602531433,4.561825752258301,8.567440032958984,0.3190810978412628,0.33196163177490234,-0.02640683203935623
0.8811236619949341,4.55572509765625,8.559616088867188,0.21640338003635406,0.24876177310943604,-0.028466319665312767
0.8941864371299744,4.578556537628174,8.692426681518555,0.0797964558005333,0.09674359858036041,-0.061802107840776443
0.9952504634857178,4.421669006347656,8.720026969909668,0.0391651876270771,0.0036826448049396276,-0.09276425093412399
0.9480368494987488,4.4860920906066895,8.75259780883789,0.08974482864141464,0.03595378249883652,-0.13006193935871124
0.5695231556892395,4.730473041534424,8.634305953979492,0.2704213261604309,0.19689059257507324,-0.06955137103796005
0.6107129454612732,4.639464855194092,8.655977249145508,0.2914176285266876,0.19045032560825348,-0.08662068843841553
0.5863016843795776,4.849216461181641,8.738625526428223,0.319168359041214,0.17748253047466278,-0.13119639456272125
0.48573562502861023,5.31158447265625,8.603276252746582,0.3295181691646576,0.18273596465587616,-0.13871876895427704
0.26127445697784424,5.152580738067627,8.795827865600586,0.08576548099517822,0.05712462589144707,-0.1817411333322525
0.031718384474515915,4.995664596557617,9.050436973571777,-0.03473205119371414,-0.10238101333379745,-0.25214770436286926
-0.13535858690738678,4.917192459106445,9.257075309753418,-0.01624901592731476,-0.21296507120132446,-0.28961992263793945
-0.12735237181186676,5.021158218383789,8.96623706817627,0.12311552464962006,-0.18512707948684692,-0.24776694178581238
0.18847155570983887,5.1114959716796875,8.619653701782227,0.24747022986412048,-0.028361599892377853,-0.1760164499282837
0.3407236337661743,4.961216926574707,8.578836441040039,0.2666688561439514,0.04904375225305557,-0.1422792375087738
0.19505082070827484,4.480556964874268,7.918075084686279,0.02480112947523594,-0.1333955079317093,-0.16423548758029938
-0.2787329852581024,3.774411201477051,8.587244987487793,-0.0636521577835083,-0.266145259141922,-0.2597573399543762
-0.3583449721336365,3.7713656425476074,8.620189666748047,-0.04841543361544609,-0.32737141847610474,-0.28824111819267273
-0.6140361428260803,3.6364667415618896,8.529563903808594,0.0074525559321045876,-0.330111563205719,-0.335225373506546
-0.746368408203125,3.8475587368011475,8.4056396484375,-0.0200189258903265,-0.3704984784126282,-0.3432888090610504
-0.9305974841117859,3.8024041652679443,8.379034996032715,-0.10468484461307526,-0.4087037444114685,-0.3157126009464264
-0.8473271727561951,3.6982181072235107,8.507929801940918,-0.10096729546785355,-0.3597996234893799,-0.282882958650589
-0.33348357677459717,4.039736747741699,8.404260635375977,0.033824481070041656,-0.30059805512428284,-0.3128153681755066
-0.2578076422214508,4.039458751678467,8.228507041931152,-0.07267551124095917,-0.3591713011264801,-0.330111563205719
-0.18182525038719177,4.029642581939697,8.282366752624512,-0.17242108285427094,-0.353708416223526,-0.35821136832237244
-0.17494910955429077,4.0211381912231445,8.531977653503418,-0.22336724400520325,-0.3197094202041626,-0.37891098856925964
-0.059730544686317444,3.9269120693206787,8.90500259399414,-0.19751891493797302,-0.2952922582626343,-0.4058588743209839
0.09823888540267944,3.884218692779541,9.052074432373047,-0.1284562349319458,-0.28359854221343994,-0.45577529072761536
0.18667110800743103,3.904425859451294,9.08185863494873,-0.07396705448627472,-0.3036523759365082,-0.5397605299949646
0.13247597217559814,4.019519805908203,9.065845489501953,-0.058136917650699615,-0.3324677646160126,-0.5832366943359375
-0.07258261740207672,4.352869033813477,8.931952476501465,-0.061278510838747025,-0.40915754437446594,-0.6340780854225159
-0.15255853533744812,4.481016635894775,8.809167861938477,-0.07044149190187454,-0.4513247013092041,-0.6344620585441589
-0.5513367652893066,4.751283645629883,8.369966506958008,0.14039428532123566,-0.07358308136463165,-0.6160488724708557
-0.6010212302207947,4.649530410766602,8.541851043701172,0.0339815616607666,-0.17383478581905365,-0.5899736285209656
-0.39326199889183044,4.545018672943115,8.608409881591797,-0.16140805184841156,-0.4430692791938782,-0.6163979172706604
-0.1308000385761261,4.353578090667725,8.81877326965332,0.038606684654951096,-0.24069835245609283,-0.6983411312103271
-0.052691590040922165,4.36549186706543,8.755499839782715,0.09012880176305771,-0.17325884103775024,-0.6980968117713928
-0.1080455332994461,4.355780601501465,8.784852981567383,0.04314453899860382,-0.23197171092033386,-0.7038389444351196
-0.023951593786478043,3.9980967044830322,8.726701736450195,-0.029042279347777367,-0.3208089768886566,-0.7280117273330688
0.35696589946746826,3.8686563968658447,8.842227935791016,-0.06777113676071167,-0.3790331482887268,-0.7883652448654175
-0.046888045966625214,4.255693435668945,8.885648727416992,0.09470156580209732,-0.4366988241672516,-1.0275975465774536
-0.5240811705589294,4.582291603088379,7.294806957244873,0.3003711700439453,-0.277088463306427,-0.9855524897575378
0.1475307196378708,3.8303396701812744,8.72933578491211,-0.3096213936805725,-0.5675287246704102,-0.9730908870697021
0.09353667497634888,3.8958258628845215,9.19491195678711,-0.2957285940647125,-0.6146002411842346,-1.0083290338516235
-0.12414415180683136,3.9205243587493896,9.213922500610352,-0.10473720729351044,-0.5306324362754822,-0.9513790011405945
0.1779753714799881,3.8758199214935303,8.701687812805176,0.12920671701431274,-0.3580019474029541,-0.8711462020874023
0.3432614803314209,3.8768253326416016,8.452499389648438,0.18825121223926544,-0.2332807034254074,-0.8706575036048889
0.3288196623325348,4.069903373718262,8.677726745605469,0.02750638872385025,-0.44080036878585815,-0.8857196569442749
0.4026664197444916,3.8899168968200684,8.532608985900879,0.009738937020301819,-0.4225267469882965,-0.8996474146842957
0.25037604570388794,3.815505027770996,8.644140243530273,-0.0423416867852211,-0.41320669651031494,-0.9243787527084351
-0.0016950948629528284,3.720283031463623,8.935352325439453,-0.018709929659962654,-0.5283635258674622,-1.1255453824996948
-0.22744916379451752,3.9579601287841797,8.756591796875,0.06909758597612381,-0.4600513279438019,-1.1125426292419434
-0.48796704411506653,4.167845726013184,8.762443542480469,0.09086184203624725,-0.4452683925628662,-1.05398690700531
-0.4385698437690735,4.213718414306641,8.708937644958496,0.056007616221904755,-0.48581239581108093,-0.9739809632301331
-0.18643170595169067,4.11210823059082,8.561234474182129,0.02687807008624077,-0.490245521068573,-0.9137845635414124
0.5302582383155823,3.915649890899658,9.500920295715332,-0.20935223996639252,-0.6765594482421875,-0.9628458023071289
0.31653261184692383,4.025515079498291,9.27106761932373,-0.1014036312699318,-0.6167120933532715,-0.9736319184303284
0.24739764630794525,4.085801124572754,9.173421859741211,-0.04735078290104866,-0.5909510254859924,-0.9162978529930115
0.48787128925323486,3.9538040161132812,9.090142250061035,-0.013718287460505962,-0.5660975575447083,-0.8872381448745728
0.8241512179374695,3.843258857727051,9.134185791015625,0.01754055917263031,-0.5571091175079346,-0.9108175039291382
0.794089674949646,3.76566743850708,9.15439224243164,0.02617993950843811,-0.5989271998405457,-0.9728814363479614
0.6545364260673523,3.8769500255584717,9.023296356201172,0.0019198621157556772,-0.6556329131126404,-1.015711784362793
0.4922574460506439,3.9470906257629395,8.984672546386719,-0.013508847914636135,-0.6533814668655396,-1.012901782989502
0.4865018129348755,4.012404441833496,9.019264221191406,-0.0034732052590698004,-0.6085264682769775,-0.9874025583267212
0.5197524428367615,3.8819587230682373,9.110234260559082,0.02307325229048729,-0.5694485902786255,-0.9723404049873352
0.55561763048172,3.771700859069824,9.160676002502441,0.044087015092372894,-0.5786988139152527,-0.9897063970565796
0.5684026479721069,3.801503896713257,9.047706604003906,0.0449247732758522,-0.6095387935638428,-1.0137395858764648
0.5612295866012573,3.9303598403930664,8.707118034362793,0.13604842126369476,-0.5712113380432129,-1.0279815196990967
0.4930906295776367,4.155328750610352,8.249068260192871,0.2088111937046051,-0.3246312439441681,-0.967628002166748
0.6203089356422424,3.9434609413146973,8.458772659301758,0.1022413894534111,-0.34026938676834106,-0.9459859132766724
0.6725982427597046,3.7792952060699463,8.877737998962402,-0.07873180508613586,-0.609940230846405,-1.0427120923995972
0.6446722745895386,4.08944034576416,8.757224082946777,-0.13843952119350433,-0.6661747097969055,-1.0462725162506104
0.6209793090820312,4.118936538696289,9.02468490600586,-0.09257226437330246,-0.5743878483772278,-1.0220648050308228
0.7291876077651978,4.012231826782227,8.90931224822998,0.1831548511981964,-0.32710960507392883,-0.8845328688621521
0.828843891620636,3.9278602600097656,8.90567398071289,0.11709413677453995,-0.4084244966506958,-0.8940274715423584
0.8749945163726807,3.9373602867126465,8.959839820861816,0.07002261281013489,-0.471238911151886,-0.9094212651252747
0.8278191685676575,3.8706483840942383,8.9319429397583,0.022183135151863098,-0.5744925737380981,-0.9311156868934631
0.8287481069564819,3.941152811050415,8.748068809509277,0.03817034885287285,-0.5404586791992188,-0.9254782795906067
0.8219102621078491,3.922621726989746,8.737428665161133,0.07105235010385513,-0.4817981421947479,-0.916420042514801
0.8106001019477844,3.9112253189086914,8.812337875366211,0.15027284622192383,-0.3818954825401306,-0.9088278412818909
0.4675971567630768,4.276187896728516,8.215693473815918,0.3315601944923401,-0.1679006665945053,-0.9096307158470154
0.4313681125640869,4.365846157073975,8.591879844665527,0.2964441776275635,-0.18683749437332153,-0.847549319267273
0.987205982208252,4.150262832641602,7.974089622497559,-0.022479841485619545,-0.4951499104499817,-0.883834719657898
0.8512536287307739,4.41942834854126,8.339704513549805,0.06169738993048668,-0.26085689663887024,-0.8731009364128113
0.6337451934814453,4.699425220489502,8.62423038482666,0.1918116807937622,-0.11847294867038727,-0.7899011373519897
0.5687761306762695,4.604184150695801,8.502250671386719,0.20554742217063904,-0.10791371017694473,-0.7215540409088135
0.5288887619972229,4.385976791381836,8.502164840698242,0.08105309307575226,-0.23832470178604126,-0.7076960802078247
0.5720705389976501,4.2434258460998535,8.68529224395752,-0.09227555990219116,-0.43655920028686523,-0.7429168224334717
0.51144939661026,4.204055309295654,8.825170516967773,-0.13269738852977753,-0.5578595995903015,-0.7919431328773499
0.4733145236968994,4.300762176513672,8.8046293258667,-0.09335765987634659,-0.5558699369430542,-0.8066562414169312
0.2763291895389557,4.454249382019043,8.617623329162598,0.029077185317873955,-0.4508534371852875,-0.7974584102630615
0.11151233315467834,4.398780822753906,8.52719783782959,0.10187486559152603,-0.36302849650382996,-0.7749436497688293
-0.10726024210453033,4.5953826904296875,8.134453773498535,0.23382176458835602,-0.3546159863471985,-0.7988895773887634
0.044800300151109695,5.005854606628418,8.351627349853516,0.11871729791164398,-0.18945549428462982,-0.7069979906082153
0.2087552398443222,4.081175327301025,8.775860786437988,-0.008429939858615398,-0.42216023802757263,-0.7706326842308044
-0.009222464635968208,4.445687770843506,8.600393295288086,-0.057246800512075424,-0.5826607346534729,-0.8474969863891602
-0.09071151912212372,4.483267307281494,8.713889122009277,0.023980824276804924,-0.43856632709503174,-0.8230274319648743
-0.30320170521736145,4.550228118896484,8.624795913696289,0.22937117516994476,-0.36250486969947815,-0.7078531980514526
-0.17803283035755157,4.430451393127441,8.438804626464844,0.21434389054775238,-0.37976619601249695,-0.7019539475440979
-0.07336792349815369,4.326954364776611,8.248082160949707,0.1255589872598648,-0.4417777359485626,-0.7269296050071716
-0.5614498853683472,4.671087265014648,7.486812591552734,0.14480996131896973,-0.326027512550354,-0.735603928565979
-0.39103060960769653,4.576171875,8.483461380004883,0.017662731930613518,-0.41865211725234985,-0.6940301656723022
-0.14231134951114655,4.3741679191589355,8.500019073486328,-0.07569492608308792,-0.5377708673477173,-0.7022331953048706
0.04012681916356087,4.118381500244141,8.424007415771484,-0.09749408811330795,-0.5413312911987305,-0.7933394312858582
-0.20634187757968903,4.3720808029174805,8.718246459960938,0.004764748737215996,-0.381965309381485,-0.8261341452598572
-0.48346593976020813,4.588851451873779,8.35586929321289,0.0988030880689621,-0.4444480836391449,-0.8304276466369629
-0.4521018862724304,4.590134620666504,8.215539932250977,0.07681193947792053,-0.4483925402164459,-0.8342848420143127
-0.44642284512519836,4.713972568511963,8.141263008117676,0.01638864167034626,-0.43741440773010254,-0.8376009464263916
-0.30164068937301636,4.522417068481445,8.314574241638184,-0.02759365551173687,-0.42753586173057556,-0.8515287041664124
-0.1535353660583496,4.3982439041137695,8.258673667907715,-0.0409105159342289,-0.4147949516773224,-0.8870112299919128
-0.11926955729722977,4.302743911743164,8.225844383239746,-0.06363470107316971,-0.41090285778045654,-0.9237678647041321
-0.2295943647623062,4.178149700164795,8.209640502929688,-0.09538224339485168,-0.3902207016944885,-1.0051350593566895
-0.3756885826587677,4.1547160148620605,8.25100326538086,-0.09955357760190964,-0.3713187873363495,-1.0374411344528198
-0.6080889105796814,4.225698947906494,8.399032592773438,-0.08311257511377335,-0.36274921894073486,-1.0657678842544556
-0.6462621092796326,4.334261894226074,8.132269859313965,-0.07499679923057556,-0.37025415897369385,-1.0428690910339355
-0.6214389801025391,4.338590145111084,8.235623359680176,-0.13814280927181244,-0.3661177158355713,-1.0538471937179565
-0.6939162611961365,4.362724304199219,8.523406028747559,-0.15374605357646942,-0.40769144892692566,-1.0784389972686768
-0.7146596312522888,4.530356407165527,8.529017448425293,-0.11355111747980118,-0.41495203971862793,-1.0948799848556519
-0.7792743444442749,4.619478225708008,8.459776878356934,-0.07342600077390671,-0.39819687604904175,-1.1025245189666748
-0.9300132989883423,4.725560665130615,8.47346305847168,-0.08197811245918274,-0.4178667366504669,-1.1080048084259033
-1.540755033493042,5.5462541580200195,6.941097259521484,-0.059463366866111755,-0.44923028349876404,-1.1087204217910767
-1.7243807315826416,5.585787773132324,6.534274578094482,-0.1425933986902237,-0.3062354624271393,-1.0032151937484741
-1.053285837173462,5.080831050872803,8.178037643432617,-0.23165754973888397,-0.31126201152801514,-0.9390743970870972
-0.4011436998844147,4.662391662597656,9.237089157104492,-0.2560921609401703,-0.4687081575393677,-0.994890034198761
