accX,accY,accZ,gyroX,gyroY,gyroZ
1.5433706045150757,4.245166301727295,9.250951766967773,-0.30549997091293335,0.31825143098831177,-0.008933641016483307
-0.15164513885974884,5.451747417449951,8.398508071899414,-0.062993623316288,0.11239589750766754,-0.04680617153644562
-0.21625134348869324,4.898705959320068,8.429615020751953,-0.06726955622434616,0.0653606578707695,0.06436803191900253
0.11395817995071411,4.2810587882995605,8.30279541015625,-0.061771929264068604,0.15149012207984924,0.1358371526002884
-0.1707877218723297,4.412963390350342,8.372187614440918,0.015194825828075409,0.38727715611457825,0.1987544298171997
-0.589830756187439,4.649852752685547,8.597412109375,0.09888090193271637,0.47707170248031616,0.21707984805107117
-0.8027920126914978,4.578067779541016,8.69791030883789,0.13980767130851746,0.3921639323234558,0.13766969740390778
-0.623330295085907,4.539782524108887,8.635697364807129,0.11048699915409088,0.31947311758995056,0.030160583555698395
-0.26919254660606384,4.386641979217529,8.918049812316895,0.06345175951719284,0.37444937229156494,0.012446013279259205
-0.3433700501918793,4.362713813781738,8.745766639709473,0.03290939703583717,0.4850127100944519,0.05031854286789894
-0.6448656916618347,4.400999069213867,8.717052459716797,0.05306735634803772,0.633448600769043,0.0686439573764801
-0.7262216806411743,4.391427993774414,8.609375953674316,0.10560022294521332,0.5943543910980225,0.04543176665902138
-0.49651068449020386,4.814957141876221,8.204689979553223,0.1868429034948349,0.47829338908195496,0.0295497365295887
-0.1779661774635315,4.71445894241333,7.857431411743164,0.29740625619888306,0.48989951610565186,0.10346225649118423
-0.37447673082351685,4.606781959533691,8.539983749389648,0.3554367423057556,0.818535327911377,0.33802759647369385
-1.4446666240692139,4.8675994873046875,8.362615585327148,0.24243000149726868,0.8222004175186157,0.5548783540725708
-1.7868403196334839,4.822135925292969,8.31715202331543,0.18073442578315735,0.8619054555892944,0.5078431367874146
-2.0120646953582764,4.566103935241699,8.810373306274414,0.09949174523353577,1.129456639289856,0.5341095924377441
-3.0269205570220947,4.307379722595215,8.376973152160645,0.04756972938776016,1.2094775438308716,0.5438831448554993
-3.529712438583374,4.53499698638916,9.904491424560547,0.10254598408937454,0.7409577369689941,0.3331408202648163
-2.830709218978882,4.690530776977539,10.282855987548828,0.013362283818423748,0.05131116881966591,0.058870404958724976
-3.096611499786377,4.886742115020752,9.559625625610352,-0.141182079911232,-0.4037700295448303,-0.06146650388836861
-2.9288148880004883,4.029812335968018,8.39611530303955,-0.20043425261974335,-0.6603258848190308,-0.18546849489212036
-2.1771695613861084,4.048954963684082,8.197511672973633,-0.14667969942092896,-0.7965448498725891,-0.32901760935783386
-1.4063814878463745,4.4033918380737305,9.12413215637207,-0.13568444550037384,-0.8435800671577454,-0.3534514904022217
-1.2337992191314697,4.4344987869262695,9.451948165893555,-0.1662268042564392,-0.9981244206428528,-0.1799708753824234
-1.4757733345031738,4.357928276062012,8.81515884399414,-0.1918824017047882,-1.0146173238754272,-0.09445225447416306
-1.7198412418365479,4.178167343139648,8.087441444396973,-0.21265120804309845,-0.892447829246521,0.002672456670552492
-1.755733609199524,4.0010986328125,7.948358535766602,-0.15767495334148407,-0.7201889157295227,0.0558161698281765
-1.9833508729934692,3.96999192237854,9.140881538391113,-0.2212030589580536,-0.24556060135364532,0.12300936877727509
-1.968993902206421,3.9652061462402344,8.97787094116211,-0.34215080738067627,-0.22051586210727692,0.15110833942890167
-2.1484556198120117,4.096811294555664,8.86780071258545,-0.3922402858734131,-0.2870981991291046,0.13828055560588837
-2.3350958824157715,3.960420608520508,9.044869422912598,-0.3671955466270447,-0.12216944992542267,0.13766969740390778
-2.057528257369995,3.759124279022217,8.908478736877441,-0.22303560376167297,-0.14110571146011353,0.10224056243896484
-2.1077775955200195,3.9436707496643066,8.82951545715332,-0.09475768357515335,-0.1954711228609085,0.0814717561006546
-2.167598247528076,4.19491720199585,8.798408508300781,-0.015347537584602833,-0.29626092314720154,0.05031854286789894
-2.1628124713897705,4.273880481719971,9.037691116333008,-0.03245126083493233,-0.3781144618988037,0.03626905754208565
-1.9713867902755737,4.235595226287842,8.827122688293457,-0.1149156391620636,-0.4031592011451721,0.024662958458065987
-1.8059829473495483,3.9819560050964355,8.595019340515137,-0.1924932450056076,-0.2644968628883362,0.039323292672634125
-1.7102699279785156,3.744767427444458,8.7505521774292,-0.26335152983665466,-0.0794101431965828,0.07414158433675766
-1.7198412418365479,3.6610186100006104,8.819944381713867,-0.2841203212738037,0.06841489672660828,0.09796462953090668
-1.7988044023513794,3.7112679481506348,8.74337387084961,-0.21204034984111786,0.07452336698770523,0.10529479384422302
-1.7796618938446045,3.689732551574707,8.848658561706543,-0.08559497445821762,0.0,0.09613208472728729
-1.5332010984420776,3.6921253204345703,8.688339233398438,0.010308047756552696,-0.09651386737823486,0.07230904698371887
-1.394417405128479,3.6777684688568115,8.647661209106445,0.05795413255691528,-0.09407047927379608,0.07475243508815765
-1.3630115985870361,3.7016966342926025,8.566305160522461,0.10437852889299393,-0.05864133685827255,0.05948125198483467
-1.353440284729004,3.8024942874908447,8.52054214477539,0.14041851460933685,-0.03237490355968475,0.049707695841789246
-1.6576279401779175,4.065704822540283,8.865407943725586,0.25709033012390137,0.038483377546072006,0.058870404958724976
-1.8346967697143555,3.984348773956299,8.95394229888916,0.21555273234844208,0.01038440316915512,0.044820915907621384
-1.8490537405014038,3.9652061462402344,8.772088050842285,0.1599656194448471,0.006108472589403391,0.020997874438762665
-1.8346967697143555,3.929313898086548,8.72183895111084,0.14102935791015625,0.0024433890357613564,0.006337540224194527
-1.5978072881698608,3.9747774600982666,8.221439361572266,0.15446799993515015,-0.007330167107284069,-0.0028251686599105597
-1.5355939865112305,3.984348773956299,8.259724617004395,0.29557371139526367,0.0653606578707695,0.0558161698281765
-1.6648063659667969,4.017848491668701,8.7505521774292,0.4067479074001312,0.06352811306715012,0.07536327838897705
-1.7509479522705078,4.027419567108154,8.848658561706543,0.3939201235771179,0.06841489672660828,0.05215108394622803
-1.633699655532837,4.2810587882995605,8.944371223449707,0.2931303381919861,0.07574506103992462,0.02038702741265297
-1.2098709344863892,4.685744762420654,8.123333930969238,0.24853847920894623,0.10262233763933182,0.03443651273846626
0.3774677813053131,4.4273200035095215,8.07787036895752,-0.2682383060455322,-0.37078428268432617,-0.15065020322799683
0.41096729040145874,3.962813377380371,7.074679374694824,-0.17600037157535553,-0.17714570462703705,-0.18913358449935913
0.032602209597826004,3.7328033447265625,8.013263702392578,0.017027366906404495,0.1313321590423584,-0.31435728073120117
0.6047859191894531,4.72163724899292,9.073583602905273,0.0823880210518837,-0.013438640162348747,-0.4401918053627014
0.9161519408226013,5.004289627075195,9.528518676757812,0.0555107444524765,-0.12583453953266144,-0.3638359010219574
0.6861419081687927,4.8197431564331055,8.374580383300781,-0.014736690558493137,-0.051922015845775604,-0.1946312040090561
0.2551347017288208,4.604389190673828,8.602197647094727,-0.05993938818573952,0.183865025639534,-0.09139802306890488
0.21206390857696533,4.903491973876953,9.167202949523926,-0.06116108223795891,0.1588202863931656,-0.015042114071547985
-0.13250255584716797,4.826921463012695,9.593125343322754,-0.055052608251571655,0.03787253051996231,0.07230904698371887
-0.10857433080673218,4.551746845245361,8.266902923583984,0.08849649876356125,0.1588202863931656,0.026495499536395073
-0.2066800594329834,4.573282241821289,8.748159408569336,0.11415208131074905,0.1185043677687645,-0.015652960166335106
-0.5778666734695435,4.570889472961426,9.334700584411621,0.11842801421880722,-0.004886778071522713,-0.09750649333000183
-0.35533416271209717,4.676173686981201,8.975478172302246,0.06284090876579285,-0.054365407675504684,-0.1683647781610489
-0.34576287865638733,4.676173686981201,8.662017822265625,-0.013514995574951172,-0.05008947476744652,-0.1671430766582489
-0.3194418251514435,4.735994338989258,8.657232284545898,-0.06482616811990738,-0.14965757727622986,-0.20196136832237244
-0.21625134348869324,4.697709083557129,9.107381820678711,-0.09720107167959213,-0.35978904366493225,-0.26365694403648376
-0.10857433080673218,4.400999069213867,8.331509590148926,-0.06421531736850739,-0.5363239049911499,-0.3003077805042267
0.1091725304722786,4.2571306228637695,8.408080101013184,0.010918894782662392,-0.6450546979904175,-0.34306707978248596
0.5258227586746216,4.546961307525635,8.307580947875977,0.0695602297782898,-0.7201889157295227,-0.3259633779525757
0.6191428303718567,4.695316314697266,8.489435195922852,0.1080436110496521,-0.7495095729827881,-0.25510507822036743
0.544965386390686,4.601995944976807,8.510971069335938,0.14286190271377563,-0.7953231334686279,-0.2044047713279724
0.5138586759567261,4.5445685386657715,8.544769287109375,0.21555273234844208,-0.7800519466400146,-0.19768545031547546
0.355932354927063,4.683351993560791,8.341080665588379,0.32672691345214844,-0.6658235192298889,-0.20379391312599182
0.4133601188659668,4.817350387573242,8.482256889343262,0.4256841838359833,-0.569309651851654,-0.22150848805904388
0.5760720372200012,5.090431213378906,8.934800148010254,0.13064496219158173,0.3439069986343384,0.10285140573978424
0.21684955060482025,5.066503047943115,8.915657043457031,0.04756972938776016,0.312142938375473,0.13033953309059143
-0.1133599728345871,4.712066173553467,8.5133638381958,-0.031229566782712936,0.09834641218185425,0.12972868978977203
-0.0032901312224566936,4.869992256164551,8.123333930969238,-0.13079766929149628,0.04031591862440109,0.08513683825731277
-0.020039889961481094,5.059324264526367,8.39611530303955,-0.13690614700317383,0.2480039894580841,0.05703786388039589
0.08763712644577026,4.980361461639404,8.422436714172363,-0.03489464893937111,0.31886225938796997,0.0429883748292923
-0.16121642291545868,4.934897422790527,8.44157886505127,0.08605311065912247,0.2644968628883362,0.03871244564652443
-0.534795880317688,5.073681354522705,8.592626571655273,0.14408360421657562,0.05619794875383377,0.0423775278031826
-0.47976094484329224,5.114359378814697,8.534899711608887,0.09704835712909698,-0.1185043677687645,0.022219568490982056
-0.41515472531318665,5.0617170333862305,8.501399993896484,0.011529741808772087,-0.14660334587097168,0.011835165321826935
-0.47976094484329224,5.018646240234375,8.39611530303955,-0.0031305921729654074,-0.11911521852016449,-0.01382041908800602
-0.4534398913383484,4.970789909362793,8.376973152160645,0.05184566229581833,-0.12094775587320328,-0.05596888065338135
-0.18753747642040253,4.889134883880615,8.417651176452637,0.1086544543504715,-0.12583453953266144,-0.07001836597919464
-0.24496522545814514,4.915754795074463,8.635697364807129,0.11659546941518784,-0.1185043677687645,-0.04558447748422623
-0.2066800594329834,4.879563808441162,8.154440879821777,0.08971819281578064,-0.12461283802986145,-0.005268557462841272
-0.09900303930044174,4.896313190460205,8.58066177368164,0.05062396824359894,0.06902574002742767,0.025884652510285378
-0.2763710021972656,5.152644634246826,8.7505521774292,-0.06910209357738495,0.2351761907339096,0.07902836054563522
-0.6640082597732544,5.025825023651123,8.748159408569336,-0.22242476046085358,0.37567105889320374,0.16699036955833435
-0.7597211599349976,4.9516472816467285,8.60459041595459,-0.3103867769241333,0.3665083646774292,0.20486289262771606
-0.6592226624488831,4.90618371963501,8.898907661437988,-0.39529454708099365,0.37078428268432617,0.23112933337688446
-0.6927221417427063,4.836492538452148,8.884550094604492,-0.4954734742641449,0.3555130958557129,0.237237811088562
-0.776470959186554,4.71445894241333,8.96829891204834,-0.5681642889976501,0.4868452548980713,0.2390703409910202
-0.8605188727378845,4.573282241821289,8.865407943725586,-0.6133670210838318,0.6420004963874817,0.26045000553131104
-0.9346963167190552,4.5206403732299805,8.812766075134277,-0.6164212226867676,0.8112051486968994,0.30992862582206726
-1.2888340950012207,4.467998027801514,8.583054542541504,-0.5681642889976501,0.9034430980682373,0.3673482835292816
-1.1572288274765015,4.259523391723633,8.393722534179688,-0.48631078004837036,0.9101623892784119,0.3685699701309204
-1.0758728981018066,4.518247127532959,8.563912391662598,-0.32932302355766296,0.9003888368606567,0.3997231721878052
-1.6145570278167725,4.518247127532959,8.803194046020508,-0.21265120804309845,0.856407880783081,0.45653197169303894
-1.7796618938446045,4.264308929443359,8.592626571655273,-0.10697462409734726,0.6762079000473022,0.4064424932003021
-1.571486234664917,4.161417484283447,8.41286563873291,-0.00862821750342846,0.5082249045372009,0.3209238648414612
-1.4757733345031738,4.228416919708252,8.796015739440918,0.03596363216638565,0.42331716418266296,0.3038201630115509
-1.4039887189865112,4.2810587882995605,8.803194046020508,0.00786465872079134,0.44103172421455383,0.320313036441803
-1.394417405128479,4.269094467163086,8.767302513122559,-0.023899398744106293,0.3432961702346802,0.32642149925231934
-1.3438689708709717,4.422534465789795,8.006085395812988,0.022524992004036903,0.14110571146011353,0.3197021782398224
-1.2505489587783813,4.206881523132324,6.820741176605225,0.253425270318985,0.18691925704479218,0.35268792510032654
-1.461416482925415,4.276273250579834,8.72183895111084,0.4372902810573578,0.6578825116157532,0.46691638231277466
-1.9594225883483887,4.396213531494141,9.212666511535645,0.3945309817790985,0.6047387719154358,0.49440449476242065
-2.236989974975586,4.573282241821289,8.400900840759277,0.28457847237586975,0.265718549489975,0.40399911999702454
-1.7150555849075317,4.752744197845459,7.709076404571533,0.16973918676376343,0.28404396772384644,0.3062635362148285
-1.2218350172042847,4.668995380401611,8.266902923583984,0.11415208131074905,0.6517740488052368,0.36246147751808167
-1.609771490097046,4.752744197845459,9.078369140625,0.09704835712909698,0.8191461563110352,0.5145624876022339
-2.3805594444274902,4.429712772369385,9.008976936340332,0.0952158197760582,0.7134696245193481,0.5365529656410217
-2.5220351219177246,4.484747886657715,8.463114738464355,0.13736428320407867,0.5143333673477173,0.40583163499832153
-2.268096685409546,4.879563808441162,7.878966808319092,0.23265644907951355,0.38849884271621704,0.2543415129184723
-1.9570298194885254,4.788636207580566,8.123333930969238,0.3474957346916199,0.5192201733589172,0.2622825503349304
-2.1795623302459717,4.764708042144775,8.333902359008789,0.38903334736824036,0.7000309824943542,0.32642149925231934
-2.4619154930114746,4.985146999359131,7.558328628540039,0.4220190942287445,0.4953971207141876,0.16271443665027618
-3.721437454223633,4.966004371643066,7.488936901092529,0.5234197378158569,0.5607577562332153,0.0692548081278801
-3.053241729736328,5.471189022064209,9.92841911315918,0.47943875193595886,0.26877278089523315,-0.1274380087852478
-2.490629196166992,5.873183250427246,9.463912963867188,0.07078192383050919,0.12705622613430023,-0.15859122574329376
-2.7278177738189697,4.9755754470825195,7.666005611419678,-0.30611082911491394,0.15210096538066864,-0.10544750839471817
-2.1412770748138428,5.009075164794922,7.807182312011719,-0.39407283067703247,0.291374146938324,-0.09872818738222122
-2.229811668395996,5.183751106262207,8.800801277160645,-0.3268796503543854,0.3536805510520935,-0.0028251686599105597
-2.1604197025299072,4.8675994873046875,7.098607540130615,-0.037948887795209885,0.24006296694278717,0.12300936877727509
-2.2345972061157227,4.805386066436768,6.782455921173096,0.35177165269851685,0.5601469278335571,0.11567919701337814
-2.189133644104004,4.970789909362793,6.5527448654174805,0.6749098896980286,0.652384877204895,0.10468395054340363
-2.1077775955200195,5.356034278869629,7.728219032287598,0.8655705451965332,0.7537854909896851,0.09796462953090668
-2.385344982147217,5.629115104675293,8.082655906677246,0.948034942150116,0.497229665517807,0.0949103906750679
-3.050848960876465,6.399903297424316,8.819944381713867,1.0231691598892212,-0.16798299551010132,-0.04375193640589714
-2.000100612640381,6.663413047790527,9.863813400268555,0.6187118887901306,-0.4031592011451721,-0.10117157548666
-2.9383862018585205,6.335297107696533,9.203095436096191,-0.11186140775680542,-0.33596599102020264,0.014889402315020561
-3.412464141845703,5.602794170379639,8.96112060546875,-0.669564962387085,-0.4031592011451721,-0.1146102175116539
-2.112563371658325,4.922933578491211,7.481758117675781,-0.9481112957000732,-0.47646087408065796,-0.3931565582752228
-1.7437695264816284,4.970789909362793,8.551948547363281,-0.8161683082580566,-0.5699204802513123,-0.5226562023162842
-1.2290135622024536,5.432604789733887,8.049156188964844,-0.4398863911628723,-0.9101623892784119,-0.5916818976402283
-0.6017948985099792,5.672185897827148,8.458329200744629,0.18317782878875732,-0.2345653474330902,-0.19829629361629486
-0.7238288521766663,5.672185897827148,8.168797492980957,0.24853847920894623,-0.1710372269153595,-0.10483665764331818
-0.7932206988334656,5.504688262939453,7.668398380279541,0.4067479074001312,-0.07024743407964706,-0.02542651630938053
-0.9227322340011597,5.545366287231445,7.697112083435059,0.6077166795730591,0.00916270911693573,0.05154023692011833
-1.2601202726364136,5.643472194671631,7.8765740394592285,0.7476006746292114,0.054365407675504684,0.08941277116537094
-1.176371455192566,5.68175745010376,7.34267520904541,0.8105943202972412,0.12644538283348083,0.08025006204843521
-1.2840484380722046,5.741578102111816,7.151249408721924,0.8222004175186157,0.393385648727417,0.03871244564652443
-1.485344648361206,5.7511491775512695,7.412067413330078,0.7873821258544922,0.5534276366233826,-0.02176143415272236
-1.973779559135437,6.474080562591553,8.140083312988281,0.6138251423835754,0.5430431962013245,-0.1274380087852478
-1.8897316455841064,6.433403015136719,9.59791088104248,0.2754157483577728,-0.04947862774133682,-0.22456271946430206
-1.9642082452774048,6.747161865234375,7.950751304626465,0.014583977870643139,-0.3897205591201782,-0.3668901324272156
-1.7988044023513794,6.620342254638672,8.264510154724121,-0.2871745824813843,-0.45447036623954773,-0.389491468667984
-1.5571293830871582,6.481259346008301,8.135297775268555,-0.5901548266410828,-0.6627692580223083,-0.41087114810943604
-1.059123158454895,6.646663188934326,8.264510154724121,-0.8296069502830505,-0.7006418108940125,-0.4145362079143524
-0.9634101986885071,6.783053874969482,8.099405288696289,-0.9988116025924683,-0.7721109390258789,-0.3113030195236206
-1.0328021049499512,6.318547248840332,8.669196128845215,-1.1331980228424072,-0.7812736630439758,-0.14393088221549988
-0.18035900592803955,5.995217323303223,8.748159408569336,-1.1527451276779175,-0.939483106136322,0.040544986724853516
-1.4901303052902222,5.322535037994385,8.731410026550293,-1.0916603803634644,-1.1966497898101807,0.17981816828250885
-1.0136594772338867,5.291428089141846,7.5702924728393555,-1.00797438621521,-1.0726478099822998,0.11934428662061691
-0.8533403873443604,4.810171604156494,7.345067977905273,-0.9071845412254333,-0.8197570443153381,0.1217876747250557
-0.49651068449020386,4.563711166381836,8.125726699829102,-0.9401702880859375,-0.45385950803756714,0.1456107199192047
-0.7501499056816101,4.326522350311279,8.321938514709473,-0.947500467300415,-0.26999449729919434,0.2011978179216385
-0.9490532875061035,3.8862431049346924,8.274081230163574,-0.7782957553863525,-0.1850867122411728,0.18959172070026398
-0.9825528264045715,3.6538400650024414,7.953144073486328,-0.4924192428588867,-0.11972606182098389,0.12789614498615265
-0.9586246013641357,3.9029927253723145,7.960322856903076,-0.24808034300804138,-0.08185353130102158,0.08025006204843521
-1.118943691253662,4.053740501403809,8.135297775268555,-0.16317257285118103,0.029320668429136276,0.05337277799844742
-1.2840484380722046,4.1159539222717285,8.374580383300781,-0.21265120804309845,0.11056335270404816,0.0295497365295887
-1.5068800449371338,4.094418525695801,8.518149375915527,-0.2890070974826813,0.13316470384597778,0.0130568603053689
-1.6959130764007568,3.962813377380371,8.707481384277344,-0.3372640311717987,0.0647498071193695,-0.007711946498602629
-1.7030915021896362,3.9891345500946045,8.7505521774292,-0.38491013646125793,-0.03665083646774292,-0.02970244735479355
-1.4422738552093506,3.8814573287963867,8.496614456176758,-0.43744298815727234,-0.030542362481355667,0.016111096367239952
-1.5547364950180054,3.7184464931488037,8.717052459716797,-0.42339351773262024,0.07452336698770523,0.12484190613031387
-1.8897316455841064,3.486342668533325,8.73619556427002,-0.38185590505599976,0.10750912129878998,0.18226155638694763
-2.1293129920959473,3.2829527854919434,8.956335067749023,-0.3274904787540436,0.1172826737165451,0.1492757946252823
-2.126920223236084,3.352344512939453,9.150452613830566,-0.26579490303993225,0.08490777015686035,0.07597412914037704
-1.9522441625595093,3.507878065109253,9.229415893554688,-0.22792237997055054,0.0647498071193695,0.039323292672634125
-1.9594225883483887,3.589233875274658,9.236594200134277,-0.20898611843585968,0.06352811306715012,0.057648710906505585
-1.9618154764175415,3.5916268825531006,9.229415893554688,-0.19860170781612396,0.06780404597520828,0.06497887521982193
-2.0288145542144775,3.5294134616851807,9.38734245300293,-0.19738002121448517,0.06902574002742767,0.07108735293149948
-1.8705891370773315,3.390629768371582,9.317950248718262,-0.18455222249031067,0.01954711228609085,0.08513683825731277
-1.7509479522705078,3.483949661254883,8.930013656616211,-0.0892600566148758,-0.034818295389413834,0.09368869662284851
-1.5427724123001099,3.3930225372314453,8.5133638381958,0.0817771777510643,-0.05803048983216286,0.1340046226978302
-1.5355939865112305,3.649054527282715,9.523733139038086,0.2002815455198288,0.20524467527866364,0.23357272148132324
-1.7461622953414917,3.601198196411133,9.203095436096191,0.1740151196718216,0.27854636311531067,0.294657438993454
-1.877767562866211,3.713660717010498,8.693124771118164,0.08544225990772247,0.22906772792339325,0.2262425571680069
-1.456630825996399,3.7567315101623535,8.372187614440918,-0.019623467698693275,0.312142938375473,0.14499986171722412
-1.4279168844223022,3.579662561416626,8.475078582763672,-0.02817532978951931,0.5302154421806335,0.15599511563777924
-1.9594225883483887,3.510270833969116,8.781659126281738,0.03229855000972748,0.49173203110694885,0.15049749612808228
-2.3925235271453857,3.821636915206909,10.17009449005127,0.12026055157184601,0.13377554714679718,0.027717193588614464
-1.700698733329773,4.0920257568359375,10.02173900604248,0.06589514762163162,-0.2761029601097107,-0.028480753302574158
-1.8394824266433716,3.9101712703704834,9.523733139038086,-0.1014770045876503,-0.3151971995830536,0.0552053228020668
-2.0144574642181396,3.0672996044158936,8.898907661437988,-0.2071535736322403,-0.2480039894580841,0.07230904698371887
-1.674377679824829,3.4791641235351562,9.454340934753418,-0.2456369549036026,-0.1569877415895462,0.053983625024557114
-1.6528422832489014,3.438486099243164,8.709874153137207,0.10132429003715515,-0.2620534598827362,-0.02176143415272236
-1.4590235948562622,3.5437703132629395,9.044869422912598,0.1336991935968399,-0.1973036676645279,-0.02298312820494175
-1.4446666240692139,3.6083765029907227,9.174381256103516,0.061619218438863754,-0.12705622613430023,-0.005879404954612255
-1.3677972555160522,3.6705899238586426,9.272486686706543,-0.005573981441557407,-0.09956810623407364,0.026495499536395073
-1.4015958309173584,3.5820555686950684,9.923633575439453,0.20700086653232574,-0.20585553348064423,0.011835165321826935
-1.2457633018493652,3.4791641235351562,9.315557479858398,0.059175826609134674,-0.13682979345321655,0.032603971660137177
-1.3630115985870361,3.297309637069702,8.767302513122559,-0.047111593186855316,0.01954711228609085,0.02038702741265297
-1.334297776222229,3.517449378967285,9.066405296325684,-0.08009734749794006,0.033596597611904144,-0.0009926267666742206
-1.090229868888855,3.6945180892944336,9.05444049835205,-0.06726955622434616,0.006108472589403391,0.009391776286065578
-0.7046862840652466,4.010669708251953,8.901300430297852,-0.035505495965480804,0.042759306728839874,0.07963921129703522
-1.4159528017044067,3.3379876613616943,8.915657043457031,0.0555107444524765,-0.016492875292897224,0.16760121285915375
-1.9184455871582031,2.890230655670166,8.958727836608887,0.2118876427412033,-0.04214845970273018,0.03687990456819534
-1.023230791091919,3.6921253204345703,9.708279609680176,0.24487338960170746,-0.18081079423427582,-0.11216682940721512
-0.4223332107067108,4.080061912536621,9.339486122131348,0.13797512650489807,-0.16859383881092072,-0.02970244735479355
-1.0878369808197021,3.460021495819092,9.083154678344727,0.0029778804164379835,-0.022601349279284477,0.09246700257062912
-0.8099704384803772,3.751945972442627,8.681160926818848,-0.03489464893937111,-0.13805148005485535,0.07963921129703522
-0.20189441740512848,3.9173498153686523,8.554341316223145,-0.02145601063966751,-0.1948602795600891,0.09307785332202911
-0.7549355626106262,3.720839262008667,9.40169906616211,0.028633465990424156,-0.16004198789596558,0.15416257083415985
-0.2955136001110077,3.3308091163635254,9.23898696899414,-0.03061871975660324,-0.12766708433628082,0.09979717433452606
0.032602209597826004,3.620340585708618,8.448758125305176,0.08299887180328369,0.0781884491443634,0.0692548081278801
0.3032902777194977,3.7734813690185547,8.8438720703125,0.11354123055934906,0.22906772792339325,0.06620056927204132
0.4540380835533142,3.804887056350708,8.709874153137207,0.14530529081821442,0.34573954343795776,0.07780666649341583
0.10438688844442368,3.9819560050964355,8.755337715148926,0.17890189588069916,0.1447708010673523,-0.06452073901891708
-0.39840495586395264,4.264308929443359,10.345069885253906,0.11537377536296844,-0.09040539711713791,-0.22334103286266327
0.38225340843200684,4.503890514373779,10.30917739868164,-0.19554747641086578,-0.4172086715698242,-0.3106921911239624
0.0445663221180439,4.058526515960693,9.576375007629395,-0.5076904296875,-0.40254834294319153,-0.26243525743484497
0.22402802109718323,3.3643085956573486,9.423234939575195,-0.5852680206298828,-0.2583884000778198,-0.24166645109653473
0.6071787476539612,3.452843189239502,9.780064582824707,-0.540065348148346,-0.3286358118057251,-0.19035527110099792
0.6693921089172363,3.7782669067382812,9.564411163330078,-0.4160633385181427,-0.4049917459487915,-0.05474718660116196
0.5282155871391296,3.8072798252105713,9.327521324157715,-0.29511559009552,-0.4825693368911743,0.06497887521982193
0.5593222975730896,3.900599956512451,8.863015174865723,-0.18821731209754944,-0.5369347333908081,0.12239851802587509
0.600000262260437,3.7184464931488037,7.99172830581665,-0.011682453565299511,-0.49173203110694885,0.1474432498216629
0.7794619798660278,3.4337005615234375,8.254939079284668,0.20394663512706757,-0.20585553348064423,0.12728530168533325
-0.11096715182065964,3.3954153060913086,8.61894702911377,0.3187859058380127,0.08735115826129913,0.024662958458065987
0.35832518339157104,3.993920087814331,10.397711753845215,0.31023404002189636,-0.07452336698770523,-0.16347800195217133
1.0142576694488525,4.599603176116943,9.794421195983887,0.15080291032791138,-0.3524588644504547,-0.20135052502155304
0.48514479398727417,3.7806596755981445,8.147261619567871,-0.0019088976550847292,-0.21868331730365753,-0.16164545714855194
0.5832505226135254,3.31884503364563,8.508578300476074,-0.05688514932990074,-0.1569877415895462,-0.2208976447582245
1.174576759338379,3.8455650806427,9.435198783874512,-0.13385190069675446,-0.11483928561210632,-0.21234577894210815
0.600000262260437,3.4002010822296143,8.398508071899414,0.22105035185813904,0.061084724962711334,0.03565821051597595
0.4133601188659668,3.713660717010498,9.243772506713867,0.41774317622184753,-0.1172826737165451,-0.048638712614774704
0.4731806814670563,3.3786656856536865,9.044869422912598,0.2008923888206482,0.01954711228609085,-0.07368344813585281
0.968794047832489,4.245166301727295,9.564411163330078,0.12575818598270416,0.02626643143594265,-0.03336753323674202
1.069292664527893,4.326522350311279,9.37298583984375,-0.030007870867848396,-0.03665083646774292,0.0692548081278801
0.2599203586578369,3.7929229736328125,9.530911445617676,-0.0165692325681448,-0.09529217332601547,0.15355172753334045
0.35114672780036926,3.493520975112915,9.083154678344727,-0.04650074616074562,-0.08857285231351852,0.1211768239736557
0.9376873970031738,3.9508492946624756,9.322735786437988,-0.08009734749794006,0.20463383197784424,0.15110833942890167
0.50907301902771,3.8336009979248047,9.260522842407227,-0.04650074616074562,0.2877090573310852,0.23112933337688446
0.07088737189769745,3.797708749771118,9.083154678344727,-0.06421531736850739,0.16187451779842377,0.2763320207595825
0.17138592898845673,3.6442689895629883,9.1624174118042,-0.17355698347091675,0.16187451779842377,0.2781645655632019
0.18813568353652954,3.4672000408172607,9.265308380126953,-0.22547899186611176,0.2864873707294464,0.28244051337242126
-0.07028916478157043,3.2757742404937744,9.70349407196045,-0.1149156391620636,0.3946073353290558,0.26167169213294983
-0.12053844332695007,3.206083297729492,9.454340934753418,0.05978667363524437,0.2638860046863556,0.21463645994663239
-0.3002992272377014,3.2997024059295654,9.140881538391113,0.2393757700920105,0.062306419014930725,0.16515782475471497
-0.3122633695602417,3.617947816848755,8.906085968017578,0.28274592757225037,-0.11667182296514511,0.11018157750368118
-0.22821545600891113,3.6155550479888916,8.920442581176758,0.19478392601013184,-0.15087927877902985,0.0686439573764801
-0.18035900592803955,3.5916268825531006,8.884550094604492,0.10926530510187149,-0.1698155403137207,0.05948125198483467
-0.30508488416671753,3.5533416271209717,8.638090133666992,0.11659546941518784,-0.23273280262947083,0.07108735293149948
-0.4342973232269287,3.541377544403076,8.606983184814453,0.15019206702709198,-0.29748260974884033,0.07169819623231888
-0.40797626972198486,3.5437703132629395,8.693124771118164,0.2387649267911911,-0.45447036623954773,0.0558161698281765
-0.19232311844825745,3.572484254837036,9.025727272033691,0.29740625619888306,-0.5619794726371765,0.03993413969874382
-0.03918246924877167,3.7016966342926025,9.382556915283203,0.34016555547714233,-0.6267293095588684,0.03382566571235657
-0.010468599386513233,3.6993038654327393,8.80798053741455,0.4250733256340027,-0.754396378993988,0.0680331140756607
0.07328019291162491,3.672982692718506,9.133703231811523,0.5490753054618835,-0.6114581227302551,0.06192464008927345
0.05892325937747955,3.8503506183624268,9.260522842407227,0.5814502239227295,-0.6090146899223328,0.0552053228020668
0.09002995491027832,4.003491401672363,9.078369140625,0.5857261419296265,-0.6365028619766235,0.06558972597122192
0.2790629267692566,3.931706666946411,8.989834785461426,0.5362475514411926,-0.5607577562332153,0.06986565887928009
0.3487538993358612,4.005884170532227,9.044869422912598,0.5124244689941406,-0.4874561131000519,0.06253548711538315
0.7292127013206482,4.415356159210205,8.664410591125488,0.4855472147464752,-0.3261924386024475,0.060092099010944366
0.49232324957847595,4.671388149261475,9.329915046691895,0.4617241621017456,0.05619794875383377,0.09124530851840973
