accX,accY,accZ,gyroX,gyroY,gyroZ
0.5725972652435303,0.4428602457046509,9.915355682373047,0.0031590459402650595,-0.006195918656885624,-1.7453292457503267e-05
0.5881116986274719,0.4036528170108795,9.801142692565918,-0.008517206646502018,0.0032114058267325163,0.00029670598451048136
0.5880542397499084,0.37155136466026306,9.703986167907715,-0.0024085543118417263,0.0007504915702156723,0.00029670598451048136
0.6021416783332825,0.3841831684112549,9.870929718017578,0.0016057029133662581,-0.0012915435945615172,0.00041887903353199363
0.517310380935669,0.46469536423683167,9.867960929870605,0.0014137167017906904,-0.0022689281031489372,0.001117010717280209
0.5004552006721497,0.488733172416687,9.87389850616455,-0.002949606394395232,0.000715585018042475,0.0003316125657875091
0.5834382176399231,0.44329121708869934,9.828476905822754,-0.00125663704238832,0.0006632251315750182,-0.00041887903353199363
0.6034058332443237,0.41465654969215393,9.860452651977539,-0.002146754879504442,0.002722713630646467,-0.00027925267932005227
0.5733059644699097,0.39248624444007874,9.901670455932617,-0.0032114058267325163,0.003054326167330146,0.00047123889089562
0.5484541058540344,0.4375355541706085,9.835725784301758,-0.0038746309000998735,0.0019547687843441963,0.00013962633966002613
0.5144469141960144,0.4876701235771179,9.80024242401123,-0.003176499158143997,0.0015882495790719986,0.00019198621157556772
0.5905824899673462,0.40484991669654846,9.86900520324707,0.00024434609804302454,-0.0007679448463022709,0.00010471975838299841
0.6020650863647461,0.38603147864341736,9.825889587402344,-0.0006806784076616168,-0.00125663704238832,-0.0007679448463022709
0.5741774439811707,0.4279204308986664,9.85694694519043,0.00062831852119416,-0.001518436474725604,-6.981316983001307e-05
0.5255272388458252,0.47681960463523865,9.868870735168457,-0.005550147034227848,0.00205948855727911,0.0003316125657875091
0.49226701259613037,0.49326297640800476,9.823773384094238,-0.00563741335645318,0.004520402755588293,-0.00012217304902151227
0.4988941550254822,0.46937844157218933,9.805021286010742,-0.00617846567183733,0.005061454605311155,0.00040142572834156454
0.5240045189857483,0.4434061348438263,9.833541870117188,-0.0027052604127675295,0.0016755161341279745,0.00012217304902151227
0.579779863357544,0.41080668568611145,9.875171661376953,-0.0015882495790719986,0.0008203047327697277,-0.00012217304902151227
0.5865123271942139,0.3799118995666504,9.865241050720215,-0.0025307273026555777,3.490658491500653e-05,0.0003316125657875091
0.5524380803108215,0.40145015716552734,9.802781105041504,-0.0012391837080940604,-0.000715585018042475,-0.0002617993741296232
0.5288121104240417,0.44523531198501587,9.786941528320312,0.0011344640515744686,-0.0006108652451075613,0.0006632251315750182
0.5253452658653259,0.4775857627391815,9.907801628112793,-0.0011344640515744686,0.0006457717972807586,-0.00017453292093705386
0.5531467795372009,0.4601368308067322,9.882172584533691,-0.0019024088978767395,0.0025656339712440968,-0.00045378561480902135
0.5780177116394043,0.4323257803916931,9.809982299804688,-0.005515240598469973,0.004468042869120836,0.0010122909443452954
0.5567763447761536,0.39026445150375366,9.838626861572266,-0.0036651913542300463,0.00031415926059708,6.981316983001307e-05
0.44651859998703003,0.3960200846195221,9.965816497802734,0.022165682166814804,0.007923794910311699,-0.0010471974965184927
0.6180104613304138,0.5048413276672363,10.164468765258789,0.0015009831404313445,-0.005113814491778612,0.00062831852119416
0.6353157758712769,0.4231128692626953,10.078295707702637,-0.005532693583518267,0.01507964450865984,-0.0063355453312397
0.5966829061508179,0.37273886799812317,9.491439819335938,-0.0031241392716765404,0.0020943949930369854,-0.0036477381363511086
0.6228275895118713,0.41828617453575134,9.77206802368164,0.003228859044611454,0.00013962633966002613,0.0003316125657875091
0.519273579120636,0.45848003029823303,10.16260051727295,-0.009075712412595749,0.003926991019397974,1.7453292457503267e-05
0.43514135479927063,0.44264957308769226,9.834710121154785,-0.00890117883682251,0.0045553091913461685,-0.0002617993741296232
0.487392395734787,0.46538490056991577,9.541220664978027,0.000715585018042475,-0.0033335788175463676,-0.00094247778179124
0.5547939538955688,0.4255262315273285,9.894938468933105,0.006003932561725378,-0.0022165682166814804,0.0005410520825535059
0.5818484425544739,0.381415456533432,10.088179588317871,0.00041887903353199363,-0.00040142572834156454,0.00024434609804302454
0.5826050043106079,0.3962786793708801,9.948424339294434,-0.0011693706037476659,0.0009773843921720982,0.00024434609804302454
0.5442978143692017,0.4680759906768799,9.632706642150879,0.00043633230961859226,-0.001483529806137085,-0.0005759586347267032
0.501824676990509,0.4683345556259155,9.882843017578125,0.00029670598451048136,-1.7453292457503267e-05,0.00041887903353199363
0.5351136326789856,0.4446223974227905,9.905752182006836,-0.0070685832761228085,0.0031590459402650595,-0.0008901178953237832
0.5233628749847412,0.4419504702091217,9.631271362304688,-0.0028448866214603186,0.0017104226863011718,-3.490658491500653e-05
0.5913103222846985,0.3780252933502197,10.033169746398926,0.002740166848525405,-0.0021118484437465668,0.00027925267932005227
0.5638919472694397,0.43164581060409546,9.902599334716797,-0.0027052604127675295,0.00038397242315113544,0.00010471975838299841
0.506392776966095,0.4974672198295593,9.619231224060059,-0.0008377580670639873,0.0003665191470645368,0.00015707963029854
0.496528685092926,0.4914338290691376,9.864378929138184,0.0019198621157556772,-0.0007679448463022709,0.00031415926059708
0.5445276498794556,0.4478497803211212,10.029167175292969,-0.004764748737215996,0.007470009382814169,0.0002617993741296232
0.21272002160549164,0.25875574350357056,9.595088958740234,0.008028514683246613,0.0021642083302140236,-0.0006457717972807586
0.4744541347026825,0.4221169054508209,9.902877807617188,-0.009826203808188438,-0.01532399095594883,-0.00038397242315113544
0.6948451995849609,0.39732253551483154,10.028266906738281,-0.002007128670811653,0.004241149872541428,-0.00094247778179124
0.6041528582572937,0.4109024703502655,9.721923828125,-0.0023911010939627886,0.0006108652451075613,0.0008726646192371845
0.5323267579078674,0.47832316160202026,9.537436485290527,0.0031415927223861217,-0.002199114765971899,1.7453292457503267e-05
0.5077909827232361,0.4862910807132721,10.079475402832031,-0.00045378561480902135,-0.0032463124953210354,0.0
0.507024884223938,0.465308278799057,10.067713737487793,-0.006998770404607058,0.002740166848525405,0.00017453292093705386
0.5517485737800598,0.44876915216445923,9.58401870727539,-0.006405358202755451,0.0023038345389068127,-0.00015707963029854
0.5211985111236572,0.3898717761039734,9.935784339904785,0.0024434609804302454,-0.00027925267932005227,-6.981316983001307e-05
0.5383410453796387,0.47065216302871704,9.604723930358887,-0.0034208453726023436,-0.0016231562476605177,0.00038397242315113544
0.5133742690086365,0.43987229466438293,9.867137908935547,0.0028623400721699,-0.0017278759041801095,-6.981316983001307e-05
0.547295331954956,0.4330727756023407,10.05829906463623,0.001483529806137085,0.00015707963029854,-0.0004886921960860491
0.5877764821052551,0.44104066491127014,9.946270942687988,-0.007504915818572044,0.005969026125967503,0.00017453292093705386
0.5501971244812012,0.3991517126560211,9.655355453491211,-0.0028972465079277754,0.0026354470755904913,0.0008377580670639873
0.5750489234924316,0.44738051295280457,9.8653564453125,0.0036651913542300463,-0.0018151424592360854,-1.7453292457503267e-05
0.580536425113678,0.43625226616859436,9.99410629272461,0.0008901178953237832,-0.0006806784076616168,-1.7453292457503267e-05
0.5819729566574097,0.41681134700775146,10.020605087280273,-0.0011519172694534063,0.00020943951676599681,0.00010471975838299841
0.5583757162094116,0.43281418085098267,9.76242446899414,-0.005672320257872343,0.0016755161341279745,-1.7453292457503267e-05
0.5291281342506409,0.464551717042923,9.710527420043945,-0.0005410520825535059,0.00029670598451048136,0.00041887903353199363
0.568086564540863,0.42746075987815857,9.733053207397461,-0.00094247778179124,0.00015707963029854,0.00041887903353199363
0.5356978178024292,0.42103472352027893,9.872836112976074,-0.0008203047327697277,-0.0005061454721726477,-0.0006981316837482154
0.557580828666687,0.44558966159820557,9.917874336242676,-0.0024260077625513077,0.00125663704238832,0.00027925267932005227
0.5380920171737671,0.46077847480773926,9.765738487243652,-0.0025307273026555777,0.0040317103266716,0.00041887903353199363
0.5220317244529724,0.41574832797050476,9.828207969665527,-0.0009773843921720982,0.0006457717972807586,0.00041887903353199363
0.5548035502433777,0.4371524751186371,9.947888374328613,-0.00094247778179124,-0.0016929693520069122,0.00031415926059708
0.5683355927467346,0.434882789850235,9.833531379699707,-0.0019198621157556772,0.0005410520825535059,0.0
0.53745037317276,0.42814069986343384,9.747418403625488,-0.00010471975838299841,-0.00010471975838299841,0.00012217304902151227
0.541664183139801,0.43297699093818665,9.890801429748535,0.0019198621157556772,-0.00017453292093705386,-8.726646046852693e-05
0.5340601801872253,0.43609902262687683,9.838674545288086,-0.0008028514566831291,0.00024434609804302454,-1.7453292457503267e-05
0.5431198477745056,0.43001776933670044,9.920356750488281,-0.00013962633966002613,0.00022689280740451068,0.0003490658418741077
0.5564124584197998,0.45452481508255005,9.876235008239746,0.0011344640515744686,-0.0021118484437465668,0.0006981316837482154
0.5339452624320984,0.4366544783115387,9.835667610168457,-0.004502949304878712,0.0016755161341279745,0.0008901178953237832
0.549038290977478,0.43616607785224915,9.877385139465332,0.0007330382941290736,-0.003089232835918665,0.00029670598451048136
0.5530126690864563,0.4358596205711365,9.866677284240723,-0.0024260077625513077,0.0005235987482592463,0.00013962633966002613
0.5324895977973938,0.433589905500412,9.791173934936523,-0.0023561944253742695,0.0023561944253742695,6.981316983001307e-05
0.5408980250358582,0.42776721715927124,9.930506706237793,-0.0046774824149906635,0.004084070213139057,0.00043633230961859226
0.5348646640777588,0.4284854829311371,9.829959869384766,-0.0024958208668977022,0.0014660765882581472,0.00010471975838299841
0.532154381275177,0.4431571364402771,9.78636646270752,0.001658062799833715,-0.0045553091913461685,0.00041887903353199363
0.5575616955757141,0.4474475383758545,9.867827415466309,-0.0018675023457035422,0.0019198621157556772,-0.00029670598451048136
0.5462131500244141,0.4488266110420227,9.867241859436035,-0.0013089969288557768,0.016528267413377762,8.726646046852693e-05
0.5044103860855103,0.43645337224006653,9.969791412353516,0.007906341925263405,0.020315632224082947,-0.00143117003608495
0.48411715030670166,0.4544864892959595,9.931303024291992,-0.007103490177541971,-0.007400196045637131,-0.0009599310578778386
0.5334185361862183,0.3912029564380646,9.973611831665039,-0.007173303049057722,-0.003717551240697503,-0.0003490658418741077
0.5575520992279053,0.3958094120025635,9.632773399353027,-0.002740166848525405,-0.003944444004446268,0.0005934119690209627
0.5455140471458435,0.45775219798088074,9.811208724975586,0.004363323096185923,-0.0036826448049396276,0.0006108652451075613
0.5034431219100952,0.494316428899765,10.022597312927246,-0.00251327408477664,0.0008552113431505859,-8.726646046852693e-05
0.5084038972854614,0.44522571563720703,9.826244354248047,-0.004398229531943798,0.0030194194987416267,0.0
0.5800575613975525,0.41355523467063904,9.763967514038086,0.0013264502631500363,1.7453292457503267e-05,0.00041887903353199363
0.59028559923172,0.3816644549369812,10.01002311706543,-0.0003665191470645368,-0.001658062799833715,-0.0009948377264663577
0.5553877353668213,0.4323832392692566,9.861457824707031,-0.0015358896926045418,0.002914699725806713,6.981316983001307e-05
0.5123878717422485,0.5002923607826233,9.66614818572998,0.0005235987482592463,-0.0021816615480929613,3.490658491500653e-05
0.5064789652824402,0.4721652865409851,9.891443252563477,-0.0010122909443452954,0.0017104226863011718,-0.0005061454721726477
0.5277586579322815,0.4521018862724304,10.045487403869629,-0.00012217304902151227,0.00010471975838299841,0.00013962633966002613
0.5714576244354248,0.4140627980232239,9.907368659973145,-0.0036128314677625895,0.002600540639832616,0.00038397242315113544
0.5839074850082397,0.40030092000961304,9.792974472045898,-0.0028972465079277754,-0.00022689280740451068,0.0005934119690209627
0.513738214969635,0.4246547520160675,9.499168395996094,0.0,-0.009721484035253525,0.00041887903353199363
0.5536447763442993,0.4404852092266083,10.136398315429688,-0.003281218931078911,0.0037000980228185654,0.0003316125657875091
0.4737071394920349,0.4667831063270569,9.78215217590332,-0.00472984230145812,0.007749261800199747,0.00019198621157556772
0.5163431167602539,0.46315351128578186,9.633933067321777,0.0011693706037476659,0.0013962633674964309,0.0006806784076616168
0.5754128098487854,0.4462600350379944,9.99852180480957,-0.0024958208668977022,0.0024958208668977022,0.0
0.5646006464958191,0.3864337205886841,10.038102149963379,-0.012897983193397522,0.010559242218732834,-0.00020943951676599681
0.5454469919204712,0.4379952549934387,9.596697807312012,-0.004956734832376242,0.0018325956771150231,0.0007504915702156723
0.5009052753448486,0.4646187722682953,9.690378189086914,-0.0008726646192371845,-0.0005934119690209627,8.726646046852693e-05
0.4938184320926666,0.44614511728286743,10.081295013427734,0.0024260077625513077,-0.0024434609804302454,0.00022689280740451068
0.5155099034309387,0.4261966049671173,9.919791221618652,-0.0025656339712440968,0.0042236968874931335,-3.490658491500653e-05
0.5853152275085449,0.385581374168396,9.889143943786621,0.0031939526088535786,-0.0015707963611930609,0.00047123889089562
0.5801724791526794,0.39898890256881714,10.019639015197754,0.0033859387040138245,-0.0020769417751580477,0.00043633230961859226
0.5350274443626404,0.4641878008842468,9.930564880371094,-0.004450589418411255,0.003403391921892762,0.00047123889089562
0.5124836564064026,0.49261176586151123,9.686528205871582,-0.005270894151180983,0.004642575979232788,0.0005759586347267032
0.5111333131790161,0.4503684639930725,9.872787475585938,0.0002617993741296232,-0.0015533430268988013,0.00040142572834156454
0.5540373921394348,0.41910019516944885,9.985546112060547,-0.0027576202992349863,0.0007504915702156723,0.00012217304902151227
0.5602239966392517,0.39990827441215515,9.733415603637695,-0.0031939526088535786,0.0031066860537976027,0.0007679448463022709
0.5548514127731323,0.4167347252368927,9.702378273010254,0.00205948855727911,-0.0007504915702156723,0.00038397242315113544
0.5555601119995117,0.45052170753479004,10.011191368103027,0.003577925032004714,-0.0017104226863011718,-0.0005934119690209627
0.5276437401771545,0.49305230379104614,9.937374114990234,-0.0031241392716765404,0.00029670598451048136,-5.2359879191499203e-05
0.5585289001464844,0.4336569607257843,9.696276664733887,0.0020420351065695286,-0.0016057029133662581,0.00041887903353199363
0.576744019985199,0.4061044752597809,9.921446800231934,-0.00029670598451048136,0.00022689280740451068,0.0
0.5751638412475586,0.40364325046539307,9.91424560546875,-0.0010646508308127522,0.0007504915702156723,0.0
0.5288312435150146,0.46650540828704834,9.750261306762695,0.00188495556358248,-0.0020420351065695286,0.00031415926059708
0.555109977722168,0.40749311447143555,9.849860191345215,-0.0011519172694534063,0.0019373154500499368,6.981316983001307e-05
0.5730186104774475,0.4254304766654968,9.896356582641602,-0.0011693706037476659,0.0008203047327697277,0.00040142572834156454
0.557915985584259,0.4583938419818878,9.839766502380371,-0.0036651913542300463,0.001343903481028974,-6.981316983001307e-05
0.5143319368362427,0.4549940824508667,9.76831340789795,-0.001972222002223134,0.0011693706037476659,0.00024434609804302454
0.5387145280838013,0.44954487681388855,9.871599197387695,-0.0014137167017906904,0.0013613568153232336,0.00038397242315113544
0.5548801422119141,0.420804888010025,9.89979362487793,-0.0016755161341279745,0.0006981316837482154,0.00029670598451048136
0.5745126008987427,0.4280449450016022,9.834077835083008,-0.003036872949451208,0.0012391837080940604,0.000715585018042475
0.5510302782058716,0.43191397190093994,9.821771621704102,-0.004363323096185923,0.0011344640515744686,0.00013962633966002613
0.5256613492965698,0.43324515223503113,9.823698043823242,-0.002548180753365159,0.0037350046914070845,0.0007330382941290736
0.5246940851211548,0.45395976305007935,9.867940902709961,-0.0005410520825535059,0.001483529806137085,-0.00019198621157556772
0.5322788953781128,0.4329482614994049,9.877106666564941,-0.0012740903766825795,0.00047123889089562,0.0002617993741296232
0.5631545186042786,0.40242698788642883,9.824530601501465,0.0017802357906475663,-0.0057072266936302185,0.00019198621157556772
0.5499193668365479,0.4306498169898987,9.81225299835205,0.0018151424592360854,-0.003717551240697503,-3.490658491500653e-05
0.532575786113739,0.4706617295742035,9.865097999572754,-0.00038397242315113544,0.0008726646192371845,-0.00024434609804302454
0.5316468477249146,0.4588726758956909,9.894660949707031,0.00012217304902151227,-3.490658491500653e-05,-0.0002617993741296232
0.5684600472450256,0.4387039244174957,9.843626022338867,-0.0015009831404313445,0.0009948377264663577,-0.00010471975838299841
0.5553877353668213,0.4137946367263794,9.826062202453613,0.0013613568153232336,-0.002199114765971899,8.726646046852693e-05
0.5680387020111084,0.4195024371147156,9.84485149383545,-0.0016406094655394554,0.00015707963029854,0.0005759586347267032
0.5528498888015747,0.42174339294433594,9.858287811279297,-0.0017278759041801095,0.0011868239380419254,0.0003665191470645368
0.5368374586105347,0.42434829473495483,9.84659481048584,-0.0011868239380419254,0.001117010717280209,0.00041887903353199363
0.5203749537467957,0.4575989544391632,9.875123977661133,0.00019198621157556772,0.00019198621157556772,0.00012217304902151227
0.5249622464179993,0.4762641489505768,9.872175216674805,-0.0006981316837482154,-0.0005585053586401045,-0.00010471975838299841
0.5424111485481262,0.4550706744194031,9.85549259185791,-0.0006632251315750182,-0.0011344640515744686,3.490658491500653e-05
0.5520645976066589,0.4382633864879608,9.835275650024414,-0.0012042771559208632,0.0004886921960860491,0.00013962633966002613
0.5573030710220337,0.40757930278778076,9.866314888000488,-0.0018675023457035422,0.0019896754529327154,0.0005061454721726477
0.5674736499786377,0.41372761130332947,9.845071792602539,0.004852015525102615,-0.0010471974965184927,0.0003665191470645368
0.5428325533866882,0.4232565462589264,9.85677433013916,0.0005061454721726477,0.001745329238474369,0.00024434609804302454
0.5300666689872742,0.4559996426105499,9.822500228881836,0.0016057029133662581,0.0014660765882581472,0.0003665191470645368
0.527069091796875,0.419464111328125,9.825774192810059,0.0028623400721699,0.001518436474725604,-5.2359879191499203e-05
0.5487893223762512,0.4282747805118561,10.02322006225586,0.021415190771222115,0.014608405530452728,-0.0023561944253742695
0.5753649473190308,0.45804905891418457,9.897869110107422,-0.0026354470755904913,-0.0028448866214603186,-0.0008203047327697277
0.5822506546974182,0.3883778154850006,10.020720481872559,-0.015707964077591896,0.011431906372308731,0.0005235987482592463
0.5306508541107178,0.41503962874412537,9.500948905944824,-0.005340707488358021,-0.00724311638623476,0.0007504915702156723
0.5927277207374573,0.49989014863967896,9.861161231994629,0.0016057029133662581,-0.0010471974965184927,0.00015707963029854
0.476561039686203,0.4275948405265808,9.901058197021484,-0.0033859387040138245,0.002146754879504442,0.00012217304902151227
0.5874508619308472,0.49400997161865234,9.701764106750488,0.0009250245057046413,-0.0003316125657875091,-0.00027925267932005227
0.564409077167511,0.4085082411766052,9.785331726074219,-0.0016406094655394554,-0.0004886921960860491,-0.00024434609804302454
0.5459833145141602,0.3737923204898834,9.991406440734863,0.004206243436783552,-0.00457276264205575,-0.0005410520825535059
0.6090753078460693,0.4828529953956604,9.863286972045898,-0.0020943949930369854,0.0005235987482592463,0.00022689280740451068
0.5265136361122131,0.46666818857192993,9.713688850402832,-0.004886921960860491,0.005218534264713526,0.00038397242315113544
0.4975055158138275,0.4472559988498688,9.940112113952637,0.0017278759041801095,-0.00062831852119416,0.00041887903353199363
0.5723291039466858,0.4704510271549225,9.995467185974121,-0.005270894151180983,0.002024581888690591,3.490658491500653e-05
0.542870819568634,0.4197610020637512,9.694677352905273,-0.006719517521560192,0.0032114058267325163,1.7453292457503267e-05
0.5550621151924133,0.38654863834381104,9.721378326416016,-0.0025656339712440968,0.005393067374825478,0.00029670598451048136
0.5799043774604797,0.4403702914714813,10.023449897766113,0.0032463124953210354,-0.00045378561480902135,0.00040142572834156454
0.5415109395980835,0.45737868547439575,9.88727855682373,-0.0020943949930369854,0.0028623400721699,0.00041887903353199363
0.5318958163261414,0.4573212265968323,9.753116607666016,0.00022689280740451068,-0.0005410520825535059,0.0006108652451075613
0.5651273727416992,0.4657488167285919,9.87509536743164,0.0015882495790719986,-0.00205948855727911,-0.0005934119690209627
0.5348167419433594,0.4106726050376892,9.87325668334961,-0.004310963209718466,0.005061454605311155,0.0003490658418741077
0.5697721242904663,0.4021300971508026,9.803997039794922,-0.0013788101496174932,0.0017278759041801095,-0.00031415926059708
0.5577436089515686,0.4382825493812561,9.856833457946777,-0.0021642083302140236,0.0012915435945615172,0.00029670598451048136
0.5017863512039185,0.4521210193634033,9.89167308807373,-0.00143117003608495,-0.0006806784076616168,-1.7453292457503267e-05
0.5182680487632751,0.46285662055015564,9.829298973083496,0.00029670598451048136,-0.0003665191470645368,0.00041887903353199363
0.5530126690864563,0.45670831203460693,9.789191246032715,-0.0023038345389068127,0.0011519172694534063,-0.00019198621157556772
0.5438955426216125,0.4070717394351959,9.869417190551758,-0.0011344640515744686,0.001972222002223134,-0.00015707963029854
0.5419131517410278,0.4356106221675873,9.920441627502441,-0.001483529806137085,0.0009773843921720982,-1.7453292457503267e-05
0.5460024476051331,0.4485105872154236,9.80854606628418,-0.003403391921892762,0.002478367416188121,0.0008552113431505859
0.5196375250816345,0.4337814450263977,9.78771686553955,-0.0003490658418741077,-0.0012740903766825795,-0.00013962633966002613
0.5633173584938049,0.4290026128292084,9.887038230895996,0.0027576202992349863,0.00043633230961859226,-0.00024434609804302454
0.5640643239021301,0.43212464451789856,9.882230758666992,-0.00040142572834156454,0.0018500490114092827,0.00012217304902151227
0.5523518919944763,0.4518528878688812,9.821639060974121,0.00125663704238832,0.00043633230961859226,0.00041887903353199363
0.5286397337913513,0.4718875586986542,9.843301773071289,-6.981316983001307e-05,0.0011519172694534063,0.0005410520825535059
0.539193332195282,0.46623724699020386,10.052581787109375,0.00125663704238832,-0.00017453292093705386,-0.001658062799833715
0.5496799349784851,0.48146435618400574,9.591602325439453,0.001518436474725604,-0.0030717793852090836,-0.00808087456971407
0.6394912600517273,0.38450878858566284,10.129263877868652,-0.007522369269281626,-0.0026354470755904913,-0.006126105785369873
0.539068877696991,0.32978689670562744,9.714808464050293,-0.00815068744122982,-0.0013089969288557768,-0.0008203047327697277
0.5613061785697937,0.4393455684185028,9.773111343383789,-0.00041887903353199363,-0.0073303827084600925,0.0
0.5304401516914368,0.5043720602989197,9.978964805603027,-0.004485496319830418,-0.0008203047327697277,0.0008901178953237832
0.4593323767185211,0.45952391624450684,9.90367317199707,-0.005916666239500046,0.0036651913542300463,0.00041887903353199363
0.5738518238067627,0.45069408416748047,9.769206047058105,-0.0013613568153232336,0.0011344640515744686,6.981316983001307e-05
0.5576574206352234,0.3852461874485016,9.907723426818848,-0.0008726646192371845,0.0010646508308127522,0.00041887903353199363
0.5549376010894775,0.3682281970977783,9.941405296325684,0.0012915435945615172,-0.0011519172694534063,0.00031415926059708
0.5568817257881165,0.42753738164901733,9.821972846984863,0.0004886921960860491,-0.00143117003608495,-0.00047123889089562
0.518727719783783,0.4636419415473938,9.72694206237793,-0.0007853981805965304,0.000715585018042475,6.981316983001307e-05
0.5379196405410767,0.4608263373374939,9.983869552612305,-0.00031415926059708,-0.00031415926059708,0.00012217304902151227
0.5460790991783142,0.3983951508998871,9.711734771728516,-0.0031590459402650595,-3.490658491500653e-05,0.00012217304902151227
0.5570828318595886,0.40034881234169006,9.859332084655762,-0.00045378561480902135,-0.0005061454721726477,-0.0005410520825535059
0.5320011973381042,0.44702616333961487,9.91731071472168,-0.00205948855727911,0.002809980185702443,0.0
0.5586055517196655,0.44249632954597473,9.878495216369629,3.490658491500653e-05,0.00019198621157556772,0.00040142572834156454
0.574254035949707,0.4329099655151367,9.884385108947754,-0.0018675023457035422,0.00012217304902151227,8.726646046852693e-05
0.5562304854393005,0.42679038643836975,9.792083740234375,-0.00331612559966743,0.002007128670811653,0.00038397242315113544
0.5471900105476379,0.43841663002967834,9.808067321777344,-0.00125663704238832,0.0011519172694534063,0.00043633230961859226
0.5414343476295471,0.4419887661933899,9.768381118774414,-0.0008203047327697277,-0.00031415926059708,0.0004886921960860491
0.565376341342926,0.4260529577732086,9.810269355773926,0.0009599310578778386,-0.001117010717280209,0.0003665191470645368
0.5542480945587158,0.4398627281188965,9.904275894165039,-0.0010821041651070118,0.0016231562476605177,-0.00043633230961859226
0.5528977513313293,0.4713895618915558,9.886520385742188,-0.0021118484437465668,0.0006457717972807586,0.00043633230961859226
0.5383123159408569,0.4419887661933899,9.866141319274902,-0.002007128670811653,0.0033335788175463676,0.0
0.5440200567245483,0.4201344847679138,9.823821067810059,-0.00125663704238832,0.0013962633674964309,0.00013962633966002613
0.5612487196922302,0.4291175305843353,9.844182014465332,0.0019373154500499368,-0.0006108652451075613,0.0
0.5696476101875305,0.44247719645500183,9.909111976623535,0.00062831852119416,-0.0018675023457035422,0.000715585018042475
0.5365980267524719,0.46077847480773926,9.85641098022461,-0.0017278759041801095,0.0013613568153232336,0.0007679448463022709
0.5222424268722534,0.4623298943042755,9.82228946685791,-0.002548180753365159,0.0019024088978767395,0.00045378561480902135
0.5482242703437805,0.42912712693214417,9.896374702453613,-0.0025307273026555777,0.0023911010939627886,6.981316983001307e-05
0.562455415725708,0.43060195446014404,9.912590026855469,-0.0012915435945615172,0.002286381321027875,0.00027925267932005227
0.5420663952827454,0.4329003691673279,9.84610652923584,-0.0025656339712440968,0.0011344640515744686,0.00010471975838299841
0.5463184714317322,0.4677408039569855,9.807214736938477,3.490658491500653e-05,-0.00045378561480902135,-1.7453292457503267e-05
0.5502162575721741,0.4394221901893616,9.895331382751465,0.00296705961227417,-0.0023911010939627886,-0.00013962633966002613
0.5612199902534485,0.4499758183956146,9.884279251098633,-0.0049916417337954044,0.0066147977486252785,0.00013962633966002613
0.5719460248947144,0.44787850975990295,9.861027717590332,-0.003525565145537257,0.0031415927223861217,0.00031415926059708
0.5464525818824768,0.43581172823905945,9.858843803405762,-0.0031590459402650595,0.0016929693520069122,0.00038397242315113544
0.5565273761749268,0.42897388339042664,9.846681594848633,-0.0031590459402650595,0.0015533430268988013,0.00031415926059708
0.5393465757369995,0.44341570138931274,9.893760681152344,-0.0009773843921720982,0.0004886921960860491,0.00012217304902151227
0.546107828617096,0.44281238317489624,9.856278419494629,-0.0014486232539638877,0.00017453292093705386,0.00015707963029854
0.5572648048400879,0.4413471221923828,9.815604209899902,0.0027052604127675295,-0.0035953782498836517,-1.7453292457503267e-05
0.5736315250396729,0.43772709369659424,9.857004165649414,-0.0019024088978767395,0.00251327408477664,0.00041887903353199363
0.5166974067687988,0.4389720857143402,9.841557502746582,-0.0015707963611930609,0.001117010717280209,0.00041887903353199363
0.5270116329193115,0.44077250361442566,9.809514045715332,-0.0011344640515744686,0.0007679448463022709,0.00041887903353199363
0.5184116959571838,0.44858717918395996,9.85019588470459,-0.0006457717972807586,0.0008901178953237832,0.00010471975838299841
0.5613061785697937,0.4219444990158081,9.88725757598877,0.0008203047327697277,0.0009773843921720982,-0.00013962633966002613
0.39996573328971863,0.44058096408843994,9.450325965881348,0.014346606098115444,0.003717551240697503,-0.0071907564997673035
0.44602060317993164,0.4011724293231964,10.140315055847168,0.01129228062927723,0.009930923581123352,-0.013980086892843246
0.41674432158470154,0.463517427444458,9.946845054626465,-0.008325220085680485,-0.008674286305904388,-0.01014036312699318
0.45916956663131714,0.4200100004673004,10.108626365661621,-0.013212142512202263,0.008709193207323551,0.0005235987482592463
0.5536064505577087,0.49797478318214417,9.648499488830566,-0.00094247778179124,-0.0024434609804302454,-8.726646046852693e-05
0.5604251623153687,0.41755834221839905,10.142719268798828,-0.0025656339712440968,0.0021293016616255045,0.00029670598451048136
0.560827374458313,0.36363133788108826,9.933130264282227,-0.005445427261292934,0.002687806962057948,0.00027925267932005227
0.5905346274375916,0.4098968803882599,9.509559631347656,-0.0018500490114092827,-0.0007853981805965304,0.0003316125657875091
0.5647251009941101,0.4161313772201538,10.100485801696777,-0.0026703537441790104,0.0005934119690209627,0.00010471975838299841
0.5659605264663696,0.41209957003593445,9.816973686218262,-0.006963863503187895,0.007208209950476885,-1.7453292457503267e-05
0.5355733036994934,0.41193675994873047,9.631051063537598,0.0005061454721726477,-0.0012915435945615172,-0.00020943951676599681
0.5390401482582092,0.4423622786998749,9.96041488647461,0.0050090947188436985,-0.004171337001025677,0.00017453292093705386
0.5827869772911072,0.411879301071167,10.056939125061035,-0.00188495556358248,0.0011344640515744686,0.00038397242315113544
0.574368953704834,0.2929832339286804,10.636968612670898,-0.040945425629615784,-0.08370599150657654,0.00563741335645318
0.36566162109375,0.44654732942581177,9.682744979858398,0.015585790388286114,0.045640360563993454,-0.0038746309000998735
0.43593624234199524,0.5103384256362915,9.18962574005127,-0.003926991019397974,-0.009930923581123352,-0.00062831852119416
0.6446435451507568,0.4210251271724701,10.141033172607422,0.0011693706037476659,0.0049916417337954044,-0.0012042771559208632
0.5764949917793274,0.38503551483154297,9.907837867736816,-0.0030194194987416267,0.003001966280862689,-0.00019198621157556772
0.5057128667831421,0.4644751250743866,9.701698303222656,-0.004171337001025677,0.0019373154500499368,0.00017453292093705386
0.4811004400253296,0.4545152187347412,9.784594535827637,0.0015533430268988013,0.00029670598451048136,-6.981316983001307e-05
0.5005892515182495,0.42453983426094055,9.96945571899414,0.003630284918472171,-0.0021642083302140236,6.981316983001307e-05
0.5550333857536316,0.44406694173812866,9.99949836730957,-0.0011693706037476659,-0.00045378561480902135,-0.0006806784076616168
0.5536543130874634,0.4634982645511627,10.00757122039795,-0.003996803890913725,0.002548180753365159,0.0007330382941290736
0.5090551376342773,0.45425665378570557,9.786471366882324,-0.003455751808360219,0.0022165682166814804,0.0003665191470645368
0.5344528555870056,0.45392146706581116,9.715019226074219,0.0,-0.0010471974965184927,-6.981316983001307e-05
0.5547844171524048,0.4318373501300812,9.904764175415039,0.0008377580670639873,-0.0021816615480929613,0.0003665191470645368
0.5674257874488831,0.4215039908885956,9.974024772644043,-0.00015707963029854,-0.0005235987482592463,0.0005934119690209627
0.5549376010894775,0.4080102741718292,9.850166320800781,-0.003281218931078911,0.0016929693520069122,0.00031415926059708
0.5601857304573059,0.4474092423915863,9.751172065734863,0.0005585053586401045,-0.00015707963029854,0.00041887903353199363
0.546749472618103,0.4505408704280853,9.923553466796875,0.0,3.490658491500653e-05,-0.0006981316837482154
0.5238513350486755,0.4579724669456482,9.975250244140625,-0.004520402755588293,0.0016057029133662581,-0.0002617993741296232
0.5002732276916504,0.4754980206489563,9.757243156433105,-0.0011344640515744686,0.0008901178953237832,6.981316983001307e-05
0.5742061734199524,0.36917629837989807,9.961124420166016,-0.0009948377264663577,-0.00019198621157556772,6.981316983001307e-05
0.5852290391921997,0.4277193248271942,9.807080268859863,-0.0006108652451075613,0.0005235987482592463,-0.0005061454721726477
0.5261401534080505,0.48179954290390015,9.794295310974121,-0.0006806784076616168,-0.0005410520825535059,0.00019198621157556772
0.49451756477355957,0.49113693833351135,9.893856048583984,0.0005759586347267032,0.0017802357906475663,0.0006457717972807586
0.5466249585151672,0.4537586569786072,9.881875991821289,-0.003036872949451208,0.005829399451613426,0.00040142572834156454
0.5811302065849304,0.3924000561237335,9.823830604553223,-0.0011519172694534063,0.0019198621157556772,6.981316983001307e-05
0.5650986433029175,0.45033973455429077,9.837257385253906,-0.0005759586347267032,-0.0005759586347267032,0.00041887903353199363
0.479692667722702,0.5056649446487427,9.803499221801758,-0.0005235987482592463,0.000715585018042475,0.00045378561480902135
0.5292143225669861,0.4510197043418884,10.424324989318848,-0.002949606394395232,0.008953538723289967,-0.025795966386795044
0.45596131682395935,0.41597816348075867,9.762605667114258,-0.01912880875170231,0.008464846760034561,0.00031415926059708
0.5083560347557068,0.42505696415901184,9.516778945922852,0.0005759586347267032,-0.00518362782895565,0.00027925267932005227
0.6174166798591614,0.49161577224731445,10.03308391571045,-0.002007128670811653,-0.001117010717280209,6.981316983001307e-05
0.5292717814445496,0.39992743730545044,10.107629776000977,-0.010506882332265377,0.002914699725806713,0.00041887903353199363
0.5213804841041565,0.45259028673171997,9.597493171691895,-0.0006806784076616168,-0.002251474652439356,0.00017453292093705386
0.5575904250144958,0.4697710871696472,9.717336654663086,-0.001029744278639555,0.0011519172694534063,-8.726646046852693e-05
0.4888959527015686,0.38594529032707214,10.058634757995605,0.0008203047327697277,-0.00143117003608495,0.00024434609804302454
0.5121963620185852,0.42151355743408203,10.048636436462402,0.001518436474725604,-0.004398229531943798,-0.0005410520825535059
0.6113162636756897,0.474770188331604,9.753191947937012,-0.00125663704238832,-0.0008203047327697277,-0.00010471975838299841
0.5552632212638855,0.4568711221218109,9.707798957824707,-0.0023561944253742695,0.0005061454721726477,0.00019198621157556772
0.5023034811019897,0.4380718469619751,10.08995246887207,-5.2359879191499203e-05,-0.0010995573829859495,0.00019198621157556772
0.5683451294898987,0.4860420823097229,9.932086944580078,-0.008011061698198318,0.0021816615480929613,-0.0009075712296180427
0.5679429173469543,0.4380527138710022,9.927806854248047,-0.001518436474725604,0.0024958208668977022,0.0005759586347267032
0.5054351091384888,0.4383879005908966,9.702378273010254,5.2359879191499203e-05,0.0010122909443452954,0.00043633230961859226
0.5305359363555908,0.46490606665611267,9.886366844177246,0.0026179938577115536,-0.003403391921892762,-0.0003665191470645368
0.5615360140800476,0.4637185335159302,10.034136772155762,-0.0031590459402650595,0.0015009831404313445,0.00012217304902151227
0.5370960235595703,0.4153556823730469,9.97354507446289,-0.002914699725806713,0.0018325956771150231,0.0
0.5160366296768188,0.4206324815750122,9.898014068603516,-3.490658491500653e-05,0.00094247778179124,0.0003665191470645368
0.5211697816848755,0.4689379036426544,9.720966339111328,-0.00022689280740451068,-0.0031415927223861217,-3.490658491500653e-05
0.5364065170288086,0.46437934041023254,9.793787956237793,0.0009075712296180427,-0.0020943949930369854,0.0004886921960860491
0.5560293793678284,0.440887451171875,9.962628364562988,6.981316983001307e-05,8.726646046852693e-05,-0.00031415926059708
0.5995751023292542,0.4459918737411499,9.886683464050293,-0.0027925267349928617,0.0028448866214603186,-0.00015707963029854
0.5648592114448547,0.4404852092266083,9.80668830871582,-0.004363323096185923,0.0019896754529327154,0.0003490658418741077
0.5188139081001282,0.43180862069129944,9.866580963134766,-0.0020420351065695286,0.00022689280740451068,-0.00041887903353199363
0.5582703351974487,0.4184681475162506,9.868219375610352,0.0013264502631500363,-0.0005934119690209627,0.00019198621157556772
0.5751829743385315,0.443597674369812,9.920422554016113,-0.0015009831404313445,5.2359879191499203e-05,0.00040142572834156454
0.5453895330429077,0.44993752241134644,9.800625801086426,-0.0018151424592360854,0.0018675023457035422,0.0007853981805965304
0.5354871153831482,0.44488096237182617,9.787296295166016,-0.0013962633674964309,0.0013264502631500363,0.00041887903353199363
0.5481284856796265,0.45010989904403687,9.8958101272583,-0.0009250245057046413,0.002321287989616394,0.0
0.5393274426460266,0.42145609855651855,9.832191467285156,-8.726646046852693e-05,-0.0006632251315750182,0.0006981316837482154
0.5523327589035034,0.42427167296409607,9.829089164733887,0.0008552113431505859,-0.0032463124953210354,-8.726646046852693e-05
0.5529456734657288,0.45397892594337463,9.8611421585083,-0.00029670598451048136,0.001029744278639555,-1.7453292457503267e-05
0.5168123841285706,0.46075931191444397,9.83370590209961,-0.001117010717280209,0.00031415926059708,0.0
0.521102786064148,0.45213061571121216,9.872625350952148,0.0023911010939627886,0.0009599310578778386,0.00027925267932005227
0.5335717797279358,0.47077664732933044,9.880170822143555,-0.0018675023457035422,0.0008552113431505859,0.0003316125657875091
0.5554451942443848,0.4262540638446808,9.8621187210083,-0.002321287989616394,0.0014137167017906904,-0.00031415926059708
0.5734783411026001,0.390455961227417,9.816006660461426,-0.00094247778179124,0.001117010717280209,0.00022689280740451068
0.5676843523979187,0.4047349989414215,9.791375160217285,-0.0008726646192371845,0.0012217304902151227,-3.490658491500653e-05
0.5113535523414612,0.48044922947883606,9.922270774841309,-0.00019198621157556772,-0.0004886921960860491,6.981316983001307e-05
0.5196375250816345,0.473477303981781,9.879796981811523,-0.0009250245057046413,-0.00027925267932005227,0.00040142572834156454
0.5461365580558777,0.46413034200668335,9.821159362792969,-0.0017976891249418259,-0.0002617993741296232,0.0005235987482592463
0.5500630140304565,0.42341935634613037,9.872673034667969,-0.0006457717972807586,0.0024085543118417263,0.00012217304902151227
0.5436848998069763,0.4372578263282776,9.881952285766602,-0.002321287989616394,0.0033684854861348867,0.00038397242315113544
0.5252686738967896,0.4649156332015991,9.823429107666016,-0.0009599310578778386,0.0006632251315750182,0.00024434609804302454
0.5026099681854248,0.47477975487709045,9.828256607055664,-0.0007853981805965304,3.490658491500653e-05,0.00012217304902151227
0.544278621673584,0.4684303402900696,9.896097183227539,-0.005550147034227848,0.005916666239500046,0.00027925267932005227
0.5684696435928345,0.4385698437690735,9.850350379943848,-0.0021118484437465668,0.0019373154500499368,-0.0003665191470645368
0.5748094916343689,0.40497440099716187,9.834097862243652,-0.002687806962057948,0.0033335788175463676,-0.00010471975838299841
0.5601857304573059,0.41766369342803955,9.894402503967285,-0.0010122909443452954,0.00143117003608495,0.0008203047327697277
0.538321852684021,0.43478700518608093,9.867108345031738,-0.0017976891249418259,0.001483529806137085,8.726646046852693e-05
0.5015085935592651,0.471523642539978,9.83357048034668,-0.0015707963611930609,0.0016406094655394554,1.7453292457503267e-05
0.5263221263885498,0.45714884996414185,9.85427474975586,-0.0005235987482592463,0.0013962633674964309,1.7453292457503267e-05
0.5379005074501038,0.42845675349235535,9.858633041381836,0.0007679448463022709,0.0005934119690209627,0.0005061454721726477
0.5507333874702454,0.43581172823905945,9.822585105895996,-0.002286381321027875,0.000715585018042475,0.00041887903353199363
0.5437902212142944,0.45077070593833923,9.81615161895752,-0.0016755161341279745,6.981316983001307e-05,-0.00024434609804302454
0.4266946017742157,0.4403607249259949,9.69117259979248,0.005323254037648439,-0.0011868239380419254,0.00038397242315113544
0.47451159358024597,0.4634791314601898,9.932039260864258,0.004066617228090763,0.009424777701497078,-0.0005934119690209627
0.48993027210235596,0.46771207451820374,9.922462463378906,-0.005619960371404886,-0.004084070213139057,-0.00043633230961859226
0.5298081040382385,0.41061514616012573,9.952293395996094,-0.006667157635092735,-0.003490658476948738,-0.0011519172694534063
0.5526200532913208,0.4381293058395386,9.702042579650879,-0.004328416660428047,-0.0023561944253742695,-0.00020943951676599681
0.544910728931427,0.42499950528144836,9.741854667663574,-0.0015707963611930609,0.005532693583518267,-6.981316983001307e-05
0.5154333114624023,0.4671853482723236,9.85798168182373,-0.0020943949930369854,0.0016231562476605177,0.00043633230961859226
0.5143511295318604,0.4866454303264618,10.00149154663086,-0.004310963209718466,0.00296705961227417,-0.00047123889089562
0.4899781346321106,0.45817357301712036,9.783226013183594,-0.0028797932900488377,0.0020769417751580477,-0.00020943951676599681
0.5453225374221802,0.43448054790496826,9.717240333557129,0.0008726646192371845,-0.0019373154500499368,0.00038397242315113544
0.6093243360519409,0.3860985338687897,9.927777290344238,0.003089232835918665,-0.0005061454721726477,6.981316983001307e-05
0.5864453315734863,0.41135257482528687,9.91122055053711,0.0002617993741296232,0.0018325956771150231,0.00017453292093705386
0.5175880789756775,0.45982077717781067,9.685569763183594,0.0011868239380419254,0.008709193207323551,-8.726646046852693e-05
0.49969860911369324,0.5067183971405029,9.883350372314453,0.004869468510150909,-0.0008901178953237832,-6.981316983001307e-05
0.586493194103241,0.4731229543685913,10.086456298828125,-0.003752457909286022,0.00015707963029854,-0.0009075712296180427
0.5920668840408325,0.3571382761001587,9.623388290405273,-0.007173303049057722,0.0006981316837482154,-0.00010471975838299841
0.5774622559547424,0.4265126585960388,9.710010528564453,0.003228859044611454,-0.0009948377264663577,-0.0005410520825535059
0.5224148035049438,0.48661670088768005,10.04189395904541,-0.00027925267932005227,-5.2359879191499203e-05,0.00024434609804302454
0.4710448086261749,0.4920467436313629,9.882603645324707,-0.005218534264713526,0.0012217304902151227,-0.0010471974965184927
0.5224339365959167,0.4795394241809845,9.647972106933594,-0.0012217304902151227,-0.0007853981805965304,1.7453292457503267e-05
0.5655295848846436,0.44002553820610046,9.852627754211426,-0.0006108652451075613,-0.00020943951676599681,-0.0008552113431505859
0.5675598382949829,0.389584481716156,9.93735408782959,-0.00015707963029854,0.0006981316837482154,0.0003490658418741077
0.585075855255127,0.41053852438926697,9.965778350830078,-0.0020769417751580477,0.0028797932900488377,-0.00031415926059708
0.4969979524612427,0.45667001605033875,9.78869342803955,-0.0009599310578778386,-0.0009250245057046413,0.0003665191470645368
0.519580066204071,0.4703552722930908,9.972050666809082,-0.0009773843921720982,-0.00017453292093705386,-0.0005061454721726477
0.5457726120948792,0.4492384195327759,9.838961601257324,-0.004328416660428047,0.0039618974551558495,0.00013962633966002613
0.5588353872299194,0.40914031863212585,9.765336990356445,-0.00125663704238832,0.0010646508308127522,0.00031415926059708
0.5752213001251221,0.3953401446342468,9.928601264953613,0.0011693706037476659,-0.0003665191470645368,0.0006806784076616168
0.5112099051475525,0.46148714423179626,9.773907661437988,-0.00038397242315113544,0.0010471974965184927,0.00015707963029854
0.5583757162094116,0.4381101727485657,9.973210334777832,-0.00041887903353199363,-8.726646046852693e-05,0.00038397242315113544
0.5545641183853149,0.40899667143821716,9.826522827148438,-0.0007330382941290736,0.0003316125657875091,-0.00015707963029854
0.5484062433242798,0.42389819025993347,9.763190269470215,-0.00024434609804302454,5.2359879191499203e-05,0.00041887903353199363
0.5628097653388977,0.46404415369033813,9.888177871704102,-0.00017453292093705386,-0.00017453292093705386,0.00012217304902151227
0.5597547292709351,0.4796830713748932,9.951221466064453,-0.004468042869120836,0.003804817795753479,5.2359879191499203e-05
0.5255464315414429,0.46255016326904297,9.80819320678711,-0.003176499158143997,0.0025656339712440968,0.00012217304902151227
0.5332940220832825,0.4409640431404114,9.803153991699219,-0.0019896754529327154,0.0012915435945615172,0.00019198621157556772
0.5536447763442993,0.42597633600234985,9.90366268157959,-0.0038222710136324167,0.0024434609804302454,0.0003665191470645368
0.5168506503105164,0.43196186423301697,9.943052291870117,0.0008901178953237832,-0.0015358896926045418,-0.00031415926059708
0.5258049964904785,0.44079166650772095,9.873966217041016,-0.003036872949451208,0.001117010717280209,0.00031415926059708
0.548588216304779,0.43719080090522766,9.759982109069824,-0.002199114765971899,0.0013089969288557768,0.00024434609804302454
0.5425547957420349,0.4200482964515686,9.876522064208984,0.000715585018042475,-0.0010821041651070118,-0.00015707963029854
0.543407142162323,0.43425071239471436,9.933772087097168,-0.0011868239380419254,0.0018675023457035422,-0.00010471975838299841
0.5291377305984497,0.44337740540504456,9.883025169372559,0.0009250245057046413,0.00019198621157556772,0.00041887903353199363
0.5780560374259949,0.41670599579811096,9.869780540466309,0.0017278759041801095,0.021240657195448875,-0.002007128670811653
0.5087199807167053,0.441548228263855,9.682640075683594,0.00970403105020523,0.00043633230961859226,-0.005393067374825478
0.5647442936897278,0.4252197742462158,10.161595344543457,-0.00251327408477664,-0.008796459063887596,-0.013404129073023796
0.4658062756061554,0.40009981393814087,9.870643615722656,-0.007138396613299847,-0.0015009831404313445,-0.0014486232539638877
0.49438348412513733,0.47165772318840027,9.67330265045166,0.0,-0.002809980185702443,-0.00010471975838299841
0.5390976071357727,0.43960413336753845,10.053665161132812,-0.00019198621157556772,0.0024085543118417263,0.0003490658418741077
0.5519784092903137,0.43577343225479126,9.733647346496582,-0.00029670598451048136,-0.001658062799833715,0.00043633230961859226
0.5429187417030334,0.4381580352783203,9.807262420654297,0.00376991112716496,-0.0019024088978767395,0.0003665191470645368
0.5204036831855774,0.4358883500099182,9.98330307006836,0.0015358896926045418,-3.490658491500653e-05,0.0006457717972807586
0.5579830408096313,0.4731900095939636,9.865192413330078,-0.0013089969288557768,0.0045553091913461685,0.00020943951676599681
0.521955132484436,0.46262678503990173,9.922126770019531,0.005061454605311155,-0.00296705961227417,-5.2359879191499203e-05
0.5785540342330933,0.47336238622665405,9.973373413085938,0.0005061454721726477,0.00027925267932005227,5.2359879191499203e-05
0.4485584497451782,0.4828338623046875,9.94359016418457,-0.003403391921892762,0.0007679448463022709,0.00017453292093705386
0.567962110042572,0.43804311752319336,9.814475059509277,0.0008028514566831291,0.00029670598451048136,0.00010471975838299841
0.5591610074043274,0.34766680002212524,9.967607498168945,0.001518436474725604,-0.0005061454721726477,0.00015707963029854
0.5487414598464966,0.4510292708873749,9.802589416503906,0.00020943951676599681,0.0006981316837482154,0.0006806784076616168
0.4837053418159485,0.46608400344848633,9.756630897521973,0.0018325956771150231,-8.726646046852693e-05,0.0006806784076616168
0.4913572072982788,0.483437180519104,9.929481506347656,0.004712388850748539,-0.0019547687843441963,0.0005934119690209627
0.5384654998779297,0.4785434305667877,9.999297142028809,0.0019198621157556772,-0.00019198621157556772,-0.0005759586347267032
0.5935896039009094,0.4376792013645172,9.840991973876953,-0.0009075712296180427,0.003525565145537257,-0.00020943951676599681
0.581503689289093,0.3913083076477051,9.774214744567871,8.726646046852693e-05,0.002600540639832616,0.0005410520825535059
0.5797320008277893,0.38920140266418457,9.858719825744629,0.005235987715423107,-0.0025307273026555777,0.0005410520825535059
0.542746365070343,0.48292961716651917,9.971562385559082,0.001972222002223134,0.0021118484437465668,0.0009948377264663577
0.422547847032547,0.5414438843727112,8.656810760498047,-0.025848325341939926,0.0005235987482592463,0.0020420351065695286
0.6824432015419006,0.5150215029716492,9.800569534301758,0.024661501869559288,0.0322536826133728,-0.0020420351065695286
0.6057713031768799,0.506814181804657,10.070175170898438,0.01120501384139061,0.022881265729665756,-0.0026529005263000727
0.5319437384605408,0.3921031951904297,9.7734375,-0.021711895242333412,-0.00017453292093705386,0.00020943951676599681
