accX,accY,accZ,gyroX,gyroY,gyroZ
-4.073780536651611,6.870391845703125,5.139782905578613,-0.25912538170814514,-0.480567067861557,-0.09374319761991501
-3.9972102642059326,6.789036273956299,5.3455657958984375,-0.28256118297576904,-0.44967442750930786,-0.13954953849315643
-3.896113395690918,6.836892604827881,5.565705299377441,-0.28682222962379456,-0.5402218103408813,-0.1459411233663559
-3.90568470954895,6.957131862640381,5.54177713394165,-0.27190855145454407,-0.6392913460731506,-0.13848426938056946
-3.872185230255127,6.578467845916748,5.278566837310791,-0.31878015398979187,-0.8191877603530884,-0.27909907698631287
-3.9535412788391113,6.745965003967285,5.302495002746582,-0.45087283849716187,-0.8852340579032898,-0.32810118794441223
-3.90568470954895,6.511468410491943,5.364708423614502,-0.621181845664978,-0.9203878045082092,-0.3536675274372101
-3.929612874984741,6.396613121032715,5.359922885894775,-0.8086682558059692,-0.8628635406494141,-0.3920170068740845
-4.121636867523193,6.391827583312988,5.771488189697266,-1.0323736667633057,-0.9864341020584106,-0.4037349224090576
-3.4510483741760254,6.061617851257324,5.742774486541748,-1.247423768043518,-1.2090742588043213,-0.4559328258037567
-2.6703901290893555,5.6590256690979,6.188437461853027,-1.4849774837493896,-1.2749874591827393,-0.5890907645225525
-2.383251428604126,5.2043890953063965,7.6630144119262695,-1.707484483718872,-1.486974835395813,-0.7285071611404419
-2.6464617252349854,5.32403039932251,8.462815284729004,-1.695766568183899,-1.8394440412521362,-0.8797746300697327
-2.66560435295105,5.697310924530029,8.61595630645752,-1.5041522979736328,-1.9534271955490112,-1.001214623451233
-2.775674343109131,5.347958564758301,9.070592880249023,-1.3454279899597168,-1.757551908493042,-1.0864357948303223
-2.933600664138794,4.965106964111328,9.34875774383545,-1.265533208847046,-1.7362465858459473,-1.045955777168274
-3.628117322921753,4.898108005523682,9.865608215332031,-0.9460873007774353,-0.9235835671424866,-0.32277488708496094
-3.455834150314331,4.763511657714844,11.115259170532227,-0.6733797788619995,-0.7095987200737,0.2533995807170868
-3.111267566680908,4.562514781951904,11.120044708251953,-0.2761695981025696,-0.7117292881011963,0.7763108611106873
-2.416750907897949,3.988237142562866,10.311270713806152,0.2893522381782532,-0.3580617308616638,1.2321105003356934
-1.7748762369155884,3.207578659057617,9.602396965026855,1.081775188446045,0.6589987277984619,1.5526217222213745
-0.9852447509765625,1.7856439352035522,11.225927352905273,1.5844465494155884,1.3342427015304565,1.74649977684021
-0.1950150430202484,1.7808582782745361,10.785049438476562,1.598294973373413,0.6440850496292114,1.5355775356292725
-0.28594231605529785,3.442075490951538,8.11824893951416,1.58657705783844,0.804939866065979,1.1809779405593872
-0.9469595551490784,3.9212381839752197,7.380661487579346,1.3745895624160767,1.876328706741333,1.0765820741653442
-2.1296122074127197,4.816751956939697,7.940581798553467,0.9965541362762451,2.210688352584839,1.1128010749816895
-2.5842485427856445,5.592026710510254,7.576872825622559,0.7185203433036804,1.8923077583312988,1.07764732837677
-2.651247501373291,5.927619934082031,7.318448066711426,0.5576655268669128,1.6686023473739624,0.8924246430397034
-2.6464617252349854,5.678168296813965,7.347161769866943,0.48855653405189514,1.3598090410232544,0.6356960535049438
-3.1686954498291016,5.587240695953369,7.265805721282959,0.5205144286155701,1.173387885093689,0.4727107286453247
-3.857828378677368,6.745965003967285,7.60080099105835,0.6972150802612305,1.2841752767562866,0.5195823311805725
-2.8283164501190186,6.348756790161133,6.69571590423584,0.9582046270370483,0.9166593551635742,0.5494097471237183
-2.4023938179016113,6.334399700164795,5.675775527954102,0.9028109312057495,0.7410240173339844,0.4312986135482788
-2.4598217010498047,6.511468410491943,5.4556355476379395,0.6961497664451599,0.6110618710517883,0.2576606571674347
-2.7278177738189697,6.68853759765625,5.3694939613342285,0.5013396739959717,0.3671164810657501,0.06058686971664429
-2.982055187225342,6.70289421081543,5.292923450469971,0.4384891390800476,0.2788327634334564,-0.022503694519400597
-3.2165517807006836,6.717251300811768,5.335994720458984,0.34794172644615173,0.12330426275730133,-0.055526867508888245
-3.4606196880340576,6.808178424835205,5.441278457641602,0.16684691607952118,-0.18029586970806122,0.0062584239058196545
-3.393620729446411,6.664609432220459,5.905486106872559,0.09653951972723007,-0.1993374526500702,0.10958899557590485
-3.36969256401062,6.631109714508057,6.131010055541992,0.14980269968509674,-0.0684431865811348,0.22144168615341187
-3.2069804668426514,6.683752059936523,6.4085774421691895,0.20200061798095703,0.1765674501657486,0.3034669756889343
-2.8666014671325684,6.602396011352539,6.236293792724609,0.32237541675567627,0.45020705461502075,0.37697017192840576
-2.809173822402954,7.124629497528076,6.193222999572754,0.334093302488327,0.5109270811080933,0.4025365114212036
-2.8187451362609863,7.105486869812012,6.0161542892456055,0.32450592517852783,0.3628554344177246,0.29174908995628357
-3.202194929122925,6.865606307983398,6.03529691696167,0.3830954432487488,0.29268118739128113,0.22676800191402435
-3.417548894882202,6.961917400360107,5.737988471984863,0.401204913854599,0.30120328068733215,0.2619217038154602
-3.34576416015625,7.258627414703369,5.4556355476379395,0.37031227350234985,0.5663207769393921,0.4025365114212036
-2.8809585571289062,7.320840835571289,5.661418437957764,0.29893961548805237,0.6408892273902893,0.4312986135482788
-2.7661030292510986,7.325626373291016,5.647061347961426,0.27763432264328003,0.5812344551086426,0.39081859588623047
-2.837887763977051,7.526623725891113,5.302495002746582,0.269112229347229,0.4800344407558441,0.31625014543533325
-3.202194929122925,7.478767395019531,5.498706340789795,0.16365112364292145,0.29694223403930664,0.2533995807170868
-3.321835994720459,7.53140926361084,5.154139995574951,0.1327584832906723,0.13608743250370026,0.24168169498443604
-2.8905298709869385,7.703692436218262,5.422136306762695,0.06351634114980698,0.411857545375824,0.27363958954811096
-2.953341245651245,7.612765312194824,5.771488189697266,0.09014793485403061,0.2990727722644806,0.24913853406906128
-3.2069804668426514,7.603193759918213,5.474778175354004,0.14128059148788452,0.13076111674308777,0.21931114792823792
-3.1686954498291016,7.435696601867676,5.115854740142822,0.17110797762870789,0.25859275460243225,0.23209431767463684
-3.0107691287994385,7.502695560455322,5.182853698730469,0.15939007699489594,0.5812344551086426,0.2587259113788605
-3.3122646808624268,8.01057243347168,4.536193370819092,0.26165539026260376,0.029561065137386322,0.18841850757598877
-3.250051259994507,7.789834022521973,3.702893018722534,0.056059498339891434,-0.36125752329826355,0.1873532384634018
-2.6703901290893555,7.636693477630615,4.977071285247803,-0.1664474457502365,0.0018642114009708166,0.17030902206897736
-2.737389087677002,7.694121360778809,6.22193717956543,-0.13129374384880066,0.24794010818004608,-0.06298371404409409
-3.3792638778686523,8.029714584350586,6.245865345001221,0.0294279083609581,-0.06737792491912842,-0.25566327571868896
-3.7573297023773193,7.943572998046875,5.7619171142578125,0.1657816469669342,-0.40280282497406006,-0.2215748429298401
-3.6233317852020264,7.665407180786133,6.049654006958008,0.16365112364292145,-0.6350302696228027,-0.1406148076057434
-3.331407308578491,7.852047443389893,5.613562107086182,0.12956269085407257,-1.1068089008331299,-0.0342215932905674
-2.493321180343628,7.977072715759277,4.9531426429748535,0.1284974217414856,-0.6978808641433716,0.04034686088562012
-2.2779672145843506,7.8664045333862305,5.60399055480957,0.09334372729063034,-0.05459476262331009,0.013715269044041634
-2.56510591506958,7.636693477630615,6.164509296417236,0.14021532237529755,-0.005592633970081806,-0.08415582776069641
-2.9144580364227295,7.8903326988220215,4.799404144287109,0.2318280041217804,-0.3442133069038391,-0.00013315795513335615
-3.0825538635253906,7.967501163482666,5.139782905578613,0.2169143110513687,-0.40706387162208557,0.14687322080135345
-2.871387243270874,7.885547161102295,4.713262557983398,0.1892174482345581,-0.6307692527770996,0.21611535549163818
-2.4263222217559814,7.679764270782471,4.2107696533203125,0.1093226820230484,-0.5498092174530029,0.25126907229423523
-2.053041934967041,7.737192153930664,4.454837322235107,-0.05459476262331009,-0.2451438009738922,0.252334326505661
-1.846660852432251,7.722835063934326,5.19242525100708,-0.16964323818683624,-0.03435475379228592,0.2288985252380371
-1.923829436302185,7.737192153930664,5.737988471984863,-0.12383689731359482,-0.02583264373242855,0.16178691387176514
-1.9860427379608154,7.938787460327148,5.613562107086182,-0.02263685315847397,-0.13981585204601288,0.08508793264627457
-1.9046868085861206,7.765905857086182,5.197210788726807,0.04540686309337616,-0.027963170781731606,0.03928159549832344
-2.0961127281188965,7.737192153930664,5.158925533294678,0.034754227846860886,0.07643266767263412,0.003062632866203785
-2.469393014907837,7.957930088043213,5.307280540466309,-0.019441060721874237,-0.048203181475400925,0.0009321057004854083
-2.4023938179016113,7.823333740234375,5.513063430786133,-0.027963170781731606,-0.105727419257164,0.021172115579247475
-2.1918256282806396,7.837690353393555,5.474778175354004,0.002929474925622344,-0.04394212365150452,0.04354264959692955
-2.1296122074127197,7.871190071105957,5.446064472198486,0.03368896245956421,0.08388951420783997,0.048868969082832336
-2.282752752304077,8.00100040435791,5.469992637634277,0.059255290776491165,0.10626004636287689,0.04354264959692955
-2.383251428604126,8.067999839782715,5.221138954162598,0.0624510794878006,0.009321057237684727,0.04034686088562012
-2.3976082801818848,8.015357971191406,5.053641319274902,0.04114580899477005,-0.010918952524662018,0.05419528856873512
-2.1918256282806396,7.9142608642578125,5.197210788726807,-0.004527370445430279,0.002929474925622344,0.07017423957586288
-2.201396942138672,7.823333740234375,5.139782905578613,-0.001331579522229731,0.09454214572906494,0.07337003201246262
-2.5938198566436768,8.115856170654297,5.240281581878662,0.028362644836306572,-0.09507478028535843,0.10426267981529236
-2.3018953800201416,7.919046401977539,5.441278457641602,-0.00985368900001049,-0.17390428483486176,0.12876373529434204
-2.139183521270752,7.737192153930664,5.575276851654053,0.012516847811639309,-0.10892320424318314,0.102132149040699
-2.3306093215942383,8.115856170654297,5.623133182525635,0.08908267319202423,0.03275685757398605,0.029694223776459694
-2.3641088008880615,8.11107063293457,5.704489231109619,0.09867004305124283,0.015712639316916466,0.01904158666729927
-2.234896421432495,8.020143508911133,5.398207664489746,0.08162582665681839,-0.1387505829334259,0.024367906153202057
-2.344966173171997,8.044071197509766,5.364708423614502,0.07097318768501282,-0.15153375267982483,0.03608580678701401
-2.359323024749756,7.9866437911987305,5.254638671875,0.06777740269899368,-0.17390428483486176,0.05632581561803818
-2.163111686706543,7.875975608825684,4.88554573059082,0.08482161909341812,-0.06418213248252869,0.0882837250828743
-2.249253273010254,8.015357971191406,5.149354457855225,0.04221107065677643,0.027430538088083267,0.11278478801250458
-2.1583259105682373,8.005785942077637,5.149354457855225,0.00612526573240757,-0.05566002428531647,0.14367742836475372
-1.9764715433120728,7.972286701202393,5.201996326446533,0.02197106182575226,-0.024767380207777023,0.16604797542095184
-1.9573289155960083,8.072785377502441,5.149354457855225,0.02197106182575226,-0.06311687082052231,0.14261217415332794
-1.7940187454223633,8.020143508911133,5.139782905578613,0.00612526573240757,0.15952323377132416,0.017976323142647743
-1.9764715433120728,8.101499557495117,5.388636589050293,0.003994738683104515,0.18935060501098633,-0.0033289489801973104
-2.1535403728485107,8.130212783813477,5.096712112426758,0.031558435410261154,0.06258423626422882,0.03075948730111122
-2.091326951980591,7.938787460327148,5.029713153839111,0.013582111336290836,0.09880319982767105,0.048868969082832336
-2.1296122074127197,7.904689788818359,5.144568920135498,-0.00985368900001049,0.18828535079956055,0.07976161688566208
-2.0243279933929443,7.909475326538086,5.048855781555176,0.008255792781710625,0.3075948655605316,0.14687322080135345
-2.210968017578125,7.923832416534424,5.044070243835449,0.05392897129058838,0.3310306668281555,0.17563533782958984
-2.359323024749756,8.450851440429688,4.55055046081543,0.08056056499481201,-0.26112276315689087,0.14367742836475372
-1.8035900592803955,7.972286701202393,4.756333351135254,-0.12064110487699509,-0.39428070187568665,0.1213068962097168
-1.5978072881698608,7.708477973937988,5.26899528503418,-0.15472954511642456,-0.21531641483306885,0.102132149040699
-1.784447431564331,7.875975608825684,5.9922261238098145,-0.07696529477834702,0.1339569091796875,-0.016112113371491432
-2.249253273010254,8.082356452941895,5.876772403717041,0.07523424178361893,0.20213377475738525,-0.09587372839450836
-2.5076780319213867,8.144570350646973,5.292923450469971,0.12104058265686035,0.11478215456008911,-0.04593949392437935
-2.5842485427856445,8.154141426086426,5.1876397132873535,0.0294279083609581,-0.017310533672571182,0.0648479238152504
-2.421536445617676,8.115856170654297,4.967499732971191,0.018775271251797676,-0.07696529477834702,0.16498270630836487
-2.1343977451324463,8.053643226623535,5.00578498840332,-0.02157158963382244,-0.08122635632753372,0.19481009244918823
-2.0099709033966064,8.044071197509766,5.058426856994629,-0.052464235574007034,-0.03861580789089203,0.196940615773201
-1.9381862878799438,8.182855606079102,5.259424209594727,-0.03968106955289841,0.044474758207798004,0.20013640820980072
-1.919043779373169,8.225926399230957,5.37906551361084,0.01771000772714615,0.056192658841609955,0.19907113909721375
-1.8418751955032349,8.268997192382812,5.158925533294678,0.09014793485403061,0.0018642114009708166,0.18841850757598877
-1.7030915021896362,8.173283576965332,4.923830986022949,-0.005592633970081806,0.1296958476305008,0.017976323142647743
-1.8849459886550903,8.158926963806152,4.996213912963867,-0.005592633970081806,0.23196116089820862,-0.0033289489801973104
-1.947757601737976,8.158926963806152,5.06799840927124,-0.001331579522229731,0.24580958485603333,0.03395527973771095
-1.9525432586669922,8.106285095214844,5.245067119598389,-0.0023968431632965803,0.18935060501098633,0.07550056278705597
-1.8370895385742188,8.091927528381348,5.2977094650268555,0.023036325350403786,0.14567480981349945,0.0978710949420929
-1.8610178232192993,8.101499557495117,5.178068161010742,0.07416898012161255,0.21491694450378418,0.10852373391389847
-1.8705891370773315,8.22114086151123,5.082355499267578,0.11251847445964813,0.28202855587005615,0.13622058928012848
-1.8323038816452026,8.273782730102539,5.058426856994629,0.10080057382583618,0.2649843394756317,0.15113428235054016
-1.7413766384124756,8.230711936950684,4.8089752197265625,0.06351634114980698,0.27350643277168274,0.11385004967451096
-1.9094724655151367,8.211568832397461,4.875974178314209,0.03688475489616394,0.2660495936870575,0.10319741815328598
-1.9812572002410889,8.393424034118652,4.751547336578369,0.023036325350403786,0.2671148478984833,0.15219953656196594
-1.8370895385742188,8.292924880981445,4.977071285247803,0.011451584286987782,0.30652961134910583,0.17883113026618958
-1.6169499158859253,8.259425163269043,4.88554573059082,0.02516685426235199,0.27670222520828247,0.17989639937877655
-1.4877375364303589,8.259425163269043,4.861617565155029,0.010386320762336254,0.2980075180530548,0.14261217415332794
-1.4350954294204712,8.225926399230957,4.9435715675354,0.014647374860942364,0.3310306668281555,0.11278478801250458
-1.4207384586334229,8.158926963806152,4.7611188888549805,0.01664474420249462,0.3862912356853485,0.04993423447012901
-1.7796618938446045,8.302495956420898,4.957928657531738,0.009321057237684727,0.524775505065918,0.029694223776459694
-2.053041934967041,8.517850875854492,4.977071285247803,0.043276336044073105,0.5609944462776184,0.022237379103899002
-2.148754835128784,8.431708335876465,4.330410957336426,0.06884266436100006,0.1627190262079239,0.009454214945435524
-1.8083757162094116,8.402995109558105,3.401397466659546,-0.12596742808818817,-0.2323606312274933,0.003062632866203785
-1.8897316455841064,8.120641708374023,5.048855781555176,-0.40932756662368774,0.05193160101771355,-0.188551664352417
-2.1439690589904785,8.24985408782959,5.441278457641602,-0.39121806621551514,-0.10146636515855789,-0.2077264040708542
-2.2157537937164307,8.115856170654297,6.303293228149414,-0.2708432674407959,-0.2547311782836914,-0.14381058514118195
-2.297109842300415,8.168498039245605,6.025725841522217,-0.060986343771219254,-0.3644533157348633,-0.047004759311676025
-1.9381862878799438,8.254639625549316,5.54177713394165,0.03262370079755783,-0.21638168394565582,0.07976161688566208
-1.7988044023513794,8.058428764343262,5.997011661529541,0.0997353047132492,0.08815056830644608,0.1394163817167282
-1.827518343925476,8.12542724609375,5.4556355476379395,0.2733732759952545,0.2191779911518097,0.14580796658992767
-1.7126628160476685,8.355138778686523,4.478765964508057,0.2872216999530792,0.2575274705886841,0.16498270630836487
-1.688734531402588,8.465208053588867,4.110270977020264,0.20093534886837006,0.08175898343324661,0.10532794147729874
-1.5547364950180054,8.3359956741333,3.5018959045410156,-0.02263685315847397,-0.26644906401634216,-0.01504684891551733
-1.9334007501602173,8.288139343261719,4.646263599395752,-0.23568958044052124,-0.08548741042613983,-0.2205095738172531
-2.0721843242645264,8.340781211853027,4.61276388168335,-0.32836753129959106,-0.33675646781921387,-0.2631201148033142
-2.2540390491485596,8.297710418701172,5.06799840927124,-0.46152547001838684,-0.5508744716644287,-0.2492716908454895
-2.1822543144226074,8.11107063293457,5.058426856994629,-0.5169191956520081,-0.6467481851577759,-0.21518325805664062
-1.9046868085861206,7.9866437911987305,5.647061347961426,-0.5498092174530029,-0.5476786494255066,-0.2300969511270523
-2.029113531112671,7.972286701202393,5.182853698730469,0.030493171885609627,-0.4155859649181366,-0.0810931921005249
-1.9908283948898315,7.977072715759277,5.120640277862549,-0.007723161485046148,-0.33675646781921387,-0.058722659945487976
-1.9764715433120728,7.957930088043213,5.225924491882324,-0.06311687082052231,-0.29521119594573975,-0.03848264738917351
-1.9860427379608154,7.852047443389893,5.3934221267700195,-0.17070849239826202,-0.33782172203063965,0.016911059617996216
-1.9621145725250244,7.832904815673828,5.565705299377441,-0.2090579867362976,-0.3761712312698364,0.10639320313930511
-1.7413766384124756,7.88076114654541,6.15972375869751,-0.21118851006031036,-0.26751431822776794,0.18309219181537628
-1.3202399015426636,7.526623725891113,6.662216663360596,0.00612526573240757,-0.1249021589756012,0.20226693153381348
-1.3968101739883423,7.7563347816467285,6.399005889892578,0.17749954760074615,-0.0822916179895401,0.11598058044910431
-1.5451651811599731,7.919046401977539,5.85284423828125,0.2659164369106293,0.007190529722720385,0.07763108611106873
-1.5978072881698608,7.899903774261475,5.412564754486084,0.2360890507698059,0.025300011038780212,0.09041424840688705
-1.6217355728149414,7.9142608642578125,5.1876397132873535,0.1380847990512848,0.023169483989477158,0.07337003201246262
-1.6839489936828613,7.909475326538086,5.312066078186035,0.08162582665681839,0.03169159218668938,0.05206476151943207
-1.693520188331604,7.713263988494873,5.680561065673828,0.10825742036104202,0.08388951420783997,0.11598058044910431
-1.6408780813217163,7.7802629470825195,5.508277893066406,0.10612688958644867,0.1723063886165619,0.16711322963237762
-1.5643078088760376,7.794619560241699,5.800201892852783,0.10612688958644867,0.24900537729263306,0.2012016773223877
-1.3441680669784546,7.875975608825684,4.421338081359863,0.16471639275550842,0.25326642394065857,0.15113428235054016
-1.3824533224105835,7.967501163482666,5.000999450683594,0.18708692491054535,0.39907440543174744,0.102132149040699
-1.5499508380889893,8.283353805541992,4.718048095703125,-0.0002663159102667123,0.05512739345431328,0.032890014350414276
-1.44945228099823,8.158926963806152,5.015356063842773,-0.09294424951076508,-0.08335687965154648,0.011584741994738579
-1.3776676654815674,8.09671401977539,5.54177713394165,-0.16964323818683624,-0.25366589426994324,-0.06085318699479103
-1.669592022895813,8.015357971191406,6.030511379241943,-0.08868319541215897,-0.1525990217924118,-0.15339796245098114
-1.5547364950180054,8.015357971191406,5.709274768829346,-0.105727419257164,-0.11105373501777649,-0.122505322098732
-1.7078771591186523,7.875975608825684,5.910272121429443,0.146606907248497,-0.007723161485046148,0.02649843320250511
-1.5499508380889893,7.948358535766602,5.398207664489746,0.18282587826251984,-0.08761793375015259,0.06058686971664429
-1.4590235948562622,7.938787460327148,5.197210788726807,0.1327584832906723,-0.12277163565158844,0.07763108611106873
-1.4446666240692139,7.751548767089844,4.2346978187561035,-0.05459476262331009,0.029561065137386322,0.014780532568693161
-1.540379524230957,7.746763229370117,4.828117847442627,-0.16112112998962402,0.33422645926475525,0.04780370742082596
-1.3968101739883423,7.785048484802246,6.753143787384033,-0.12383689731359482,-0.4049333333969116,-0.11185268312692642
-1.9142581224441528,8.144570350646973,5.3312087059021,-0.040746334940195084,-0.15046848356723785,-0.06937529146671295
-1.6600207090377808,7.651050567626953,6.068796634674072,-0.1664474457502365,0.2095906287431717,0.024367906153202057
-1.6839489936828613,7.603193759918213,6.6382880210876465,-0.14620743691921234,0.280963271856308,0.03928159549832344
-1.6360924243927002,7.871190071105957,5.326423168182373,0.11677952855825424,0.2522011697292328,0.10426267981529236
-1.7030915021896362,7.808976650238037,5.4173502922058105,0.09227846562862396,0.3777691125869751,0.12769848108291626
-1.6265212297439575,8.005785942077637,4.6271209716796875,0.02516685426235199,0.08282424509525299,0.1735048145055771
-1.2149556875228882,8.029714584350586,4.497908592224121,-0.17390428483486176,-0.1993374526500702,0.11811110377311707
-1.028315544128418,7.7802629470825195,5.350351333618164,-0.349672794342041,-0.17816534638404846,0.0019973693415522575
-1.114457130432129,7.641479015350342,6.131010055541992,-0.35712963342666626,-0.1249021589756012,-0.12783163785934448
-1.2149556875228882,7.741977691650391,6.279364585876465,-0.23888537287712097,-0.1249021589756012,-0.2258358895778656
-1.4015958309173584,7.823333740234375,6.355935096740723,-0.1909485012292862,-0.18775272369384766,-0.25566327571868896
-1.6408780813217163,7.88076114654541,6.355935096740723,-0.22716747224330902,-0.09827057272195816,-0.22796641290187836
-1.7413766384124756,7.631907939910889,6.710072994232178,-0.1675127148628235,0.2095906287431717,-0.1597895473241806
-1.5930216312408447,7.737192153930664,5.000999450683594,0.04114580899477005,-0.09507478028535843,0.07656582444906235
-1.4063814878463745,7.703692436218262,5.312066078186035,-0.08016108721494675,0.014647374860942364,0.057391077280044556
-1.3441680669784546,7.660621643066406,5.733202934265137,-0.15686006844043732,-0.001331579522229731,0.02756369672715664
-1.3728820085525513,7.540980339050293,6.059225082397461,-0.15153375267982483,-0.011984216049313545,-0.0043942127376794815
-1.454237937927246,7.536194801330566,6.169294834136963,-0.11957584321498871,-0.007723161485046148,-0.018242640420794487
-1.6169499158859253,7.521838188171387,5.364708423614502,-0.05459476262331009,0.07962846010923386,-0.0342215932905674
-1.8753747940063477,7.785048484802246,5.489135265350342,-0.09933583438396454,0.14993585646152496,-0.05020054802298546
-1.7653049230575562,7.722835063934326,6.145366668701172,-0.23142851889133453,-0.010918952524662018,-0.02463422156870365
-1.6360924243927002,7.579265594482422,6.8967132568359375,-0.20160114765167236,-0.15153375267982483,-0.043808966875076294
-1.731805443763733,7.636693477630615,6.188437461853027,0.1700427085161209,-0.06631266325712204,-0.06191844865679741
-1.827518343925476,7.832904815673828,6.0161542892456055,-0.00985368900001049,-0.024767380207777023,-0.006524739786982536
-1.7509479522705078,7.569694519042969,6.22193717956543,-0.016245270147919655,0.0774979293346405,0.005193160381168127
-1.731805443763733,7.794619560241699,5.651846885681152,0.22330589592456818,-0.2739059031009674,0.13409006595611572
-1.4350954294204712,7.636693477630615,5.60399055480957,0.17856481671333313,-0.2973417043685913,0.15539532899856567
-1.210170030593872,7.59362268447876,5.364708423614502,0.09121319651603699,-0.17283903062343597,0.12343742698431015
-1.516451358795166,7.670193195343018,6.178866386413574,-0.04713791608810425,0.0774979293346405,0.04460791498422623
-1.5978072881698608,7.698906898498535,6.169294834136963,0.051798444241285324,0.09880319982767105,0.053130023181438446
-1.5738791227340698,7.665407180786133,6.078367710113525,0.1284974217414856,0.12117373943328857,0.07337003201246262
-1.454237937927246,7.732406139373779,5.685346603393555,0.12423637509346008,0.13608743250370026,0.041412122547626495
-1.4925230741500854,7.7180495262146,5.599205017089844,0.052863709628582,0.24580958485603333,0.037151068449020386
-1.6552350521087646,7.746763229370117,5.718846321105957,-0.011984216049313545,0.2277000993490219,0.09467530250549316
-1.6408780813217163,7.9866437911987305,5.66620397567749,-0.06950845569372177,0.17017586529254913,0.14793848991394043
-1.4781662225723267,7.775477409362793,5.948556900024414,-0.08335687965154648,0.23515695333480835,0.15752586722373962
-1.4350954294204712,7.598408222198486,5.987440586090088,-0.016245270147919655,0.30120328068733215,0.16072164475917816
-1.5499508380889893,7.8903326988220215,5.9922261238098145,0.056059498339891434,0.3118559420108795,0.16711322963237762
-1.674377679824829,8.00100040435791,5.819344520568848,0.09227846562862396,0.2649843394756317,0.17030902206897736
-1.4111671447753906,8.130212783813477,4.9435715675354,0.07736477255821228,-0.1579253375530243,0.12450268864631653
-1.028315544128418,7.665407180786133,5.340780258178711,-0.12170637398958206,-0.0918789878487587,0.041412122547626495
-1.4350954294204712,7.694121360778809,6.083153247833252,-0.14620743691921234,0.00612526573240757,-0.06404897570610046
-1.7413766384124756,7.852047443389893,5.66620397567749,-0.08655267208814621,-0.1387505829334259,-0.10439583659172058
-1.8418751955032349,8.072785377502441,5.556134223937988,-0.17390428483486176,-0.28455856442451477,-0.08202529698610306
-1.454237937927246,7.746763229370117,5.733202934265137,-0.30173593759536743,-0.30373328924179077,-0.04913528636097908
-1.2532408237457275,7.641479015350342,5.905486106872559,-0.3326285779476166,-0.22596904635429382,-0.05339634045958519
-1.205384373664856,7.579265594482422,6.489933013916016,-0.31132328510284424,-0.031158961355686188,-0.07683213800191879
-1.363310694694519,7.560122966766357,6.729215621948242,-0.17816534638404846,0.008255792781710625,-0.09054741263389587
-1.6217355728149414,7.641479015350342,6.719644069671631,0.0018642114009708166,-0.06950845569372177,-0.0672447681427002
-1.7461622953414917,7.694121360778809,6.288936138153076,0.0858868807554245,-0.22916483879089355,-0.01078579481691122
-1.6169499158859253,7.674978733062744,5.929414749145508,0.08056056499481201,-0.20466378331184387,0.03821633383631706
-1.3968101739883423,7.540980339050293,5.968297958374023,0.03262370079755783,-0.10998847335577011,0.074435293674469
-1.296311616897583,7.789834022521973,5.824130535125732,0.07203845679759979,0.007190529722720385,0.028628960251808167
-1.334596872329712,7.813762187957764,5.804987907409668,0.023036325350403786,0.03914843872189522,0.02330264262855053
-1.3202399015426636,7.703692436218262,6.006583213806152,0.0050600022077560425,0.0732368752360344,0.028628960251808167
-1.2675977945327759,7.698906898498535,5.997011661529541,0.024101590737700462,0.030626330524683,0.041412122547626495
-1.181456208229065,7.689335346221924,5.8719868659973145,0.003994738683104515,0.003994738683104515,0.01904158666729927
-1.1527422666549683,7.612765312194824,6.030511379241943,-0.010918952524662018,0.07110634446144104,-0.018242640420794487
-1.2628121376037598,7.7563347816467285,6.236293792724609,0.11358373612165451,-0.1291632205247879,0.06591318547725677
-1.1527422666549683,7.564908981323242,5.694917678833008,0.2595248520374298,-0.06311687082052231,-0.11078742146492004
-1.3872389793395996,7.670193195343018,5.7858452796936035,0.30000486969947815,0.06684529036283493,-0.1416800618171692
-1.5020943880081177,7.977072715759277,5.359922885894775,0.22969746589660645,-0.04287686198949814,-0.11078742146492004
-1.5020943880081177,8.02492904663086,5.766702651977539,0.14021532237529755,-0.08335687965154648,-0.0715058222413063
-1.4063814878463745,7.856832981109619,5.651846885681152,0.37457332015037537,0.03914843872189522,0.11704584211111069
-1.3202399015426636,7.996214866638184,5.431707382202148,0.32450592517852783,-0.12170637398958206,0.17563533782958984
-1.1623135805130005,7.861618995666504,5.60399055480957,0.3213101327419281,0.014647374860942364,0.21291956305503845
-1.0091729164123535,7.875975608825684,5.608776092529297,0.3639206886291504,0.19148114323616028,0.20439745485782623
-1.0426725149154663,8.082356452941895,5.661418437957764,0.3692470192909241,0.24794010818004608,0.16072164475917816
-1.1479566097259521,8.23549747467041,5.675775527954102,0.3830954432487488,0.16804534196853638,0.1117195263504982
-1.186241865158081,8.283353805541992,5.556134223937988,0.40866175293922424,0.10945583879947662,0.07763108611106873
-1.1718848943710327,8.283353805541992,5.044070243835449,0.45446810126304626,0.08602003753185272,0.020106852054595947
-1.1479566097259521,8.24985408782959,4.684548377990723,0.39374807476997375,0.20213377475738525,-0.0043942127376794815
-1.3537393808364868,8.431708335876465,4.464408874511719,0.2893522381782532,0.2745717167854309,-0.042743705213069916
-1.5308083295822144,8.60877799987793,4.339982032775879,0.16791218519210815,0.22556957602500916,-0.06831002980470657
-1.5978072881698608,8.455636978149414,4.440480709075928,0.023036325350403786,0.17443692684173584,-0.020373167470097542
-1.6360924243927002,8.350353240966797,4.617549419403076,-0.031158961355686188,0.16165375709533691,0.011584741994738579
-1.4685949087142944,8.364709854125977,4.861617565155029,-0.08122635632753372,0.13076111674308777,0.012650005519390106
-1.4733805656433105,8.278568267822266,5.254638671875,-0.09294424951076508,0.15952323377132416,-0.01078579481691122
-1.5451651811599731,8.312067985534668,5.532206058502197,-0.048203181475400925,0.13289164006710052,-0.02463422156870365
-1.4733805656433105,8.398209571838379,5.560919761657715,0.04647212475538254,0.056192658841609955,-0.00013315795513335615
-1.3776676654815674,8.455636978149414,5.398207664489746,0.09227846562862396,0.018908429890871048,-0.005459476262331009
-1.3202399015426636,8.417351722717285,5.168497085571289,0.11464899778366089,0.01784316636621952,-0.04167843982577324
-1.3154542446136475,8.369495391845703,5.149354457855225,0.11464899778366089,0.07110634446144104,-0.06085318699479103
-1.4063814878463745,8.302495956420898,4.991427898406982,0.12636689841747284,0.19254639744758606,-0.09161267429590225
-1.5930216312408447,8.493922233581543,4.8568315505981445,0.1093226820230484,0.23835274577140808,-0.11185268312692642
-1.7892330884933472,8.503493309020996,4.727619171142578,0.08375635743141174,0.1957421898841858,-0.10759162902832031
-1.923829436302185,8.46042251586914,4.6510491371154785,0.03688475489616394,0.08815056830644608,-0.07470161467790604
-1.8131613731384277,8.302495956420898,4.756333351135254,-0.031158961355686188,0.021038956940174103,-0.02143843099474907
-1.6408780813217163,8.168498039245605,5.125426292419434,-0.03435475379228592,0.06258423626422882,0.011584741994738579
-1.6360924243927002,8.158926963806152,5.4556355476379395,0.043276336044073105,0.11478215456008911,0.028628960251808167
-1.6456637382507324,8.288139343261719,5.431707382202148,0.18708692491054535,0.19680745899677277,0.057391077280044556
-1.5020943880081177,8.340781211853027,4.741976261138916,0.2936132848262787,0.251135915517807,0.041412122547626495
-1.4973087310791016,8.38863754272461,3.3104701042175293,0.20732693374156952,0.3406180441379547,0.005193160381168127
-1.8179470300674438,8.058428764343262,4.804189682006836,-0.5711144804954529,-0.22383852303028107,-0.20559588074684143
-1.7126628160476685,8.154141426086426,6.547360897064209,-0.4540686309337616,-0.3761712312698364,-0.1406148076057434
-1.6504493951797485,8.034500122070312,6.174080848693848,-0.1813611388206482,-0.4475438892841339,-0.17683376371860504
-1.669592022895813,8.201997756958008,4.934000492095947,-0.07696529477834702,-0.44541335105895996,-0.22370536625385284
-1.7270197868347168,8.22114086151123,4.36391019821167,-0.19840535521507263,-0.20679430663585663,-0.24288010597229004
-1.7653049230575562,8.154141426086426,4.813760757446289,-0.4103928208351135,-0.04713791608810425,-0.20346535742282867
-1.9956140518188477,8.206783294677734,5.632704734802246,-0.4860265254974365,0.02210422046482563,-0.1789642870426178
-2.115255117416382,7.981858253479004,6.025725841522217,-0.4114580750465393,-0.08122635632753372,-0.12889690697193146
-2.0243279933929443,7.799405574798584,5.795416355133057,-0.2612559199333191,-0.15686006844043732,-0.022503694519400597
-1.8562321662902832,8.039285659790039,5.704489231109619,-0.22290641069412231,-0.2930806577205658,0.06058686971664429
-1.607378602027893,7.957930088043213,5.771488189697266,-0.19840535521507263,-0.3506048917770386,0.06058686971664429
-1.5738791227340698,7.9142608642578125,5.8337016105651855,-0.15899059176445007,-0.3079943358898163,-0.020373167470097542
-1.6648063659667969,7.88076114654541,5.824130535125732,-0.15366427600383759,-0.1940111368894577,-0.10120004415512085
-2.014756679534912,7.665407180786133,5.565705299377441,-0.14407691359519958,-0.016245270147919655,-0.1651158630847931
-2.258824586868286,7.65583610534668,5.599205017089844,-0.17816534638404846,0.060453712940216064,-0.1406148076057434
-2.3736801147460938,7.713263988494873,5.60399055480957,-0.25912538170814514,-0.16431692242622375,-0.03848264738917351
-1.846660852432251,7.679764270782471,6.236293792724609,-0.3219759464263916,-0.4251733422279358,0.0978710949420929
-1.430309772491455,7.512266635894775,6.054439544677734,-0.31132328510284424,-0.5093291997909546,0.12663321197032928
-1.3154542446136475,7.383054256439209,6.131010055541992,-0.22929799556732178,-0.19614167511463165,0.10745847225189209
-1.4015958309173584,7.383054256439209,6.336792469024658,-0.10998847335577011,0.024234747514128685,0.07230477035045624
-1.430309772491455,7.526623725891113,6.332006931304932,-0.05459476262331009,0.03169159218668938,0.04780370742082596
-1.4685949087142944,7.856832981109619,6.22193717956543,-0.008788425475358963,-0.11318425834178925,0.029694223776459694
-1.358525037765503,7.564908981323242,5.958128452301025,0.027297381311655045,-0.21212062239646912,-0.016112113371491432
-1.2628121376037598,7.660621643066406,6.145366668701172,-0.005592633970081806,-0.1291632205247879,0.05632581561803818
-1.1431710720062256,7.684549808502197,6.4564337730407715,0.08482161909341812,0.0007989477599039674,0.04673844203352928
-1.3298112154006958,7.732406139373779,5.795416355133057,0.8687224984169006,-0.311190128326416,-0.23329274356365204
-1.4063814878463745,7.794619560241699,4.981856822967529,0.8868319988250732,-0.12170637398958206,-0.2684464454650879
-1.4925230741500854,7.713263988494873,5.149354457855225,0.7728487849235535,0.19893798232078552,-0.2769685387611389
-1.7461622953414917,7.737192153930664,5.31685209274292,0.7355645298957825,0.2649843394756317,-0.245010644197464
-1.7413766384124756,8.426922798156738,5.053641319274902,0.6727139949798584,0.10626004636287689,-0.13315795361995697
-1.6265212297439575,8.393424034118652,4.201198577880859,0.3916175365447998,-0.10785794258117676,-0.058722659945487976
-1.4925230741500854,8.264211654663086,4.11505651473999,0.1519332230091095,-0.19188061356544495,-0.13741901516914368
-1.4781662225723267,8.3359956741333,4.048057556152344,-0.14727269113063812,-0.15472954511642456,-0.22690115869045258
-1.6600207090377808,8.053643226623535,4.277768611907959,-0.44661179184913635,0.021038956940174103,-0.27483803033828735
-1.7940187454223633,8.029714584350586,5.292923450469971,-0.621181845664978,0.08495477586984634,-0.27057695388793945
-1.9812572002410889,7.991429328918457,5.867201328277588,-0.6360955238342285,-0.017310533672571182,-0.2024000883102417
-2.076970100402832,7.996214866638184,6.054439544677734,-0.49987494945526123,-0.11211899667978287,-0.13209268450737
-1.9046868085861206,7.967501163482666,5.824130535125732,-0.3518033027648926,-0.09827057272195816,-0.06404897570610046
-1.8035900592803955,7.856832981109619,6.255436420440674,-0.2527337968349457,0.01784316636621952,0.0019973693415522575
-1.7030915021896362,7.977072715759277,6.0400824546813965,-0.12383689731359482,0.04660528525710106,0.016911059617996216
-1.7796618938446045,8.053643226623535,5.948556900024414,-0.011984216049313545,0.1669800728559494,-0.02569948509335518
-1.919043779373169,7.977072715759277,5.546562671661377,0.00612526573240757,0.204264298081398,-0.008655266836285591
-2.0482561588287354,7.909475326538086,5.402993679046631,-0.011984216049313545,0.251135915517807,0.0318247526884079
-2.0961127281188965,7.8664045333862305,5.484349727630615,-0.0588558167219162,0.37137752771377563,0.1543300747871399
-1.8999011516571045,8.072785377502441,5.733202934265137,-0.08016108721494675,0.38948702812194824,0.22570273280143738
-1.693520188331604,7.660621643066406,5.489135265350342,0.028362644836306572,0.22237378358840942,0.06697845458984375
-1.923829436302185,7.861618995666504,5.149354457855225,-0.029028434306383133,0.1435442715883255,0.04354264959692955
-1.8035900592803955,7.837690353393555,5.31685209274292,-0.08548741042613983,0.3171822428703308,0.07017423957586288
-1.6791633367538452,7.818548202514648,5.556134223937988,-0.09507478028535843,0.5364934206008911,-0.01717737689614296
-1.9621145725250244,7.828119277954102,5.498706340789795,-0.06524740159511566,0.6036050319671631,-0.05446160212159157
-2.4358935356140137,7.88076114654541,6.025725841522217,-0.05992107838392258,0.5258407592773438,-0.022503694519400597
-2.857030153274536,7.9142608642578125,6.738786697387695,0.034754227846860886,0.20746009051799774,0.13195952773094177
-2.4023938179016113,7.895118236541748,6.279364585876465,0.2840259075164795,0.13182637095451355,0.30772802233695984
-1.6456637382507324,7.9627156257629395,4.991427898406982,0.5949497222900391,-0.24301326274871826,0.28322696685791016
-2.014756679534912,8.450851440429688,2.4771697521209717,0.40866175293922424,-0.7223818898200989,0.013715269044041634
-2.053041934967041,8.197212219238281,2.816950559616089,0.09014793485403061,-0.5146554708480835,-0.0043942127376794815
-1.8658034801483154,7.899903774261475,5.010570526123047,-0.27723485231399536,0.10199899226427078,-0.08628635853528976
-1.9908283948898315,7.929215908050537,5.85284423828125,-0.30067065358161926,0.24580958485603333,-0.17257271707057953
-2.4119651317596436,8.245068550109863,6.22193717956543,-0.12596742808818817,0.0636495053768158,-0.24181485176086426
-2.493321180343628,8.020143508911133,5.72841739654541,-0.0492684431374073,-0.8042740225791931,-0.22796641290187836
-2.100898265838623,7.607979774475098,5.2354960441589355,-0.09720530360937119,-0.8117309212684631,-0.17576849460601807
-1.7222341299057007,8.09671401977539,5.661418437957764,-0.4348938763141632,-0.14940322935581207,-0.1267663687467575
-2.053041934967041,7.335197925567627,5.8097734451293945,0.0018642114009708166,-0.2504701018333435,0.0456731803715229
-1.9716858863830566,7.560122966766357,5.197210788726807,0.08162582665681839,0.14141374826431274,0.19054903090000153
-1.76051926612854,7.904689788818359,5.1876397132873535,0.06564687192440033,0.4725775718688965,0.22357220947742462
-1.540379524230957,7.8041911125183105,5.862415313720703,0.039015281945466995,0.2788327634334564,0.17030902206897736
-1.5020943880081177,7.799405574798584,5.85284423828125,0.06458161026239395,-0.20466378331184387,0.0456731803715229
-1.7126628160476685,7.808976650238037,5.3216376304626465,0.07310371845960617,-0.2973417043685913,0.03502054139971733
-1.6648063659667969,7.761120319366455,5.225924491882324,0.06458161026239395,-0.019441060721874237,0.037151068449020386
-1.7461622953414917,7.904689788818359,5.350351333618164,0.002929474925622344,0.14567480981349945,0.025433169677853584
-1.7174484729766846,7.904689788818359,5.8719868659973145,-0.0141147430986166,0.15100112557411194,0.05419528856873512
-1.688734531402588,7.972286701202393,5.934200286865234,0.03688475489616394,-0.04500738903880119,0.04034686088562012
-1.5595221519470215,7.8664045333862305,5.383851051330566,0.07736477255821228,-0.11638005077838898,-0.020373167470097542
-1.7796618938446045,7.899903774261475,5.3934221267700195,0.02197106182575226,0.04340949282050133,-0.035286858677864075
-1.9094724655151367,7.981858253479004,5.532206058502197,-0.03328948840498924,0.11584742367267609,-0.0043942127376794815
-1.8753747940063477,7.847261905670166,5.513063430786133,0.011451584286987782,0.261788547039032,0.022237379103899002
-2.0721843242645264,8.201997756958008,5.450850009918213,-0.03435475379228592,-0.08655267208814621,-0.01504684891551733
-2.0195422172546387,7.957930088043213,5.97308349609375,-0.10146636515855789,-0.2312953621149063,-0.012916321866214275
-1.9573289155960083,7.646264553070068,5.757131099700928,-0.040746334940195084,-0.19507640600204468,-0.043808966875076294
-2.014756679534912,7.919046401977539,5.958128452301025,0.14021532237529755,-0.12064110487699509,-0.06191844865679741
-1.7700905799865723,8.22114086151123,5.039284706115723,0.034754227846860886,-0.4486091434955597,-0.07363634556531906
-1.6169499158859253,7.861618995666504,5.407779216766357,-0.10146636515855789,-0.2131858915090561,-0.1406148076057434
-1.8658034801483154,7.651050567626953,6.647859573364258,-0.11851058155298233,-0.14940322935581207,-0.1406148076057434
-1.9334007501602173,7.871190071105957,6.38464879989624,0.06564687192440033,-0.35167014598846436,-0.16405059397220612
-1.7653049230575562,7.751548767089844,6.131010055541992,0.2872216999530792,-0.19720692932605743,-0.18535587191581726
-1.8179470300674438,8.020143508911133,4.741976261138916,0.015579480677843094,0.14034847915172577,0.21611535549163818
-1.3968101739883423,7.765905857086182,4.934000492095947,-0.10892320424318314,0.2000032514333725,0.19907113909721375
-1.454237937927246,7.741977691650391,5.4795637130737305,-0.15579481422901154,0.2990727722644806,0.09467530250549316
-1.583450436592102,7.991429328918457,5.757131099700928,-0.10040109604597092,0.24900537729263306,0.07976161688566208
-1.6791633367538452,7.943572998046875,5.795416355133057,-0.04607265070080757,0.2277000993490219,0.06271740049123764
-1.8418751955032349,7.9866437911987305,5.795416355133057,0.010386320762336254,0.22663484513759613,0.06804371625185013
-1.8562321662902832,7.923832416534424,5.436492919921875,0.034754227846860886,0.22983063757419586,0.10426267981529236
-2.0817556381225586,8.288139343261719,4.579264163970947,0.2978743314743042,0.011451584286987782,0.053130023181438446
-1.9716858863830566,8.044071197509766,3.9523448944091797,0.07736477255821228,-0.14514216780662537,-0.0022636852227151394
-1.6456637382507324,7.708477973937988,5.111069202423096,-0.14088112115859985,0.028495801612734795,-0.08415582776069641
-2.5938198566436768,7.972286701202393,5.594419479370117,-0.07696529477834702,-0.17923060059547424,-0.2354232668876648
-2.5076780319213867,7.46919584274292,4.579264163970947,-0.08442214131355286,-0.6850976943969727,-0.1981390416622162
-1.8801604509353638,8.206783294677734,4.129413604736328,-0.46046021580696106,-0.8021435141563416,-0.09800425171852112
-1.1958130598068237,8.603992462158203,5.225924491882324,-0.9855020046234131,-0.3910849094390869,-0.042743705213069916
-1.0378868579864502,7.665407180786133,7.907082557678223,-0.9151946306228638,-0.03755054250359535,-0.047004759311676025
-1.3058829307556152,6.990631580352783,7.945367813110352,-0.2996053993701935,-0.31012487411499023,-0.21305273473262787
-1.8753747940063477,7.46919584274292,6.422934055328369,0.30426591634750366,-0.36977964639663696,-0.2503369450569153
-2.2540390491485596,8.12542724609375,5.3934221267700195,0.3117227852344513,-0.1940111368894577,-0.10546109825372696
-1.8753747940063477,7.8424763679504395,5.264209747314453,0.07310371845960617,0.08921582996845245,0.0978710949420929
-1.5355939865112305,7.579265594482422,6.09751033782959,-0.052464235574007034,0.17869797348976135,0.10639320313930511
-1.6313068866729736,7.727620601654053,6.111867427825928,-0.019441060721874237,-0.0918789878487587,0.04247738793492317
-1.8179470300674438,7.761120319366455,5.685346603393555,0.023036325350403786,-0.20040272176265717,0.01904158666729927
-1.8849459886550903,7.722835063934326,5.848058700561523,0.01771000772714615,-0.07057371735572815,0.05845634266734123
-1.76051926612854,7.627122402191162,6.030511379241943,0.007190529722720385,0.03382211923599243,0.102132149040699
-1.6791633367538452,7.579265594482422,5.997011661529541,0.05392897129058838,0.09241162240505219,0.11065425723791122
-1.755733609199524,7.722835063934326,5.714060306549072,0.08695214241743088,0.09986846894025803,0.09254477918148041
-1.693520188331604,7.813762187957764,5.508277893066406,0.0294279083609581,0.08069372177124023,0.09361004084348679
-1.4590235948562622,7.679764270782471,4.7850470542907715,-0.0034621069207787514,0.16378428041934967,0.07017423957586288
-1.6791633367538452,7.65583610534668,5.101497650146484,-0.024767380207777023,0.2607232630252838,-0.03635212033987045
-2.076970100402832,7.808976650238037,5.259424209594727,-0.17390428483486176,0.0540621280670166,-0.07683213800191879
-1.9142581224441528,7.919046401977539,6.255436420440674,-0.33902016282081604,-0.2323606312274933,-0.005459476262331009
-1.44945228099823,7.651050567626953,6.279364585876465,-0.3613906800746918,-0.4326302111148834,-0.006524739786982536
-1.7892330884933472,7.895118236541748,6.700501441955566,0.07523424178361893,-0.30053749680519104,-0.3067959249019623
-2.2683959007263184,7.948358535766602,6.054439544677734,0.02090579830110073,-0.49761128425598145,-0.309991717338562
-1.8999011516571045,7.3399834632873535,5.618347644805908,0.015579480677843094,-0.10785794258117676,-0.13209268450737
-1.8035900592803955,7.732406139373779,6.4947190284729,0.011451584286987782,0.003994738683104515,0.008388951420783997
-1.2340983152389526,7.4979095458984375,5.987440586090088,0.04008054360747337,-0.36658385396003723,-0.22370536625385284
-1.784447431564331,7.569694519042969,6.030511379241943,-0.21331904828548431,0.17763271927833557,-0.17044217884540558
-1.8610178232192993,7.148557662963867,6.193222999572754,-0.13129374384880066,0.03701791167259216,0.0019973693415522575
-1.8658034801483154,7.445267677307129,6.69571590423584,0.03795001655817032,0.06151897460222244,-0.031025802716612816
-2.0482561588287354,7.8041911125183105,5.670989513397217,-0.017310533672571182,-0.15899059176445007,-0.07789740711450577
-1.9046868085861206,7.320840835571289,6.303293228149414,-0.16964323818683624,0.023169483989477158,0.017976323142647743
-1.8897316455841064,7.110272407531738,6.442076683044434,-0.15579481422901154,-0.007723161485046148,0.07017423957586288
-1.7940187454223633,7.895118236541748,6.5712890625,0.011451584286987782,-0.26644906401634216,0.029694223776459694
-1.4590235948562622,7.483552932739258,6.317649841308594,-0.09081372618675232,-0.18775272369384766,-0.027830012142658234
-1.6552350521087646,6.9236321449279785,6.863213539123535,0.06351634114980698,0.19361166656017303,-0.06298371404409409
-2.1918256282806396,7.464410305023193,6.427719593048096,0.2563290596008301,0.17337165772914886,0.022237379103899002
-2.383251428604126,7.641479015350342,6.188437461853027,0.29574382305145264,0.20319904386997223,0.21398483216762543
-1.8849459886550903,7.392625331878662,5.714060306549072,0.2552638053894043,0.3043990731239319,0.4227765202522278
-1.6265212297439575,7.454838752746582,5.838487148284912,0.24354590475559235,0.5609944462776184,0.5227781534194946
-1.6360924243927002,7.660621643066406,5.97308349609375,0.22437115013599396,0.5396891832351685,0.4217112362384796
-1.602592945098877,7.7563347816467285,5.699703693389893,0.1988048255443573,0.31079065799713135,0.3332943618297577
-1.5738791227340698,7.598408222198486,5.532206058502197,0.14873743057250977,0.2191779911518097,0.31198909878730774
-1.6648063659667969,7.665407180786133,5.436492919921875,0.08482161909341812,0.35113751888275146,0.2992059290409088
-1.6360924243927002,7.861618995666504,5.60399055480957,0.026232117787003517,0.5141228437423706,0.2949448823928833
-1.578664779663086,7.722835063934326,6.202794551849365,-0.00985368900001049,0.6185187101364136,0.2768353819847107
-1.5690934658050537,7.689335346221924,6.379863262176514,0.027297381311655045,0.608931303024292,0.27044379711151123
-1.755733609199524,7.703692436218262,6.418148517608643,0.14554163813591003,0.5514070987701416,0.23955115675926208
-2.172683000564575,7.799405574798584,7.820940971374512,0.30426591634750366,0.4672512710094452,0.24061642587184906
-2.00518536567688,8.211568832397461,3.410968780517578,0.5460807681083679,-0.6222470998764038,0.1820269227027893
-1.3776676654815674,7.703692436218262,3.5928232669830322,0.03368896245956421,-0.28562381863594055,0.19374482333660126
-1.205384373664856,7.698906898498535,4.732405185699463,-0.2708432674407959,0.29268118739128113,-0.009720530360937119
-1.9812572002410889,7.8903326988220215,6.001797199249268,-0.33369383215904236,0.2990727722644806,-0.19174745678901672
-2.258824586868286,7.919046401977539,5.436492919921875,-0.31558436155319214,-0.48376286029815674,-0.24607589840888977
-1.7078771591186523,8.24985408782959,6.0640106201171875,-0.500940203666687,-1.0407625436782837,-0.36964648962020874
-0.9038887619972229,6.808178424835205,6.930212497711182,-0.20586219429969788,-0.4624575674533844,-0.5496760606765747
-1.6552350521087646,7.584051132202148,6.9445695877075195,-0.001331579522229731,-0.4049333333969116,-0.5187833905220032
-1.7700905799865723,7.871190071105957,6.394220352172852,0.06138581782579422,-0.3633880615234375,-0.4186486005783081
-1.5690934658050537,7.459624767303467,5.905486106872559,0.0624510794878006,-0.13555480539798737,-0.3185138404369354
-1.5930216312408447,7.665407180786133,5.9437713623046875,-0.0023968431632965803,0.015712639316916466,-0.2833601236343384
-1.9525432586669922,7.65583610534668,6.5042901039123535,-0.08016108721494675,-0.09827057272195816,-0.26951169967651367
-2.0865414142608643,7.349554538726807,6.217151641845703,-0.027963170781731606,-0.2217079997062683,-0.1970737725496292
-1.9812572002410889,7.517052173614502,6.135795593261719,-0.026897907257080078,0.15526217222213745,0.14793848991394043
-1.6217355728149414,7.46919584274292,6.61914587020874,-0.03755054250359535,0.15526217222213745,0.27790066599845886
-1.363310694694519,7.397411346435547,6.6382880210876465,0.06032055243849754,0.015712639316916466,0.20013640820980072
-1.4446666240692139,7.373483180999756,6.059225082397461,0.16897743940353394,-0.06311687082052231,0.061652131378650665
-1.7126628160476685,7.478767395019531,5.594419479370117,0.15406376123428345,0.014647374860942364,-0.0043942127376794815
-1.540379524230957,7.521838188171387,6.073582172393799,-0.048203181475400925,0.015712639316916466,0.12982900440692902
-1.3920245170593262,7.507481098175049,6.0879387855529785,-0.0034621069207787514,-0.0034621069207787514,0.0552605502307415
-1.4877375364303589,7.598408222198486,6.030511379241943,0.012516847811639309,-0.008788425475358963,-0.02996053919196129
-1.6552350521087646,7.540980339050293,6.020939826965332,0.0007989477599039674,-0.0002663159102667123,-0.043808966875076294
-1.784447431564331,7.603193759918213,6.049654006958008,-0.0034621069207787514,0.030626330524683,-0.01504684891551733
-1.7988044023513794,7.631907939910889,6.126224040985107,-0.011984216049313545,0.028495801612734795,0.02330264262855053
-1.6791633367538452,7.617550849914551,6.126224040985107,-0.007723161485046148,0.03488738462328911,0.03608580678701401
-1.6360924243927002,7.579265594482422,6.202794551849365,-0.004527370445430279,0.018908429890871048,0.04247738793492317
-1.6408780813217163,7.617550849914551,6.164509296417236,0.007190529722720385,-0.03861580789089203,0.05099949613213539
-1.5690934658050537,7.540980339050293,6.0640106201171875,0.015579480677843094,-0.03435475379228592,0.03608580678701401
-1.5930216312408447,7.512266635894775,6.025725841522217,0.015579480677843094,0.040213704109191895,-0.0022636852227151394
-1.8323038816452026,7.560122966766357,5.982655048370361,0.0007989477599039674,0.03488738462328911,0.053130023181438446
-1.6360924243927002,7.536194801330566,5.968297958374023,-0.004527370445430279,0.03275685757398605,0.06591318547725677
-1.5355939865112305,7.545766353607178,6.006583213806152,-0.036485280841588974,0.04767054691910744,0.03502054139971733
-1.6360924243927002,7.607979774475098,6.121438503265381,-0.03968106955289841,0.08495477586984634,0.012650005519390106
-1.5978072881698608,7.239484786987305,6.245865345001221,0.06671213358640671,0.318247526884079,0.08508793264627457
-1.6313068866729736,7.588837146759033,6.107081413269043,0.336223840713501,0.19467693567276,-0.058722659945487976
-1.7940187454223633,7.8664045333862305,5.364708423614502,0.04434159770607948,-0.12064110487699509,-0.048070020973682404
-1.3920245170593262,7.493124008178711,5.723631858825684,-0.2751043438911438,0.07643266767263412,-0.016112113371491432
-1.5930216312408447,7.196413993835449,6.705287456512451,-0.25060325860977173,0.3235738277435303,-0.0715058222413063
-2.062613010406494,7.244270324707031,7.47637414932251,0.1093226820230484,0.0966726765036583,-0.09587372839450836
-1.755733609199524,7.627122402191162,5.72841739654541,0.09121319651603699,-0.04181159660220146,-0.11611373722553253
-1.7653049230575562,7.7180495262146,5.828916072845459,0.16897743940353394,-0.023702116683125496,-0.1502021700143814
-1.8370895385742188,7.732406139373779,5.781059741973877,0.18602167069911957,0.05086633935570717,-0.11185268312692642
-2.0003998279571533,7.813762187957764,5.618347644805908,0.1284974217414856,0.05086633935570717,-0.06404897570610046
-2.196611166000366,7.957930088043213,5.532206058502197,0.04540686309337616,0.08495477586984634,-0.0033289489801973104
-2.2396819591522217,7.9142608642578125,5.522634506225586,0.0018642114009708166,0.09560741484165192,0.0786963477730751
-2.148754835128784,7.789834022521973,5.637490272521973,-0.001331579522229731,0.11691268533468246,0.14687322080135345
-1.8035900592803955,7.852047443389893,5.718846321105957,-0.02157158963382244,0.05725792050361633,0.3002711832523346
-1.6265212297439575,7.808976650238037,5.694917678833008,-0.026897907257080078,0.2181127369403839,0.22996379435062408
-1.8753747940063477,7.852047443389893,5.962913990020752,-0.017310533672571182,0.3459443747997284,0.09680583328008652
-1.9716858863830566,7.8424763679504395,5.699703693389893,0.024101590737700462,0.25433170795440674,0.09574057161808014
-2.0482561588287354,7.856832981109619,5.570491313934326,0.04647212475538254,0.3235738277435303,0.10000162571668625
-1.9860427379608154,7.88076114654541,5.661418437957764,0.056059498339891434,0.35113751888275146,0.08295740932226181
-1.8999011516571045,7.832904815673828,5.690132141113281,0.07736477255821228,0.25859275460243225,0.05845634266734123
-1.9716858863830566,7.852047443389893,5.522634506225586,0.08375635743141174,0.0870852991938591,0.02756369672715664
-2.076970100402832,7.929215908050537,5.2977094650268555,0.07523424178361893,0.019973693415522575,0.004127896390855312
-2.076970100402832,7.856832981109619,5.240281581878662,0.04114580899477005,0.06578002870082855,-0.012916321866214275
-2.1296122074127197,7.741977691650391,5.426921844482422,-0.011984216049313545,0.13182637095451355,0.004127896390855312
-2.201396942138672,7.794619560241699,5.718846321105957,-0.006657897960394621,0.1339569091796875,0.05099949613213539
-2.0673987865448,7.789834022521973,5.560919761657715,0.04008054360747337,0.019973693415522575,0.09361004084348679
-1.9716858863830566,7.765905857086182,5.364708423614502,0.06138581782579422,-0.013049479573965073,0.10319741815328598
-2.062613010406494,7.823333740234375,5.484349727630615,0.04540686309337616,0.04767054691910744,0.12769848108291626
-2.0721843242645264,7.953144073486328,5.742774486541748,0.059255290776491165,0.11265163123607635,0.17670060694217682
-1.9908283948898315,8.020143508911133,5.828916072845459,0.07523424178361893,0.11478215456008911,0.1873532384634018
-1.7796618938446045,8.067999839782715,5.642275810241699,0.09760478138923645,0.04980107396841049,0.14580796658992767
-1.8179470300674438,8.091927528381348,5.283352375030518,0.08269108831882477,0.10199899226427078,0.02649843320250511
-1.9381862878799438,8.168498039245605,5.4173502922058105,0.03368896245956421,0.08495477586984634,0.009454214945435524
-1.8945173025131226,8.063214302062988,5.4795637130737305,0.03795001655817032,-0.01837579719722271,0.010519478470087051
-1.94297194480896,7.991429328918457,5.374279499053955,0.04860265180468559,-0.056725289672613144,0.0062584239058196545
-1.947757601737976,7.972286701202393,5.350351333618164,0.04540686309337616,0.013582111336290836,0.010519478470087051
-1.9573289155960083,7.977072715759277,5.489135265350342,0.04221107065677643,0.09241162240505219,0.021172115579247475
-1.9812572002410889,8.015357971191406,5.580062389373779,0.06990792602300644,0.0679105594754219,0.04354264959692955
-1.9621145725250244,8.039285659790039,5.245067119598389,0.10719215124845505,0.010386320762336254,0.03821633383631706
-1.9716858863830566,7.996214866638184,5.034498691558838,0.10186583548784256,0.0007989477599039674,0.024367906153202057
-2.076970100402832,7.948358535766602,5.044070243835449,0.03688475489616394,0.0540621280670166,0.016911059617996216
-2.014756679534912,7.895118236541748,5.441278457641602,0.0007989477599039674,0.10412952303886414,0.037151068449020386
-1.9334007501602173,7.943572998046875,5.5034918785095215,0.034754227846860886,0.044474758207798004,0.0456731803715229
-2.0099709033966064,7.967501163482666,5.383851051330566,0.09440898895263672,0.06684529036283493,0.07230477035045624
-2.029113531112671,7.981858253479004,5.551348686218262,0.11677952855825424,0.14034847915172577,0.10958899557590485
-2.0195422172546387,7.981858253479004,5.000999450683594,0.1657816469669342,0.24474431574344635,0.16072164475917816
-2.0003998279571533,8.187641143798828,4.55055046081543,0.13169321417808533,0.15632744133472443,0.17137429118156433
-1.7509479522705078,8.283353805541992,4.024129390716553,-0.11744531989097595,-0.30053749680519104,0.12982900440692902
-1.5499508380889893,7.875975608825684,4.890331268310547,-0.27190855145454407,-0.2707101106643677,0.041412122547626495
-1.9764715433120728,8.044071197509766,5.264209747314453,0.14341111481189728,-0.10146636515855789,-0.09480846673250198
