accX,accY,accZ,gyroX,gyroY,gyroZ
0.15124650299549103,0.389421671628952,9.46969985961914,0.0006806784076616168,-0.0008028514566831291,-0.0009599310578778386
0.2119634598493576,0.3519667983055115,9.663792610168457,-0.0003665191470645368,0.005602506920695305,-0.0009599310578778386
0.1694520115852356,0.35425564646720886,9.489925384521484,-0.0003665191470645368,-0.00609119888395071,8.726646046852693e-05
0.18584750592708588,0.36802709102630615,9.510132789611816,-0.0030194194987416267,-0.00874409917742014,-0.00047123889089562
0.20198442041873932,0.3595516085624695,9.592656135559082,-0.00027925267932005227,0.005201081279665232,0.0005410520825535059
0.1905401349067688,0.37754642963409424,9.568397521972656,-0.00062831852119416,-0.003752457909286022,0.00027925267932005227
0.18785864114761353,0.35035789012908936,9.593135833740234,-0.0008726646192371845,1.7453292457503267e-05,-0.00047123889089562
0.19398778676986694,0.3530777096748352,9.571577072143555,-0.0019198621157556772,0.0006632251315750182,5.2359879191499203e-05
0.18771497905254364,0.37986403703689575,9.611207962036133,-0.0021642083302140236,0.0009773843921720982,-3.490658491500653e-05
0.20049044489860535,0.36596807837486267,9.584996223449707,-0.00205948855727911,-0.0006632251315750182,5.2359879191499203e-05
0.2081710398197174,0.3618308901786804,9.599715232849121,-0.002809980185702443,-0.0005585053586401045,0.0
0.1912296712398529,0.34654632210731506,9.590415000915527,-0.0017976891249418259,-0.00015707963029854,-1.7453292457503267e-05
0.1792490929365158,0.3644357919692993,9.600203514099121,0.0006108652451075613,-0.0005061454721726477,-0.00017453292093705386
0.16577452421188354,0.3588429391384125,9.596506118774414,-0.00022689280740451068,0.0003490658418741077,-0.00019198621157556772
0.18838535249233246,0.35571131110191345,9.61133098602295,-0.00027925267932005227,0.0009773843921720982,0.00010471975838299841
0.18939092755317688,0.3650582730770111,9.583662986755371,-0.0013962633674964309,-0.0006457717972807586,0.00041887903353199363
0.185914546251297,0.3633727729320526,9.607118606567383,-0.0006108652451075613,0.0,0.00010471975838299841
0.18848112225532532,0.36662888526916504,9.607806205749512,-0.0010471974965184927,-0.0019198621157556772,1.7453292457503267e-05
0.03568318113684654,0.4295485019683838,9.34622573852539,0.02117084339261055,0.037227872759103775,0.00041887903353199363
0.12884634733200073,0.38732436299324036,10.115224838256836,-0.035465091466903687,-0.03309144079685211,-0.0009599310578778386
0.261638343334198,0.3610743284225464,9.29696273803711,0.008691739290952682,-0.030578168109059334,-0.00020943951676599681
0.19142121076583862,0.37752729654312134,9.538910865783691,-0.0024958208668977022,0.025987952947616577,0.00038397242315113544
0.17258362472057343,0.32579338550567627,9.938217163085938,-0.0016929693520069122,-0.02485348843038082,-0.00019198621157556772
0.196334108710289,0.3756597936153412,9.255149841308594,-8.726646046852693e-05,0.005759586580097675,0.00027925267932005227
0.17786045372486115,0.3765983283519745,9.729825019836426,-0.0012217304902151227,-0.0007679448463022709,0.0005235987482592463
0.2058534473180771,0.37031593918800354,9.676616668701172,0.001483529806137085,-0.004660028964281082,-0.00043633230961859226
0.17548540234565735,0.36434003710746765,9.49881362915039,-0.0028797932900488377,0.0031241392716765404,0.0009948377264663577
0.19002299010753632,0.37926068902015686,9.7326021194458,-0.0026529005263000727,-0.0007330382941290736,0.00012217304902151227
0.19685125350952148,0.36953064799308777,9.616925239562988,-0.004886921960860491,0.00038397242315113544,0.00012217304902151227
0.21405120193958282,0.3454258441925049,9.613390922546387,-0.003857177682220936,-0.0005410520825535059,0.00041887903353199363
0.20739531517028809,0.35904404520988464,9.666425704956055,-8.726646046852693e-05,-0.0017104226863011718,0.0002617993741296232
0.18273504078388214,0.35494518280029297,9.57795524597168,-0.0033684854861348867,0.0012217304902151227,0.00024434609804302454
0.1893334686756134,0.36690661311149597,9.667881965637207,-0.0006806784076616168,-0.001117010717280209,0.00047123889089562
0.2051256150007248,0.37527674436569214,9.584525108337402,-0.0055850534699857235,-0.0011519172694534063,0.00015707963029854
0.19778020679950714,0.3476572334766388,9.631414413452148,-0.003752457909286022,0.0015882495790719986,-0.00019198621157556772
0.18442055583000183,0.3889620006084442,9.574509620666504,-0.00015707963029854,-0.001029744278639555,-0.00012217304902151227
0.2005862146615982,0.36363133788108826,9.615756034851074,-8.726646046852693e-05,-0.0019547687843441963,-0.00019198621157556772
0.19267576932907104,0.36726096272468567,9.627582550048828,-0.00038397242315113544,-0.0018325956771150231,-0.00012217304902151227
0.20244410634040833,0.3692816495895386,9.581212043762207,0.00019198621157556772,-0.001518436474725604,-0.00019198621157556772
0.24780943989753723,0.3921319246292114,8.691085815429688,-0.0019373154500499368,-0.028955012559890747,0.0008552113431505859
0.14989617466926575,0.3646560609340668,10.200639724731445,0.005044001620262861,0.042498767375946045,0.0013089969288557768
0.12331096082925797,0.3475710451602936,9.7244234085083,-0.008639379404485226,-0.06630505621433258,-0.0006457717972807586
0.2961627244949341,0.38021835684776306,9.401512145996094,0.011327186599373817,0.041032690554857254,-0.00012217304902151227
0.11313081532716751,0.3696838915348053,9.474477767944336,-0.014067353680729866,0.003176499158143997,0.00022689280740451068
0.18315641582012177,0.3405703902244568,9.77818775177002,0.0006806784076616168,-0.04796164855360985,0.00029670598451048136
0.22129125893115997,0.39097312092781067,9.491132736206055,0.0037873645778745413,0.033283427357673645,-1.7453292457503267e-05
0.18344372510910034,0.33827194571495056,9.706418991088867,-0.007173303049057722,-0.015969762578606606,-0.00038397242315113544
0.17152060568332672,0.3511144518852234,9.600366592407227,0.0007853981805965304,0.017732545733451843,-0.0002617993741296232
0.1773528754711151,0.33829110860824585,9.60615062713623,-0.004886921960860491,-0.005358160939067602,-0.0004886921960860491
0.18890251219272614,0.3605380356311798,9.619854927062988,0.0016231562476605177,0.0076445420272648335,-0.0006981316837482154
0.1862688809633255,0.348614901304245,9.589219093322754,-0.002740166848525405,0.0017278759041801095,-0.00029670598451048136
0.19129671156406403,0.35411199927330017,9.627507209777832,0.0031241392716765404,0.003001966280862689,-0.00019198621157556772
0.18465040624141693,0.3661787807941437,9.563552856445312,-0.00022689280740451068,-0.003054326167330146,-0.0005585053586401045
0.1854165494441986,0.36848679184913635,9.683856010437012,0.002600540639832616,0.0021816615480929613,-0.0005061454721726477
0.19451451301574707,0.38040032982826233,9.574967384338379,-0.0010646508308127522,-0.001972222002223134,0.00024434609804302454
0.18080052733421326,0.37428075075149536,9.63623046875,-0.002146754879504442,-0.0013264502631500363,-0.00012217304902151227
0.2014576941728592,0.37504687905311584,9.600346565246582,-0.0024958208668977022,0.0007504915702156723,-0.00019198621157556772
0.1925416886806488,0.35489729046821594,9.630407333374023,-0.0027925267349928617,0.0015882495790719986,0.00031415926059708
0.1931258738040924,0.3525509834289551,9.633405685424805,-0.0010646508308127522,0.0005235987482592463,0.0004886921960860491
0.1980004757642746,0.35994425415992737,9.632237434387207,1.7453292457503267e-05,-0.0003665191470645368,0.00010471975838299841
0.16793887317180634,0.3447554409503937,9.635886192321777,-0.0003490658418741077,0.0009948377264663577,-1.7453292457503267e-05
0.1915840059518814,0.35514628887176514,9.624614715576172,-0.0007504915702156723,-0.0006108652451075613,-0.00019198621157556772
0.19061675667762756,0.3592643141746521,9.614222526550293,-0.0016755161341279745,1.7453292457503267e-05,-0.0005410520825535059
0.18822255730628967,0.36556586623191833,9.647531509399414,-0.0010821041651070118,-0.00047123889089562,0.00010471975838299841
0.18330007791519165,0.36115095019340515,9.60782527923584,5.2359879191499203e-05,-0.0008203047327697277,-0.0009599310578778386
0.182830810546875,0.3625970482826233,9.617814064025879,-0.0013089969288557768,0.0005410520825535059,-0.0003665191470645368
0.20526926219463348,0.35633382201194763,9.610774993896484,-0.0010646508308127522,-0.0007853981805965304,0.00010471975838299841
0.18787778913974762,0.3603273332118988,9.629977226257324,-0.00188495556358248,0.0,0.0006806784076616168
0.18405663967132568,0.3681037127971649,9.61035442352295,-0.00020943951676599681,-0.0006632251315750182,0.0003316125657875091
0.1864987313747406,0.3679791986942291,9.623638153076172,-0.0017802357906475663,-1.7453292457503267e-05,0.00041887903353199363
0.19602765142917633,0.37635892629623413,9.63841438293457,-0.00045378561480902135,-0.0010995573829859495,-0.00012217304902151227
0.19356641173362732,0.3693678379058838,9.610593795776367,0.000715585018042475,0.00043633230961859226,-0.0005061454721726477
0.1928960382938385,0.3582012951374054,9.614578247070312,-0.0012391837080940604,1.7453292457503267e-05,-0.00012217304902151227
0.18987934291362762,0.3632674217224121,9.611072540283203,5.2359879191499203e-05,6.981316983001307e-05,-0.00019198621157556772
0.18499517440795898,0.3672705292701721,9.615096092224121,1.7453292457503267e-05,-0.0007504915702156723,-8.726646046852693e-05
0.20316237211227417,0.37919366359710693,9.6761474609375,-0.0024958208668977022,0.0010122909443452954,-0.0003665191470645368
0.19270449876785278,0.3582683205604553,9.597684860229492,-0.002251474652439356,-0.0005759586347267032,-0.00017453292093705386
0.1957499235868454,0.3620415925979614,9.597981452941895,-0.0003316125657875091,0.00043633230961859226,-0.00038397242315113544
0.1936430186033249,0.35356611013412476,9.628445625305176,0.0008552113431505859,-0.003403391921892762,-0.00019198621157556772
0.13528196513652802,0.39655640721321106,8.29230785369873,0.008709193207323551,-0.09309586137533188,-0.00015707963029854
0.19917841255664825,0.31839051842689514,9.99033260345459,0.01603957638144493,-0.028867745772004128,0.0
0.1491970717906952,0.3687645196914673,10.185537338256836,-0.011641345918178558,0.021624628454446793,-0.0005934119690209627
0.3955029547214508,0.36366006731987,9.396206855773926,-0.012217304669320583,0.004363323096185923,-0.0009948377264663577
0.024593239650130272,0.3782072365283966,9.04091739654541,-0.008587019518017769,0.04771730303764343,0.0007679448463022709
0.26946261525154114,0.3704117238521576,10.304576873779297,0.004293509759008884,-0.03764675185084343,-0.0002617993741296232
0.15479950606822968,0.383953332901001,9.224533081054688,-0.012234757654368877,0.034522611647844315,-0.00017453292093705386
0.25050053000450134,0.3511336147785187,9.721636772155762,0.002600540639832616,-0.015009831637144089,0.00017453292093705386
0.16833151876926422,0.3888949453830719,9.67489242553711,-0.0051312679424881935,0.017680184915661812,-0.00019198621157556772
0.19507955014705658,0.34422871470451355,9.581958770751953,0.00041887903353199363,-0.01005309633910656,-0.00019198621157556772
0.1780807077884674,0.35402581095695496,9.499464988708496,-0.0018151424592360854,0.006510077975690365,-5.2359879191499203e-05
0.1966884434223175,0.35356611013412476,9.795513153076172,0.005602506920695305,-0.010821041651070118,0.00038397242315113544
0.20348797738552094,0.3809366226196289,9.626232147216797,0.004433136433362961,0.0015533430268988013,0.00041887903353199363
0.2063131332397461,0.3706607222557068,9.610440254211426,-0.0047996556386351585,-0.004188789986073971,-0.00017453292093705386
0.18560808897018433,0.37315067648887634,9.737035751342773,0.0022689281031489372,0.006702064536511898,-1.7453292457503267e-05
0.4185064435005188,0.5464621782302856,10.196043014526367,0.01219985168427229,0.02954842336475849,-0.0019024088978767395
0.07637502998113632,0.23276427388191223,10.163520812988281,-0.0846833735704422,0.060178954154253006,0.00022689280740451068
0.15707877278327942,0.32434728741645813,8.608007431030273,0.02736676298081875,0.01665044017136097,-0.00038397242315113544
0.24699541926383972,0.3862134516239166,10.14002799987793,-0.019914206117391586,0.007871435023844242,-1.7453292457503267e-05
0.13395078480243683,0.36694490909576416,9.65961742401123,0.006003932561725378,-0.01160643994808197,0.0
0.23045626282691956,0.3936450481414795,9.266921043395996,-0.004852015525102615,0.002478367416188121,-0.000715585018042475
0.14233049750328064,0.34943851828575134,9.89001750946045,-0.00040142572834156454,0.009634217247366905,0.00015707963029854
0.22899101674556732,0.37240368127822876,9.629173278808594,0.00031415926059708,-0.014189526438713074,-0.00019198621157556772
0.174412801861763,0.36127543449401855,9.428433418273926,-0.002199114765971899,0.012601276859641075,-0.00019198621157556772
0.21715408563613892,0.35138261318206787,9.860614776611328,-0.0016755161341279745,-0.005864306353032589,-1.7453292457503267e-05
0.18667110800743103,0.3540162146091461,9.49320125579834,0.0006981316837482154,0.0005759586347267032,-0.00019198621157556772
0.19031988084316254,0.35808637738227844,9.5953950881958,-0.001972222002223134,-0.0023387412074953318,-0.00013962633966002613
0.18336711823940277,0.3474656939506531,9.73740005493164,1.7453292457503267e-05,0.0035953782498836517,-0.00019198621157556772
0.21156123280525208,0.3734284043312073,9.54471492767334,-0.0006981316837482154,-0.005340707488358021,-0.00013962633966002613
0.16679923236370087,0.3684293329715729,9.617718696594238,-0.002373647876083851,0.007382742594927549,0.00015707963029854
0.18220831453800201,0.3650582730770111,9.691373825073242,0.002827433403581381,-0.0039618974551558495,0.0002617993741296232
0.19292476773262024,0.3765791952610016,9.512489318847656,-0.00188495556358248,-3.490658491500653e-05,-0.00019198621157556772
0.2010650485754013,0.3501567840576172,9.726980209350586,0.0,0.0014660765882581472,-0.00017453292093705386
0.17144398391246796,0.3724324107170105,9.606879234313965,-0.0021293016616255045,-0.0008901178953237832,-0.00019198621157556772
0.20240581035614014,0.3455982208251953,9.583385467529297,-0.0012915435945615172,0.0017104226863011718,-0.00020943951676599681
0.20944476127624512,0.3557879328727722,9.619519233703613,0.00022689280740451068,-0.0010471974965184927,-6.981316983001307e-05
0.18477490544319153,0.3601549565792084,9.65858268737793,0.00047123889089562,-0.001117010717280209,0.00041887903353199363
0.023520637303590775,0.36942529678344727,8.441207885742188,0.045238934457302094,-0.1345474272966385,0.00062831852119416
0.4706617295742035,0.5115355253219604,10.436929702758789,0.048747044056653976,-0.012077677994966507,-0.00022689280740451068
0.050153736025094986,0.31684863567352295,10.278672218322754,-0.09253735840320587,0.08021533489227295,-0.00013962633966002613
0.17862659692764282,0.3029431104660034,8.563694953918457,-0.02090904489159584,0.09145525097846985,0.0005934119690209627
0.2121262550354004,0.3668108284473419,9.918563842773438,0.0165631752461195,-0.04171336814761162,5.2359879191499203e-05
0.19298222661018372,0.3769909739494324,9.945762634277344,-0.018325956538319588,0.03157300502061844,-0.00022689280740451068
0.16650235652923584,0.3589099645614624,9.104085922241211,0.005497787147760391,-0.02506292797625065,0.0008726646192371845
0.1941027194261551,0.3815399706363678,9.873162269592285,0.002024581888690591,0.027454029768705368,0.0006806784076616168
0.2016683965921402,0.3341730833053589,9.751526832580566,-0.003630284918472171,-0.025220006704330444,-0.00020943951676599681
0.2101055532693863,0.3882245719432831,9.323366165161133,0.0029321531765162945,0.015446163713932037,-0.00022689280740451068
0.15442600846290588,0.35333627462387085,9.85118293762207,-0.0061610122211277485,-0.0046774824149906635,-0.00022689280740451068
0.19411228597164154,0.37155136466026306,9.381086349487305,-0.005427973810583353,-1.7453292457503267e-05,-0.00019198621157556772
0.2066483348608017,0.3505494296550751,9.76020336151123,-0.007522369269281626,1.7453292457503267e-05,0.0003316125657875091
0.18441098928451538,0.3789925277233124,9.677976608276367,-0.0005585053586401045,0.0018151424592360854,-0.0003316125657875091
0.1925608515739441,0.3636409044265747,9.64756965637207,-0.0004886921960860491,-0.004206243436783552,-0.0008377580670639873
0.19294391572475433,0.3664373457431793,9.55009651184082,-0.00027925267932005227,-0.003001966280862689,-0.0005061454721726477
0.18586665391921997,0.3638516068458557,9.647636413574219,-0.00041887903353199363,0.00548033369705081,-8.726646046852693e-05
0.19240762293338776,0.37365826964378357,9.656476974487305,-0.0011868239380419254,-0.0038920841179788113,0.00015707963029854
0.1914786696434021,0.3518518805503845,9.564318656921387,-0.0010471974965184927,-0.00019198621157556772,0.00015707963029854
0.1783297061920166,0.36644691228866577,9.679622650146484,-0.001483529806137085,0.0025830871891230345,-0.00019198621157556772
0.1766633540391922,0.3706032633781433,9.59299087524414,-0.00143117003608495,0.0010471974965184927,-0.00015707963029854
0.17087896168231964,0.3788488805294037,9.645252227783203,-0.0005235987482592463,-0.0012217304902151227,0.0003490658418741077
0.19421763718128204,0.3589291274547577,9.614827156066895,-0.001483529806137085,0.00020943951676599681,-0.00019198621157556772
0.19167977571487427,0.3700765371322632,9.627632141113281,-0.0007504915702156723,1.7453292457503267e-05,-0.00022689280740451068
0.17796579003334045,0.357703298330307,9.603343963623047,-0.00251327408477664,0.0008726646192371845,-0.00017453292093705386
0.17786045372486115,0.3555963933467865,9.617555618286133,-0.0015533430268988013,0.00010471975838299841,0.00031415926059708
0.19129671156406403,0.3669736385345459,9.612154006958008,-0.00010471975838299841,1.7453292457503267e-05,-3.490658491500653e-05
0.1942080557346344,0.3498886227607727,9.648048400878906,-0.002199114765971899,-0.00047123889089562,-0.00019198621157556772
0.18083883821964264,0.35510799288749695,9.625773429870605,-0.0019547687843441963,0.0006981316837482154,0.00012217304902151227
0.20148642361164093,0.360949844121933,9.625533103942871,-0.00047123889089562,-0.0008901178953237832,-0.00012217304902151227
0.18188270926475525,0.3682473599910736,9.615190505981445,-0.00019198621157556772,-0.00027925267932005227,-0.00019198621157556772
0.18328091502189636,0.3593888282775879,9.62315845489502,-0.00027925267932005227,0.00019198621157556772,-0.00029670598451048136
0.179287388920784,0.3580097556114197,9.621223449707031,-0.00010471975838299841,-0.0008377580670639873,0.00022689280740451068
0.20052875578403473,0.373619943857193,9.628061294555664,-0.00047123889089562,0.0,-0.0006457717972807586
0.19015707075595856,0.36439749598503113,9.626184463500977,-0.0011868239380419254,1.7453292457503267e-05,-0.0005061454721726477
0.1909136325120926,0.3694348931312561,9.635933876037598,-0.00029670598451048136,-3.490658491500653e-05,0.00022689280740451068
0.1857708841562271,0.36485716700553894,9.6132173538208,-0.0003665191470645368,-0.0005934119690209627,3.490658491500653e-05
0.19284814596176147,0.36273112893104553,9.615726470947266,-0.0006632251315750182,-0.004398229531943798,0.0006806784076616168
0.19363345205783844,0.36473268270492554,9.632237434387207,-0.001029744278639555,-0.0007330382941290736,0.00043633230961859226
0.19083702564239502,0.3560369312763214,9.65231990814209,0.0,-0.0029845130629837513,3.490658491500653e-05
0.19035817682743073,0.35050153732299805,9.619749069213867,-0.00024434609804302454,0.0005235987482592463,0.00019198621157556772
0.20268353819847107,0.35166990756988525,9.615046501159668,-0.0007330382941290736,-0.001483529806137085,0.00012217304902151227
0.17461390793323517,0.37348586320877075,9.5963716506958,0.0016755161341279745,-0.0005934119690209627,0.00022689280740451068
0.1889982670545578,0.3700765371322632,9.667998313903809,-0.001343903481028974,-0.001745329238474369,-0.00019198621157556772
0.19003257155418396,0.3565349280834198,9.580177307128906,0.0008726646192371845,-0.0016231562476605177,-0.00013962633966002613
0.1947730928659439,0.36725136637687683,9.62294864654541,0.002146754879504442,-0.00188495556358248,0.00010471975838299841
0.19426551461219788,0.37098631262779236,9.619681358337402,0.00041887903353199363,-0.0024434609804302454,0.0003665191470645368
0.2008735090494156,0.39551252126693726,9.64187240600586,0.0005061454721726477,-0.0014660765882581472,-0.00019198621157556772
0.19773231446743011,0.3788297176361084,9.624289512634277,-0.0019024088978767395,0.0025307273026555777,0.0006108652451075613
0.20503942668437958,0.35996341705322266,9.619634628295898,0.0,-0.00143117003608495,-0.00019198621157556772
0.1393425315618515,0.35352781414985657,9.741738319396973,0.07312929630279541,-0.034662239253520966,0.00022689280740451068
0.16425180435180664,0.3367971181869507,9.082930564880371,0.0024958208668977022,0.02799508161842823,0.0011344640515744686
0.21530576050281525,0.3872860372066498,10.198493957519531,-0.00031415926059708,-0.013299409300088882,-0.00019198621157556772
0.1921873539686203,0.36279815435409546,9.418750762939453,-0.008796459063887596,0.00769690191373229,-0.00040142572834156454
0.21853314340114594,0.3872477412223816,9.511405944824219,-0.0011344640515744686,0.006859143730252981,-0.00013962633966002613
0.16360057890415192,0.360949844121933,9.852561950683594,-0.008883725851774216,0.006126105785369873,-0.00012217304902151227
0.2001456767320633,0.3361937999725342,9.446743965148926,0.00038397242315113544,-0.005218534264713526,-0.00041887903353199363
0.1732635796070099,0.35525164008140564,9.551609992980957,-0.0013613568153232336,0.0028448866214603186,0.0006806784076616168
0.1956445723772049,0.3679600656032562,9.819147109985352,0.005864306353032589,-0.009162978269159794,-0.00017453292093705386
0.20134277641773224,0.3834840655326843,9.476365089416504,-0.0014137167017906904,0.0008377580670639873,-0.00013962633966002613
0.18565596640110016,0.3790212571620941,9.695146560668945,-0.0009948377264663577,0.0022689281031489372,-0.00015707963029854
0.1696626991033554,0.3794330656528473,9.684718132019043,-0.0004886921960860491,-0.00040142572834156454,0.00024434609804302454
0.18886420130729675,0.3526754677295685,9.52151107788086,-0.0018500490114092827,-0.0023561944253742695,0.00027925267932005227
0.19400694966316223,0.3547632098197937,9.646889686584473,0.00013962633966002613,0.000715585018042475,-0.0006457717972807586
0.1815570890903473,0.35650619864463806,9.687064170837402,-1.7453292457503267e-05,-0.0006981316837482154,-3.490658491500653e-05
0.449602335691452,0.3227575421333313,10.150046348571777,0.005672320257872343,-0.00753982225432992,0.0007504915702156723
0.12449848651885986,0.38805219531059265,10.041168212890625,-0.009372417815029621,0.018587756901979446,-0.001117010717280209
0.19928376376628876,0.32218292355537415,9.586363792419434,-0.012845623306930065,-0.03764675185084343,-0.0006806784076616168
0.23501482605934143,0.3147513270378113,9.09385871887207,0.0051312679424881935,0.059463366866111755,0.0003490658418741077
0.15043248236179352,0.33228644728660583,9.803671836853027,-0.01005309633910656,-0.02652900479733944,-0.0002617993741296232
0.15464626252651215,0.38872256875038147,9.710987091064453,-0.005567600484937429,0.003926991019397974,-0.00019198621157556772
0.18890251219272614,0.356573224067688,9.743759155273438,-0.00125663704238832,-0.006649704650044441,-0.00020943951676599681
0.17577271163463593,0.39115509390830994,9.481852531433105,-0.0011868239380419254,-0.001745329238474369,-0.00045378561480902135
0.19769401848316193,0.3521391749382019,9.679758071899414,0.0007504915702156723,-0.00013962633966002613,0.00020943951676599681
0.18977399170398712,0.3624342381954193,9.613726615905762,0.0005235987482592463,-0.0029845130629837513,-0.00019198621157556772
0.1895824521780014,0.3728059232234955,9.679441452026367,-0.0021118484437465668,0.004607669077813625,0.0003665191470645368
0.20049044489860535,0.3610168695449829,9.59912109375,-0.001658062799833715,-0.0008377580670639873,-0.00010471975838299841
0.19566373527050018,0.3582395911216736,9.640138626098633,-0.00188495556358248,0.0028972465079277754,-5.2359879191499203e-05
0.2010650485754013,0.3578086495399475,9.6149320602417,0.0017802357906475663,-0.00617846567183733,0.00010471975838299841
0.1981441229581833,0.345904678106308,9.610976219177246,-0.0024434609804302454,0.0012915435945615172,3.490658491500653e-05
0.19081786274909973,0.3830147981643677,9.622573852539062,0.0,-0.0008726646192371845,-0.00010471975838299841
0.17033307254314423,0.37883931398391724,9.626749038696289,-0.0012391837080940604,0.0011519172694534063,-0.00019198621157556772
0.19861339032649994,0.3700190782546997,9.647015571594238,-0.001972222002223134,5.2359879191499203e-05,-1.7453292457503267e-05
0.19705237448215485,0.36504870653152466,9.62071704864502,-0.0005585053586401045,0.0018500490114092827,-1.7453292457503267e-05
0.18700629472732544,0.36917629837989807,9.622611999511719,-0.00041887903353199363,-0.0006457717972807586,-0.00019198621157556772
0.18503347039222717,0.36225226521492004,9.632906913757324,-0.0019373154500499368,1.7453292457503267e-05,0.00041887903353199363
0.18080052733421326,0.36437833309173584,9.6192045211792,-0.0007679448463022709,0.00013962633966002613,-0.0005585053586401045
0.1835394948720932,0.36609259247779846,9.63037109375,-0.00094247778179124,-3.490658491500653e-05,-0.00019198621157556772
0.18218916654586792,0.3577894866466522,9.61845588684082,-0.0016231562476605177,0.0009599310578778386,-0.00015707963029854
0.18555063009262085,0.3660829961299896,9.637399673461914,-0.00062831852119416,3.490658491500653e-05,-0.0006457717972807586
0.1956062763929367,0.37175247073173523,9.624547004699707,-0.0009599310578778386,0.00027925267932005227,-3.490658491500653e-05
0.18688179552555084,0.3711395561695099,9.630600929260254,-0.001745329238474369,0.0006457717972807586,0.00027925267932005227
0.19001340866088867,0.3567168712615967,9.624651908874512,-0.0006457717972807586,0.0002617993741296232,-0.00019198621157556772
0.1758493185043335,0.3540353775024414,9.615717887878418,-0.002251474652439356,-0.00022689280740451068,-1.7453292457503267e-05
0.17379030585289001,0.36827608942985535,9.609663963317871,0.0002617993741296232,0.00020943951676599681,-0.0006457717972807586
0.2134191244840622,0.3620990514755249,9.640789031982422,-0.00031415926059708,-0.00125663704238832,-0.00062831852119416
0.19248422980308533,0.35744473338127136,9.626577377319336,-0.00024434609804302454,0.0003316125657875091,-0.00019198621157556772
0.19259914755821228,0.36596807837486267,9.63448715209961,-0.0003665191470645368,0.0003490658418741077,0.0003665191470645368
0.18101121485233307,0.36189794540405273,9.599091529846191,-0.0013788101496174932,0.000715585018042475,-1.7453292457503267e-05
0.18809805810451508,0.35783737897872925,9.622689247131348,-0.00015707963029854,0.0003316125657875091,0.0003316125657875091
0.18691052496433258,0.37765178084373474,9.615362167358398,-0.0013613568153232336,-0.0008552113431505859,-0.00019198621157556772
0.19003257155418396,0.3512006402015686,9.627182006835938,-0.00041887903353199363,0.0,8.726646046852693e-05
0.20465634763240814,0.3542173504829407,9.63210391998291,-0.00027925267932005227,-0.0005585053586401045,-0.00019198621157556772
0.18301276862621307,0.3453013300895691,9.638912200927734,-0.0018500490114092827,8.726646046852693e-05,-0.00019198621157556772
0.1895824521780014,0.3627215325832367,9.611560821533203,-0.00041887903353199363,-3.490658491500653e-05,-0.00012217304902151227
0.19478265941143036,0.3649337887763977,9.595443725585938,0.0005410520825535059,0.0010821041651070118,-0.00015707963029854
0.17280389368534088,0.36671507358551025,9.60063362121582,-0.0011344640515744686,0.0017104226863011718,-0.00012217304902151227
0.17773595452308655,0.3760620355606079,9.617441177368164,0.00013962633966002613,0.0024085543118417263,0.00022689280740451068
0.18921853601932526,0.3674907982349396,9.658946990966797,-0.00205948855727911,5.2359879191499203e-05,-0.0003316125657875091
0.1859336942434311,0.3541790246963501,9.635425567626953,-0.00027925267932005227,-0.00038397242315113544,-0.00020943951676599681
0.1902911365032196,0.3699520230293274,9.620984077453613,-0.0010122909443452954,0.00041887903353199363,-0.00013962633966002613
0.18363526463508606,0.3826029896736145,9.623014450073242,-0.00043633230961859226,6.981316983001307e-05,0.0002617993741296232
0.19664056599140167,0.365498811006546,9.637954711914062,-0.00031415926059708,-0.00010471975838299841,0.0005410520825535059
0.1886247843503952,0.3692050278186798,9.621004104614258,-0.00024434609804302454,-0.00027925267932005227,-0.00019198621157556772
0.19771316647529602,0.3634302318096161,9.63148021697998,-0.00027925267932005227,-0.00043633230961859226,-1.7453292457503267e-05
0.19344191253185272,0.3563433885574341,9.639754295349121,-0.00029670598451048136,-0.0007679448463022709,-0.00017453292093705386
0.19164147973060608,0.36700236797332764,9.61730670928955,-0.002199114765971899,-0.00022689280740451068,-0.00019198621157556772
0.19260872900485992,0.34287840127944946,9.631327629089355,-0.0008377580670639873,0.00019198621157556772,-0.00013962633966002613
0.17589719593524933,0.3559507429599762,9.613849639892578,0.00040142572834156454,0.00041887903353199363,-0.0003490658418741077
0.07116524875164032,0.4449096918106079,9.275529861450195,0.07070329040288925,0.05757841095328331,0.00029670598451048136
0.16100527346134186,0.41720399260520935,9.721148490905762,0.008045967668294907,-0.009250245057046413,5.2359879191499203e-05
0.2145491987466812,0.35365229845046997,10.191235542297363,-0.038990654051303864,-0.003281218931078911,-0.00013962633966002613
0.11598470062017441,0.343788206577301,8.863632202148438,-0.03693116828799248,-0.08136724680662155,-0.0015882495790719986
0.2527414858341217,0.37465423345565796,9.905281066894531,0.02422516979277134,0.06860889494419098,0.0008726646192371845
0.10789230465888977,0.3994198739528656,9.743624687194824,-0.021415190771222115,-0.05052728205919266,-0.0005061454721726477
0.2330707311630249,0.35783737897872925,9.454204559326172,0.011920598335564137,0.024469515308737755,0.0008028514566831291
0.15473246574401855,0.3740221858024597,9.622180938720703,-0.011885692365467548,-0.011763518676161766,0.0008377580670639873
0.22519859671592712,0.35356611013412476,9.869743347167969,0.006579891312867403,0.006265731994062662,-0.00019198621157556772
0.1828116625547409,0.3614095151424408,9.323347091674805,-0.010018189437687397,-0.009686577133834362,-0.0002617993741296232
0.26283544301986694,0.4066694974899292,10.140727996826172,0.04469788074493408,0.11311478912830353,0.0009948377264663577
-0.020111292600631714,0.5235735774040222,9.262380599975586,0.026965336874127388,0.06789331138134003,-0.000715585018042475
0.27096617221832275,0.3804386258125305,10.509550094604492,-0.029286624863743782,-0.05351179465651512,-0.0015533430268988013
0.06774632632732391,0.4164474308490753,8.648009300231934,-0.04778711497783661,-0.12219049781560898,-0.00094247778179124
0.3598867952823639,0.28574317693710327,10.189990043640137,0.015009831637144089,0.048432886600494385,0.001029744278639555
0.14745408296585083,0.38909608125686646,9.624259948730469,-0.007958701811730862,-0.03134611248970032,0.00043633230961859226
0.20468507707118988,0.3742424547672272,9.905740737915039,-0.015446163713932037,-0.033126350492239,-0.00019198621157556772
0.16935624182224274,0.36373668909072876,9.537761688232422,0.012234757654368877,0.020839231088757515,6.981316983001307e-05
0.149867445230484,0.38957491517066956,9.580801010131836,0.0003490658418741077,-0.015062191523611546,-0.00020943951676599681
0.20607371628284454,0.3655945956707001,9.59311580657959,-0.001343903481028974,0.011239920742809772,8.726646046852693e-05
0.24401701986789703,0.339028537273407,9.930076599121094,0.019250981509685516,-0.07010987401008606,0.00031415926059708
0.3068600296974182,0.4099639356136322,10.587398529052734,0.0055850534699857235,0.0524296909570694,0.00062831852119416
0.05356307700276375,0.37701013684272766,9.5089750289917,-0.030770154669880867,0.00205948855727911,-0.001518436474725604
0.14366167783737183,0.39353013038635254,9.89846420288086,0.00457276264205575,0.03907792270183563,0.00013962633966002613
0.1939590573310852,0.3615148663520813,9.556025505065918,-0.00010471975838299841,0.0005759586347267032,-0.00012217304902151227
0.16927005350589752,0.36338233947753906,9.617345809936523,-0.00188495556358248,-0.00038397242315113544,-0.00012217304902151227
0.1850621998310089,0.356410413980484,9.702425003051758,0.0002617993741296232,-3.490658491500653e-05,-0.00043633230961859226
0.18630719184875488,0.3688698410987854,9.64240837097168,-0.0006108652451075613,-0.0008726646192371845,-0.0002617993741296232
0.18186354637145996,0.386500746011734,9.575905799865723,-0.0009075712296180427,-0.0003316125657875091,-0.00012217304902151227
0.1946869045495987,0.3755161464214325,9.675840377807617,-0.0005061454721726477,0.0019373154500499368,-0.00019198621157556772
0.18977399170398712,0.38146334886550903,9.61814022064209,-0.00040142572834156454,-0.0023911010939627886,0.00022689280740451068
0.192331001162529,0.35783737897872925,9.614252090454102,-0.0007679448463022709,0.0023911010939627886,1.7453292457503267e-05
0.19866126775741577,0.3440372049808502,9.657289505004883,-0.0026354470755904913,0.0011519172694534063,-0.00022689280740451068
0.19442832469940186,0.3523498475551605,9.596534729003906,-0.00020943951676599681,-0.00012217304902151227,0.00012217304902151227
0.1725165843963623,0.35635295510292053,9.606351852416992,-0.0011868239380419254,-0.0007504915702156723,-0.00012217304902151227
0.18765752017498016,0.36915716528892517,9.6389799118042,0.00031415926059708,-0.00040142572834156454,-0.00062831852119416
0.2068973183631897,0.3569754660129547,9.622535705566406,-0.0023561944253742695,0.00045378561480902135,0.00015707963029854
0.1895633041858673,0.3658914566040039,9.6192045211792,-0.0016755161341279745,-0.0011344640515744686,-0.0005585053586401045
0.2040242850780487,0.3802949786186218,9.63320541381836,0.00045378561480902135,0.0006457717972807586,0.00010471975838299841
0.19487842917442322,0.35604649782180786,9.612805366516113,6.981316983001307e-05,1.7453292457503267e-05,-0.0013962633674964309
0.20142896473407745,0.3724707365036011,9.625618934631348,-0.00020943951676599681,-0.00045378561480902135,6.981316983001307e-05
0.17472882568836212,0.3728346526622772,9.6300630569458,-0.00043633230961859226,-0.00022689280740451068,-0.0011344640515744686
0.17900966107845306,0.348614901304245,9.603899002075195,-0.0017104226863011718,0.002321287989616394,-1.7453292457503267e-05
0.1836831420660019,0.3652210831642151,9.619729995727539,-0.0003316125657875091,-0.0006806784076616168,-0.00022689280740451068
0.17963215708732605,0.3736007809638977,9.631546974182129,-0.0005585053586401045,0.0003316125657875091,0.00022689280740451068
0.16277697682380676,0.37063199281692505,9.646821975708008,-0.0007330382941290736,0.0005585053586401045,-0.00019198621157556772
0.18790651857852936,0.3627215325832367,9.621999740600586,-0.0011693706037476659,3.490658491500653e-05,0.00022689280740451068
0.19529981911182404,0.3720780909061432,9.621319770812988,-0.0014486232539638877,0.00038397242315113544,-0.00019198621157556772
0.19436128437519073,0.3594079613685608,9.602606773376465,0.0004886921960860491,0.001483529806137085,0.0010995573829859495
0.17838717997074127,0.37589922547340393,9.660717964172363,-0.00031415926059708,5.2359879191499203e-05,-0.00017453292093705386
0.18669027090072632,0.3700956702232361,9.605489730834961,-0.00027925267932005227,-0.0003665191470645368,-0.0002617993741296232
0.18167202174663544,0.35445675253868103,9.643719673156738,-0.00094247778179124,-0.0013264502631500363,-0.00012217304902151227
0.17832013964653015,0.34306034445762634,9.641392707824707,-0.00045378561480902135,0.00047123889089562,-0.00019198621157556772
0.1915840059518814,0.3527425229549408,9.607375144958496,-0.00029670598451048136,0.0009250245057046413,-5.2359879191499203e-05
0.18532077968120575,0.35996341705322266,9.624682426452637,-0.001117010717280209,5.2359879191499203e-05,3.490658491500653e-05
0.19597019255161285,0.3772016763687134,9.642924308776855,-0.0015707963611930609,-0.00047123889089562,-0.00019198621157556772
0.18728402256965637,0.3745967745780945,9.634889602661133,0.0009948377264663577,-0.00094247778179124,-0.00019198621157556772
0.2047712802886963,0.3741466701030731,9.665489196777344,-0.00040142572834156454,-0.0005410520825535059,-0.00015707963029854
0.18701587617397308,0.38067805767059326,9.617804527282715,-0.003036872949451208,0.001343903481028974,-0.00017453292093705386
0.18803101778030396,0.3639760911464691,9.619346618652344,-0.002024581888690591,0.0009599310578778386,-0.00015707963029854
0.16108188033103943,0.36583399772644043,9.605335235595703,-0.0007679448463022709,0.0003316125657875091,0.00020943951676599681
0.17617492377758026,0.35104742646217346,9.621635437011719,-0.00040142572834156454,-0.002740166848525405,-0.00019198621157556772
0.19937953352928162,0.3663894534111023,9.632161140441895,-0.0007504915702156723,-0.0010995573829859495,0.00019198621157556772
0.18751387298107147,0.36254915595054626,9.624239921569824,-0.001745329238474369,-0.0012915435945615172,0.00015707963029854
0.1953955739736557,0.39359715580940247,9.629890441894531,-0.0012217304902151227,3.490658491500653e-05,0.0002617993741296232
0.16648320853710175,0.356783926486969,9.604435920715332,-0.0008203047327697277,-0.00012217304902151227,-0.00015707963029854
0.20029890537261963,0.3623959422111511,9.622363090515137,-0.00020943951676599681,-0.00038397242315113544,0.00012217304902151227
0.18117402493953705,0.364579439163208,9.63424015045166,-0.002775073517113924,0.0021118484437465668,-0.00015707963029854
0.1814326047897339,0.3514975309371948,9.638874053955078,-0.001518436474725604,-0.00029670598451048136,-0.00012217304902151227
0.18284039199352264,0.35448548197746277,9.600126266479492,-0.0008028514566831291,0.00038397242315113544,0.0005410520825535059
0.185914546251297,0.3529723584651947,9.628128051757812,-0.00040142572834156454,-0.0021642083302140236,0.00010471975838299841
0.20323897898197174,0.37813061475753784,9.638365745544434,-0.0012740903766825795,0.0,0.00010471975838299841
0.19144035875797272,0.3569754660129547,9.641660690307617,-0.00143117003608495,0.0007504915702156723,-1.7453292457503267e-05
0.16038277745246887,0.36735671758651733,9.61246109008789,-0.0013613568153232336,0.0005235987482592463,0.00022689280740451068
0.3512676954269409,0.30061596632003784,9.180078506469727,-0.021135937422513962,0.1641831248998642,0.0009599310578778386
-0.0415920689702034,0.4486542344093323,10.086235046386719,-8.726646046852693e-05,0.06667158007621765,0.00012217304902151227
0.2787904143333435,0.4420941174030304,9.887334823608398,0.011658798903226852,-0.08623671531677246,-0.0010471974965184927
0.22216275334358215,0.33873164653778076,9.1104736328125,-0.011850785464048386,-0.08679522573947906,-0.0006457717972807586
0.24153663218021393,0.3372568190097809,9.6632661819458,0.008866272866725922,0.06098180264234543,0.0011344640515744686
0.11013327538967133,0.34683361649513245,9.841719627380371,-0.009337511844933033,-0.04216715320944786,0.0005934119690209627
0.22045809030532837,0.3736869990825653,9.379898071289062,0.00855211354792118,0.0019198621157556772,-0.00020943951676599681
0.17044800519943237,0.3703255355358124,9.559520721435547,-0.004852015525102615,-0.016947146505117416,-0.00047123889089562
0.20999063551425934,0.3774985671043396,9.86001205444336,0.010384708642959595,-0.0036128314677625895,5.2359879191499203e-05
0.1860198825597763,0.3803333044052124,9.410898208618164,-0.008220500312745571,-0.01014036312699318,-0.00017453292093705386
0.22138702869415283,0.34725499153137207,9.749372482299805,0.0035604715812951326,0.001745329238474369,0.001117010717280209
0.48160800337791443,0.3318171799182892,10.104862213134766,-0.004084070213139057,-0.036582101136446,-0.0002617993741296232
0.27486392855644226,0.3203345835208893,10.117494583129883,-0.0003316125657875091,0.07400196045637131,0.0010122909443452954
0.21909818053245544,0.34810733795166016,9.746824264526367,6.981316983001307e-05,0.027471482753753662,-0.00019198621157556772
0.16726849973201752,0.3969203233718872,9.587532043457031,-0.0015358896926045418,-0.018570303916931152,-0.00012217304902151227
0.26419535279273987,0.42202112078666687,9.62315845489502,0.0008203047327697277,0.021205751225352287,-0.0006108652451075613
0.13667060434818268,0.3672034740447998,9.573885917663574,-0.009372417815029621,-0.0020943949930369854,-0.00019198621157556772
0.23536917567253113,0.34414252638816833,9.71877384185791,0.0051312679424881935,0.0091455252841115,-0.000715585018042475
0.19749289751052856,0.37364867329597473,9.594781875610352,0.00043633230961859226,-0.004450589418411255,-0.00015707963029854
0.18286912143230438,0.3543514013290405,9.61209774017334,-0.0005934119690209627,0.003001966280862689,-0.0002617993741296232
0.19988709688186646,0.3614765703678131,9.683960914611816,0.0017627825727686286,-0.0026529005263000727,0.00022689280740451068
0.1851005107164383,0.3739551305770874,9.590568542480469,-0.002460914198309183,0.002548180753365159,-8.726646046852693e-05
0.18319472670555115,0.35498347878456116,9.65858268737793,-6.981316983001307e-05,0.0006806784076616168,0.00010471975838299841
0.18469828367233276,0.3699999153614044,9.600126266479492,-0.002949606394395232,0.0006457717972807586,0.00017453292093705386
0.1986899971961975,0.35158371925354004,9.631997108459473,-0.0005585053586401045,0.003001966280862689,-5.2359879191499203e-05
0.19442832469940186,0.3569275736808777,9.636441230773926,-0.0016057029133662581,0.0015882495790719986,-0.00019198621157556772
0.18423859775066376,0.3582491874694824,9.627908706665039,-0.0027052604127675295,0.0024958208668977022,-0.00019198621157556772
0.18062815070152283,0.35577836632728577,9.610048294067383,-0.0038746309000998735,0.00047123889089562,-0.0006457717972807586
0.18644127249717712,0.34902670979499817,9.630274772644043,-0.0026179938577115536,0.003403391921892762,-0.00019198621157556772
0.1725548952817917,0.36231932044029236,9.601619720458984,-0.00029670598451048136,-0.004939281847327948,-0.0005061454721726477
0.1780615597963333,0.37832215428352356,9.670907974243164,-0.0034732052590698004,0.0045553091913461685,-0.00024434609804302454
0.2074623554944992,0.34325188398361206,9.647282600402832,-0.0006457717972807586,-0.003490658476948738,-0.00043633230961859226
0.1990443468093872,0.355538934469223,9.643173217773438,-6.981316983001307e-05,0.0010122909443452954,0.00022689280740451068
0.18740852177143097,0.36856338381767273,9.625313758850098,0.0007853981805965304,-0.00040142572834156454,-0.00013962633966002613
0.18175821006298065,0.3806876242160797,9.671645164489746,-0.0024958208668977022,0.005619960371404886,-0.00017453292093705386
0.17683573067188263,0.34394142031669617,9.590033531188965,-0.001029744278639555,5.2359879191499203e-05,0.00010471975838299841
0.17648138105869293,0.3452630341053009,9.607806205749512,-0.0012042771559208632,0.0003665191470645368,-0.00012217304902151227
0.1752268224954605,0.36071041226387024,9.635512351989746,0.0008377580670639873,1.7453292457503267e-05,0.0006108652451075613
0.19896772503852844,0.3614574074745178,9.618130683898926,-0.0006632251315750182,-0.0005235987482592463,-0.00045378561480902135
0.18923769891262054,0.36340150237083435,9.63610553741455,-0.0010122909443452954,0.0016231562476605177,-0.0005061454721726477
0.17335934937000275,0.3540736734867096,9.616540908813477,-0.00043633230961859226,-0.0015707963611930609,0.0005410520825535059
0.18619227409362793,0.37995022535324097,9.616473197937012,-0.0010471974965184927,-0.0002617993741296232,-0.00045378561480902135
0.19745460152626038,0.3638899028301239,9.657625198364258,-0.0026179938577115536,0.0008377580670639873,-0.00040142572834156454
0.17697937786579132,0.3745776414871216,9.586517333984375,-0.002286381321027875,-6.981316983001307e-05,0.00029670598451048136
0.1844780147075653,0.3711012601852417,9.626605987548828,-0.0019198621157556772,1.7453292457503267e-05,0.0006108652451075613
0.19022411108016968,0.3659489154815674,9.641297340393066,-0.0010821041651070118,-0.00040142572834156454,0.0002617993741296232
0.1991688460111618,0.3541598916053772,9.601763725280762,-0.00031415926059708,-0.0003665191470645368,-0.00019198621157556772
0.1767016500234604,0.3436541259288788,9.637274742126465,0.00013962633966002613,0.000715585018042475,-0.00019198621157556772
0.18728402256965637,0.3517177999019623,9.635704040527344,-0.0005410520825535059,-0.0010995573829859495,-0.00019198621157556772
0.18725529313087463,0.37588006258010864,9.605212211608887,-0.00041887903353199363,-0.0006457717972807586,-0.00019198621157556772
0.1886439323425293,0.3538246750831604,9.656332969665527,-0.0003316125657875091,-0.0013788101496174932,-0.0007853981805965304
0.18927599489688873,0.3599346876144409,9.609569549560547,-0.0005934119690209627,0.0024434609804302454,-0.00019198621157556772
0.19786639511585236,0.3715417683124542,9.639371871948242,-0.0007330382941290736,0.00027925267932005227,-0.00019198621157556772
0.19117221236228943,0.3578469455242157,9.646076202392578,-0.0003316125657875091,0.001483529806137085,0.0003665191470645368
0.19692787528038025,0.34814563393592834,9.632916450500488,-0.0009948377264663577,0.0008377580670639873,-0.00019198621157556772
0.19815370440483093,0.35965695977211,9.7330904006958,0.00678933085873723,0.023177972063422203,0.00020943951676599681
0.01926853507757187,0.3787243962287903,10.40146541595459,-0.007365289609879255,-0.04698426276445389,0.00024434609804302454
0.092646025121212,0.4303242266178131,9.430310249328613,-0.015463616698980331,-0.050248030573129654,-0.00029670598451048136
0.2648657262325287,0.34785833954811096,9.478031158447266,-0.019966566935181618,-0.08920377492904663,-0.0012740903766825795
0.17688360810279846,0.3840586543083191,9.596160888671875,0.014817845076322556,0.07539822161197662,0.0
0.1727847456932068,0.34756144881248474,9.864599227905273,-0.013648474588990211,-0.05852089077234268,-0.00045378561480902135
0.18358737230300903,0.3478487730026245,9.362401008605957,0.0034382985904812813,0.03179989755153656,-8.726646046852693e-05
0.1968321055173874,0.33962228894233704,9.773591041564941,-0.010349802672863007,-0.020402899011969566,-0.00019198621157556772
0.19159358739852905,0.35998257994651794,9.600173950195312,0.006702064536511898,0.010698867961764336,0.00022689280740451068
0.19652564823627472,0.36354514956474304,9.549637794494629,-0.005358160939067602,-0.008203047327697277,-0.00017453292093705386
0.20860199630260468,0.3541215658187866,9.761102676391602,0.00251327408477664,0.012164944782853127,-1.7453292457503267e-05
0.18815551698207855,0.3752288520336151,9.625341415405273,-0.002286381321027875,-0.011554080061614513,-0.00019198621157556772
0.1900804489850998,0.3511623442173004,9.590568542480469,0.0020769417751580477,0.01186823844909668,0.00022689280740451068
0.18654660880565643,0.36219480633735657,9.551629066467285,-0.001658062799833715,-0.00331612559966743,-0.00062831852119416
0.1804557591676712,0.35537612438201904,9.684832572937012,-0.0006108652451075613,0.003543018363416195,-0.00019198621157556772
0.18195931613445282,0.3361363410949707,9.617230415344238,-0.00027925267932005227,-0.006003932561725378,0.00010471975838299841
0.18906530737876892,0.3676440119743347,9.590635299682617,-0.00020943951676599681,0.0039618974551558495,-5.2359879191499203e-05
0.18003438413143158,0.3779390752315521,9.675705909729004,-0.00047123889089562,-0.0020943949930369854,-0.00010471975838299841
0.17943105101585388,0.3545142114162445,9.608631134033203,-0.001658062799833715,0.0005410520825535059,0.00012217304902151227
0.18362568318843842,0.35521331429481506,9.61617660522461,-0.0006981316837482154,0.0006981316837482154,-8.726646046852693e-05
0.18657533824443817,0.3530968427658081,9.668351173400879,-0.0033859387040138245,0.0006457717972807586,0.00022689280740451068
0.16646404564380646,0.36642777919769287,9.5932035446167,-0.0010471974965184927,-0.00019198621157556772,-0.00019198621157556772
0.19451451301574707,0.36996161937713623,9.371001243591309,0.02940879762172699,0.04195771366357803,-1.7453292457503267e-05
0.12032299488782883,0.4891258180141449,9.830841064453125,0.005166174378246069,0.04054399952292442,-0.00012217304902151227
0.1879543960094452,0.3494097888469696,10.226334571838379,-0.0303861815482378,-0.0328296422958374,-0.001343903481028974
0.19565415382385254,0.35744473338127136,8.853882789611816,-0.011728612706065178,-0.07876671105623245,-0.00029670598451048136
0.23651838302612305,0.34791579842567444,9.78828239440918,0.0035953782498836517,0.06442010402679443,-0.00019198621157556772
0.14098016917705536,0.37566938996315,9.804561614990234,-0.0020943949930369854,-0.04872959107160568,-0.0005061454721726477
0.261801153421402,0.3706032633781433,9.445624351501465,-0.0003316125657875091,0.02361430414021015,6.981316983001307e-05
0.14262737333774567,0.37428075075149536,9.620811462402344,-0.0018500490114092827,-0.010332348756492138,-0.00017453292093705386
0.21603359282016754,0.36752909421920776,9.811065673828125,0.0005061454721726477,0.009162978269159794,-1.7453292457503267e-05
0.14306791126728058,0.3596186637878418,9.390345573425293,-0.004363323096185923,-0.0019024088978767395,-0.00029670598451048136
0.1892089694738388,0.3766462206840515,9.74935245513916,0.0017627825727686286,0.012897983193397522,-0.00010471975838299841
0.17471925914287567,0.37244200706481934,9.632190704345703,-0.0017104226863011718,-0.007435102481395006,-0.00019198621157556772
0.19861339032649994,0.33809956908226013,9.711994171142578,0.0006632251315750182,6.981316983001307e-05,-0.00031415926059708
0.17089810967445374,0.3646368980407715,9.564165115356445,-0.0017802357906475663,0.003857177682220936,-0.00019198621157556772
0.181911438703537,0.35443761944770813,9.666560173034668,-0.0004886921960860491,0.0025830871891230345,0.00010471975838299841
0.16949032247066498,0.3655371367931366,9.617517471313477,-0.003036872949451208,0.00045378561480902135,-0.00013962633966002613
0.18336711823940277,0.3551367223262787,9.619366645812988,-0.0009599310578778386,-0.00013962633966002613,0.0005585053586401045
0.1884140819311142,0.37127363681793213,9.612586975097656,-0.0017278759041801095,0.004625122528523207,-0.00013962633966002613
0.1842673271894455,0.37517139315605164,9.614128112792969,-5.2359879191499203e-05,0.008412486873567104,-0.00019198621157556772
0.01613691821694374,0.11537178605794907,10.361205101013184,-0.05115560069680214,0.08002334833145142,0.0031415927223861217
0.10361146926879883,0.3259465992450714,10.577746391296387,0.06686356663703918,-0.037140607833862305,-0.0008377580670639873
0.18157625198364258,0.384499192237854,8.915384292602539,-0.04312708601355553,-0.11561060696840286,-0.0013089969288557768
