accX,accY,accZ,gyroX,gyroY,gyroZ
-0.7591229677200317,5.135595798492432,9.83958625793457,-1.1063207387924194,0.7070556879043579,-0.3823903799057007
-0.4001995921134949,5.726922035217285,10.493424415588379,-1.4051777124404907,0.9507837295532227,-0.22479179501533508
0.88803631067276,3.3807592391967773,10.948060989379883,-1.4374762773513794,0.4327852725982666,-0.23273280262947083
1.2469596862792969,2.650649309158325,10.9600248336792,-1.5275763273239136,0.30633988976478577,-0.33718767762184143
1.2804591655731201,1.8771693706512451,11.194820404052734,-1.4691640138626099,0.6795675754547119,-0.5027272701263428
1.7976080179214478,0.5509474277496338,11.498709678649902,-1.1286929845809937,0.9538379907608032,-0.7495095729827881
1.0818549394607544,0.26111677289009094,12.039786338806152,-0.5944307446479797,0.776692271232605,-1.110520362854004
-0.3113660514354706,0.7639086246490479,12.073286056518555,0.08765657991170883,0.13591352105140686,-1.2412415742874146
-1.0298110246658325,1.415055513381958,10.723135948181152,0.6163448691368103,-0.46454933285713196,-1.2357439994812012
-0.45284169912338257,1.5900306701660156,9.46630573272705,0.7642462849617004,-0.7815790772438049,-1.2125318050384521
-0.16061821579933167,1.4724832773208618,7.95553731918335,0.5586197972297668,-0.8353336453437805,-1.2241379022598267
-0.6897311210632324,1.1518449783325195,7.170392036437988,0.09269607067108154,-0.5897729992866516,-1.2137534618377686
-1.5302101373672485,0.9050851464271545,8.613862037658691,-0.3626905679702759,-0.07605048269033432,-1.0952491760253906
-2.0880367755889893,1.0968101024627686,9.734301567077637,-0.4695888161659241,0.08276980370283127,-1.0085088014602661
-2.956930637359619,0.9795617461204529,11.573185920715332,-0.3602471649646759,0.15484978258609772,-0.7421793937683105
-3.13639235496521,0.6681957244873047,12.135798454284668,0.08765657991170883,-0.010078979656100273,-0.4092676639556885
-2.633899450302124,1.0513464212417603,11.819646835327148,0.36039987206459045,-0.12491826713085175,-0.26694026589393616
-1.0202397108078003,2.3392832279205322,9.789336204528809,0.733169436454773,-0.14813046157360077,-0.1832541823387146
-0.2754737138748169,2.432603359222412,9.425627708435059,0.8399913311004639,0.091932512819767,-0.2223484069108963
-0.12233305722475052,3.0167510509490967,9.63619613647461,0.9145910739898682,0.19272230565547943,-0.2363978922367096
0.9047860503196716,3.2395827770233154,10.16291618347168,0.940017580986023,0.040010496973991394,-0.25472331047058105
-0.17976079881191254,3.244368314743042,9.205188751220703,0.8977927565574646,-0.2495311051607132,-0.4214846193790436
-1.8771693706512451,4.675874710083008,8.774480819702148,0.9083298444747925,-0.2360924631357193,-0.3781144618988037
-2.3656044006347656,4.893920421600342,9.214759826660156,0.8946621417999268,-0.20188501477241516,-0.27060532569885254
-1.7934205532073975,4.249652862548828,9.492626190185547,0.8890882134437561,-0.26846736669540405,-0.015271181240677834
-1.4629119634628296,4.455734729766846,9.351449966430664,0.9294804334640503,-0.2617480456829071,0.1557660549879074
-1.1614162921905518,4.029513359069824,8.800801277160645,0.9431481957435608,-0.1847812980413437,0.261442631483078
-0.8668000102043152,4.113262176513672,8.55882740020752,1.0158389806747437,0.14690876007080078,0.3127537965774536
-0.7423732280731201,4.515555381774902,8.647361755371094,1.0562312602996826,0.44255882501602173,0.3781144618988037
-0.8069794178009033,4.790729999542236,8.666504859924316,1.0245435237884521,0.5610632300376892,0.4966188073158264
-1.1183454990386963,4.695017337799072,8.479864120483398,0.8766421675682068,0.5378510355949402,0.6218425035476685
-0.9580263495445251,4.764409065246582,8.522934913635254,0.6939988136291504,0.531742513179779,0.7421793937683105
-0.828514814376831,4.881956577301025,8.75503921508789,0.6287909150123596,0.5696150660514832,0.7763868570327759
-0.7208378314971924,5.422734260559082,9.205188751220703,0.7350019812583923,0.6496360301971436,0.7782194018363953
-0.7184450030326843,5.96381139755249,9.09272575378418,0.9593356251716614,0.7656970620155334,0.7794411182403564
-0.7998009920120239,6.038288116455078,8.391329765319824,1.076083779335022,0.8774821162223816,0.7763868570327759
-0.34725838899612427,5.920740604400635,8.348258972167969,0.9829295873641968,0.8548807501792908,0.7580614686012268
-0.031405795365571976,5.930311679840088,8.333902359008789,0.8990144729614258,0.7687512636184692,0.7006418108940125
0.08344969153404236,6.038288116455078,8.628219604492188,0.8089908361434937,0.6728482842445374,0.6187883019447327
-0.17736798524856567,6.605686187744141,8.891729354858398,0.7169819474220276,0.4688252806663513,0.45141613483428955
-0.44805604219436646,7.275975227355957,7.730611801147461,0.7630245685577393,0.3649812340736389,0.36162158846855164
-0.649053156375885,5.56660270690918,7.531708240509033,0.6412369012832642,0.4963133931159973,0.2632751762866974
-1.8939191102981567,5.68385124206543,8.240582466125488,0.36101073026657104,0.37414395809173584,0.24006296694278717
-1.6235301494598389,5.013561725616455,8.93240737915039,0.05230379477143288,0.06444438546895981,0.3170297145843506
-1.0657033920288086,4.4844489097595215,8.549256324768066,0.07902836054563522,0.003359660040587187,0.32069480419158936
-1.072881817817688,4.549055099487305,7.881359577178955,0.3076379597187042,0.275186687707901,0.28160059452056885
-1.9369899034500122,4.819443702697754,6.593422889709473,0.45798271894454956,0.5909947156906128,0.30847787857055664
-1.841277003288269,4.860121726989746,6.315556049346924,0.3007659316062927,0.7907418012619019,0.4422534108161926
-1.6761722564697266,5.114060401916504,7.0025954246521,0.006337540224194527,0.6600204706192017,0.5338805317878723
-1.261914849281311,5.0638108253479,7.435995578765869,-0.2160872220993042,0.37597647309303284,0.5729747414588928
-1.0010972023010254,4.843372344970703,7.3283185958862305,-0.22601348161697388,0.32344362139701843,0.5021164417266846
-1.4676976203918457,5.020740032196045,7.649255752563477,-0.2235700935125351,0.353985995054245,0.3701734244823456
-1.537388563156128,5.023132801055908,8.11824893951416,-0.3459686040878296,0.13835690915584564,0.29503923654556274
-1.257129192352295,5.149952411651611,8.388936996459961,-0.37139514088630676,-0.11575555801391602,0.23028941452503204
-0.9074779748916626,5.18823766708374,8.079963684082031,-0.2838149070739746,-0.22876229882240295,0.1692046970129013
-0.7974081635475159,5.212165832519531,7.7114691734313965,-0.22540263831615448,-0.23242738842964172,0.10384403169155121
-1.0680961608886719,5.43499755859375,7.548458099365234,-0.20677179098129272,-0.15057384967803955,0.07024743407964706
-1.1470593214035034,5.633601665496826,7.749754428863525,-0.15767495334148407,-0.08582404255867004,0.07269082218408585
-1.410269856452942,5.8322062492370605,7.670791149139404,-0.19127154350280762,-0.3045073449611664,0.09834641218185425
-0.986740231513977,5.779563903808594,7.857431411743164,-0.28068432211875916,-0.4957025647163391,0.12339114397764206
-0.8715856671333313,5.748457431793213,7.941180229187012,-0.23410721123218536,-0.4419479966163635,0.10017894953489304
-1.1614162921905518,5.568995475769043,8.058428764343262,-0.07200361788272858,-0.1841704547405243,0.014660334214568138
-1.1925230026245117,5.44217586517334,7.814360618591309,0.08269345015287399,-0.003359660040587187,-0.04337015375494957
-1.261914849281311,5.612066268920898,7.821538925170898,0.10636378079652786,0.02229592576622963,-0.07452336698770523
-1.139880895614624,5.8082780838012695,7.938787460327148,0.08582404255867004,-0.1181989461183548,-0.11361759155988693
-1.2834502458572388,6.177071571350098,8.192426681518555,0.023059483617544174,-0.4309527277946472,-0.15515519678592682
-1.4270195960998535,6.327819347381592,8.436793327331543,-0.02970244735479355,-0.7369872331619263,-0.17958909273147583
-1.3408780097961426,6.5288166999816895,8.554041862487793,-0.04527905210852623,-0.9373451471328735,-0.1948602795600891
-0.8763712644577026,6.294320106506348,8.561220169067383,-0.027259059250354767,-0.8664868474006653,-0.21868331730365753
-0.45523449778556824,6.14835786819458,7.6636128425598145,-0.2980934679508209,-1.1396119594573975,-0.23884128034114838
-0.18454644083976746,5.930311679840088,7.945965766906738,-0.25029465556144714,-0.7015580534934998,-0.2907632887363434
-1.0896315574645996,6.358926296234131,9.176474571228027,0.027411770075559616,-0.21165858209133148,-0.31947311758995056
-1.2092727422714233,6.837790012359619,9.334700584411621,0.2554105222225189,-0.08276980370283127,-0.22967857122421265
-1.013061285018921,6.789933204650879,8.772088050842285,0.4020138382911682,-0.08887827396392822,-0.17592400312423706
-0.7232306599617004,6.821040153503418,8.166105270385742,0.3859027624130249,-0.1572931706905365,-0.18019993603229523
-0.39062830805778503,6.93828821182251,8.123034477233887,0.2976353168487549,-0.21349111199378967,-0.22662433981895447
0.04995017126202583,7.079464912414551,8.41286563873291,0.2746522128582001,-0.305118203163147,-0.29626092314720154
0.2847459018230438,7.750053405761719,8.115856170654297,0.3486410677433014,-0.35826191306114197,-0.3671191930770874
0.3517449200153351,7.1010003089904785,7.59870719909668,0.3641413152217865,-0.27946263551712036,-0.41537612676620483
0.2584248483181,6.095715522766113,7.538887023925781,0.14110571146011353,-0.23303823173046112,-0.4868452548980713
0.15284155309200287,5.401198863983154,8.879764556884766,-0.13469181954860687,-0.32344362139701843,-0.4844018816947937
0.33499518036842346,5.006382942199707,8.393722534179688,-0.2005869746208191,-0.5836645364761353,-0.46241137385368347
0.36610186100006104,4.503591537475586,8.774480819702148,-0.10735640674829483,-0.4169032573699951,-0.4367557764053345
0.004486542660742998,4.833800792694092,8.417651176452637,0.15416257083415985,-0.2617480456829071,-0.4178195297718048
-0.4097708761692047,5.027918815612793,7.666005611419678,0.3019876182079315,-0.14690876007080078,-0.3402419090270996
-0.3643072545528412,5.070989608764648,7.294818878173828,0.23059484362602234,-0.1047603040933609,-0.23945212364196777
-0.06251249462366104,5.121238708496094,7.290033340454102,0.04734066128730774,-0.0778830274939537,-0.17286977171897888
0.07148557901382446,5.061418056488037,7.033702373504639,-0.09620844572782516,-0.10109522193670273,-0.1716480851173401
0.15284155309200287,4.819443702697754,6.459125518798828,-0.32665055990219116,-0.0522274412214756,-0.18997350335121155
-0.2922234535217285,4.747659206390381,7.333104133605957,-0.5900784730911255,0.06810946762561798,-0.2351761907339096
-0.8548358678817749,4.936991214752197,8.20229721069336,-0.7162184119224548,0.013133215717971325,-0.2895416021347046
-1.103988528251648,5.1906304359436035,8.680861473083496,-0.6056550741195679,0.009468132629990578,-0.29565006494522095
-1.0106685161590576,5.2384867668151855,8.5731840133667,-0.3676536977291107,0.008857285603880882,-0.26938363909721375
-0.9963115453720093,5.422734260559082,8.182855606079102,-0.19684553146362305,-0.01252236869186163,-0.21501824259757996
-0.893121063709259,5.6359944343566895,7.890930652618408,-0.10369132459163666,-0.040010496973991394,-0.12339114397764206
-0.6251249313354492,5.8322062492370605,7.658827304840088,-0.07322531193494797,-0.051616594195365906,-0.031153209507465363
-0.21804596483707428,5.765207290649414,7.620242595672607,-0.07200361788272858,-0.03817795217037201,0.03237490355968475
-0.34247273206710815,5.90159797668457,7.749754428863525,0.03367295488715172,0.11636640131473541,0.07085828483104706
-0.33768710494041443,6.055037498474121,7.658827304840088,0.06345175951719284,0.15973655879497528,0.12216944992542267
-0.22522443532943726,5.911169052124023,7.804789066314697,0.04604261368513107,0.19088977575302124,0.17348061501979828
-0.43609192967414856,6.179464340209961,7.677969455718994,0.07093463838100433,0.2733541429042816,0.1948602795600891
-0.6538388133049011,6.16271448135376,7.979465484619141,0.0590994730591774,0.22509720921516418,0.237008735537529
-0.5629115104675293,6.004788398742676,8.022536277770996,0.000687203137204051,0.15423893928527832,0.2724378705024719
-0.4695914387702942,5.927918910980225,8.29561710357666,-0.057648710906505585,0.13469181954860687,0.2480039894580841
-0.44327038526535034,5.887240886688232,8.719146728515625,-0.047111593186855316,0.17867282032966614,0.1973036676645279
-0.49351966381073,6.234499454498291,8.846264839172363,0.07589777559041977,0.26724568009376526,0.13682979345321655
-0.646660327911377,6.603293418884277,8.910871505737305,0.22868594527244568,0.35765108466148376,0.1185043677687645
-0.7902296781539917,6.928717136383057,8.556434631347656,0.29022881388664246,0.34482327103614807,0.14171656966209412
-0.7040880918502808,6.823432922363281,8.709575653076172,0.23494713008403778,0.2910687327384949,0.16065283119678497
-0.7088736891746521,6.904788970947266,9.200403213500977,0.14484715461730957,0.16034740209579468,0.1453816443681717
-0.8165507316589355,6.98614501953125,9.49501895904541,0.17531315982341766,0.08765657991170883,0.12827792763710022
-1.297807216644287,7.529614448547363,9.36341381072998,0.31321191787719727,0.15362808108329773,0.1582094430923462
-1.6857435703277588,7.206583499908447,8.81515884399414,0.3939964771270752,0.2214321345090866,0.30481278896331787
-1.5445669889450073,5.84656286239624,8.439186096191406,0.17653486132621765,0.1310267299413681,0.42331716418266296
-1.3384851217269897,5.545067310333252,9.255437850952148,-0.12972868978977203,-0.09071081876754761,0.5033381581306458
-0.6610172390937805,4.840979099273682,8.293224334716797,0.42873841524124146,0.06810946762561798,0.4318690001964569
-1.1925230026245117,4.982454776763916,7.943572998046875,0.5200600624084473,0.23425991833209991,0.43981003761291504
-1.2714861631393433,5.140381336212158,7.175177574157715,0.5063923597335815,0.09743013978004456,0.4856235682964325
-0.9412766098976135,5.202594757080078,6.918846607208252,0.26663482189178467,0.038788799196481705,0.5192201733589172
-0.8165507316589355,5.274379253387451,7.172784805297852,0.1349208950996399,-0.007024743594229221,0.5277720093727112
-0.49351966381073,5.389235019683838,6.954739093780518,-0.033443886786699295,-0.08399149775505066,0.503948986530304
-0.09601201117038727,5.252843856811523,7.172784805297852,-0.13347013294696808,0.03145863488316536,0.446529358625412
-0.0026919255033135414,5.183452129364014,7.395317554473877,-0.1701209545135498,0.06810946762561798,0.3958290219306946
0.05234299600124359,5.128417015075684,7.754539966583252,-0.2378486543893814,0.051616594195365906,0.29503923654556274
0.03798605874180794,5.140381336212158,7.9316086769104,-0.2763320207595825,-0.04306473210453987,0.21990501880645752
-0.057726845145225525,5.216951370239258,7.610671520233154,-0.2626643180847168,-0.1322484314441681,0.1954711228609085
-0.14865410327911377,5.487639427185059,7.40488862991333,-0.23410721123218536,-0.02107422985136509,0.1966928243637085
-0.24915266036987305,5.702993869781494,7.972286701202393,-0.15897299349308014,0.168899267911911,0.21196399629116058
-0.263509601354599,5.698207855224609,8.266902923583984,-0.08376242965459824,0.18600298464298248,0.20402298867702484
-0.4624129831790924,5.84656286239624,7.991429328918457,0.05787777900695801,0.04184303805232048,0.1582094430923462
-0.6610172390937805,5.997610092163086,6.6149582862854,0.059710320085287094,-0.144465371966362,0.1050657257437706
-0.7471588850021362,5.954239845275879,6.6006011962890625,-0.027259059250354767,-0.11575555801391602,0.09345962852239609
-0.9340981245040894,6.033502101898193,6.729813575744629,-0.20929154753684998,-0.06322269141674042,0.07574506103992462
-0.7926225066184998,5.978168487548828,7.569993495941162,-0.29503923654556274,0.05650337040424347,0.08612946420907974
-0.646660327911377,5.954239845275879,8.376973152160645,-0.18875180184841156,0.1438545286655426,0.06047387793660164
-0.6801598072052002,6.033502101898193,8.496614456176758,-0.08872556686401367,0.14751961827278137,0.03665083646774292
-0.6873382925987244,6.2871413230896,8.341080665588379,0.08643488585948944,0.09804098308086395,-0.009773556143045425
-0.5796613097190857,6.492924213409424,7.883752346038818,0.15912571549415588,-0.014965757727622986,-0.04825693368911743
-0.1821536272764206,6.663113594055176,7.694719314575195,0.14545799791812897,-0.07238540053367615,-0.06719319522380829
0.5599204897880554,6.6846489906311035,7.914859294891357,-0.0029778804164379835,-0.1847812980413437,-0.17348061501979828
0.5551348328590393,6.526423931121826,7.99382209777832,-0.04031591862440109,-0.12186402827501297,-0.2357870489358902
0.23449662327766418,6.337390899658203,8.463114738464355,-0.020997874438762665,-0.05894676223397255,-0.2620534598827362
-0.1055833026766777,6.500102519989014,8.877371788024902,0.06100837141275406,-0.10903623700141907,-0.2522799074649811
-0.16061821579933167,6.632007122039795,8.723932266235352,0.20196136832237244,-0.21471281349658966,-0.22601348161697388
-0.1582254022359848,6.648756980895996,8.087141990661621,0.24052110314369202,-0.2886253297328949,-0.24372805655002594
-0.25393831729888916,6.663113594055176,7.804789066314697,0.13117945194244385,-0.2990097403526306,-0.2773246467113495
-0.13190434873104095,6.797111988067627,8.075178146362305,0.023059483617544174,-0.25808295607566833,-0.3158080279827118
0.05712864175438881,6.998108863830566,8.582756042480469,0.028633465990424156,-0.21715620160102844,-0.3823903799057007
-0.08404789865016937,8.027621269226074,8.733503341674805,0.11934428662061691,-0.23120568692684174,-0.44042086601257324
0.3565305769443512,6.591329097747803,8.472685813903809,0.1119377613067627,-0.29534465074539185,-0.4831801950931549
0.29431718587875366,5.930311679840088,8.623434066772461,-0.1328592747449875,-0.46210595965385437,-0.5894675850868225
0.32542386651039124,5.3078789710998535,8.906085968017578,-0.2919086217880249,-0.43889376521110535,-0.5864133834838867
0.5479564070701599,4.702195644378662,9.083154678344727,-0.15958385169506073,-0.14141114056110382,-0.5448757410049438
0.23449662327766418,4.7596235275268555,8.96112060546875,0.149199441075325,0.12125317752361298,-0.49173203110694885
-0.12711870670318604,5.154737949371338,8.41286563873291,0.3473430275917053,0.060779303312301636,-0.38483378291130066
-0.19172491133213043,5.245665550231934,7.45274543762207,0.3411581814289093,-0.15546062588691711,-0.2608317732810974
-0.01944168470799923,5.193023204803467,6.935596466064453,0.17035003006458282,-0.2898470163345337,-0.17836740612983704
0.10498509556055069,5.295914649963379,6.859025955200195,-0.048333290964365005,-0.29717719554901123,-0.14904673397541046
0.20069800317287445,5.185844898223877,6.916453838348389,-0.21303297579288483,-0.18661384284496307,-0.15149012207984924
0.03559323772788048,5.092525005340576,7.019345283508301,-0.38132140040397644,-0.07727217674255371,-0.17653486132621765
-0.2922234535217285,5.0087761878967285,7.548458099365234,-0.5335750579833984,-0.017409147694706917,-0.20157960057258606
-0.649053156375885,5.054239749908447,8.058428764343262,-0.5857261419296265,-0.028404397889971733,-0.208298921585083
-0.7399803996086121,5.18823766708374,8.180462837219238,-0.49440449476242065,-0.0009162708884105086,-0.18997350335121155
-0.615553617477417,5.449354648590088,7.965108394622803,-0.3310028612613678,0.07116370648145676,-0.1557660549879074
-0.4169493317604065,5.609673500061035,7.6636128425598145,-0.20868068933486938,0.12858334183692932,-0.11056335270404816
-0.27786654233932495,5.817849159240723,7.59152889251709,-0.16141638159751892,0.11270131915807724,-0.0647498071193695
-0.1534397453069687,5.923133373260498,7.692326545715332,-0.1316375881433487,0.06016845628619194,-0.026877280324697495
-0.12472587823867798,5.935097694396973,7.756932735443115,-0.10674555599689484,0.032069481909275055,-0.016492875292897224
-0.11515458673238754,5.96381139755249,7.605885982513428,-0.08002099394798279,0.008857285603880882,-0.004886778071522713
-0.0649053156375885,5.858527183532715,7.45992374420166,-0.043981000781059265,0.032069481909275055,0.012827792204916477
-0.12472587823867798,5.9183478355407715,7.40488862991333,-0.033443886786699295,0.13530266284942627,0.036039989441633224
-0.2347957193851471,6.019145488739014,7.646862983703613,-0.011682453565299511,0.21471281349658966,0.08246438205242157
-0.36191442608833313,6.186643123626709,7.742575645446777,0.006948387715965509,0.23059484362602234,0.1435490995645523
-0.41216370463371277,6.196214199066162,7.807182312011719,-0.007330167107284069,0.20188501477241516,0.20463383197784424
-0.649053156375885,6.337390899658203,8.343473434448242,-0.058335911482572556,0.1701209545135498,0.3292466700077057
-0.6945167779922485,6.27278470993042,8.522934913635254,-0.07009471952915192,0.1585148572921753,0.3261924386024475
-0.5964110493659973,6.153143405914307,8.898907661437988,-0.06826218217611313,0.10842538625001907,0.29381752014160156
-0.43609192967414856,6.1914286613464355,8.83669376373291,0.04230117425322533,0.10781454294919968,0.2504473626613617
-0.30658039450645447,6.378068923950195,8.398508071899414,0.22189027070999146,0.18600298464298248,0.2241809368133545
-0.37866419553756714,6.653542518615723,8.056035995483398,0.31504446268081665,0.24403348565101624,0.2241809368133545
-0.4097708761692047,6.897610187530518,7.950751304626465,0.32374903559684753,0.26602399349212646,0.2345653474330902
-0.388235479593277,6.840182781219482,7.862216949462891,0.3076379597187042,0.28373855352401733,0.22784602642059326
-0.617946445941925,6.816254615783691,8.048856735229492,0.264725923538208,0.43828290700912476,0.18630841374397278
-0.7878368496894836,7.010073184967041,8.841479301452637,0.16469968855381012,0.3289412558078766,0.14660334587097168
-0.8189435601234436,6.988537788391113,9.20997428894043,0.14171656966209412,0.2617480456829071,0.13744063675403595
-0.9628120064735413,7.156334400177002,9.166903495788574,0.22311195731163025,0.2507528066635132,0.1172826737165451
-1.4533406496047974,7.893622875213623,8.451150894165039,0.3504736125469208,0.44011545181274414,0.19241689145565033
-1.1327024698257446,6.165107727050781,7.636992454528809,0.16905197501182556,0.5512896776199341,0.2901524603366852
-1.2738789319992065,5.810670852661133,8.053643226623535,-0.08254073560237885,0.50853031873703,0.31031039357185364
-1.2595219612121582,5.3007001876831055,10.028918266296387,-0.5080721974372864,0.20371755957603455,0.3555130958557129
-0.8644071817398071,4.403092861175537,10.57956600189209,-0.4143071472644806,-0.027793550863862038,0.34696123003959656
-0.8548358678817749,4.256831645965576,10.282557487487793,-0.20929154753684998,0.010078979656100273,0.3280249834060669
-1.0393823385238647,4.324129581451416,9.133403778076172,0.24052110314369202,0.25747212767601013,0.3304683566093445
-1.20687997341156,4.754837512969971,7.888537883758545,0.469741553068161,0.45111069083213806,0.4178195297718048
-1.3025928735733032,5.059025287628174,7.036095142364502,0.44492587447166443,0.49020493030548096,0.5564818382263184
-1.1183454990386963,5.018347263336182,7.079464912414551,0.2579302489757538,0.3930802047252655,0.6676560640335083
-0.7591229677200317,5.015954494476318,7.431210041046143,0.0429883748292923,0.20005246996879578,0.7098045349121094
-0.48873403668403625,5.135595798492432,7.538887023925781,-0.07383616268634796,0.10781454294919968,0.6768187880516052
-0.41216370463371277,4.965705394744873,7.488637447357178,-0.12163496017456055,0.16156910359859467,0.6022953987121582
-0.49351966381073,4.898705959320068,7.577171802520752,-0.2011978179216385,0.17622943222522736,0.5399889945983887
-0.3161516785621643,4.884349346160889,7.864609718322754,-0.30435463786125183,0.10598199814558029,0.5063923597335815
-0.05294119939208031,4.905884742736816,7.488637447357178,-0.3620797097682953,0.029626091942191124,0.4459185004234314
-0.23001007735729218,5.035097122192383,7.886145114898682,-0.4291965663433075,0.09681928902864456,0.41537612676620483
-0.22761724889278412,5.154737949371338,8.161319732666016,-0.3733040392398834,0.16156910359859467,0.40193748474121094
-0.23958136141300201,5.410770416259766,8.300402641296387,-0.21364383399486542,0.277630090713501,0.37567105889320374
-0.4983053207397461,5.597709655761719,8.020143508911133,-0.044668205082416534,0.3429907262325287,0.3274141252040863
-0.7830511927604675,5.602495193481445,7.433602809906006,-0.02351761981844902,0.34543412923812866,0.2864873707294464
-0.9388837814331055,5.793920993804932,7.292426109313965,-0.1241547018289566,0.29534465074539185,0.24006296694278717
-0.9580263495445251,5.743671417236328,7.40488862991333,-0.2309766262769699,0.24220094084739685,0.18875180184841156
-0.92691969871521,5.743671417236328,7.773682594299316,-0.2608317732810974,0.2092151790857315,0.13316470384597778
-0.7495517134666443,5.774778366088867,8.0081787109375,-0.22043950855731964,0.1823379099369049,0.07513421028852463
-0.6394818425178528,5.841777324676514,8.271688461303711,-0.1316375881433487,0.16279079020023346,0.00916270911693573
-0.6514459848403931,5.906383514404297,8.400900840759277,-0.017332790419459343,0.1322484314441681,-0.04581354558467865
-0.6299105882644653,5.865705490112305,8.470293045043945,0.07711946964263916,0.10231691598892212,-0.0922379344701767
-0.5916253924369812,5.920740604400635,8.601898193359375,0.14049486815929413,0.05344913527369499,-0.14904673397541046
-0.9146564602851868,6.126822471618652,7.723433494567871,0.15912571549415588,-0.006413896102458239,-0.258999228477478
-0.9963115453720093,6.330212116241455,7.934001445770264,0.07711946964263916,-0.010078979656100273,-0.2241809368133545
-0.8691928386688232,6.732505798339844,8.204689979553223,0.01748550310730934,-0.12797249853610992,-0.17531315982341766
-0.7615157961845398,6.677470684051514,8.051250457763672,-0.005497625097632408,-0.23120568692684174,-0.16431790590286255
-0.9460622668266296,6.773183822631836,8.733503341674805,-0.08628217875957489,-0.27029991149902344,-0.16737215220928192
-0.893121063709259,6.763612270355225,9.233902931213379,-0.015423892997205257,-0.28251686692237854,-0.17470231652259827
-0.2587239444255829,7.081857681274414,9.475876808166504,0.11812258511781693,-0.3313846290111542,-0.2229592502117157
0.2392822653055191,7.6854472160339355,8.8438720703125,0.16408884525299072,-0.46454933285713196,-0.27854636311531067
0.6891329288482666,6.067001819610596,8.723932266235352,-0.049020491540431976,-0.6074876189231873,-0.4300364851951599
0.2584248483181,5.609673500061035,9.49501895904541,-0.38071054220199585,-0.7638645172119141,-0.5864133834838867
0.3086741268634796,4.9704909324646,9.767801284790039,-0.3913240134716034,-0.6435275673866272,-0.6108472347259521
0.5958128571510315,4.393521308898926,9.554840087890625,-0.020997874438762665,-0.3124483823776245,-0.6126797795295715
0.4546363055706024,4.302295207977295,8.781659126281738,0.3336753249168396,-0.14690876007080078,-0.6065713167190552
-0.08404789865016937,4.565804481506348,8.012965202331543,0.41507071256637573,-0.21532365679740906,-0.5448757410049438
-0.6777670383453369,4.917848587036133,7.553243637084961,0.3778090178966522,-0.34543412923812866,-0.42453885078430176
-0.6538388133049011,4.944169998168945,7.141678333282471,0.2864873707294464,-0.3936910629272461,-0.284654825925827
-0.22043879330158234,4.948955535888672,7.0648088455200195,0.149199441075325,-0.30756160616874695,-0.1954711228609085
-0.22761724889278412,5.027918815612793,7.5173516273498535,-0.026037365198135376,-0.1957765519618988,-0.16187451779842377
-0.4576273262500763,4.965705394744873,7.689933776855469,-0.2011978179216385,-0.11270131915807724,-0.12339114397764206
-0.4815555512905121,4.685445785522461,8.223832130432129,-0.3614688515663147,0.037567105144262314,-0.08918370306491852
-0.7328019142150879,5.039882659912109,8.97787094116211,-0.38132140040397644,0.15240639448165894,-0.061084724962711334
-0.9915258884429932,5.298307418823242,8.827122688293457,0.006948387715965509,0.35765108466148376,0.007330167107284069
-0.8237292170524597,5.571388244628906,8.182855606079102,0.15294088423252106,0.2739650011062622,0.0781884491443634
0.0930209830403328,5.9901323318481445,6.672386169433594,0.18768282234668732,0.2843494117259979,0.1966928243637085
0.4307080805301666,6.043073654174805,6.420840263366699,0.150421142578125,0.3949127495288849,0.16737215220928192
0.5599204897880554,5.923133373260498,6.372983932495117,0.07711946964263916,0.5128062963485718,0.10017894953489304
0.07866404205560684,5.913562297821045,6.669992923736572,-0.031000498682260513,0.5854970812797546,0.0397050715982914
-0.4145565330982208,6.045466423034668,7.227819919586182,-0.07200361788272858,0.6435275673866272,0.047646086663007736
-1.0680961608886719,6.323033809661865,7.538887023925781,-0.047111593186855316,0.7980719208717346,0.13866232335567474
-1.5637096166610718,6.2775702476501465,8.376973152160645,-0.016034740954637527,0.9721634387969971,0.284654825925827
-1.6977076530456543,6.205785751342773,8.69043254852295,0.038636088371276855,1.0790616273880005,0.4214846193790436
-1.841277003288269,6.069394588470459,8.851051330566406,0.082082599401474,1.0143119096755981,0.49173203110694885
-2.0303099155426025,6.157928943634033,8.635397911071777,0.09765920788049698,0.906191885471344,0.5412106513977051
-1.9896320104599,6.07896614074707,8.570791244506836,0.12003148347139359,0.8225058317184448,0.5338805317878723
-1.92741858959198,6.267998695373535,8.66171932220459,0.15233004093170166,0.6722373962402344,0.47768256068229675
-1.7694923877716064,6.5527448654174805,8.391329765319824,0.20196136832237244,0.45416492223739624,0.43919917941093445
-1.233201026916504,6.751648426055908,8.087141990661621,0.2815242409706116,0.31855684518814087,0.44103172421455383
-0.5892325639724731,6.840182781219482,7.704290866851807,0.34489962458610535,0.324054479598999,0.4294256269931793
-0.2826521694660187,6.9598236083984375,7.546065330505371,0.32932302355766296,0.4052971601486206,0.37139514088630676
-0.42412781715393066,7.232904434204102,7.067201614379883,0.22998400032520294,0.4975350797176361,0.28404396772384644
-0.6107679605484009,7.3022966384887695,8.015357971191406,0.0653606578707695,0.5140279531478882,0.21501824259757996
-0.6849454641342163,7.481758117675781,8.54447078704834,-0.030313294380903244,0.4181249439716339,0.1325538605451584
-0.9245268702507019,7.699804306030273,9.006584167480469,-0.03779617324471474,0.3155026137828827,0.06841489672660828
-1.1877373456954956,6.627221584320068,9.233902931213379,-0.14339639246463776,0.1719534993171692,0.008551862090826035
-1.9848463535308838,6.524031162261963,9.581160545349121,-0.258999228477478,0.06994201242923737,0.004275931045413017
-1.903490424156189,5.865705490112305,10.15573787689209,-0.19127154350280762,-0.09987352788448334,0.0922379344701767
-1.6666009426116943,5.535496234893799,9.530911445617676,0.0361163429915905,-0.2843494117259979,0.15454435348510742
-1.5852450132369995,5.446961879730225,8.331509590148926,0.23616881668567657,-0.3655920922756195,0.20585553348064423
-1.542174220085144,5.439783096313477,7.502994537353516,0.31565532088279724,-0.33077380061149597,0.23090025782585144
-1.5445669889450073,5.482853889465332,7.201498985290527,0.3423798978328705,-0.27946263551712036,0.2351761907339096
-1.5086746215820312,5.482853889465332,6.904489517211914,0.36162158846855164,-0.21959958970546722,0.2363978922367096
-1.348056435585022,5.413163185119629,6.447161674499512,0.32252734899520874,-0.13408097624778748,0.21257483959197998
-1.163809061050415,5.097310543060303,7.093822002410889,-0.3142809271812439,-0.3277195692062378,-0.01038440316915512
-1.1494522094726562,4.925027370452881,7.28046178817749,-0.45592111349105835,-0.4217900335788727,-0.10017894953489304
-1.103988528251648,4.864907741546631,7.6034932136535645,-0.5819846987724304,-0.5256340503692627,-0.17409147322177887
-0.9771689176559448,4.913063049316406,7.898109436035156,-0.6571952700614929,-0.6123743653297424,-0.21379654109477997
-0.8739784955978394,5.049454212188721,8.094321250915527,-0.6385644674301147,-0.6264238357543945,-0.22662433981895447
-0.8356932997703552,5.219344615936279,8.065607070922852,-0.5373165011405945,-0.5848862528800964,-0.2235700935125351
-0.7878368496894836,5.286343574523926,7.948358535766602,-0.4652365446090698,-0.5372401475906372,-0.21990501880645752
-1.3456636667251587,5.884848117828369,7.560422420501709,-0.24464432895183563,-0.30817243456840515,-0.16615045070648193
-1.4533406496047974,5.84656286239624,7.666005611419678,-0.24220094084739685,-0.33199548721313477,-0.12155860662460327
-1.438983678817749,5.726922035217285,7.661220073699951,-0.258999228477478,-0.3790307343006134,-0.09284878522157669
-1.285843014717102,5.429912567138672,7.1488566398620605,-0.422324538230896,-0.5928272604942322,-0.06902574002742767
-1.2116655111312866,5.36769962310791,7.469494819641113,-0.45531028509140015,-0.536629319190979,-0.12766708433628082
-1.2690932750701904,5.5331034660339355,8.005785942077637,-0.41117656230926514,-0.44133713841438293,-0.1832541823387146
-1.3025928735733032,5.755635738372803,8.134998321533203,-0.3527642786502838,-0.41201648116111755,-0.23212195932865143
-1.285843014717102,5.813063621520996,8.13260555267334,-0.34283801913261414,-0.41384902596473694,-0.25594499707221985
-1.0274182558059692,5.9183478355407715,8.376973152160645,-0.347801148891449,-0.377198189496994,-0.2919849753379822
-0.4695914387702942,5.710172176361084,8.894122123718262,-0.30740886926651,-0.2880144715309143,-0.3439069986343384
-0.14865410327911377,5.401198863983154,9.47348403930664,-0.22166119515895844,-0.19821994006633759,-0.4312581717967987
-0.2994019389152527,5.303092956542969,9.506983757019043,-0.1023932695388794,-0.13652436435222626,-0.5234960913658142
-0.9221340417861938,5.592923641204834,9.528518676757812,0.047951508313417435,-0.0522274412214756,-0.5399889945983887
-1.1901301145553589,5.935097694396973,9.337093353271484,0.2044811248779297,0.004581354558467865,-0.44958359003067017
-1.1542378664016724,6.01675271987915,9.164510726928711,0.33497336506843567,0.07543963938951492,-0.3530697226524353
-1.0633105039596558,6.174678802490234,9.090332984924316,0.3859027624130249,0.04428642615675926,-0.2993151545524597
-1.041775107383728,6.521637916564941,9.008976936340332,0.3703261613845825,-0.0791047215461731,-0.26938363909721375
-0.8261220455169678,6.452246189117432,8.848658561706543,0.32130566239356995,-0.1951656937599182,-0.24372805655002594
-0.5964110493659973,6.380461692810059,8.958727836608887,0.2591519355773926,-0.29412296414375305,-0.26755109429359436
-0.36670008301734924,6.847361087799072,8.874979019165039,0.24487338960170746,-0.3264978528022766,-0.3164188861846924
-0.41216370463371277,6.519245147705078,8.376973152160645,0.26037365198135376,-0.20066332817077637,-0.3646758198738098
-0.5964110493659973,4.994419097900391,8.501399993896484,0.13301199674606323,-0.02107422985136509,-0.46729815006256104
-1.1422736644744873,4.845765113830566,9.61944580078125,-0.08628217875957489,-0.04062134400010109,-0.5351021885871887
-1.0872387886047363,4.431806564331055,10.220343589782715,-0.08689302206039429,-0.12003148347139359,-0.47707170248031616
-0.6370890140533447,4.022335052490234,9.827621459960938,0.21631628274917603,-0.0522274412214756,-0.41171106696128845
-0.29700911045074463,3.9768712520599365,8.726325035095215,0.5790832042694092,0.12308572232723236,-0.38422292470932007
-0.34247273206710815,4.601696968078613,7.802396297454834,0.7337802648544312,0.21837788820266724,-0.3549022674560547
-0.23718854784965515,4.620839595794678,6.954739093780518,0.6852942705154419,0.21532365679740906,-0.2864873707294464
-0.11515458673238754,4.635196685791016,6.540780544281006,0.4641675651073456,0.19150061905384064,-0.2522799074649811
-0.388235479593277,4.893920421600342,6.428019046783447,0.17157171666622162,0.25747212767601013,-0.22845686972141266
-0.7567301392555237,4.965705394744873,6.7417778968811035,-0.034665580838918686,0.4333961308002472,-0.17714570462703705
-1.108774185180664,4.716552734375,7.299604415893555,-0.1782146841287613,0.6227588057518005,-0.12094775587320328
-1.8029918670654297,4.718945503234863,8.046463966369629,-0.30870693922042847,0.6795675754547119,-0.0787992998957634
-2.425424814224243,4.925027370452881,8.467900276184082,-0.3850628435611725,0.5714476108551025,0.021990500390529633
-2.5713870525360107,4.992026329040527,8.484649658203125,-0.375747412443161,0.43767204880714417,0.15026842057704926
-2.3105692863464355,5.037489891052246,8.613862037658691,-0.27885177731513977,0.3943018913269043,0.2644968628883362
-1.9728822708129883,5.509174823760986,8.759824752807617,-0.12789614498615265,0.3790307343006134,0.32191649079322815
-1.8197416067123413,5.769992828369141,8.127820014953613,0.08765657991170883,0.41201648116111755,0.38849884271621704
-1.7048860788345337,5.638387680053711,7.72104024887085,0.18462859094142914,0.47676628828048706,0.41537612676620483
-1.4581263065338135,5.638387680053711,7.814360618591309,0.23494713008403778,0.5140279531478882,0.4092676639556885
-1.5158531665802002,5.781956672668457,7.804789066314697,0.29954421520233154,0.6032116413116455,0.41476529836654663
-1.7694923877716064,6.172286033630371,7.34267520904541,0.36666107177734375,0.7394306063652039,0.45447036623954773
-1.9968105554580688,6.275177478790283,7.237390995025635,0.32374903559684753,0.9141329526901245,0.5424323678016663
-2.2148563861846924,6.0741801261901855,7.402495861053467,0.19203510880470276,0.9733850955963135,0.6389462351799011
-2.5929224491119385,6.244070529937744,7.649255752563477,0.049173206090927124,0.9666658043861389,0.7403468489646912
-2.830111026763916,6.3014984130859375,8.051250457763672,-0.03779617324471474,0.9269607067108154,0.8576295375823975
-2.6315066814422607,6.363711833953857,8.345866203308105,-0.05337277799844742,0.8646543025970459,0.9504783153533936
-2.3656044006347656,6.263213157653809,8.475078582763672,-0.02229592576622963,0.8084563612937927,0.9675820469856262
-2.26749849319458,6.423532485961914,8.484649658203125,0.04665346071124077,0.8035695552825928,0.9229902029037476
-2.3249263763427734,7.024429798126221,8.11824893951416,0.1882936656475067,0.8896990418434143,0.8857285380363464
-2.344068765640259,7.409973621368408,7.5652079582214355,0.31443363428115845,1.054627776145935,0.856407880783081
-2.3967108726501465,7.105785846710205,7.474280834197998,0.2933593988418579,1.2073396444320679,0.7702783942222595
-3.87876558303833,8.841778755187988,6.303592205047607,0.22807510197162628,1.2085613012313843,0.7055285573005676
-4.161118507385254,7.778767108917236,6.404090881347656,-0.10926530510187149,1.0161443948745728,0.8032641410827637
-4.216153621673584,6.227321147918701,7.021738052368164,-0.4813476502895355,0.8695410490036011,0.8533536195755005
-5.023132801055908,5.920740604400635,8.252546310424805,-0.6410078406333923,0.9965972900390625,0.9553651213645935
-4.764409065246582,5.13320255279541,8.796015739440918,-0.3676536977291107,1.4138059616088867,1.1593880653381348
-4.419842720031738,4.819443702697754,7.752147197723389,-0.012980503961443901,1.7125866413116455,1.2865207195281982
-4.082155227661133,4.60648250579834,6.605386734008789,-0.025350160896778107,1.6398195028305054,1.303013563156128
-4.223331928253174,4.989633560180664,6.650850772857666,-0.33413344621658325,1.3337849378585815,1.2651410102844238
-3.9457645416259766,4.934598445892334,7.440781116485596,-0.6223769783973694,0.9458969831466675,1.2663626670837402
-3.1579277515411377,4.659124851226807,8.082356452941895,-0.7808154821395874,0.5635066032409668,1.2675844430923462
-2.549851655960083,4.302295207977295,8.166105270385742,-0.8311340808868408,0.33688226342201233,1.2216944694519043
-2.4445674419403076,4.060619831085205,7.816753387451172,-0.8410603404045105,0.3436015844345093,1.156944751739502
-2.566601276397705,3.964907169342041,7.610671520233154,-0.8727480173110962,0.41507071256637573,1.1300674676895142
-2.964108943939209,3.9074792861938477,7.464709281921387,-0.9945356845855713,0.5769452452659607,1.090362310409546
-3.598506212234497,3.957728624343872,7.761718273162842,-1.126860499382019,0.6294780969619751,1.0909732580184937
-4.022335052490234,4.094119548797607,8.072785377502441,-1.1659547090530396,0.6026008129119873,1.1166287660598755
-4.644767761230469,4.249652862548828,8.257331848144531,-1.1603807210922241,0.4999784827232361,1.2534586191177368
-4.549055099487305,4.074976921081543,8.252546310424805,-1.1131927967071533,0.46577104926109314,1.4483952522277832
-4.161118507385254,3.9457645416259766,8.161319732666016,-1.115025281906128,0.4340069890022278,1.623097538948059
-3.8261234760284424,3.9696927070617676,8.30279541015625,-1.1349542140960693,0.3778090178966522,1.7409909963607788
-3.1172497272491455,3.768695592880249,8.5731840133667,-1.1803096532821655,0.26663482189178467,1.757483959197998
-2.7487549781799316,3.6176488399505615,8.8438720703125,-1.2473500967025757,0.11942064017057419,1.6597483158111572
-3.0287153720855713,3.82373046875,9.37059211730957,-1.2946144342422485,0.08704573661088943,1.5705646276474
-3.0765717029571533,3.7133617401123047,9.777372360229492,-1.2803359031677246,0.14080029726028442,1.5510175228118896
-3.033500909805298,3.636791229248047,10.093523979187012,-1.238034725189209,0.21715620160102844,1.5467416048049927
-2.3871397972106934,3.2706894874572754,10.38066291809082,-1.1106730699539185,0.4211791753768921,1.5400222539901733
-2.1693928241729736,3.6176488399505615,10.732707023620605,-1.0218710899353027,0.5519005060195923,1.4722182750701904
-2.6219353675842285,2.6841487884521484,10.127023696899414,-1.4424394369125366,-0.09804098308086395,1.4887111186981201
-2.3584258556365967,2.478066921234131,11.024930000305176,-1.3263020515441895,-0.23120568692684174,1.547963261604309
-2.7774689197540283,2.925823926925659,11.702398300170898,-1.0951727628707886,-0.2867927849292755,1.5754514932632446
-3.6894333362579346,4.039084434509277,11.7957181930542,-0.7267554998397827,-0.15301723778247833,1.7544296979904175
-2.657827854156494,2.8325037956237793,10.742278099060059,-0.1465269923210144,0.40712970495224,2.0250349044799805
-1.041775107383728,2.0904297828674316,9.648159980773926,0.22868594527244568,0.9721634387969971,2.1032235622406006
-0.17497515678405762,1.8819550275802612,9.444769859313965,0.308859646320343,1.2574291229248047,1.978610634803772
-0.13908281922340393,1.9776679277420044,9.521340370178223,0.25418880581855774,1.21650230884552,1.7861937284469604
-0.6993024349212646,2.4972095489501953,9.126225471496582,0.17592400312423706,1.0149227380752563,1.6426446437835693
-1.0752747058868408,2.7726831436157227,8.561220169067383,0.11751174181699753,1.0246962308883667,1.5882792472839355
-1.6259230375289917,2.978466033935547,8.463114738464355,0.0653606578707695,1.2110047340393066,1.595609426498413
-1.908276081085205,2.9425735473632812,8.494221687316895,0.04856235533952713,1.411362648010254,1.6426446437835693
-1.9992033243179321,2.978466033935547,8.625826835632324,0.00129805039614439,1.53047776222229,1.6670784950256348
-2.265105724334717,3.026322364807129,9.22433090209961,-0.11048699915409088,1.4229687452316284,1.6554723978042603
-2.648256540298462,3.275475025177002,9.684052467346191,-0.2453315258026123,1.0485193729400635,1.6518073081970215
-2.533101797103882,3.1483564376831055,9.530911445617676,-0.26701661944389343,0.7186617851257324,1.6640242338180542
-2.480459690093994,3.0550363063812256,9.147761344909668,-0.21982865035533905,0.5256340503692627,1.6151565313339233
-2.133500576019287,3.2802608013153076,9.075976371765137,-0.2465532273054123,0.3912476599216461,1.5583477020263672
-1.688136339187622,3.1411778926849365,9.169296264648438,-0.285647451877594,0.3405473530292511,1.4673315286636353
-1.477268934249878,3.3903305530548096,9.432806015014648,-0.21860696375370026,0.4480564594268799,1.3384426832199097
-1.4653047323226929,3.3664023876190186,9.782157897949219,-0.14156384766101837,0.509141206741333,1.2174185514450073
-1.5014961957931519,3.478864908218384,10.215558052062988,-0.06016845628619194,0.4340069890022278,1.1190721988677979
-1.4437693357467651,3.739682674407959,10.057631492614746,0.04421006888151169,0.2739650011062622,1.0506572723388672
-1.3217353820800781,3.964907169342041,9.497411727905273,0.11567919701337814,0.17317520081996918,1.007897973060608
-1.3432707786560059,4.199403762817383,9.250652313232422,0.11629004776477814,0.17928366363048553,0.9700254201889038
-1.573280930519104,4.563411712646484,9.279366493225098,0.08399149775505066,0.2476985603570938,0.9639169573783875
-1.4653047323226929,3.924229145050049,9.37059211730957,0.04978405311703682,0.30695074796676636,0.9840749502182007
-1.5469598770141602,3.8500516414642334,9.894919395446777,-0.0787992998957634,0.29229041934013367,0.9584193229675293
-1.0896315574645996,3.845266103744507,9.926026344299316,-0.08376242965459824,0.27885177731513977,0.9865183234214783
-0.9293124675750732,3.9122650623321533,9.621838569641113,0.07398887723684311,0.4156815707683563,0.999346137046814
-0.9604191780090332,4.022335052490234,9.31047248840332,0.21196399629116058,0.49264830350875854,1.0341644287109375
-0.9436694383621216,4.242474555969238,8.898907661437988,0.21501824259757996,0.44011545181274414,1.0842539072036743
-1.0010972023010254,4.403092861175537,9.08554744720459,0.19829629361629486,0.3674246370792389,1.1709941625595093
-0.45284169912338257,4.273581027984619,8.96829891204834,0.25296711921691895,0.3692571818828583,1.2565127611160278
0.31345975399017334,4.285545349121094,8.728717803955078,0.24609509110450745,0.324054479598999,1.2785797119140625
0.8210372924804688,4.340879440307617,8.139784812927246,0.18462859094142914,0.33504971861839294,1.225359559059143
0.4833501875400543,4.039084434509277,7.960322856903076,-0.025350160896778107,0.45477578043937683,1.1722159385681152
-0.33768710494041443,4.118047714233398,8.460721969604492,-0.14469444751739502,0.6135960817337036,1.1459494829177856
-0.7256234884262085,4.144368648529053,8.664112091064453,-0.2235700935125351,0.5971031785011292,1.184432864189148
-0.6035895347595215,4.086941242218018,8.827122688293457,-0.30870693922042847,0.5183038711547852,1.2430741786956787
-0.529412031173706,3.94815731048584,8.848658561706543,-0.3751365840435028,0.4352286756038666,1.293239951133728
-0.6227321028709412,3.9768712520599365,8.9850492477417,-0.41239824891090393,0.5036435723304749,1.3665416240692139
-0.617946445941925,4.063013076782227,9.181260108947754,-0.2527380585670471,0.7608102560043335,1.4215179681777954
-0.646660327911377,4.089334011077881,9.1716890335083,-0.11796987801790237,0.8683193922042847,1.437399983406067
-0.21326032280921936,3.9840497970581055,8.874979019165039,-0.01916533336043358,0.8359444737434387,1.4428975582122803
0.05473581701517105,4.204189300537109,8.704790115356445,-0.09994988143444061,0.6209262609481812,1.355546474456787
0.06191428750753403,4.223331928253174,7.692326545715332,-0.16515782475471497,0.5341859459877014,1.3115653991699219
0.03080759197473526,4.077369689941406,8.307580947875977,-0.5683169960975647,0.6771242022514343,1.211920976638794
0.009272187948226929,4.029513359069824,8.934800148010254,-0.6323032975196838,0.4847072958946228,1.1477819681167603
0.4259224236011505,3.88594388961792,9.269794464111328,-0.40430453419685364,0.38391751050949097,1.1074661016464233
0.4953143000602722,3.722932815551758,8.934800148010254,-0.27266693115234375,0.3423798978328705,0.9981244206428528
0.22492532432079315,3.6080775260925293,9.052047729492188,-0.34100547432899475,0.3136700689792633,0.9413156509399414
0.12412767112255096,3.6583266258239746,9.21715259552002,-0.3820086121559143,0.24342262744903564,0.948034942150116
0.08584251254796982,3.73250412940979,9.351449966430664,-0.3733040392398834,0.23792500793933868,0.9865183234214783
0.14805589616298676,3.845266103744507,9.698409080505371,-0.30931776762008667,0.26968905329704285,1.045770525932312
0.4307080805301666,3.900300979614258,9.758230209350586,-0.1707318127155304,0.26663482189178467,1.0909732580184937
0.672383189201355,4.000799655914307,9.516554832458496,-0.0397050715982914,0.22815145552158356,1.086086392402649
0.9478568434715271,4.156332969665527,9.193224906921387,0.0038177953101694584,0.1707318127155304,1.0463813543319702
1.2421740293502808,4.309473514556885,9.126225471496582,0.02680092304944992,0.17928366363048553,0.9816315174102783
1.3956137895584106,4.434199333190918,9.10229778289795,0.08086090534925461,0.2354816198348999,0.8955020904541016
1.2852448225021362,4.570590496063232,9.049654960632324,0.1349208950996399,0.28496024012565613,0.8105943202972412
1.1464611291885376,4.6184468269348145,9.042476654052734,0.16966283321380615,0.2990097403526306,0.7458444833755493
1.1153544187545776,4.630411148071289,9.133403778076172,0.19890713691711426,0.2599155008792877,0.6902574300765991
1.0316057205200195,4.742873668670654,9.145368576049805,0.2579302489757538,0.23853585124015808,0.6420004963874817
0.5455635786056519,5.013561725616455,7.996214866638184,0.5896202921867371,0.09926267713308334,0.578472375869751
0.2392822653055191,5.164309501647949,8.077570915222168,0.4486673176288605,0.20738264918327332,0.5686988234519958
0.4331009089946747,5.209773063659668,8.769695281982422,0.3113030195236206,0.2501419484615326,0.5589252710342407
0.4666004180908203,5.269593715667725,9.030512809753418,0.30572906136512756,0.26846736669540405,0.5430431962013245
0.3086741268634796,5.403591632843018,9.317651748657227,0.3778090178966522,0.3148917555809021,0.5021164417266846
-0.0649053156375885,5.676672458648682,8.877371788024902,0.4859289824962616,0.33688226342201233,0.47646087408065796
-0.23958136141300201,5.6288161277771,8.618648529052734,0.43683215975761414,0.33566057682037354,0.499673068523407
-0.20129621028900146,5.5259246826171875,8.592327117919922,0.3659738600254059,0.26968905329704285,0.5222744345664978
-0.20847466588020325,5.669494152069092,8.52054214477539,0.19333316385746002,0.21654535830020905,0.5338805317878723
-0.36191442608833313,5.911169052124023,8.958727836608887,0.028633465990424156,0.26907822489738464,0.5650337338447571
-0.22522443532943726,4.6663031578063965,9.430413246154785,0.001985253533348441,0.3784198760986328,0.5888567566871643
-0.42412781715393066,4.199403762817383,10.0073823928833,-0.08254073560237885,0.3271087110042572,0.5570927262306213
-0.6538388133049011,3.7372899055480957,10.182058334350586,-0.020997874438762665,0.22815145552158356,0.49234288930892944
-1.1374880075454712,3.9314076900482178,9.858728408813477,0.2411319613456726,0.17867282032966614,0.4471401870250702
-1.0513464212417603,3.8596229553222656,9.276973724365234,0.24670593440532684,0.15301723778247833,0.4715740978717804
-1.1446665525436401,3.8763725757598877,8.941978454589844,0.24609509110450745,0.1701209545135498,0.4874561131000519
-1.8340985774993896,4.053441524505615,8.192426681518555,0.3193967640399933,0.48104220628738403,0.6181774139404297
-1.9872392416000366,4.316951274871826,7.718647480010986,0.36788275837898254,0.6581879258155823,0.7702783942222595
-1.6689938306808472,4.161118507385254,7.723433494567871,0.2274642437696457,0.6459710001945496,0.8985562920570374
-1.4365909099578857,3.933800458908081,7.979465484619141,0.08765657991170883,0.5225798487663269,0.9358180165290833
-1.3935201168060303,3.7253258228302,7.945965766906738,-0.013591351918876171,0.4431696832180023,0.8979454636573792
-1.312164068222046,3.6894333362579346,7.974679470062256,-0.06635328382253647,0.4199574887752533,0.864959716796875
-0.8955138921737671,3.809373617172241,8.067999839782715,-0.3366532027721405,0.4297310411930084,0.7757760286331177
0.11934202909469604,3.591327667236328,9.471091270446777,-0.5621321797370911,0.2996205687522888,0.6169557571411133
0.1624128371477127,3.6798620223999023,9.684052467346191,-0.5447230339050293,0.23303823173046112,0.555260181427002
-0.5724828243255615,4.273581027984619,9.492626190185547,-0.2770192325115204,0.08704573661088943,0.4068242609500885
-0.4217349886894226,4.685445785522461,8.542078018188477,-0.27885177731513977,0.049173206090927124,0.4056025743484497
-0.5485545992851257,4.90827751159668,8.345866203308105,-0.24281178414821625,0.2373141646385193,0.4159869849681854
-0.8739784955978394,4.996811866760254,8.489435195922852,-0.16332527995109558,0.5256340503692627,0.46607646346092224
-1.0944172143936157,4.992026329040527,8.726325035095215,-0.08131904155015945,0.6026008129119873,0.5033381581306458
-1.111167073249817,5.015954494476318,8.599505424499512,-0.049020491540431976,0.555565595626831,0.5088357925415039
-1.0633105039596558,4.975276470184326,8.692825317382812,-0.09185615926980972,0.3680354654788971,0.4837910234928131
-0.7950153350830078,4.886742115020752,8.63061237335205,-0.18501035869121552,0.10842538625001907,0.41048935055732727
-0.48873403668403625,4.525126934051514,8.67607593536377,-0.16141638159751892,0.02901524491608143,0.18814095854759216
-0.41934216022491455,4.522733688354492,8.66171932220459,-0.06704048812389374,0.1304158866405487,0.08674030750989914
-0.38344982266426086,4.635196685791016,8.704790115356445,-0.022906772792339325,0.091932512819767,0.011606098152697086
-0.36191442608833313,4.6974101066589355,8.695218086242676,-0.02038702741265297,0.0198525357991457,-0.017714571207761765
-0.2874378263950348,4.8553361892700195,8.585148811340332,-0.048333290964365005,-0.15179555118083954,-0.05864133685827255
-0.39062830805778503,4.963312149047852,8.613862037658691,-0.06704048812389374,-0.22692975401878357,-0.0794101431965828
-0.6562315821647644,5.0566325187683105,8.82233715057373,-0.033443886786699295,-0.2092151790857315,-0.06841489672660828
-0.7543373107910156,5.085346221923828,8.963513374328613,0.03489464893937111,-0.14690876007080078,-0.03665083646774292
-0.6203392744064331,5.152345180511475,9.147761344909668,0.11812258511781693,-0.06872031837701797,-0.00916270911693573
-0.5174478888511658,5.154737949371338,9.681659698486328,0.1951656937599182,-0.003970507066696882,-0.0012216945178806782
-0.617946445941925,5.130809783935547,9.940383911132812,0.3343625068664551,-0.10170606523752213,-0.012827792204916477
-0.6825526356697083,5.671886920928955,8.063214302062988,0.2970244884490967,0.024128466844558716,0.02870982140302658
-0.5964110493659973,5.707779407501221,9.152546882629395,0.1498102843761444,0.1847812980413437,0.033596597611904144
-0.46480581164360046,5.55942440032959,9.724730491638184,0.1510319858789444,0.1316375881433487,-0.0030542362947016954
-0.42412781715393066,5.695815086364746,9.660123825073242,0.1821088343858719,-0.007024743594229221,-0.06413896381855011
-0.45284169912338257,5.798706531524658,8.908478736877441,0.2199813723564148,-0.08643488585948944,-0.1044548824429512
-0.3520440459251404,5.870491027832031,8.14217758178711,0.1882936656475067,0.010078979656100273,-0.12033691257238388
-0.27308088541030884,5.798706531524658,8.305188179016113,0.04046862944960594,0.12369657307863235,-0.1459924876689911
-0.26590242981910706,5.719743251800537,8.97787094116211,0.016874656081199646,0.08032641559839249,-0.18142163753509521
0.1624128371477127,4.889134883880615,9.17886734008789,-0.12041326612234116,-0.07055285573005676,-0.25533416867256165
0.20817556977272034,4.362414836883545,9.593125343322754,-0.20493926107883453,-0.18600298464298248,-0.3298575282096863
0.09062815457582474,3.8883368968963623,10.004989624023438,-0.1477486789226532,-0.11086877435445786,-0.337798535823822
0.045164529234170914,3.7950167655944824,9.573982238769531,0.14049486815929413,0.06261184066534042,-0.28343313932418823
0.00687936507165432,3.7301113605499268,9.478269577026367,0.3045073449611664,0.09743013978004456,-0.19913621246814728
0.042771704494953156,3.691826343536377,9.145368576049805,0.2883199155330658,-0.1579040139913559,-0.14110571146011353
0.10977073758840561,3.715754508972168,8.69043254852295,0.26785650849342346,-0.34604495763778687,-0.12766708433628082
0.17916259169578552,3.9218363761901855,8.137392044067383,0.26098448038101196,-0.31916770339012146,-0.1301104724407196
0.2847459018230438,4.089334011077881,7.792825222015381,0.19951798021793365,-0.17378604412078857,-0.14660334587097168
0.33499518036842346,4.06540584564209,7.5843505859375,0.0429883748292923,-0.051616594195365906,-0.17409147322177887
0.1576271951198578,4.039084434509277,7.740182876586914,-0.1769929975271225,-0.003970507066696882,-0.19974705576896667
-0.17736798524856567,4.051048755645752,8.187641143798828,-0.3229855000972748,-0.00519220158457756,-0.21746163070201874
-0.6634100675582886,4.364807605743408,8.240582466125488,-0.2838149070739746,0.06749862432479858,-0.21807247400283813
-0.6346961855888367,4.589733123779297,7.957930088043213,-0.29626092314720154,-0.016187451779842377,-0.19241689145565033
-0.7160521745681763,4.7835516929626465,7.883752346038818,-0.2713688910007477,-0.008857285603880882,-0.15332266688346863
-0.7806583642959595,5.059025287628174,7.742575645446777,-0.24220094084739685,-0.003359660040587187,-0.10140064358711243
-0.5485545992851257,5.159523963928223,7.680362701416016,-0.24097923934459686,0.010689826682209969,-0.02993151545524597
-0.4217349886894226,5.1667022705078125,7.716254711151123,-0.22105035185813904,0.05344913527369499,0.014049487188458443
-0.39062830805778503,5.135595798492432,8.046463966369629,-0.19806721806526184,0.11209046840667725,0.038483377546072006
-0.36670008301734924,4.913063049316406,8.400900840759277,-0.258999228477478,0.03817795217037201,0.06413896381855011
-0.45523449778556824,4.994419097900391,8.4200439453125,-0.237237811088562,0.07482878863811493,0.0794101431965828
-0.5174478888511658,5.097310543060303,8.546863555908203,-0.23662695288658142,0.10781454294919968,0.12888877093791962
-0.373878538608551,4.932205677032471,8.886942863464355,-0.24342262744903564,0.07605048269033432,0.1948602795600891
-0.22761724889278412,5.1188459396362305,9.059226989746094,-0.2453315258026123,0.0021379655227065086,0.2486148327589035
-0.1989033818244934,5.228915691375732,9.200403213500977,-0.2079934924840927,0.05650337040424347,0.30664533376693726
-0.3520440459251404,5.116453170776367,9.492626190185547,-0.13843326270580292,0.1432436853647232,0.33718767762184143
-0.47198426723480225,5.020740032196045,9.74387264251709,-0.06329904496669769,0.1579040139913559,0.337798535823822
-0.19172491133213043,5.006382942199707,8.913264274597168,0.2044811248779297,0.1707318127155304,0.24128466844558716
-0.31854450702667236,5.18105936050415,8.68325424194336,0.26098448038101196,0.24281178414821625,0.22662433981895447
-1.0369895696640015,5.580959796905518,8.910871505737305,0.34428879618644714,0.3436015844345093,0.22967857122421265
-0.9987043738365173,5.291129112243652,9.049654960632324,0.173404261469841,0.223264679312706,0.28282228112220764
-0.582054078578949,5.161916732788086,9.655338287353516,0.015652960166335106,0.07299624383449554,0.28098973631858826
-0.15104693174362183,5.183452129364014,9.993025779724121,0.04359922185540199,0.060779303312301636,0.24189551174640656
-0.1821536272764206,5.425127029418945,9.834799766540527,0.21257483959197998,0.1438545286655426,0.2345653474330902
-0.5437689423561096,5.8489556312561035,9.6433744430542,0.29022881388664246,0.16156910359859467,0.29687178134918213
-0.6729813814163208,5.607280731201172,9.38016414642334,0.2734304964542389,0.11209046840667725,0.4355340898036957
-0.4695914387702942,4.446163654327393,9.286544799804688,0.11002886295318604,0.0021379655227065086,0.5137225389480591
-0.47198426723480225,3.85483717918396,9.789336204528809,-0.06452073901891708,-0.11636640131473541,0.5002838969230652
-0.4265206456184387,3.371187925338745,9.976275444030762,-0.0029778804164379835,-0.10842538625001907,0.4196520745754242
-0.92691969871521,3.775874137878418,9.39452075958252,0.2939702570438385,0.08521319180727005,0.34757208824157715
-1.285843014717102,4.1659040451049805,8.29561710357666,0.5250232219696045,0.2739650011062622,0.3793361485004425
-1.3049856424331665,4.168296813964844,7.979465484619141,0.5238015055656433,0.2996205687522888,0.41293275356292725
-1.1135598421096802,4.039084434509277,7.991429328918457,0.3169533610343933,0.13896775245666504,0.46851983666419983
-0.6299105882644653,4.278367042541504,7.733004570007324,0.08582404255867004,-0.19944162666797638,0.48806697130203247
-0.45284169912338257,4.161118507385254,7.843074321746826,-0.032222192734479904,-0.20371755957603455,0.4691306948661804
-0.1582254022359848,4.120440483093262,8.276473999023438,-0.1707318127155304,-0.14751961827278137,0.4294256269931793
0.22492532432079315,4.0319061279296875,8.219046592712402,-0.20493926107883453,-0.08276980370283127,0.33596599102020264
0.28953152894973755,3.972085475921631,8.472685813903809,-0.261442631483078,0.03268032893538475,0.24617144465446472
-0.8309076428413391,4.852943420410156,8.233403205871582,0.044820915907621384,0.12186402827501297,0.2235700935125351
-0.8763712644577026,5.054239749908447,7.419245719909668,0.07215633243322372,0.038788799196481705,0.2748812735080719
-0.9747761487960815,4.989633560180664,7.158428192138672,-0.06574243307113647,-0.018630841746926308,0.29748260974884033
-1.261914849281311,5.183452129364014,7.9005022048950195,-0.10178242623806,-0.059557609260082245,0.2736595869064331
-0.8763712644577026,4.881956577301025,7.953144073486328,-0.2005869746208191,-0.23120568692684174,0.2583884000778198
-0.5006981492042542,4.680660247802734,8.594719886779785,-0.2378486543893814,-0.28190600872039795,0.1985253542661667
-0.4169493317604065,4.769194602966309,8.774480819702148,-0.1316375881433487,-0.15912571549415588,0.1319430023431778
-0.44327038526535034,4.929812908172607,8.918049812316895,0.026190076023340225,0.03268032893538475,0.10384403169155121
-0.4815555512905121,5.221737384796143,8.906085968017578,0.20944425463676453,0.16156910359859467,0.0910162404179573
-0.3400799036026001,5.590530872344971,8.896514892578125,0.3045073449611664,0.1566823273897171,0.10628741979598999
0.20578274130821228,5.5259246826171875,8.834300994873047,0.3256579339504242,0.07666133344173431,0.08246438205242157
0.31345975399017334,5.509174823760986,8.570791244506836,0.35108447074890137,0.07727217674255371,-0.0036650835536420345
0.23210379481315613,5.427519798278809,8.589934349060059,0.3473430275917053,0.13591352105140686,-0.04031591862440109
0.002093719784170389,5.439783096313477,8.927620887756348,0.37406760454177856,0.29839888215065,-0.0781884491443634
-0.36191442608833313,5.760421276092529,9.087940216064453,0.4927246570587158,0.4492781460285187,-0.04825693368911743
-0.13190434873104095,6.028716564178467,9.049654960632324,0.5567108988761902,0.4627167880535126,-0.007941014133393764
0.03080759197473526,5.880062580108643,8.800801277160645,0.5735092163085938,0.3674246370792389,0.0006108472589403391
0.042771704494953156,6.0502519607543945,8.554041862487793,0.45981526374816895,0.2476985603570938,-0.01038440316915512
-0.7543373107910156,6.804290294647217,8.64496898651123,0.39330926537513733,0.09743013978004456,-0.07085828483104706
-1.135095238685608,7.266404151916504,8.85344409942627,0.29083964228630066,-0.011300674639642239,-0.07757759839296341
-0.6586244106292725,7.0531439781188965,9.463912963867188,-0.04527905210852623,-0.16645587980747223,-0.004275931045413017
0.3038884699344635,5.377270698547363,9.696016311645508,-0.17508409917354584,-0.15546062588691711,-0.09468132257461548
0.4713860750198364,5.315057277679443,9.765408515930176,-0.23349636793136597,-0.08887827396392822,-0.15149012207984924
0.7369893789291382,4.517948150634766,10.44796085357666,-0.28877803683280945,-0.013744063675403595,-0.25289076566696167
0.7441678643226624,4.07258415222168,9.961918830871582,-0.08070819079875946,-0.008246437646448612,-0.3261924386024475
0.39481574296951294,4.005585193634033,9.011369705200195,0.2554105222225189,0.06688777357339859,-0.3384093940258026
0.04995017126202583,4.170690059661865,8.211868286132812,0.45920443534851074,0.04550812020897865,-0.26816195249557495
0.042771704494953156,4.132404804229736,7.156035423278809,0.537469208240509,0.016798298805952072,-0.14843589067459106
0.2584248483181,3.869194269180298,6.610172748565674,0.4709632396697998,0.05528167635202408,-0.07757759839296341
0.29431718587875366,4.211368083953857,6.7106709480285645,0.2945810854434967,0.019241688773036003,-0.045202698558568954
0.4833501875400543,4.266402721405029,6.787241458892822,0.044820915907621384,0.011300674639642239,-0.014049487188458443
0.6269195079803467,4.00319242477417,7.120142936706543,-0.22479179501533508,0.03634541109204292,-0.010995250195264816
0.6197410821914673,3.9361932277679443,7.917252063751221,-0.3913240134716034,0.08582404255867004,-0.0390942245721817
-0.01704886183142662,4.084548473358154,8.231010437011719,-0.5783196687698364,-0.008857285603880882,-0.09651386737823486
0.08344969153404236,3.90987229347229,8.245368003845215,-0.6342121958732605,-0.1298050433397293,-0.09345962852239609
0.13848461210727692,3.950550079345703,8.185248374938965,-0.5670953392982483,-0.10781454294919968,-0.1435490995645523
-0.3400799036026001,4.992026329040527,8.39611530303955,-0.4515688419342041,0.23975755274295807,0.12155860662460327
0.07148557901382446,5.0087761878967285,9.18843936920166,-0.3465794622898102,0.19944162666797638,0.07146912813186646
-0.007477570790797472,4.90827751159668,8.989834785461426,-0.22601348161697388,0.19821994006633759,-0.012827792204916477
-0.1821536272764206,5.0949177742004395,8.8438720703125,-0.12972868978977203,0.3155026137828827,-0.04703523963689804
-0.7184450030326843,5.269593715667725,9.200403213500977,0.01748550310730934,0.5561764240264893,0.03298575058579445
-0.7734799385070801,5.2767720222473145,9.3490571975708,0.06780404597520828,0.46332764625549316,0.12155860662460327
-0.890728235244751,5.3007001876831055,9.241081237792969,0.10071343928575516,0.43645036220550537,0.16309621930122375
-1.3743774890899658,5.578567028045654,8.740681648254395,0.14667969942092896,0.46332764625549316,0.25350162386894226
-1.0465607643127441,5.3557353019714355,9.475876808166504,0.06223006546497345,0.33443886041641235,0.3939964771270752
