accX,accY,accZ,gyroX,gyroY,gyroZ
-0.9439500570297241,4.471950054168701,9.006000518798828,-0.31171250343322754,-1.0308375358581543,-0.027637500315904617
-1.771950125694275,4.44795036315918,8.470050811767578,-0.44866248965263367,-0.2367749959230423,-0.6715499758720398
-2.3560500144958496,4.471950054168701,8.64900016784668,-0.527999997138977,0.1200374960899353,-0.6128374934196472
-2.433000087738037,4.443000316619873,8.779050827026367,-0.49252501130104065,0.18837499618530273,-0.4637874960899353
-2.124000072479248,4.4670000076293945,8.83905029296875,-0.3129499852657318,0.11261250078678131,-0.31597501039505005
-1.801050066947937,4.375950336456299,8.293050765991211,-0.11013749986886978,-0.15482500195503235,-0.2952125072479248
-1.702950119972229,4.563000202178955,7.837950229644775,0.011962499469518661,-0.421162486076355,-0.3502124845981598
-1.9330500364303589,4.639050006866455,7.522050380706787,0.049912501126527786,-0.5373499989509583,-0.3917374908924103
-2.328000068664551,4.546050071716309,7.515000343322754,0.025437500327825546,-0.5348749756813049,-0.3489750027656555
-2.602950096130371,4.828050136566162,7.63200044631958,-0.06132499873638153,-0.5506874918937683,-0.16568750143051147
-2.422950029373169,5.094000339508057,7.861950397491455,-0.09308750182390213,-0.5066875219345093,-0.0471624992787838
-1.39395010471344,5.143950462341309,8.617950439453125,-0.07603749632835388,-0.35282498598098755,0.09569999575614929
-0.534000039100647,4.773000240325928,9.23805046081543,0.05967500060796738,-0.24777500331401825,-0.03506249934434891
-0.8100000619888306,4.60605001449585,8.881950378417969,0.20748749375343323,-0.22577500343322754,-0.2829749882221222
-1.8540000915527344,4.732950210571289,8.118000030517578,0.23196250200271606,-0.09253749996423721,-0.381974995136261
-2.611950159072876,5.182950019836426,7.603050231933594,0.17201249301433563,0.28984999656677246,-0.19497500360012054
-2.3970000743865967,5.311950206756592,7.962000370025635,0.08524999767541885,0.6514750123023987,0.08112499862909317
-1.615950107574463,5.1660003662109375,8.767050743103027,0.12319999933242798,0.8237624764442444,0.2129874974489212
-1.2880500555038452,5.314050197601318,8.467950820922852,0.30153748393058777,0.9091500043869019,0.19470000267028809
-2.4400501251220703,6.439950466156006,3.973050117492676,0.179299995303154,0.8663874864578247,0.08346249908208847
-1.8679500818252563,5.596950054168701,8.416950225830078,-0.37523749470710754,0.23856249451637268,-0.011824999935925007
-2.0329501628875732,5.638050079345703,9.43695068359375,-0.34595000743865967,-0.09624999761581421,-0.11563749611377716
-1.5540000200271606,5.416950225830078,9.568950653076172,0.06324999779462814,-0.45416250824928284,-0.21216249465942383
-1.801050066947937,5.389050483703613,7.969950199127197,0.2012999951839447,-0.7669749855995178,-0.2609750032424927
-1.798050045967102,5.671050071716309,7.371000289916992,0.030249999836087227,-0.9307374954223633,-0.1999250054359436
-1.4490001201629639,5.614050388336182,7.450050354003906,-0.20666250586509705,-0.8084999918937683,-0.15344999730587006
-1.3200000524520874,5.785950183868408,8.33595085144043,-0.35694998502731323,-0.6166874766349792,-0.20116250216960907
-0.9460500478744507,5.841000080108643,9.045000076293945,-0.37523749470710754,-0.46406251192092896,-0.2903999984264374
-0.27300000190734863,5.212050437927246,9.604950904846191,-0.2934249937534332,-0.2050125002861023,-0.4589749872684479
-0.20400001108646393,4.41195011138916,9.681000709533691,-0.23361249268054962,-0.0034374999813735485,-0.7521250247955322
-0.9360000491142273,4.174950122833252,10.906950950622559,-0.20418749749660492,-0.1451999992132187,-0.9952250123023987
-0.999000072479248,4.077000141143799,10.306050300598145,-0.2250874936580658,-0.6546375155448914,-1.128462553024292
-1.0369499921798706,4.183950424194336,10.087950706481934,-0.2628999948501587,-0.7816874980926514,-1.169987440109253
-1.1860500574111938,4.414050102233887,9.826950073242188,-0.3349500000476837,-0.857450008392334,-1.1748000383377075
-1.4700000286102295,4.420950412750244,9.255000114440918,-0.5072374939918518,-0.7950249910354614,-1.0344125032424927
-1.7389501333236694,4.249050140380859,9.4350004196167,-0.6122875213623047,-0.7279250025749207,-0.6800749897956848
-1.3720500469207764,3.7800002098083496,9.202950477600098,-0.6367624998092651,-0.6582124829292297,-0.20239999890327454
-0.9250500202178955,3.454050064086914,9.516000747680664,-0.5658124685287476,-0.5141124725341797,0.018699999898672104
0.4990500211715698,2.4630000591278076,9.103950500488281,-0.25189998745918274,-0.06201250106096268,0.27403751015663147
1.158000111579895,2.3239500522613525,8.925000190734863,0.12677499651908875,0.47423750162124634,0.2619374990463257
0.3460500240325928,2.6230502128601074,9.64995002746582,0.4591124951839447,0.34718748927116394,0.082225002348423
0.013050000183284283,2.884050130844116,9.17400074005127,0.591112494468689,0.033275000751018524,-0.03987500071525574
-0.48405003547668457,3.5020501613616943,8.046000480651855,0.6973999738693237,-0.35653749108314514,-0.21216249465942383
-0.5820000171661377,3.475950241088867,7.4760003089904785,0.6216375231742859,-0.36506250500679016,-0.24639999866485596
-0.5130000114440918,3.2430002689361572,7.102950572967529,0.20624999701976776,0.006324999965727329,-0.24021250009536743
-0.3139500021934509,3.0210001468658447,8.050950050354004,-0.26042500138282776,0.7137625217437744,-0.15963749587535858
-0.19395001232624054,3.0420000553131104,10.111950874328613,-0.46076250076293945,1.1914374828338623,-0.12787500023841858
-0.41505002975463867,3.3540000915527344,10.929000854492188,-0.20308749377727509,1.3917750120162964,-0.18411250412464142
-1.0300500392913818,3.5520002841949463,10.570050239562988,0.008387500420212746,1.476062536239624,-0.18521249294281006
-2.245950222015381,4.002000331878662,8.748000144958496,0.33082500100135803,1.5457749366760254,-0.022824998944997787
-2.842050075531006,4.639050006866455,8.281050682067871,0.37111249566078186,1.4222999811172485,0.12264999747276306
-1.870050072669983,4.71405029296875,8.319000244140625,0.4310624897480011,0.9971500039100647,0.36932501196861267
-0.08895000070333481,4.182000160217285,8.086950302124023,0.5751624703407288,0.5792874693870544,0.36079999804496765
0.36705002188682556,4.323000431060791,7.813950538635254,0.6264500021934509,0.40094998478889465,0.2642749845981598
0.14205001294612885,4.8259501457214355,6.439950466156006,0.5153499841690063,0.23842500150203705,-0.028875000774860382
-0.9559500217437744,4.800000190734863,7.225050449371338,0.3125374913215637,0.3361875116825104,-0.23416249454021454
-2.3590500354766846,5.185050010681152,7.890000343322754,0.19277499616146088,0.23361249268054962,-0.3917374908924103
-2.502000093460083,4.4670000076293945,8.776050567626953,0.19030000269412994,0.011274999938905239,-0.37950000166893005
-2.39205002784729,4.599000453948975,8.743050575256348,0.21353749930858612,-0.12925000488758087,-0.34168750047683716
-2.577000141143799,4.70205020904541,8.12505054473877,0.227012500166893,-0.01691249944269657,-0.23663750290870667
-2.5410001277923584,4.5360002517700195,7.776000499725342,0.20019999146461487,0.0625625029206276,-0.1621125042438507
-2.962050199508667,5.038950443267822,7.299000263214111,0.08524999767541885,0.19689999520778656,-0.028875000774860382
-2.6989500522613525,5.10105037689209,7.938000202178955,-0.03203750029206276,0.25189998745918274,0.09212499856948853
-2.193000078201294,5.133000373840332,8.535000801086426,0.0034374999813735485,0.41923749446868896,0.22151249647140503
-2.0089499950408936,5.197050094604492,8.617950439453125,0.06324999779462814,0.558525025844574,0.28751251101493835
-2.184000015258789,5.559000492095947,8.281050682067871,0.2012999951839447,0.694237470626831,0.35103750228881836
-2.4019501209259033,5.74500036239624,7.621950149536133,0.2820124924182892,0.5402374863624573,0.3975124955177307
-2.1289501190185547,5.869950294494629,7.555050373077393,0.2905375063419342,0.4474250078201294,0.47561249136924744
-1.7890501022338867,5.913000106811523,7.597950458526611,0.3100624978542328,0.4059000015258789,0.48179998993873596
-1.4940000772476196,6.033000469207764,7.564950466156006,0.4138749837875366,0.1956624984741211,0.28503748774528503
-2.11395001411438,5.829000473022461,6.3510003089904785,0.4493499994277954,-0.43834999203681946,0.15798750519752502
-2.0789999961853027,6.610050201416016,7.086000442504883,0.30277499556541443,-0.9209749698638916,0.09569999575614929
-1.9420500993728638,6.022950172424316,8.355000495910645,0.3137750029563904,-0.3993000090122223,-0.0765874981880188
-2.485950231552124,6.045000076293945,7.965000152587891,0.3040125072002411,-0.12443749606609344,-0.20239999890327454
-4.3560004234313965,6.178950309753418,6.859050273895264,0.07672499865293503,0.34595000743865967,-0.20721249282360077
-4.758000373840332,6.186000347137451,6.922950267791748,-0.15166249871253967,0.3581874966621399,-0.06792499870061874
-4.333950042724609,6.448950290679932,8.563050270080566,-0.48399999737739563,0.033275000751018524,0.22151249647140503
-2.9170501232147217,6.148050308227539,10.108050346374512,-0.3936625123023987,-0.6424000263214111,0.2532750070095062
-1.6189501285552979,4.0980000495910645,8.191950798034668,0.16472500562667847,-1.6417499780654907,-0.25244998931884766
-2.4400501251220703,4.483950138092041,8.29800033569336,-0.03203750029206276,-0.604449987411499,-0.08511249721050262
-3.06000018119812,4.5199503898620605,8.962950706481934,-0.1443749964237213,0.1578499972820282,0.22769999504089355
-2.8540501594543457,4.420950412750244,9.199950218200684,-0.12113749980926514,0.5549499988555908,0.18975000083446503
-2.1409502029418945,4.2709503173828125,8.6089506149292,0.0719124972820282,0.27761250734329224,0.012649999931454659
-2.0119500160217285,4.000050067901611,6.801000118255615,0.13048750162124634,-0.07301250100135803,-0.19868749380111694
-3.3259501457214355,4.0980000495910645,5.878950119018555,-0.18232500553131104,-0.14630000293254852,-0.2989250123500824
-4.153950214385986,4.303950309753418,7.443000316619873,-0.4632374942302704,-0.1597750037908554,-0.0826374962925911
-3.2809500694274902,4.261050224304199,8.35004997253418,-0.4399999976158142,-0.15001249313354492,0.20941250026226044
-2.0910000801086426,3.985950231552124,8.392950057983398,-0.2994749844074249,-0.2147749960422516,0.27293750643730164
-2.0239500999450684,3.9760501384735107,8.12505054473877,-0.2628999948501587,-0.2307250052690506,0.23993749916553497
-2.281949996948242,4.093050003051758,8.116050720214844,-0.2579500079154968,-0.12196250259876251,0.21051250398159027
-2.5309500694274902,4.387950420379639,8.920050621032715,-0.21285000443458557,-0.07301250100135803,0.27527499198913574
-2.6359500885009766,4.39995002746582,8.97705078125,-0.07108750194311142,0.18232500553131104,0.28751251101493835
-2.4690001010894775,4.314000129699707,8.27400016784668,0.04867500066757202,0.4974749982357025,0.2704625129699707
-2.328000068664551,4.261050224304199,7.2300004959106445,-0.02461249940097332,0.5757125020027161,0.22893749177455902
-2.2270500659942627,4.279950141906738,7.069050312042236,-0.10532499849796295,0.5047624707221985,0.21917499601840973
-2.1720001697540283,4.540950298309326,7.165050506591797,-0.2591874897480011,0.27994999289512634,0.21422499418258667
-2.2129499912261963,4.801950454711914,7.539000511169434,-0.32394999265670776,0.11384999752044678,0.17022499442100525
-2.470950126647949,4.71405029296875,8.182950019836426,-0.27390000224113464,0.04179999977350235,0.15565000474452972
-2.4190502166748047,4.635000228881836,7.881000518798828,-0.18108749389648438,-0.04743750020861626,0.23498749732971191
-1.9180500507354736,4.795050144195557,7.869000434875488,-0.15056249499320984,-0.004674999974668026,0.3572250008583069
-1.593000054359436,5.238000392913818,8.158950805664062,-0.12484999746084213,0.06861250102519989,0.2619374990463257
-1.585050106048584,4.9770002365112305,8.14905071258545,-0.10408750176429749,0.043037500232458115,0.14588749408721924
-2.1030001640319824,5.1469502449035645,8.568000793457031,-0.10408750176429749,0.04427500069141388,0.13598750531673431
-2.233950138092041,5.212050437927246,8.842950820922852,-0.09184999763965607,0.013612499460577965,0.15193749964237213
-1.924950122833252,5.299950122833252,9.130949974060059,-0.02956249937415123,-0.06943749636411667,0.14217500388622284
-1.9060500860214233,5.37000036239624,9.343950271606445,0.007149999961256981,-0.07301250100135803,0.10546249896287918
-1.818000078201294,5.200050354003906,9.7339506149292,0.1377750039100647,-0.11453749984502792,0.055412501096725464
-1.6360501050949097,5.073000431060791,8.994000434875488,0.3955875039100647,-0.11453749984502792,0.09446249902248383
-1.1020500659942627,4.588950157165527,8.07194995880127,0.3675374984741211,-0.10848750174045563,0.028599999845027924
-0.9250500202178955,4.495950222015381,8.034000396728516,0.1317249983549118,-0.2770625054836273,-0.14492499828338623
-1.0750499963760376,4.414050102233887,9.052050590515137,-0.16032500565052032,-0.6106374859809875,-0.31349998712539673
-1.1230500936508179,4.417050361633301,9.72195053100586,-0.256850004196167,-0.6766374707221985,-0.3562625050544739
-0.984000027179718,4.134000301361084,10.869000434875488,-0.27390000224113464,-0.44440001249313354,-0.3550249934196472
-0.8119500279426575,4.014000415802002,10.440000534057617,0.04372499883174896,0.038087498396635056,-0.19016249477863312
-0.8260500431060791,4.507950305938721,9.306000709533691,0.21353749930858612,0.02956249937415123,0.06641250103712082
-0.034050002694129944,4.455000400543213,8.700000762939453,0.36629998683929443,-0.014437500387430191,0.28022500872612
0.3940500319004059,4.351950168609619,8.29995059967041,0.45553749799728394,0.005087499972432852,0.30703750252723694
0.8149500489234924,4.2709503173828125,7.201050281524658,0.5813499689102173,0.17008750140666962,0.2264624983072281
0.5920500159263611,4.369050025939941,6.76800012588501,0.4945875108242035,0.14932499825954437,0.06146249920129776
0.40605002641677856,4.52400016784668,6.808050155639648,0.3675374984741211,0.01251249946653843,-0.03135000169277191
0.6000000238418579,4.408950328826904,7.3969502449035645,0.08291249722242355,-0.35530000925064087,-0.21092499792575836
0.8940000534057617,4.314000129699707,7.789950370788574,-0.047849997878074646,-0.5543999671936035,-0.31349998712539673
0.8220000267028809,4.2270002365112305,8.5420503616333,-0.23718750476837158,-0.7547374963760376,-0.5762624740600586
0.40800002217292786,4.06695032119751,8.67300033569336,-0.3324750065803528,-0.5629249811172485,-0.7863624691963196
-0.32805001735687256,4.180050373077393,8.422050476074219,-0.43271249532699585,-0.179299995303154,-0.8436999917030334
-1.2310500144958496,4.402050018310547,9.142950057983398,-0.5219500064849854,-0.018149999901652336,-0.7814124822616577
-1.4970000982284546,4.426050186157227,9.562050819396973,-0.4950000047683716,-0.11219999939203262,-0.7130749821662903
-1.3030500411987305,4.194000244140625,9.826950073242188,-0.2628999948501587,-0.39077499508857727,-0.5017374753952026
-0.5410500168800354,4.183950424194336,9.508950233459473,0.08043749630451202,-0.5446375012397766,-0.2964499890804291
-0.05505000427365303,4.534049987792969,8.329050064086914,0.3162499964237213,-0.5311625003814697,-0.2096875011920929
-0.283050000667572,4.941000461578369,7.510050296783447,0.30524998903274536,-0.4016374945640564,-0.23045000433921814
-0.6160500049591064,5.149050235748291,7.555050373077393,0.2209624946117401,-0.3480125069618225,-0.2414499968290329
-0.6130500435829163,5.158950328826904,7.990950584411621,0.02419999986886978,-0.24529999494552612,-0.18768750131130219
-0.3520500063896179,4.941000461578369,8.221050262451172,-0.04661250114440918,-0.13420000672340393,-0.15344999730587006
0.1469999998807907,4.644000053405762,8.293050765991211,-0.11990000307559967,0.22618749737739563,-0.1363999992609024
-0.11295000463724136,4.672950267791748,8.52495002746582,-0.1541374921798706,0.5207124948501587,-0.1839749962091446
-0.3570000231266022,4.79295015335083,8.701950073242188,-0.16142499446868896,0.5549499988555908,-0.2134000062942505
-0.37605002522468567,4.951050281524658,8.84595012664795,-0.14561249315738678,0.43876248598098755,-0.25850000977516174
-0.1270500123500824,5.104050159454346,8.817000389099121,-0.07603749632835388,0.24461250007152557,-0.32573750615119934
-0.6829500198364258,5.212050437927246,8.958000183105469,0.0644875019788742,0.07232499867677689,-0.3917374908924103
-1.5109500885009766,5.5489501953125,8.818950653076172,0.1989624947309494,-0.0424874983727932,-0.4124999940395355
-1.055999994277954,5.245050430297852,8.278050422668457,0.26606249809265137,0.01484999991953373,-0.3647874891757965
-0.7999500632286072,5.302950382232666,7.753950595855713,0.26124998927116394,0.22990000247955322,-0.3172124922275543
-0.9199500679969788,5.403000354766846,7.902000427246094,0.23430000245571136,0.344712495803833,-0.28421249985694885
-0.9150000214576721,5.5849504470825195,8.317049980163574,0.2050125002861023,0.35337498784065247,-0.2059749960899353
-0.999000072479248,5.535000324249268,8.569950103759766,0.2685374915599823,0.20666250586509705,-0.1621125042438507
-1.39395010471344,5.596950054168701,8.460000038146973,0.370012491941452,0.12732499837875366,-0.1522125005722046
-1.8990000486373901,5.635050296783447,7.9170002937316895,0.4298250079154968,0.2116124927997589,-0.10944999754428864
-2.0500500202178955,5.314050197601318,7.498050212860107,0.43353748321533203,0.3936625123023987,-0.0471624992787838
-1.7509500980377197,5.092050075531006,7.1770501136779785,0.35530000925064087,0.4156624972820282,-0.008112499490380287
-1.5730500221252441,5.1160502433776855,7.207950115203857,0.2747249901294708,0.344712495803833,-0.006874999962747097
-1.4490001201629639,5.188050270080566,7.426050186157227,0.1671999990940094,0.2274249941110611,-0.027637500315904617
-1.7220001220703125,5.098950386047363,8.166000366210938,-0.055137500166893005,-0.05596249923110008,-0.1083500012755394
-1.9950001239776611,4.773000240325928,8.83395004272461,-0.14561249315738678,-0.09377499669790268,-0.15963749587535858
-1.966050148010254,4.2870001792907715,8.59005069732666,-0.0943249985575676,0.26042500138282776,-0.13887499272823334
-2.803950071334839,4.552950382232666,9.439949989318848,0.005912499967962503,0.650237500667572,-0.0765874981880188
-3.520050048828125,5.014950275421143,10.01400089263916,0.09143749624490738,0.36547499895095825,-0.014162499457597733
-2.7490501403808594,4.756950378417969,9.444000244140625,0.25148749351501465,-0.01691249944269657,0.028599999845027924
-2.014050006866455,4.1579999923706055,8.27595043182373,0.48606249690055847,0.08579999953508377,-0.026399999856948853
-2.632050037384033,4.394999980926514,8.010000228881836,0.6008750200271606,-0.020487500354647636,-0.04235000163316727
-3.1339502334594727,5.049000263214111,7.110000133514404,0.43353748321533203,-0.18796250224113464,0.0798875018954277
-2.5290000438690186,4.716000080108643,7.243950366973877,0.1256749927997589,-0.10848750174045563,0.1849374920129776
-2.410950183868408,5.092050075531006,7.948050498962402,-0.18466250598430634,-0.08167500048875809,0.16775000095367432
-1.7820000648498535,4.579050064086914,8.557950019836426,-0.2176624983549118,0.0625625029206276,0.02488750033080578
-1.7070001363754272,4.222949981689453,7.764000415802002,0.010724999941885471,0.49252501130104065,-0.12416250258684158
-3.1870501041412354,4.824000358581543,6.727050304412842,0.11701250076293945,0.8933374881744385,-0.009349999949336052
-3.709050178527832,5.068050384521484,6.990000247955322,0.07301250100135803,0.943387508392334,0.21546250581741333
-2.196000099182129,4.195950031280518,5.81505012512207,0.46639999747276306,0.13832500576972961,0.09322500228881836
-2.731950044631958,4.783050060272217,4.795050144195557,0.12319999933242798,0.7515749931335449,0.11522500216960907
-2.7679500579833984,5.713950157165527,6.0520501136779785,-0.2751374840736389,1.4150124788284302,-0.07768750190734863
-3.42900013923645,5.439000129699707,7.668000221252441,-0.37894999980926514,1.226912498474121,-0.517549991607666
-4.387050151824951,5.247000217437744,7.984050273895264,-0.3301374912261963,0.5317124724388123,-0.6373124718666077
-5.004000186920166,5.17995023727417,8.946000099182129,-0.1480875015258789,0.04427500069141388,-0.4137375056743622
-4.99500036239624,5.26200008392334,7.785000324249268,0.15372499823570251,-0.013199999928474426,-0.23897500336170197
-3.999000072479248,5.506050109863281,7.4569501876831055,0.20253749191761017,0.25066250562667847,-0.1461624950170517
-3.4360501766204834,5.566050052642822,7.07895040512085,0.2330625057220459,-0.04619999974966049,-0.3269749879837036
-4.328999996185303,5.877000331878662,6.118950366973877,0.010724999941885471,-1.1505999565124512,-0.46131250262260437
-4.545000076293945,5.821950435638428,9.058950424194336,-0.028324998915195465,-1.1420749425888062,-0.2377374917268753
-3.57705020904541,5.8030500411987305,9.303000450134277,0.24296249449253082,-0.5946875214576721,-0.2671625018119812
-3.0390000343322754,5.805000305175781,8.187000274658203,0.33934998512268066,-0.0644875019788742,-0.49431249499320984
-3.388050079345703,5.779050350189209,7.330050468444824,0.22206249833106995,-0.05843750014901161,-0.6776000261306763
-4.116000175476074,5.95395040512085,7.213050365447998,0.011962499469518661,-0.6241124868392944,-0.7215999960899353
-4.24500036239624,5.269050121307373,8.247000694274902,-0.09556250274181366,-1.5562249422073364,-0.6995999813079834
-3.7930502891540527,4.984050273895264,9.202950477600098,-0.08813749998807907,-2.3002374172210693,-0.595787525177002
-2.4400501251220703,4.318050384521484,9.367950439453125,0.02419999986886978,-2.36252498626709,-0.4894999861717224
-1.228950023651123,4.048050403594971,8.82705020904541,0.07548750191926956,-1.7162749767303467,-0.5005000233650208
-0.9649500250816345,3.9469501972198486,8.659049987792969,0.0681999996304512,-1.3179374933242798,-0.5310249924659729
-0.6709500551223755,3.7080001831054688,8.235000610351562,0.0009624999947845936,-0.7804499864578247,-0.5945500135421753
-1.4730000495910645,4.657950401306152,8.494050025939941,-0.08579999953508377,-0.4676375091075897,-0.5872625112533569
-0.7690500617027283,4.374000072479248,9.118950843811035,0.011962499469518661,-0.45416250824928284,-0.5798375010490417
-0.48900002241134644,4.540950298309326,9.181050300598145,0.1695374995470047,-0.5971624851226807,-0.5933125019073486
-0.18195000290870667,4.657950401306152,9.219000816345215,0.33329999446868896,-0.8549749851226807,-0.5933125019073486
-0.3379500210285187,4.654050350189209,8.467950820922852,0.42858749628067017,-1.260599970817566,-0.6910749673843384
-0.687000036239624,4.675050258636475,7.800000190734863,0.3357749879360199,-1.5562249422073364,-0.7473124861717224
-0.5100000500679016,4.575000286102295,7.737000465393066,0.1036750003695488,-1.5562249422073364,-0.6776000261306763
0.16095000505447388,4.479000091552734,8.527050018310547,-0.09308750182390213,-1.1885499954223633,-0.6410250067710876
0.7030500173568726,4.125,9.082950592041016,-0.14066250622272491,-0.7242124676704407,-0.7508875131607056
0.1469999998807907,4.201050281524658,9.207000732421875,-0.0943249985575676,-0.3345375061035156,-0.9402250051498413
-0.4600500166416168,4.311000347137451,9.38895034790039,-0.05403750017285347,-0.2965874969959259,-0.9842249751091003
-1.492050051689148,4.552950382232666,8.908050537109375,0.01691249944269657,-0.5288249850273132,-0.9366499781608582
-1.5139501094818115,4.52400016784668,8.343000411987305,0.03148749843239784,-0.7279250025749207,-0.7581750154495239
-1.1860500574111938,4.563000202178955,8.128050804138184,-0.028324998915195465,-0.6681125164031982,-0.5530250072479248
-0.999000072479248,4.648950099945068,8.307000160217285,-0.055137500166893005,-0.5836874842643738,-0.4675000011920929
-0.4549500346183777,4.648950099945068,8.593950271606445,-0.006324999965727329,-0.36506250500679016,-0.390500009059906
-0.3240000009536743,4.681950092315674,8.520000457763672,0.12925000488758087,-0.25148749351501465,-0.3965499997138977
-0.4620000123977661,4.801950454711914,8.281050682067871,0.2087250053882599,-0.2747249901294708,-0.3722124993801117
-0.6040500402450562,5.026950359344482,8.230050086975098,0.21353749930858612,-0.32106250524520874,-0.3429250121116638
-0.42900002002716064,5.281050205230713,8.166000366210938,0.1915374994277954,-0.322299987077713,-0.32573750615119934
0.1279500126838684,4.930950164794922,8.070000648498535,0.13296249508857727,-0.30882498621940613,-0.42102500796318054
-0.325950026512146,5.098950386047363,8.467950820922852,0.025437500327825546,-0.32106250524520874,-0.5420249700546265
-0.5080500245094299,4.98900032043457,8.760000228881836,0.015675000846385956,-0.32106250524520874,-0.5725499987602234
-0.9049500226974487,4.753950119018555,9.097050666809082,0.08896250277757645,-0.37853750586509705,-0.5872625112533569
-1.0200001001358032,4.809000015258789,8.817000389099121,0.18424999713897705,-0.42611250281333923,-0.517549991607666
-0.9150000214576721,4.570050239562988,8.491050720214844,0.23553749918937683,-0.19030000269412994,-0.44673749804496765
-0.9390000700950623,4.857000350952148,7.711050510406494,0.2172500044107437,0.17242500185966492,-0.37950000166893005
-0.6300000548362732,4.789950370788574,7.773000240325928,0.12319999933242798,0.3544749915599823,-0.3330250084400177
-0.5269500017166138,4.942950248718262,8.59695053100586,0.1097249984741211,0.24461250007152557,-0.3489750027656555
-0.7980000376701355,5.002950191497803,8.617950439453125,0.3003000020980835,0.2689499855041504,-0.41497498750686646
-2.3110501766204834,5.3359503746032715,7.383000373840332,0.23430000245571136,0.3227125108242035,-0.3684999942779541
-1.5349500179290771,5.032050132751465,7.969950199127197,0.14396250247955322,0.10889999568462372,-0.24639999866485596
-1.0800000429153442,5.022000312805176,7.114950180053711,0.09267500042915344,0.02956249937415123,-0.3232625126838684
-2.7180001735687256,4.939050197601318,6.994950294494629,0.0034374999813735485,-0.5641624927520752,-0.23539999127388
-2.410950183868408,5.245050430297852,7.219950199127197,-0.15908749401569366,-0.7609249949455261,-0.27197501063346863
-1.6120500564575195,5.074950218200684,8.83905029296875,-0.34718748927116394,-1.0088374614715576,-0.4797374904155731
-2.565000057220459,5.200050354003906,9.418050765991211,-0.32766249775886536,-0.718162477016449,-0.7508875131607056
-3.3829500675201416,4.861950397491455,9.432000160217285,-0.16032500565052032,-0.5263500213623047,-0.7056499719619751
-3.931950092315674,5.365050315856934,8.86305046081543,-0.050324998795986176,-0.5128750205039978,-0.5040749907493591
-3.0550501346588135,5.152050018310547,8.756999969482422,0.03396249935030937,-0.5189250111579895,-0.31226250529289246
-2.49495005607605,5.428950309753418,8.187000274658203,0.06324999779462814,-0.37482500076293945,-0.3269749879837036
-2.3010001182556152,5.122950077056885,8.197050094604492,0.08167500048875809,-0.19277499616146088,-0.4417875111103058
-2.562000036239624,5.3959503173828125,7.716000556945801,-0.047849997878074646,-0.14272500574588776,-0.526075005531311
-2.4810001850128174,5.379000186920166,7.914000511169434,-0.03437500074505806,-0.16596250236034393,-0.5150749683380127
-2.3989500999450684,5.383950233459473,8.070000648498535,0.027912499383091927,-0.37482500076293945,-0.5102624893188477
-2.40405011177063,5.250000476837158,7.8259501457214355,0.12196250259876251,-0.5874000191688538,-0.5077875256538391
-2.3560500144958496,5.068050384521484,7.539000511169434,0.15853749215602875,-0.6264500021934509,-0.5029749870300293
-2.3779501914978027,4.915050029754639,6.910950183868408,0.11343749612569809,-0.6411625146865845,-0.49431249499320984
-2.577000141143799,5.025000095367432,7.495050430297852,0.0424874983727932,-0.6191624999046326,-0.49197500944137573
-2.4379501342773438,5.053950309753418,8.896050453186035,0.0719124972820282,-0.7071624994277954,-0.6910749673843384
-2.811000108718872,4.975050449371338,8.88705062866211,0.1280124932527542,-0.853737473487854,-0.6935499906539917
-2.968950033187866,4.831050395965576,8.745000839233398,0.24406249821186066,-0.9002124667167664,-0.5335000157356262
-2.5669500827789307,4.941000461578369,8.233050346374512,0.2550624907016754,-0.4090625047683716,-0.26592499017715454
-1.7119500637054443,4.903050422668457,8.134950637817383,0.2087250053882599,0.20542499423027039,-0.15839999914169312
-1.0630500316619873,5.295000076293945,8.242050170898438,0.1354375034570694,0.1223749965429306,-0.30744999647140503
-0.42705002427101135,5.014950275421143,8.812050819396973,0.0742499977350235,-0.7645000219345093,-0.7020750045776367
-1.144950032234192,4.483950138092041,9.700950622558594,-0.012374999932944775,-1.8567999601364136,-1.1369874477386475
-1.9420500993728638,4.144050121307373,10.120050430297852,-0.10532499849796295,-2.240424871444702,-1.1882749795913696
-0.22305001318454742,3.9280502796173096,8.998950004577637,-0.01484999991953373,-0.3760625123977661,-0.6848874688148499
0.3910500109195709,3.8869502544403076,8.898000717163086,-0.002612499985843897,-0.1280124932527542,-0.6348375082015991
0.5659500360488892,4.050000190734863,8.805000305175781,0.002199999988079071,-0.16101250052452087,-0.6776000261306763
-0.3040500283241272,4.350000381469727,8.733000755310059,0.049912501126527786,-0.6986374855041504,-0.8718875050544739
-1.6399500370025635,4.134000301361084,8.499000549316406,0.09872499853372574,-1.1481250524520874,-0.8841249942779541
-2.3490002155303955,4.25100040435791,7.024050235748291,0.025437500327825546,-0.6924499869346619,-0.4712125062942505
-1.059000015258789,4.159950256347656,8.973000526428223,-0.08813749998807907,0.24461250007152557,0.1116499975323677
1.0780500173568726,4.564949989318848,9.229050636291504,-0.06379999965429306,0.24213749170303345,0.23127499222755432
1.902000069618225,4.813950061798096,9.565950393676758,-0.01732499897480011,-0.22453749179840088,-0.09363749623298645
1.4110500812530518,4.429050445556641,9.088050842285156,0.05115000158548355,-0.5043500065803528,-0.46021249890327454
0.3049500286579132,4.354050159454346,8.54699993133545,0.07067500054836273,-0.19648750126361847,-0.5883625149726868
-0.05505000427365303,4.3279500007629395,8.464950561523438,0.04867500066757202,0.023512499406933784,-0.565262496471405
-0.2850000262260437,4.405050277709961,8.43600082397461,-0.010037500411272049,0.272662490606308,-0.4492124915122986
-0.016950000077486038,4.3969502449035645,8.380949974060059,-0.033275000751018524,0.15908749401569366,-0.4002625048160553
-0.09795000404119492,4.462050437927246,8.295000076293945,-0.023375000804662704,-0.06572499871253967,-0.390500009059906
-0.3240000009536743,4.507950305938721,8.42400074005127,0.0034374999813735485,-0.20748749375343323,-0.30250000953674316
-0.1099500060081482,4.43595027923584,8.317049980163574,0.037675000727176666,-0.2147749960422516,-0.16321249306201935
0.42000001668930054,4.51200008392334,8.371950149536133,0.030249999836087227,-0.13529999554157257,-0.10587500035762787
0.8560500144958496,4.495950222015381,8.446050643920898,0.005912499967962503,-0.02667500078678131,-0.18768750131130219
0.6139500141143799,4.431000232696533,8.530050277709961,-0.023375000804662704,0.02956249937415123,-0.31226250529289246
-0.3160500228404999,4.657950401306152,8.857950210571289,-0.04661250114440918,-0.05224999785423279,-0.3367374837398529
-0.5029500126838684,4.651050090789795,9.25005054473877,0.002199999988079071,-0.14506250619888306,-0.22439999878406525
-0.07500000298023224,4.584000110626221,8.83395004272461,0.05719999969005585,-0.147537499666214,-0.15468749403953552
0.4129500091075897,4.635000228881836,8.629950523376465,0.020487500354647636,0.08579999953508377,-0.1681624948978424
0.25005000829696655,4.71405029296875,9.106950759887695,-0.002612499985843897,0.36918750405311584,-0.259737491607666
0.010950000956654549,4.776000022888184,9.253050804138184,0.02667500078678131,0.4339500069618225,-0.2989250123500824
-0.4339500069618225,4.764000415802002,9.364950180053711,0.1354375034570694,0.392425000667572,-0.31597501039505005
-0.5850000381469727,4.681950092315674,8.970000267028809,0.26372501254081726,0.30566251277923584,-0.2793999910354614
-0.6300000548362732,4.642050266265869,8.629950523376465,0.29906249046325684,0.3031874895095825,-0.25244998931884766
-0.703950047492981,4.681950092315674,8.338050842285156,0.30153748393058777,0.3264249861240387,-0.23416249454021454
-0.8670000433921814,4.948050022125244,8.122950553894043,0.22453749179840088,0.4217124879360199,-0.23663750290870667
-0.8290500640869141,4.753950119018555,8.329050064086914,0.1317249983549118,0.47795000672340393,-0.26592499017715454
-0.8550000190734863,4.6080002784729,8.404950141906738,0.09501250088214874,0.4254249930381775,-0.28049999475479126
-1.4730000495910645,4.693950176239014,8.046000480651855,-0.01732499897480011,0.19085000455379486,-0.28049999475479126
-2.25600004196167,5.10105037689209,8.12505054473877,-0.20061250030994415,0.047849997878074646,-0.2256374955177307
-2.2729501724243164,5.061000347137451,8.416950225830078,-0.27390000224113464,0.02708750031888485,-0.17311249673366547
-2.0929501056671143,4.740000247955322,9.463950157165527,-0.2628999948501587,0.04675000160932541,-0.06311249732971191
-1.9900500774383545,4.539000034332275,9.937950134277344,-0.14066250622272491,0.04427500069141388,0.006599999964237213
-1.702950119972229,4.174950122833252,9.598050117492676,0.26606249809265137,-0.03148749843239784,0.13598750531673431
-1.6360501050949097,4.207950115203857,8.926950454711914,0.46639999747276306,-0.06696250289678574,0.1592250019311905
-2.055000066757202,4.824000358581543,7.4760003089904785,0.6571124792098999,-0.18301250040531158,0.1457500010728836
-2.2579500675201416,5.287950038909912,6.909000396728516,0.582587480545044,-0.2917749881744385,0.1396999955177307
-2.2579500675201416,5.355000019073486,7.237050533294678,0.4248749911785126,-0.4334000051021576,0.06146249920129776
-1.7940000295639038,5.07705020904541,7.2270002365112305,0.30524998903274536,-0.5324000120162964,-0.06558749824762344
-1.5420000553131104,4.966950416564941,6.862950325012207,0.15496249496936798,-0.3821125030517578,-0.1938749998807907
-1.8250501155853271,5.122950077056885,7.135950565338135,-0.06613750010728836,-0.12925000488758087,-0.3209249973297119
-2.184000015258789,5.238000392913818,8.08905029296875,-0.22261250019073486,0.005087499972432852,-0.41497498750686646
-2.3419501781463623,5.178000450134277,8.808000564575195,-0.17489999532699585,0.06503749638795853,-0.4124999940395355
-2.3830502033233643,5.128050327301025,8.98905086517334,-0.09308750182390213,0.04908749833703041,-0.3867875039577484
-2.4469501972198486,5.293050289154053,8.665950775146484,0.09748750180006027,-0.04619999974966049,-0.3282124996185303
-2.293950080871582,5.322000026702881,8.058000564575195,0.22948749363422394,-0.09501250088214874,-0.2866874933242798
-2.2270500659942627,5.48205041885376,7.716000556945801,0.26001250743865967,-0.12306249886751175,-0.2854500114917755
-2.095050096511841,5.57295036315918,7.492950439453125,0.2367749959230423,-0.07177499681711197,-0.2903999984264374
-2.203050136566162,5.530050277709961,7.419000148773193,0.1732500046491623,-0.05843750014901161,-0.2989250123500824
-2.659950017929077,5.632950305938721,7.893000602722168,0.1451999992132187,-0.12306249886751175,-0.2891624867916107
-2.3800501823425293,5.647050380706787,8.36205005645752,0.22948749363422394,-0.18301250040531158,-0.25616249442100525
-1.2139500379562378,5.4559502601623535,6.4009504318237305,0.2502500116825104,-0.04001250118017197,-0.3244999945163727
-1.702950119972229,5.7019500732421875,6.933000564575195,-0.057612501084804535,-0.405349999666214,-0.5358374714851379
-2.7750000953674316,5.4370503425598145,8.752050399780273,-0.16032500565052032,-0.5739250183105469,-0.7118374705314636
-3.312000274658203,5.389050483703613,9.058950424194336,-0.01979999989271164,-0.5629249811172485,-0.6543624997138977
-2.7780001163482666,5.343000411987305,8.902950286865234,0.09377499669790268,-0.5091624855995178,-0.47478750348091125
-2.407050132751465,5.347950458526611,8.83905029296875,0.1989624947309494,-0.49568748474121094,-0.37950000166893005
-2.6959500312805176,5.353050231933594,7.9860005378723145,0.32106250524520874,-0.5384500026702881,-0.34168750047683716
-2.7990000247955322,5.427000045776367,7.7470502853393555,0.3235374987125397,-0.6509249806404114,-0.30250000953674316
-2.683950185775757,5.749950408935547,7.186950206756592,0.2330625057220459,-0.8562124967575073,-0.18521249294281006
-1.755000114440918,5.547000408172607,7.570050239562988,0.12319999933242798,-0.8342124819755554,-0.14011250436306
-0.5560500025749207,5.314050197601318,7.857000350952148,0.049912501126527786,-0.8122124671936035,-0.26468750834465027
0.07800000160932541,4.89300012588501,8.29800033569336,-0.043037500232458115,-0.8842625021934509,-0.5407875180244446
-0.28005000948905945,4.7059502601623535,8.709000587463379,-0.1578499972820282,-0.9612625241279602,-0.8193625211715698
-0.9799500703811646,4.51200008392334,9.088050842285156,-0.2176624983549118,-0.7596874833106995,-0.8877000212669373
-1.281000018119812,4.405050277709961,9.343950271606445,-0.1933249980211258,-0.3760625123977661,-0.7375500202178955
-1.0420500040054321,4.558050155639648,9.514050483703613,-0.057612501084804535,-0.14272500574588776,-0.5383124947547913
-0.7570500373840332,4.615050315856934,9.265050888061523,0.12319999933242798,-0.24777500331401825,-0.4417875111103058
-0.6040500402450562,4.531949996948242,8.53695011138916,0.27582499384880066,-0.47382500767707825,-0.42473748326301575
-0.597000002861023,4.567049980163574,7.651050567626953,0.27348750829696655,-0.6142125129699707,-0.38321250677108765
-0.5220000147819519,4.611000061035156,7.621950149536133,0.08772499859333038,-0.6459749937057495,-0.30016249418258667
-0.14205001294612885,4.71405029296875,8.60205078125,-0.09308750182390213,-0.5361124873161316,-0.23416249454021454
0.6930000185966492,4.684950351715088,9.310050010681152,-0.13089999556541443,-0.42611250281333923,-0.22921249270439148
1.2919501066207886,4.60605001449585,9.484950065612793,-0.0943249985575676,-0.322299987077713,-0.334262490272522
1.2390000820159912,4.540950298309326,9.463950157165527,-0.05403750017285347,-0.2820124924182892,-0.4197874963283539
0.41505002975463867,4.693950176239014,8.950950622558594,0.03272499889135361,-0.20253749191761017,-0.55673748254776
-0.06705000251531601,4.8670501708984375,8.704950332641602,0.05967500060796738,-0.1414874941110611,-0.5750250220298767
-0.4429500102996826,4.918950080871582,8.359950065612793,0.08648750185966492,0.02474999986588955,-0.509024977684021
-0.5700000524520874,4.8949503898620605,8.414999961853027,0.09748750180006027,0.0002749999985098839,-0.3539249897003174
-0.27105000615119934,5.233050346374512,8.282999992370605,0.16472500562667847,-0.12306249886751175,-0.2134000062942505
0.3820500075817108,5.508000373840332,7.663050174713135,0.19648750126361847,-0.16706250607967377,-0.22192500531673431
0.3840000033378601,5.343000411987305,8.029050827026367,0.12677499651908875,-0.23801249265670776,-0.3367374837398529
0.21405000984668732,5.176050186157227,7.9770002365112305,0.07067500054836273,-0.2905375063419342,-0.40878748893737793
-0.039000000804662704,5.26200008392334,8.371950149536133,0.037675000727176666,-0.08524999767541885,-0.3429250121116638
0.25200000405311584,5.092050075531006,8.817000389099121,0.10119999945163727,0.13956250250339508,-0.2609750032424927
0.4249500334262848,5.287950038909912,8.23799991607666,0.15001249313354492,0.17256249487400055,-0.2854500114917755
0.21705001592636108,5.338050365447998,8.092050552368164,0.11701250076293945,0.1443749964237213,-0.31597501039505005
-0.028950002044439316,5.4150004386901855,8.575050354003906,0.11467500030994415,0.02708750031888485,-0.2866874933242798
-0.019050000235438347,5.403000354766846,8.854949951171875,0.18301250040531158,-0.0034374999813735485,-0.2671625018119812
0.06300000101327896,5.305050373077393,8.27595043182373,0.36134999990463257,0.0002749999985098839,-0.27073749899864197
0.022950001060962677,5.37000036239624,7.291950225830078,0.38458749651908875,0.050324998795986176,-0.27568748593330383
-0.21105000376701355,5.511000156402588,7.069050312042236,0.258774995803833,0.04179999977350235,-0.27816250920295715
-0.36705002188682556,5.568000316619873,7.23900032043457,0.18301250040531158,-0.008249999955296516,-0.2829749882221222
-0.5730000138282776,5.496000289916992,7.648950576782227,0.08291249722242355,-0.0999625027179718,-0.2891624867916107
-0.5580000281333923,5.401050090789795,8.098950386047363,0.08167500048875809,-0.08524999767541885,-0.24639999866485596
-0.47700002789497375,5.323950290679932,8.03700065612793,0.14272500574588776,0.07603749632835388,-0.22192500531673431
-0.8119500279426575,5.401050090789795,7.660950183868408,0.1732500046491623,0.17737500369548798,-0.21821250021457672
-1.240950107574463,5.63100004196167,7.498050212860107,0.09377499669790268,0.14079999923706055,-0.17916250228881836
-1.4560500383377075,5.82705020904541,7.780050277709961,-0.01251249946653843,0.07356250286102295,-0.10587500035762787
-1.0870500802993774,5.592000484466553,8.641950607299805,-0.05884999781847,0.22384999692440033,-0.09363749623298645
-1.3120501041412354,5.413050174713135,8.713950157165527,0.08896250277757645,0.3423750102519989,-0.1083500012755394
-1.5090000629425049,5.449050426483154,8.343000411987305,0.16830000281333923,0.3679499924182892,-0.1083500012755394
-1.8610501289367676,5.713950157165527,7.603050231933594,0.23553749918937683,0.3899500072002411,-0.0765874981880188
-1.8079501390457153,5.724000453948975,7.440000534057617,0.20253749191761017,0.3326124846935272,-0.06435000151395798
-1.6330500841140747,5.518050193786621,7.390050411224365,0.1574375033378601,0.21889999508857727,-0.14135000109672546
-1.7359501123428345,5.496000289916992,7.354050159454346,0.12319999933242798,0.1541374921798706,-0.19868749380111694
-2.2200000286102295,5.479950428009033,7.404000282287598,0.008387500420212746,-0.05472499877214432,-0.27073749899864197
-2.55495023727417,5.671050071716309,7.7059502601623535,-0.052799999713897705,-0.18301250040531158,-0.2732124924659729
-2.365950107574463,5.4370503425598145,8.25,-0.07961250096559525,-0.11096250265836716,-0.24639999866485596
-2.4979500770568848,5.15595006942749,8.3860502243042,0.015675000846385956,0.006324999965727329,-0.24763749539852142
-2.8090500831604004,5.4559502601623535,7.873950481414795,0.10119999945163727,-0.12677499651908875,-0.1779250055551529
-2.662950038909912,5.52495002746582,7.656000137329102,0.1097249984741211,-0.4016374945640564,-0.09858749806880951
-2.3830502033233643,5.5159502029418945,7.708950519561768,0.04619999974966049,-0.49211248755455017,-0.1303499937057495
-2.244000196456909,5.08905029296875,7.882950305938721,-0.0015124999918043613,-0.35530000925064087,-0.227974995970726
-2.7940502166748047,5.250000476837158,7.957950592041016,-0.028324998915195465,-0.09377499669790268,-0.24639999866485596
-2.743950128555298,5.563050270080566,7.930950164794922,-0.02461249940097332,0.09556250274181366,-0.15111249685287476
-2.2729501724243164,5.704950332641602,7.740000247955322,-0.002612499985843897,0.1859000027179718,-0.09487500041723251
-2.0809500217437744,5.620950222015381,7.723050594329834,0.01691249944269657,0.18479999899864197,-0.10711249709129333
-2.2200000286102295,5.628000259399414,7.440000534057617,0.05967500060796738,0.10408750176429749,-0.17916250228881836
-2.4160501956939697,5.604000091552734,7.120050430297852,0.07548750191926956,0.06751249730587006,-0.17063750326633453
-2.6650500297546387,5.887050151824951,7.087950229644775,0.07067500054836273,0.18108749389648438,-0.08868750184774399
-2.2870500087738037,5.841000080108643,6.97605037689209,0.09624999761581421,0.28366249799728394,-0.03739999979734421
-1.8769501447677612,6.0259504318237305,6.444000244140625,0.05719999969005585,0.1541374921798706,-0.09116250276565552
-1.8370500802993774,6.0520501136779785,6.610050201416016,-0.07713750004768372,-0.14272500574588776,-0.164450004696846
-1.8460501432418823,6.082950115203857,7.2460503578186035,-0.1541374921798706,-0.2648249864578247,-0.22687499225139618
-1.9590001106262207,5.829000473022461,7.864050388336182,-0.13337500393390656,-0.18053749203681946,-0.29397499561309814
-2.514000177383423,5.712000370025635,7.5169501304626465,-0.1163249984383583,-0.26001250743865967,-0.30140000581741333
-2.761050224304199,5.832000255584717,7.833000183105469,-0.1639000028371811,-0.3735874891281128,-0.18768750131130219
-1.7770501375198364,5.638050079345703,8.641950607299805,-0.09790000319480896,-0.3515875041484833,-0.10587500035762787
-1.2190500497817993,5.53695011138916,8.338050842285156,0.08291249722242355,-0.1317249983549118,-0.19139999151229858
-1.2430500984191895,5.512950420379639,7.9770002365112305,0.14396250247955322,-0.05101250112056732,-0.2634499967098236
-2.0020501613616943,5.772000312805176,7.383000373840332,0.15248750150203705,-0.04001250118017197,-0.3880249857902527
-3.0270001888275146,5.949000358581543,7.633950233459473,0.0999625027179718,-0.23553749918937683,-0.3770250082015991
-3.120000123977661,5.889000415802002,7.890000343322754,0.04743750020861626,-0.682687520980835,-0.2609750032424927
-2.0880000591278076,5.611050128936768,8.593950271606445,0.03148749843239784,-0.8207374811172485,-0.1461624950170517
-1.165950059890747,5.475000381469727,8.745000839233398,0.0424874983727932,-0.8487874865531921,-0.26468750834465027
-1.0080000162124634,5.37000036239624,8.568000793457031,0.021724998950958252,-0.8610249757766724,-0.3880249857902527
-1.4850000143051147,5.374050140380859,8.772000312805176,-0.08937499672174454,-0.7926874756813049,-0.6092625260353088
-1.8250501155853271,5.121000289916992,9.379950523376465,-0.13956250250339508,-0.6106374859809875,-0.6837875247001648
-1.9300501346588135,4.869000434875488,9.676950454711914,-0.025849999859929085,-0.4273499846458435,-0.5982624888420105
-1.9560000896453857,4.900050163269043,9.406050682067871,0.2087250053882599,-0.39311251044273376,-0.4259749948978424
-1.8340500593185425,4.840050220489502,8.938950538635254,0.3357749879360199,-0.46035000681877136,-0.33797499537467957
-1.6120500564575195,4.981950283050537,7.641000270843506,0.46035000681877136,-0.6936874985694885,-0.19511249661445618
-1.2600001096725464,4.900050163269043,7.087950229644775,0.4151124954223633,-0.7827875018119812,-0.08992499858140945
0.4630500078201294,5.302950382232666,7.761000156402588,-0.05637500062584877,-0.2525874972343445,-0.43078750371932983
0.20205001533031464,5.386050224304199,7.957950592041016,-0.0845625028014183,-0.2843500077724457,-0.4417875111103058
-0.016950000077486038,5.2860002517700195,8.167950630187988,-0.057612501084804535,-0.2917749881744385,-0.4002625048160553
-0.13395000994205475,5.242950439453125,8.14905071258545,-0.028324998915195465,-0.3515875041484833,-0.3404499888420105
0.11805000901222229,5.185050010681152,8.010000228881836,-0.050324998795986176,-0.3993000090122223,-0.29397499561309814
0.17805001139640808,5.149050235748291,8.034000396728516,-0.08084999769926071,-0.40411248803138733,-0.2927374839782715
0.030000001192092896,5.170950412750244,8.190000534057617,-0.14313749969005585,-0.41263750195503235,-0.2915000021457672
-0.016950000077486038,5.245050430297852,8.319000244140625,-0.16885000467300415,-0.42611250281333923,-0.2732124924659729
0.2959500253200531,5.27400016784668,8.641950607299805,-0.19085000455379486,-0.4016374945640564,-0.227974995970726
0.6310500502586365,5.212050437927246,8.716950416564941,-0.15908749401569366,-0.3051125109195709,-0.25244998931884766
0.5230500102043152,5.338050365447998,8.653950691223145,-0.11508750170469284,-0.18053749203681946,-0.30250000953674316
0.38895002007484436,5.391000270843506,8.653950691223145,-0.0906125009059906,-0.147537499666214,-0.31349998712539673
0.16395001113414764,5.44605016708374,8.60205078125,-0.013612499460577965,-0.17682500183582306,-0.30373749136924744
0.018000001087784767,5.48205041885376,8.463000297546387,0.06696250289678574,-0.27953749895095825,-0.2732124924659729
0.15000000596046448,5.359950065612793,8.245050430297852,0.11343749612569809,-0.2843500077724457,-0.2586374878883362
0.2959500253200531,5.3620500564575195,8.154000282287598,0.11343749612569809,-0.15853749215602875,-0.2854500114917755
0.208950012922287,5.19195032119751,7.98900032043457,0.12443749606609344,0.03684999793767929,-0.3489750027656555
-0.4600500166416168,5.341050148010254,7.6870503425598145,0.08772499859333038,0.12127500027418137,-0.4064500033855438
-0.7860000133514404,5.473050117492676,7.636950492858887,0.04124999791383743,0.11137499660253525,-0.4002625048160553
-1.0270500183105469,5.404950141906738,7.926000595092773,-0.04427500069141388,0.02708750031888485,-0.32573750615119934
-1.0660500526428223,5.322000026702881,8.452950477600098,-0.11013749986886978,-0.15853749215602875,-0.24268749356269836
-1.0849500894546509,5.230950355529785,8.917950630187988,-0.15056249499320984,-0.24529999494552612,-0.1621125042438507
-0.8839500546455383,4.972050189971924,9.16200065612793,-0.14932499825954437,-0.1097249984741211,-0.09363749623298645
-0.8239500522613525,4.821000099182129,9.223950386047363,-0.12484999746084213,0.011274999938905239,-0.08016250282526016
-1.1299500465393066,4.6870503425598145,9.18600082397461,-0.01732499897480011,0.17379999160766602,-0.06063750013709068
-1.5810000896453857,4.912050247192383,8.664000511169434,0.12677499651908875,0.10037499666213989,-0.026399999856948853
-1.6930500268936157,5.013000011444092,7.957950592041016,0.22824999690055847,0.011274999938905239,-0.006874999962747097
-1.759950041770935,5.10105037689209,7.515000343322754,0.22206249833106995,-0.1060125008225441,-0.017875000834465027
-1.8030000925064087,5.221050262451172,7.35705041885376,0.13901250064373016,-0.15606249868869781,-0.0471624992787838
-1.5949500799179077,5.050950050354004,7.62000036239624,0.10243749618530273,-0.11096250265836716,-0.06792499870061874
-1.576050043106079,5.242950439453125,7.294050216674805,0.06324999779462814,-0.1317249983549118,-0.1083500012755394
-1.492050051689148,5.386050224304199,7.294050216674805,-0.04661250114440918,-0.17077499628067017,-0.19139999151229858
-1.2910500764846802,5.188050270080566,7.909950256347656,-0.17613749206066132,-0.1755875051021576,-0.33316248655319214
-1.4820001125335693,4.954950332641602,8.723999977111816,-0.23485000431537628,-0.05843750014901161,-0.46502500772476196
-2.124000072479248,4.965000152587891,9.307950019836426,-0.17737500369548798,0.047987498342990875,-0.4992625117301941
-2.413950204849243,4.98900032043457,9.253050804138184,-0.11261250078678131,0.06875000149011612,-0.46626248955726624
-2.5570502281188965,4.9360504150390625,9.070950508117676,-0.03932499885559082,0.06132499873638153,-0.4064500033855438
-2.425950050354004,4.966950416564941,8.178000450134277,0.05348749831318855,-0.04743750020861626,-0.2574000060558319
-1.8370500802993774,5.08905029296875,7.72005033493042,0.0364375002682209,-0.12430000305175781,-0.14739999175071716
-1.1380500793457031,4.98900032043457,7.861950397491455,0.004674999974668026,-0.20006249845027924,-0.1742125004529953
-1.3339500427246094,5.094000339508057,8.082000732421875,0.04124999791383743,-0.19648750126361847,-0.29397499561309814
-1.5400500297546387,5.209050178527832,8.034000396728516,0.0644875019788742,-0.17682500183582306,-0.3367374837398529
-1.7959500551223755,5.1160502433776855,7.809000492095947,0.10243749618530273,-0.09624999761581421,-0.3452624976634979
-1.9440001249313354,5.164050102233887,7.636950492858887,0.0364375002682209,-0.09624999761581421,-0.2377374917268753
-1.870050072669983,5.319000244140625,8.161050796508789,0.040150001645088196,-0.07796250283718109,-0.16321249306201935
-1.2880500555038452,5.190000057220459,8.214000701904297,0.10848750174045563,-0.027775000780820847,-0.15468749403953552
-1.281000018119812,5.209050178527832,7.929000377655029,0.10724999755620956,-0.08648750185966492,-0.23663750290870667
-1.741050124168396,5.215950012207031,7.845000267028809,0.05101250112056732,-0.179299995303154,-0.2414499968290329
-1.699950098991394,5.389050483703613,7.773000240325928,-0.018562499433755875,-0.20253749191761017,-0.17311249673366547
-1.1620500087738037,5.535000324249268,7.888050556182861,-0.06503749638795853,-0.1023000031709671,-0.17063750326633453
-0.9100500345230103,5.4370503425598145,8.002950668334961,-0.07837499678134918,-0.04619999974966049,-0.30140000581741333
-1.6260000467300415,5.547000408172607,8.11305046081543,-0.06984999775886536,-0.15606249868869781,-0.4345000088214874
-2.0590500831604004,5.596950054168701,8.218950271606445,-0.045375000685453415,-0.3955875039100647,-0.4137375056743622
-1.855950117111206,5.635050296783447,8.197050094604492,0.009487500414252281,-0.5763999819755554,-0.30744999647140503
-1.4659500122070312,5.737950325012207,8.07705020904541,0.02419999986886978,-0.5946875214576721,-0.24639999866485596
-1.1400001049041748,5.5849504470825195,8.355000495910645,0.005912499967962503,-0.4908750057220459,-0.27197501063346863
-0.9409500360488892,5.491950035095215,8.368950843811035,-0.008799999952316284,-0.4138749837875366,-0.3539249897003174
-0.89805006980896,5.238000392913818,8.367000579833984,-0.06984999775886536,-0.4529249966144562,-0.46626248955726624
-1.128000020980835,4.933950424194336,8.67300033569336,-0.18232500553131104,-0.551925003528595,-0.55673748254776
-1.2499500513076782,4.813950061798096,9.022950172424316,-0.2311374992132187,-0.5812125205993652,-0.565262496471405
-1.2480000257492065,4.560000419616699,9.969000816345215,-0.20542499423027039,-0.5006374716758728,-0.5005000233650208
-0.9529500603675842,4.246950149536133,10.036050796508789,0.014437500387430191,-0.3003000020980835,-0.381974995136261
-0.8070000410079956,4.195950031280518,9.708000183105469,0.15248750150203705,-0.18906250596046448,-0.31349998712539673
-0.7210500240325928,4.432950019836426,8.812050819396973,0.36506250500679016,-0.05224999785423279,-0.19016249477863312
-0.5800500512123108,4.627050399780273,8.40000057220459,0.4188250005245209,-0.01924999989569187,-0.1498750001192093
0.04200000315904617,4.441050052642822,7.527000427246094,0.40658751130104065,0.014987500384449959,-0.171875
0.7720500230789185,4.363950252532959,8.343000411987305,-0.22990000247955322,-0.22206249833106995,-0.6275500059127808
-0.06300000101327896,4.444950103759766,8.5420503616333,-0.29589998722076416,-0.18424999713897705,-0.727649986743927
-0.47700002789497375,4.414050102233887,8.611050605773926,-0.2971374988555908,-0.18906250596046448,-0.6641250252723694
-0.34995001554489136,4.510050296783447,8.773950576782227,-0.26413750648498535,-0.24901250004768372,-0.5347374677658081
-0.022050000727176666,4.564949989318848,9.195000648498535,-0.18342499434947968,-0.28929999470710754,-0.46873748302459717
0.18105000257492065,4.394999980926514,9.127950668334961,-0.05156249925494194,-0.2685374915599823,-0.49431249499320984
-0.5820000171661377,4.783050060272217,8.80305004119873,-0.10408750176429749,-0.3601124882698059,-0.3465000092983246
-0.16305001080036163,4.71405029296875,9.12600040435791,-0.13089999556541443,-0.4090625047683716,-0.28792500495910645
-0.028950002044439316,4.560000419616699,9.583050727844238,-0.08084999769926071,-0.3760625123977661,-0.2989250123500824
-0.2179500162601471,4.600950241088867,9.478050231933594,0.0424874983727932,-0.27582499384880066,-0.30250000953674316
-0.32100000977516174,4.699050426483154,9.25005054473877,0.0999625027179718,-0.17682500183582306,-0.2854500114917755
-0.3450000286102295,4.921950340270996,8.616000175476074,0.15125000476837158,-0.0364375002682209,-0.2316875010728836
-0.27105000615119934,5.022000312805176,8.359950065612793,0.12443749606609344,-0.0057749999687075615,-0.20845000445842743
-0.5410500168800354,4.984050273895264,8.557950019836426,0.12925000488758087,-0.0387750007212162,-0.20116250216960907
-0.661050021648407,4.978950023651123,8.569950103759766,0.15619999170303345,-0.0681999996304512,-0.1681624948978424
-0.5850000381469727,4.929000377655029,8.392950057983398,0.20624999701976776,-0.08524999767541885,-0.05582499876618385
-0.5800500512123108,4.965000152587891,8.278050422668457,0.25382500886917114,-0.05596249923110008,0.02241249941289425
-0.38805001974105835,4.785000324249268,7.668000221252441,0.27953749895095825,0.02227500081062317,0.08717499673366547
-0.5320500135421753,4.809000015258789,6.850950241088867,0.17820000648498535,0.10903749614953995,0.1274625062942505
-0.17805001139640808,4.872000217437744,7.108050346374512,-0.02227500081062317,0.008799999952316284,0.17393749952316284
0.40605002641677856,4.978950023651123,8.146950721740723,-0.14313749969005585,-0.007012499962002039,0.11288750171661377
0.47805002331733704,4.8670501708984375,9.211950302124023,-0.12113749980926514,0.11508750170469284,-0.015399999916553497
-0.05100000277161598,4.6780500411987305,9.396000862121582,-0.045375000685453415,0.15537500381469727,-0.09487500041723251
-0.5530500411987305,4.7659502029418945,9.379950523376465,-0.018562499433755875,0.16513749957084656,-0.0789249986410141
-0.9820500612258911,4.942950248718262,9.331950187683105,-0.0002749999985098839,0.12361250072717667,0.06641250103712082
-0.6420000195503235,5.022000312805176,9.373050689697266,0.011962499469518661,0.0943249985575676,0.23746250569820404
-0.09405000507831573,5.029950141906738,9.41100025177002,0.03148749843239784,0.06984999775886536,0.3022249937057495
0.09195000678300858,5.058000087738037,9.459000587463379,0.05596249923110008,0.07356250286102295,0.2862749993801117
0.21705001592636108,4.986000061035156,9.1399507522583,0.13901250064373016,0.10408750176429749,0.18369999527931213
-0.2950500249862671,4.885950088500977,8.500950813293457,0.20748749375343323,0.1480875015258789,0.0798875018954277
-0.9720000624656677,5.010000228881836,8.110950469970703,0.2172500044107437,0.16885000467300415,0.043175000697374344
-1.2499500513076782,4.966950416564941,8.034000396728516,0.19772499799728394,0.12361250072717667,0.04441250115633011
-1.2739500999450684,4.909950256347656,8.074950218200684,0.18548749387264252,0.07479999959468842,0.038362499326467514
-1.1929500102996826,4.849950313568115,8.307000160217285,0.16224999725818634,-0.04853750020265579,-0.002062499988824129
-1.3669500350952148,4.918950080871582,8.676000595092773,0.1634874939918518,-0.1658249944448471,-0.1046374961733818
-1.588050127029419,4.849950313568115,8.563050270080566,0.2050125002861023,-0.195250004529953,-0.2316875010728836
-1.7479500770568848,4.836000442504883,8.27595043182373,0.20253749191761017,-0.16101250052452087,-0.2793999910354614
-2.0350501537323,4.857000350952148,7.9360504150390625,0.11701250076293945,-0.020487500354647636,-0.29768750071525574
-2.086050033569336,4.873950004577637,8.03700065612793,0.0644875019788742,0.03451250120997429,-0.2866874933242798
-1.9830000400543213,4.975050449371338,8.161050796508789,-0.016087500378489494,0.013749999925494194,-0.27816250920295715
-1.7310000658035278,4.972050189971924,8.5489501953125,-0.03203750029206276,-0.08030000329017639,-0.3111625015735626
-1.9009500741958618,4.945950031280518,8.104050636291504,0.0364375002682209,-0.0742499977350235,-0.34773749113082886
-2.2320001125335693,5.185050010681152,7.843050479888916,0.040150001645088196,-0.06324999779462814,-0.31226250529289246
-2.1529500484466553,5.15595006942749,7.873950481414795,0.04496249929070473,-0.06201250106096268,-0.23416249454021454
-1.971000075340271,5.278950214385986,7.7440505027771,0.05472499877214432,-0.09019999951124191,-0.1779250055551529
-1.7740501165390015,5.439000129699707,7.62000036239624,0.049912501126527786,-0.10477499663829803,-0.15468749403953552
-1.5589500665664673,5.4559502601623535,7.723050594329834,0.03519999980926514,-0.1340624988079071,-0.1681624948978424
-1.4440500736236572,5.464950084686279,7.893000602722168,0.030249999836087227,-0.17572499811649323,-0.2059749960899353
-1.423050045967102,5.44605016708374,8.02695083618164,0.027912499383091927,-0.1732500046491623,-0.2536875009536743
-1.492050051689148,5.4370503425598145,8.09595012664795,0.037675000727176666,-0.1280124932527542,-0.2891624867916107
-1.4659500122070312,5.4340500831604,8.022000312805176,0.04124999791383743,-0.1060125008225441,-0.31968748569488525
-1.5690001249313354,5.3959503173828125,8.082000732421875,0.037675000727176666,-0.11701250076293945,-0.33550000190734863
-1.7149500846862793,5.38200044631958,8.118000030517578,0.01924999989569187,-0.20253749191761017,-0.3282124996185303
-1.801050066947937,5.3620500564575195,8.211000442504883,0.02914999984204769,-0.27582499384880066,-0.2891624867916107
-1.7509500980377197,5.416950225830078,8.235000610351562,0.037675000727176666,-0.30153748393058777,-0.27197501063346863
-1.4850000143051147,5.371950149536133,8.29800033569336,0.04743750020861626,-0.267300009727478,-0.254925012588501
-1.4869500398635864,5.367000102996826,8.380949974060059,0.06091250106692314,-0.23801249265670776,-0.23663750290870667
-1.53000009059906,5.4559502601623535,8.452950477600098,0.07672499865293503,-0.2330625057220459,-0.2134000062942505
-1.3870500326156616,5.590050220489502,8.332950592041016,0.09624999761581421,-0.3185875117778778,-0.16940000653266907
-1.225950002670288,5.614050388336182,8.403000831604004,0.0999625027179718,-0.38458749651908875,-0.1621125042438507
-0.9889500737190247,5.57295036315918,8.43600082397461,0.09624999761581421,-0.521399974822998,-0.19016249477863312
-0.9529500603675842,5.57295036315918,8.458050727844238,0.09501250088214874,-0.5543999671936035,-0.2096875011920929
-0.7519500255584717,5.431950092315674,8.326050758361816,0.09501250088214874,-0.5384500026702881,-0.25244998931884766
-0.5290500521659851,5.1660003662109375,8.017050743103027,0.0719124972820282,-0.4651624858379364,-0.3306874930858612
-0.5130000114440918,5.029950141906738,8.034000396728516,-0.028324998915195465,-0.45058751106262207,-0.44302499294281006
-0.6520500183105469,5.005950450897217,8.26395034790039,-0.08937499672174454,-0.47616249322891235,-0.49431249499320984
-1.0230000019073486,5.085000038146973,8.82194995880127,-0.17008750140666962,-0.5079249739646912,-0.5310249924659729
-1.0350000858306885,4.90500020980835,9.373050689697266,-0.11756250262260437,-0.4408249855041504,-0.4760249853134155
-0.41895002126693726,4.639050006866455,9.255000114440918,0.26606249809265137,-0.3698749840259552,-0.33797499537467957
-0.2370000183582306,4.648950099945068,8.499000549316406,0.4298250079154968,-0.4138749837875366,-0.35749998688697815
-0.19200000166893005,4.5960001945495605,7.696950435638428,0.4823499917984009,-0.38940000534057617,-0.4039750099182129
-0.26805001497268677,4.717950344085693,7.018950462341309,0.3735874891281128,-0.4358749985694885,-0.46131250262260437
-0.2350500077009201,4.897950172424316,6.910950183868408,0.11577499657869339,-0.42611250281333923,-0.4735499918460846
-0.11505000293254852,4.915050029754639,7.1509504318237305,-0.01979999989271164,-0.3821125030517578,-0.46873748302459717
0.17595000565052032,4.873950004577637,7.771050453186035,-0.2079000025987625,-0.2611125111579895,-0.4809750020503998
0.36705002188682556,4.840050220489502,8.259000778198242,-0.29589998722076416,-0.16224999725818634,-0.5420249700546265
0.4900500178337097,4.584000110626221,8.503050804138184,-0.3264249861240387,-0.06929999589920044,-0.631262481212616
0.1660500019788742,4.371000289916992,8.761950492858887,-0.30937498807907104,0.03932499885559082,-0.6740249991416931
-0.5850000381469727,4.788000106811523,9.219000816345215,-0.19208750128746033,0.1260875016450882,-0.5908374786376953
-0.6660000085830688,4.8949503898620605,9.133049964904785,-0.013612499460577965,0.10903749614953995,-0.44673749804496765
-0.41895002126693726,4.924050331115723,8.973000526428223,0.13653749227523804,-0.01677500084042549,-0.3221625089645386
-0.11505000293254852,5.092050075531006,8.28795051574707,0.24777500331401825,-0.08030000329017639,-0.22921249270439148
0.039000000804662704,5.152050018310547,7.929000377655029,0.26001250743865967,-0.04496249929070473,-0.20721249282360077
0.2070000171661377,5.046000003814697,7.570050239562988,0.20006249845027924,0.05156249925494194,-0.21821250021457672
-0.04305000230669975,5.128050327301025,7.510050296783447,0.09019999951124191,0.08703749626874924,-0.24763749539852142
-0.34005001187324524,5.491950035095215,7.941000461578369,-0.0002749999985098839,0.12732499837875366,-0.19139999151229858
-0.11805000901222229,5.440950393676758,8.158950805664062,-0.01484999991953373,0.21285000443458557,-0.1143999993801117
-0.039000000804662704,5.365050315856934,8.226000785827637,0.009487500414252281,0.26413750648498535,-0.10216250270605087
0.00795000046491623,5.314050197601318,8.211000442504883,0.04124999791383743,0.2690874934196472,-0.10339999943971634
-0.12000000476837158,5.257050037384033,7.858950138092041,0.0644875019788742,0.1335124969482422,-0.12058749794960022
-0.37905001640319824,5.527950286865234,7.861950397491455,0.04496249929070473,0.07479999959468842,-0.09487500041723251
-0.36705002188682556,5.491950035095215,8.30505084991455,0.0681999996304512,0.22384999692440033,-0.05335000157356262
-0.4459500312805176,5.511000156402588,8.290050506591797,0.11467500030994415,0.3044250011444092,-0.09735000133514404
-1.0009500980377197,5.731050491333008,8.050950050354004,0.12553749978542328,0.3326124846935272,-0.15592500567436218
-1.2190500497817993,5.784000396728516,8.029050827026367,0.07796250283718109,0.21779999136924744,-0.15468749403953552
-0.8839500546455383,5.427000045776367,8.27400016784668,0.0681999996304512,0.04908749833703041,-0.1106875017285347
-0.987000048160553,5.389050483703613,8.098950386047363,0.11096250265836716,-0.004537499975413084,-0.0765874981880188
-1.26705002784729,5.544000148773193,7.737000465393066,0.12443749606609344,0.10903749614953995,-0.020349999889731407
-1.225950002670288,5.379000186920166,7.468950271606445,0.07672499865293503,0.23237499594688416,0.04688749834895134
-1.3990501165390015,5.793000221252441,7.560000419616699,-0.02708750031888485,0.3106124997138977,0.11646249890327454
-1.5420000553131104,5.527950286865234,8.61405086517334,-0.06861250102519989,0.32284998893737793,0.20074999332427979
-1.5949500799179077,5.551950454711914,8.764050483703613,-0.016087500378489494,0.052799999713897705,0.2484624981880188
-2.083050012588501,5.82705020904541,8.86305046081543,-0.04427500069141388,-0.2012999951839447,0.30346250534057617
-2.146050214767456,5.616000175476074,9.700950622558594,0.008387500420212746,-0.10848750174045563,0.3950375020503998
-1.894050121307373,5.317050457000732,9.447000503540039,0.1989624947309494,0.003987499978393316,0.426800012588501
-2.0789999961853027,5.3620500564575195,8.33595085144043,0.3320625126361847,-0.09377499669790268,0.4035624861717224
-2.512050151824951,5.623050212860107,7.051950454711914,0.30153748393058777,-0.39806249737739563,0.37056249380111694
-2.8540501594543457,5.848050117492676,6.490050315856934,0.11219999939203262,-0.6606875061988831,0.35103750228881836
-2.6509501934051514,5.86305046081543,6.58305025100708,-0.0015124999918043613,-0.7497875094413757,0.35227498412132263
-1.9489500522613525,5.653950214385986,7.038000106811523,-0.18342499434947968,-0.862262487411499,0.28751251101493835
-1.7290500402450562,5.616000175476074,7.627050399780273,-0.25437501072883606,-0.8683124780654907,0.14698749780654907
-1.76295006275177,5.451000213623047,8.380949974060059,-0.2274249941110611,-0.8977375030517578,0.0541750006377697
-1.6330500841140747,5.386050224304199,8.628000259399414,-0.18713749945163727,-0.9257875084877014,0.015124999918043613
-1.1020500659942627,5.104050159454346,8.419950485229492,-0.13708749413490295,-0.8793125152587891,-0.09611249715089798
-0.7279500365257263,5.073000431060791,8.40000057220459,-0.18466250598430634,-0.6117374897003174,-0.2059749960899353
-2.026050090789795,5.608950138092041,7.384950160980225,0.1060125008225441,0.7015249729156494,-0.03506249934434891
-1.746000051498413,5.652000427246094,7.491000175476074,0.08896250277757645,0.523187518119812,0.07864999771118164
-1.0920000076293945,5.473050117492676,6.898950099945068,0.06201250106096268,0.2946625053882599,0.03464999794960022
-0.7590000629425049,5.164050102233887,6.358050346374512,-0.06132499873638153,0.24832500517368317,-0.12168750166893005
-1.4080500602722168,5.251950263977051,6.298050403594971,-0.2763749957084656,0.37290000915527344,-0.2059749960899353
-2.176950216293335,5.542050361633301,7.218000411987305,-0.43271249532699585,0.4571875035762787,-0.1143999993801117
-2.2099502086639404,5.575050354003906,7.680000305175781,-0.4717625081539154,0.37537500262260437,-0.024062499403953552
-1.5250500440597534,5.451000213623047,8.266050338745117,-0.49018749594688416,0.06132499873638153,0.13598750531673431
-1.1329500675201416,5.341050148010254,8.332950592041016,-0.46447500586509705,-0.06696250289678574,0.1751749962568283
-0.8959500193595886,5.305050373077393,8.503050804138184,-0.41923749446868896,-0.13653749227523804,0.1812250018119812
-0.8190000653266907,5.413050174713135,9.199950218200684,-0.31418749690055847,-0.26358750462532043,0.11288750171661377
-0.8929500579833984,5.439000129699707,8.29995059967041,-0.40094998478889465,-0.7376874685287476,0.030937500298023224
-0.9820500612258911,5.580000400543213,8.35004997253418,-0.5439500212669373,-0.81454998254776,-0.026399999856948853
-0.7260000109672546,5.188050270080566,7.857000350952148,-0.6807624697685242,-0.9196000099182129,0.028462499380111694
-0.20595000684261322,5.188050270080566,7.510050296783447,-0.7577624917030334,-0.5861625075340271,0.06764999777078629
0.23295001685619354,5.074950218200684,9.391950607299805,-0.6428124904632568,0.03698749840259552,0.07741250097751617
0.09000000357627869,4.648950099945068,10.285050392150879,-0.35571250319480896,0.36918750405311584,0.01993750035762787
-0.15600000321865082,4.6870503425598145,10.39995002746582,0.015675000846385956,0.5720000267028809,-0.05335000157356262
-0.20595000684261322,4.62000036239624,10.95300006866455,0.24172499775886536,0.2593249976634979,-0.1498750001192093
0.19305001199245453,4.258950233459473,10.408950805664062,0.2563000023365021,-0.5152124762535095,-0.3049750030040741
0.583050012588501,3.828000068664551,8.511000633239746,0.21601249277591705,-0.9233124852180481,-0.4235000014305115
-0.35895001888275146,4.2109503746032715,8.653950691223145,0.22577500343322754,-0.21230000257492065,-0.2671625018119812
-0.6040500402450562,4.279950141906738,8.920050621032715,0.2330625057220459,-0.0009624999947845936,-0.15344999730587006
-0.08700000494718552,3.865950107574463,8.704950332641602,0.20624999701976776,0.2628999948501587,-0.016637500375509262
0.37005001306533813,3.8710501194000244,8.6089506149292,0.1634874939918518,0.34485000371932983,-0.03382499888539314
0.35295000672340393,3.957000255584717,8.605950355529785,0.14396250247955322,0.2788499891757965,-0.12911249697208405
0.22605000436306,4.113000392913818,8.59695053100586,0.12443749606609344,0.040562499314546585,-0.21092499792575836
0.46095001697540283,4.129050254821777,8.344950675964355,0.05843750014901161,-0.20006249845027924,-0.23897500336170197
0.48705002665519714,4.0410003662109375,8.082000732421875,-0.03203750029206276,-0.147537499666214,-0.2451625019311905
0.3049500286579132,4.052999973297119,8.628000259399414,-0.055275000631809235,0.09927500039339066,-0.1999250054359436
0.4440000355243683,4.0980000495910645,8.439000129699707,-0.06379999965429306,0.08332499861717224,-0.2451625019311905
0.7840500473976135,4.432950019836426,8.319000244140625,0.10477499663829803,0.0625625029206276,-0.04235000163316727
0.6619500517845154,4.462050437927246,8.259000778198242,0.09748750180006027,0.20308749377727509,-0.09611249715089798
0.1879500150680542,4.720950126647949,8.42400074005127,0.013199999928474426,0.25066250562667847,-0.15839999914169312
0.0990000069141388,4.921950340270996,8.656949996948242,-0.09556250274181366,0.07727500051259995,-0.15592500567436218
0.1279500126838684,4.675050258636475,8.913000106811523,-0.11384999752044678,-0.009487500414252281,-0.1424500048160553
0.15000000596046448,4.744950294494629,8.67300033569336,0.1036750003695488,0.060087498277425766,0.03464999794960022
0.4440000355243683,4.828050136566162,8.331000328063965,0.12677499651908875,0.11756250262260437,0.05912499874830246
0.4819500148296356,4.966950416564941,8.173049926757812,0.07548750191926956,0.0943249985575676,0.0028874999843537807
0.11400000751018524,5.008050441741943,8.392950057983398,0.009487500414252281,0.03932499885559082,-0.04963750019669533
0.031950000673532486,4.753950119018555,8.487000465393066,0.007149999961256981,0.02708750031888485,-0.022824998944997787
0.16095000505447388,4.623000144958496,8.317049980163574,0.02419999986886978,0.15661250054836273,0.013887500390410423
0.21405000984668732,4.708950042724609,8.167950630187988,0.025437500327825546,0.33508750796318054,0.02241249941289425
-0.08205000311136246,4.891050338745117,8.01300048828125,-0.01979999989271164,0.5794249773025513,-0.010587500408291817
-0.7309500575065613,5.118000030517578,8.701950073242188,-0.07232499867677689,0.7357624769210815,0.026124998927116394
-1.0009500980377197,4.833000183105469,9.163949966430664,-0.08579999953508377,0.41690000891685486,0.11769999563694
-1.1590501070022583,4.972050189971924,9.079950332641602,-0.06613750010728836,0.11027500033378601,0.2069374918937683
-1.0489500761032104,5.080050468444824,9.72705078125,-0.05884999781847,-0.11824999749660492,0.3144625127315521
-0.8050500154495239,5.154000282287598,9.646050453186035,-0.011274999938905239,-0.2917749881744385,0.37674999237060547
-0.45795002579689026,4.735050201416016,9.171000480651855,0.11096250265836716,-0.14024999737739563,0.37908750772476196
-0.8500500321388245,4.465050220489502,9.18600082397461,0.16830000281333923,-0.010724999941885471,0.359562486410141
-1.8130500316619873,4.897950172424316,8.383950233459473,0.2307250052690506,0.10161250084638596,0.3975124955177307
-1.8370500802993774,4.930950164794922,8.12505054473877,0.2110625058412552,0.1993750035762787,0.4610374867916107
-1.6930500268936157,4.761000156402588,8.247000694274902,0.1695374995470047,0.21285000443458557,0.4255625009536743
-1.7190001010894775,4.749000072479248,8.580000877380371,0.14877499639987946,0.14079999923706055,0.3119874894618988
-1.7239500284194946,4.207950115203857,8.767050743103027,0.18796250224113464,0.08332499861717224,0.20817500352859497
-1.5810000896453857,3.8869502544403076,8.314050674438477,0.30277499556541443,0.10779999941587448,0.16417500376701355
-1.8820500373840332,4.8949503898620605,7.254000186920166,0.36258751153945923,0.12732499837875366,0.17998750507831573
-1.2930001020431519,5.527950286865234,6.447000503540039,0.11219999939203262,0.14079999923706055,0.17874999344348907
-0.7860000133514404,5.00100040435791,6.475050449371338,-0.02956249937415123,0.1335124969482422,0.10064999759197235
-0.7710000276565552,4.2109503746032715,6.322050094604492,-0.29961249232292175,0.056512501090765,-0.13392500579357147
-1.810050129890442,4.375950336456299,6.454050540924072,-0.5707625150680542,-0.04977500066161156,-0.19139999151229858
-2.275050163269043,4.383000373840332,7.012050151824951,-0.7565249800682068,-0.04853750020265579,0.01993750035762787
-2.2129499912261963,4.189050197601318,7.570050239562988,-0.7748125195503235,0.03932499885559082,0.14093749225139618
-1.6050000190734863,4.108050346374512,8.202000617980957,-0.6172375082969666,0.3081375062465668,0.34375
-1.1620500087738037,4.314000129699707,7.840050220489502,-0.3984749913215637,0.6429499983787537,0.44385001063346863
-1.1779500246047974,4.429050445556641,8.455950736999512,-0.26785001158714294,1.0020999908447266,0.3975124955177307
-1.9210500717163086,4.753950119018555,9.19800090789795,-0.08703749626874924,1.2171499729156494,0.30346250534057617
-2.6920502185821533,4.860000133514404,8.934000015258789,0.16472500562667847,1.2647249698638916,0.2679874897003174
-3.1300501823425293,5.1160502433776855,8.062950134277344,0.31735000014305115,1.1108624935150146,0.3485625088214874
-2.739000082015991,5.073000431060791,7.741950511932373,0.29301249980926514,0.8896250128746033,0.4218499958515167
-1.7839500904083252,4.8670501708984375,8.010000228881836,0.14643749594688416,0.6392375230789185,0.3302749991416931
-1.6360501050949097,5.062950134277344,7.945950508117676,0.0742499977350235,0.650237500667572,0.2410375028848648
-1.9519500732421875,5.319000244140625,8.320950508117676,0.007149999961256981,1.0791000127792358,0.06146249920129776
-2.410950183868408,5.398050308227539,7.546050548553467,-0.007562499959021807,1.4650624990463257,-0.10216250270605087
-2.470950126647949,5.3359503746032715,6.195000171661377,-0.37523749470710754,1.4737249612808228,-0.19139999151229858
-2.8999500274658203,5.314050197601318,8.950950622558594,-0.6550499796867371,0.9446250200271606,-0.3282124996185303
-4.423050403594971,5.595000267028809,12.09000015258789,-0.28971248865127563,0.4437125027179718,-0.254925012588501
-4.723950386047363,5.26200008392334,11.068050384521484,0.30277499556541443,-0.17682500183582306,0.023649999871850014
