accX,accY,accZ,gyroX,gyroY,gyroZ
-2.338984251022339,6.751049995422363,5.761019706726074,-1.4387303590774536,-1.4644291400909424,-0.13728190958499908
-1.0773683786392212,6.131010055541992,6.768996238708496,-1.4866658449172974,-1.3291444778442383,-0.18521739542484283
-0.5817549824714661,5.9321064949035645,6.792924404144287,-1.5846673250198364,-1.4058412313461304,-0.3864132761955261
-3.4118659496307373,5.884250164031982,7.300501823425293,-2.1501729488372803,-2.5517656803131104,-0.4418053925037384
-2.118844509124756,5.2737812995910645,7.592426300048828,-2.305696964263916,-2.6913111209869385,-0.08828118443489075
-0.7731808423995972,4.749454021453857,7.765008449554443,-2.278000831604004,-2.290916681289673,0.10239552706480026
-0.059820566326379776,4.2825541496276855,7.946863174438477,-2.2513699531555176,-1.4718856811523438,0.25139498710632324
-0.368793785572052,4.330410957336426,8.538188934326172,-2.2598917484283447,-0.7668346166610718,0.45378926396369934
-1.355234980583191,4.859523773193359,10.350752830505371,-2.2247390747070312,-0.25032976269721985,0.6668358445167542
-1.2137593030929565,4.560420989990234,11.44247817993164,-1.9606945514678955,0.40998154878616333,0.9500547051429749
1.3384851217269897,2.719143867492676,11.16221809387207,-1.7455174922943115,0.6133078932762146,1.0842740535736084
3.1387851238250732,0.8590233325958252,10.24038314819336,-1.5495145320892334,0.716635525226593,0.7552502155303955
3.2967114448547363,0.23389841616153717,10.21884822845459,-1.3993167877197266,0.4579170346260071,0.17802706360816956
-0.46450668573379517,3.8132619857788086,11.629117965698242,-0.3918725848197937,0.8913337588310242,-0.34287187457084656
-0.2826521694660187,0.9308080077171326,12.189337730407715,0.46337637305259705,0.7922670841217041,-0.4183702766895294
-0.16031911969184875,-0.3693920075893402,11.71286678314209,0.8445966243743896,0.594133734703064,-0.48761042952537537
-1.6806588172912598,2.5516462326049805,11.298908233642578,1.4399287700653076,0.38441595435142517,-0.29174068570137024
-0.7109674215316772,4.467100620269775,10.063314437866211,2.1439146995544434,1.1203588247299194,0.30359140038490295
1.6926229000091553,3.2243285179138184,8.15982437133789,2.3642847537994385,1.473883032798767,0.31530898809432983
1.781157374382019,3.2793633937835693,4.662116050720215,1.1810771226882935,-0.41863659024238586,-0.45884913206100464
-0.9433703422546387,5.278566837310791,5.782555103302002,0.703985869884491,-0.3387441039085388,-0.701722264289856
-2.3270199298858643,4.196412563323975,7.698009490966797,0.10013190656900406,0.4355471432209015,-0.26830556988716125
-0.7974081635475159,3.4351959228515625,10.36510944366455,-0.18734785914421082,1.1129021644592285,0.023568280041217804
-1.1635099649429321,4.335196495056152,10.005887031555176,0.01810896210372448,2.1853256225585938,0.0011983871227130294
-2.200200319290161,4.7590250968933105,9.000303268432617,0.07989247888326645,2.559089183807373,0.011850717477500439
-3.2105698585510254,5.139782905578613,7.7339019775390625,-0.13728190958499908,3.055354595184326,0.3504616618156433
0.27308088541030884,2.9515466690063477,11.971590995788574,-0.24060951173305511,2.9500296115875244,0.3845491111278534
-2.3560330867767334,3.9260237216949463,11.044970512390137,0.4452674090862274,2.0319318771362305,-0.21397867798805237
-3.9864425659179688,4.921737194061279,9.445667266845703,0.633680522441864,1.4760135412216187,-0.18202169239521027
-3.957728624343872,4.457529544830322,8.116753578186035,0.7465952038764954,0.8178326487541199,0.054460037499666214
-3.512364625930786,4.689633369445801,7.17368221282959,0.6848116517066956,0.020106272771954536,0.2673735022544861
-3.3831520080566406,4.897809028625488,6.778567314147949,0.596397340297699,-0.2460688352584839,0.3195699155330658
-3.215355396270752,5.087141036987305,6.342774391174316,0.4665720760822296,-0.3536573648452759,0.3419398069381714
-3.0717861652374268,5.335994720458984,6.127420425415039,0.2876129150390625,-0.26950395107269287,0.3515268862247467
-2.7484560012817383,5.479863166809082,7.513463020324707,-0.03302222490310669,0.21930484473705292,0.3280917704105377
-2.9593234062194824,5.355136871337891,8.76102066040039,0.06497921794652939,0.5101134777069092,0.3334179222583771
-3.1244282722473145,5.759823322296143,8.45444107055664,0.22689463198184967,0.3695026934146881,0.3621792197227478
-2.446960210800171,5.972784519195557,7.204789161682129,0.4665720760822296,-0.07989247888326645,0.3440702557563782
-2.307877540588379,5.738287925720215,6.412166595458984,0.4378107786178589,-0.18961147964000702,0.18548369407653809
-3.057429075241089,5.685645580291748,6.711568355560303,0.26098209619522095,0.30026257038116455,0.0555252730846405
-4.249652862548828,5.333601474761963,6.819245338439941,0.20878566801548004,0.7390053868293762,0.044872939586639404
-4.225724697113037,5.467898845672607,6.529414653778076,0.14593692123889923,0.9062470197677612,0.20146219432353973
-4.048655986785889,5.367101192474365,6.591628074645996,0.10013190656900406,0.9584434032440186,0.23754696547985077
-4.012763500213623,5.3312087059021,6.527021884918213,0.0745663121342659,0.9872047305107117,0.25139498710632324
-4.393222332000732,5.19960355758667,6.438487529754639,0.01171756349503994,0.9243559837341309,0.2865476906299591
-4.639982223510742,5.144568920135498,6.503093719482422,-0.08308817446231842,0.977617621421814,0.35578784346580505
-4.620839595794678,5.151747226715088,6.460022926330566,-0.23847904801368713,1.3332723379135132,0.2769605815410614
-5.769992828369141,5.072783946990967,4.554438591003418,-0.44939517974853516,0.9413996934890747,0.2332860380411148
-6.782754898071289,5.158925533294678,7.41535758972168,-0.7645710110664368,0.5920032262802124,0.5912043452262878
-4.805087089538574,5.115854740142822,8.883054733276367,-0.6177020072937012,0.6452649235725403,0.895727813243866
-3.536292791366577,5.230710506439209,9.029017448425293,-0.5111786723136902,0.8678985834121704,0.9095758199691772
-3.0215368270874023,5.479863166809082,8.533403396606445,-0.3886769115924835,0.9062470197677612,0.8180989623069763
-3.177070379257202,5.884250164031982,7.412964344024658,-0.297066867351532,0.701722264289856,0.6924014687538147
-4.446163654327393,5.874678611755371,5.725127220153809,-0.4035901725292206,0.09147688746452332,0.551790714263916
-4.40757942199707,5.5947184562683105,7.0800628662109375,-0.8188979029655457,-0.33554840087890625,0.9085106253623962
-2.231307029724121,5.676074504852295,9.910174369812012,-0.7103772759437561,-0.2013290375471115,0.9777507781982422
-1.0582258701324463,5.5468621253967285,10.441679954528809,0.01917419396340847,0.13941237330436707,0.4047885537147522
-2.090130567550659,5.513362407684326,8.45444107055664,0.2982652485370636,0.5685681104660034,0.16417904198169708
-3.0311081409454346,5.513362407684326,7.295716285705566,0.299330472946167,0.8796161413192749,0.20252743363380432
-3.5075788497924805,5.692824363708496,7.094419956207275,0.25139498710632324,0.7262226343154907,0.2354165017604828
-3.5937204360961914,6.119045734405518,7.444071292877197,0.12463226169347763,-0.09693620353937149,0.2343512624502182
-3.1148569583892822,5.817250728607178,8.34437084197998,0.10119713842868805,-0.8350095152854919,0.12476541846990585
-3.2057840824127197,5.223531723022461,9.074481010437012,0.20772044360637665,-1.2504503726959229,-0.010519175790250301
-3.4549367427825928,4.747061252593994,7.69322395324707,0.32596129179000854,-1.3877322673797607,-0.058454662561416626
-2.4924237728118896,4.311268329620361,5.806483268737793,0.1480673849582672,-1.4772119522094727,0.043807707726955414
-3.009572744369507,5.158925533294678,5.720341682434082,-0.1681736707687378,-1.2918612957000732,0.18015754222869873
-3.70139741897583,5.367101192474365,7.472784996032715,-0.23954427242279053,-0.6199656128883362,0.4356802999973297
-3.2201411724090576,5.2283172607421875,8.849555015563965,-0.0532616525888443,-0.25032976269721985,0.514507532119751
-2.9521448612213135,5.091926574707031,8.851948738098145,0.07669677585363388,-0.1587197184562683,0.4697677493095398
-2.5235304832458496,4.878666400909424,7.999505043029785,0.3195699155330658,0.2821536064147949,0.3930709958076477
-2.430210590362549,4.696811676025391,7.5708909034729,0.4037233293056488,0.503722071647644,0.3941362202167511
-2.676671266555786,4.4359941482543945,6.840780735015869,0.5186353325843811,0.5197005867958069,0.41970181465148926
-2.9856443405151367,4.500600337982178,6.637391090393066,0.5303528904914856,0.28108835220336914,0.4250279664993286
-3.2823543548583984,4.8451666831970215,6.383452415466309,0.44207170605659485,-0.40159285068511963,0.40052762627601624
-2.525923490524292,5.06799840927124,5.995516300201416,0.2535254657268524,-0.6540530920028687,0.3099828064441681
-2.128415822982788,5.017749309539795,6.132206439971924,0.1171756312251091,-0.5443340539932251,0.2270277887582779
-2.6024937629699707,4.562813758850098,6.694818496704102,-0.08415340632200241,-0.09054480493068695,0.0555252730846405
-4.060619831085205,4.280161380767822,7.077670097351074,-0.1788259893655777,0.34500235319137573,0.12156971544027328
-4.254438877105713,4.443172454833984,7.436892986297607,-0.2214353084564209,0.6441996693611145,0.4165061116218567
-3.777967929840088,4.7039899826049805,7.393822193145752,-0.23634858429431915,0.6569824814796448,0.5358121991157532
-2.2959132194519043,5.091926574707031,6.92692232131958,-0.3045234978199005,0.14473854005336761,0.5422036051750183
-1.415055513381958,5.197210788726807,7.674081325531006,-0.5335485935211182,-0.14380645751953125,0.2332860380411148
-1.8963119983673096,4.948357105255127,9.052945137023926,-0.5750926733016968,0.3705679476261139,-0.061650361865758896
-3.4836506843566895,4.802095890045166,7.683652400970459,-0.23847904801368713,-0.006524552125483751,-0.1351514458656311
-3.3373894691467285,4.866702079772949,7.745865821838379,-0.22250054776668549,-0.9212934374809265,-0.03608476743102074
-2.988037347793579,4.981856822967529,7.913363456726074,-0.22782671451568604,-1.254711389541626,-0.011584409512579441
-2.173879384994507,5.146961688995361,8.16700267791748,-0.22356578707695007,-1.4665595293045044,-0.07336792349815369
-1.4724832773208618,4.718347072601318,8.179265975952148,-0.22250054776668549,-1.1503185033798218,-0.1564560979604721
-1.7165511846542358,4.361517429351807,8.533403396606445,-0.232087641954422,-0.6858769059181213,-0.2118482142686844
-2.3656044006347656,4.392624378204346,9.11994457244873,-0.18628261983394623,-0.38028818368911743,-0.21823962032794952
-2.566601276397705,4.505385875701904,9.235098838806152,-0.0319569893181324,-0.191741943359375,-0.1553908735513687
-2.276770830154419,4.692026138305664,8.497511863708496,0.09374050796031952,-0.03528584539890289,-0.12130340933799744
-2.39192533493042,4.909772872924805,8.164609909057617,0.1065233051776886,0.014780107885599136,-0.16178226470947266
-2.6240291595458984,4.948357105255127,8.092824935913086,0.10865376889705658,-0.027829213067889214,-0.19693495333194733
-2.8803603649139404,4.871487617492676,7.798508167266846,0.1395455300807953,-0.1267627328634262,-0.21717438101768494
-2.947359323501587,4.928915500640869,7.707581043243408,0.15232832729816437,-0.19493764638900757,-0.20439158380031586
-2.6503500938415527,5.266602516174316,7.654639720916748,0.13102366030216217,-0.3440702557563782,-0.18628261983394623
-2.276770830154419,5.355136871337891,7.796115398406982,0.1267627328634262,-0.2854824364185333,-0.23954427242279053
-2.470888376235962,5.431707382202148,7.827221870422363,0.14274121820926666,-0.21517707407474518,-0.316241055727005
-2.4445674419403076,5.407779216766357,8.24147891998291,0.16404588520526886,-0.1800243854522705,-0.36311131715774536
-2.6862425804138184,5.127819061279297,8.059326171875,0.28441721200942993,-0.025698747485876083,-0.39173945784568787
-3.3708889484405518,5.359922885894775,7.707581043243408,0.23967742919921875,-0.2119813710451126,-0.34500235319137573
-2.8660032749176025,5.436492919921875,8.818449020385742,0.13208889961242676,-0.3003957271575928,-0.2981320917606354
-2.9832515716552734,5.264209747314453,9.21834945678711,0.27269965410232544,-0.1171756312251091,-0.3460675776004791
-3.3373894691467285,5.37906551361084,8.60758113861084,0.40052762627601624,-0.12569749355316162,-0.2821536064147949
-2.5713870525360107,5.683252811431885,8.473583221435547,0.4228975176811218,-0.08308817446231842,-0.19693495333194733
-2.9282166957855225,4.989035129547119,6.938886642456055,0.38987529277801514,0.08508548885583878,-0.6687000393867493
-3.9768712520599365,4.9435715675354,7.637889862060547,0.24074266850948334,0.31198012828826904,-0.4609795808792114
-4.208974838256836,5.422136306762695,8.708378791809082,0.3195699155330658,0.7145050764083862,-0.1255643367767334
-3.553042411804199,5.32403039932251,8.511868476867676,0.46337637305259705,1.0085093975067139,0.012915950268507004
-1.781157374382019,5.355136871337891,6.139384746551514,0.6027887463569641,1.2874672412872314,0.08535179495811462
-1.1778669357299805,5.841179370880127,5.265406131744385,-0.06604444980621338,1.3609683513641357,-0.30984964966773987
-1.4006985425949097,5.19242525100708,6.98195743560791,-0.23741380870342255,1.1660306453704834,-0.6921351552009583
-3.385545015335083,4.361517429351807,8.341978073120117,-0.25978371500968933,0.6868090033531189,-0.8327459096908569
-5.0015974044799805,4.873880386352539,9.337990760803223,-0.06497921794652939,0.8029193878173828,-0.609046995639801
-4.374079704284668,4.646562576293945,8.483154296875,0.27269965410232544,0.678287148475647,-0.26724034547805786
-3.4621152877807617,5.213960647583008,6.699604511260986,0.3632444739341736,0.1031944528222084,-0.1894783228635788
-3.1890344619750977,5.163711071014404,6.158527374267578,0.1384802907705307,-0.21517707407474518,-0.2768274247646332
-3.5315070152282715,5.290530681610107,7.144968509674072,-0.06817491352558136,-0.03848154470324516,-0.3055887222290039
-3.4908292293548584,5.383851051330566,8.037790298461914,-0.0532616525888443,0.3386109471321106,-0.20439158380031586
-2.377568483352661,5.436492919921875,6.560521602630615,0.14700216054916382,-0.3089175820350647,-0.19054356217384338
-3.279961585998535,5.367101192474365,7.853542804718018,0.06604444980621338,0.43022099137306213,-0.4439358711242676
-4.762016296386719,5.400600910186768,5.837589740753174,0.04687025398015976,0.09786828607320786,-0.3055887222290039
-4.053441524505615,5.891428470611572,5.761019706726074,-0.08947957307100296,-0.8669665455818176,-0.2736317217350006
-3.6415770053863525,5.1565327644348145,4.9755754470825195,-0.3151758313179016,-1.666823387145996,-0.3183715343475342
-3.536292791366577,4.275375843048096,6.747460842132568,-0.7507229447364807,-1.180145025253296,-0.17563030123710632
-3.8210387229919434,4.775774955749512,8.473583221435547,-0.7816147208213806,-0.04274247586727142,-0.001997311832383275
-3.423830032348633,5.077569484710693,8.054539680480957,-0.7444647550582886,0.9648348093032837,-0.042476166039705276
-2.978466033935547,5.1565327644348145,8.1526460647583,-0.8551158308982849,1.5857324600219727,-0.28961023688316345
-3.3780672550201416,4.775774955749512,9.302098274230957,-0.6443328261375427,1.3332723379135132,-0.4194355010986328
-4.400400638580322,5.812465190887451,9.366703987121582,-0.17989122867584229,-0.467637300491333,-0.49932798743247986
-3.301496982574463,5.891428470611572,6.936493873596191,0.7050511240959167,-2.118349075317383,-0.4535229504108429
-2.2504496574401855,4.397409915924072,7.369893550872803,0.5708317756652832,-1.4782770872116089,-0.47802332043647766
-4.039084434509277,2.628216505050659,7.336394309997559,0.503722071647644,-1.461233377456665,-0.5611115097999573
-2.808276414871216,5.936892032623291,5.868696689605713,-0.5782883763313293,-1.172688364982605,-0.2757622003555298
-2.3294129371643066,5.132604598999023,6.917351245880127,-0.8551158308982849,-1.3664276599884033,-0.32263246178627014
-2.5235304832458496,4.428815841674805,8.60758113861084,-1.0362054109573364,-1.5848004817962646,-0.4290226101875305
-3.311068296432495,4.7973103523254395,10.005887031555176,-0.8923989534378052,-1.5784090757369995,-0.28108835220336914
-2.5713870525360107,4.452744007110596,10.429716110229492,-0.5026568174362183,-1.384536623954773,0.044872939586639404
-1.8221344947814941,4.744668006896973,10.202098846435547,-0.11184946447610855,-1.4367330074310303,0.27056917548179626
-0.8356932997703552,4.253840446472168,8.277371406555176,0.05645735189318657,-1.123687744140625,0.3632444739341736
-0.521934449672699,4.622634410858154,8.215158462524414,0.012782796286046505,-0.39094051718711853,0.32596129179000854
-1.1180464029312134,4.823631286621094,8.140681266784668,-0.19054356217384338,0.5452661514282227,0.29080861806869507
-1.5849459171295166,4.644169807434082,8.3300142288208,-0.32263246178627014,0.8167673945426941,0.29187384247779846
-2.415853500366211,4.613062858581543,9.098408699035645,-0.4025249183177948,0.992530882358551,0.37709248065948486
-2.408675193786621,4.574777603149414,9.393025398254395,-0.37482887506484985,0.9392692446708679,0.44846311211586
-2.0446670055389404,4.464707851409912,9.75224781036377,-0.24380521476268768,0.8210283517837524,0.5390079021453857
-2.0853450298309326,4.534099578857422,9.905388832092285,-0.05858781561255455,0.7517881989479065,0.6071828007698059
-2.283949136734009,4.6178483963012695,9.649057388305664,0.17363297939300537,0.6452649235725403,0.7019885778427124
-2.3632113933563232,4.692026138305664,9.103194236755371,0.3547225892543793,0.42063388228416443,0.8234251141548157
-1.6926229000091553,5.0943193435668945,8.674580574035645,0.4165061116218567,0.2949363887310028,0.8914669156074524
-0.9481559991836548,5.271388053894043,8.69372272491455,0.3621792197227478,0.38654643297195435,0.7850767374038696
-0.6678966283798218,5.091926574707031,9.309276580810547,0.27269965410232544,0.4035901725292206,0.6061176061630249
-0.8261220455169678,4.694418907165527,10.060921669006348,0.29506954550743103,0.49200451374053955,0.5081161260604858
-1.4533406496047974,4.818845748901367,9.847960472106934,0.5718969702720642,0.6878741979598999,0.5358121991157532
-1.6495521068572998,5.00578498840332,9.13430118560791,0.6390066742897034,0.7198312282562256,0.5549864172935486
-1.6974085569381714,5.182853698730469,7.690831184387207,0.5569837093353271,0.6026555895805359,0.5762910842895508
-1.5275181531906128,5.113461971282959,7.137789726257324,0.3078523576259613,0.33435001969337463,0.5187684893608093
-1.7356936931610107,4.916951656341553,7.652246952056885,0.01491326279938221,0.12343387305736542,0.35685306787490845
-2.063809633255005,4.82841682434082,7.932506084442139,-0.01704372838139534,0.10639014840126038,0.31424373388290405
-2.4445674419403076,4.749454021453857,8.184051513671875,-0.02343512699007988,0.09893351793289185,0.2982652485370636
-2.698206663131714,4.505385875701904,8.260622024536133,0.04154408723115921,0.059519894421100616,0.3813534080982208
-2.707777976989746,4.316053867340088,8.140681266784668,0.07989247888326645,0.0723026916384697,0.45272403955459595
-2.7340989112854004,4.354339122772217,8.090432167053223,0.11291470378637314,0.1042596846818924,0.5177032351493835
-2.4206392765045166,4.330410957336426,8.054539680480957,0.1384802907705307,0.1031944528222084,0.5475297570228577
-2.33180570602417,4.337589263916016,8.071290016174316,0.1491326242685318,0.12023817747831345,0.5326164960861206
-2.135594129562378,4.198805332183838,8.092824935913086,0.20772044360637665,0.25658801198005676,0.5038552284240723
-2.2265214920043945,4.227519512176514,7.5708909034729,0.24713405966758728,0.4334166944026947,0.47296345233917236
-2.344068765640259,4.275375843048096,7.245467185974121,0.17256775498390198,0.5760247707366943,0.46337637305259705
-2.1379871368408203,4.215555191040039,7.348358154296875,0.06497921794652939,0.6836133003234863,0.46337637305259705
-2.090130567550659,4.043272018432617,7.441678524017334,0.0106523297727108,0.7794842720031738,0.46550682187080383
-1.7428722381591797,4.031308174133301,7.381857872009277,0.03408745676279068,1.030879259109497,0.5485950112342834
-1.934597134590149,4.924129962921143,8.255836486816406,-0.10439283400774002,0.4121120274066925,0.3270265460014343
-1.9824535846710205,4.012165546417236,8.667402267456055,0.0106523297727108,0.7059831619262695,0.3408745527267456
-1.841277003288269,4.670490741729736,7.841578960418701,0.15765449404716492,0.9637695550918579,0.4889419674873352
-1.848455548286438,5.132604598999023,7.7578301429748535,0.17789392173290253,0.6729609370231628,0.4282236695289612
-1.5777673721313477,6.243472576141357,7.5804619789123535,0.16191542148590088,0.024367205798625946,0.060851436108350754
-1.807478427886963,6.032904148101807,7.64028263092041,0.14380645751953125,0.021171506494283676,-0.12236864119768143
-2.738884687423706,4.780560493469238,7.729116439819336,0.1821548491716385,0.22356578707695007,-0.25765323638916016
-3.8377883434295654,5.058426856994629,6.876673221588135,0.26311254501342773,0.1681736707687378,-0.09893351793289185
-4.146761417388916,5.436492919921875,6.950850486755371,0.22050324082374573,0.03288906812667847,0.11517832428216934
-3.0550363063812256,5.221138954162598,6.814459800720215,0.20878566801548004,0.18202169239521027,0.19933173060417175
-2.446960210800171,5.127819061279297,5.332405090332031,0.06710968166589737,0.42063388228416443,0.10985215753316879
-2.418246269226074,5.146961688995361,4.362713813781738,-0.3290238380432129,0.6388735175132751,-0.14260807633399963
-3.0215368270874023,5.039284706115723,5.8351969718933105,-1.0937280654907227,1.0063788890838623,-0.21823962032794952
-4.118047714233398,4.203591346740723,7.549355506896973,-1.1885337829589844,1.124619722366333,-0.22889193892478943
-2.7652056217193604,4.981856822967529,8.897412300109863,-1.0106397867202759,1.1075760126113892,-0.033954303711652756
-2.5378875732421875,5.194818019866943,10.103992462158203,-0.6794854998588562,0.970160961151123,-0.3279586136341095
-4.316651821136475,5.139782905578613,9.840782165527344,-0.19373925030231476,1.0351401567459106,-0.5994598865509033
-5.765207290649414,4.878666400909424,7.767401218414307,0.11184946447610855,0.9168993234634399,-0.5792204737663269
-5.90877628326416,4.924129962921143,7.060920715332031,0.1278279572725296,0.7379401922225952,-0.50252366065979
-5.590530872344971,5.089533805847168,7.029813766479492,0.009587096981704235,0.3929378390312195,-0.4098483920097351
-5.810670852661133,5.3455657958984375,6.74028205871582,0.07563154399394989,-0.30572187900543213,-0.3620460629463196
-4.797908306121826,5.230710506439209,6.859923362731934,-0.02556559257209301,-0.6869421601295471,-0.30132779479026794
-5.061418056488037,5.300102233886719,7.863114356994629,-0.05752258375287056,-0.041677240282297134,-0.48121902346611023
-6.521937370300293,4.979464054107666,7.12074089050293,0.0021304660476744175,-0.44846311211586,-0.34074142575263977
-5.30548620223999,5.424529075622559,9.196515083312988,0.3067871034145355,-2.154567003250122,-0.28002312779426575
-5.013561725616455,4.888237476348877,9.438488960266113,0.718899130821228,-2.9490976333618164,-0.33115431666374207
-2.166700839996338,4.538885593414307,6.831209659576416,0.28228676319122314,0.6346125602722168,-0.7826799750328064
-2.5043880939483643,4.634598255157471,6.914958477020264,-0.09161003679037094,1.282141089439392,-1.0222241878509521
-4.905585289001465,4.380660057067871,7.23589563369751,-0.23847904801368713,0.8039846420288086,-1.1063776016235352
-6.428318023681641,2.7981069087982178,6.45523738861084,-0.13834713399410248,-0.7231600880622864,-0.6687000393867493
-6.27278470993042,6.209972858428955,6.299703598022461,-0.5537880063056946,-3.1598806381225586,-0.16604319214820862
-0.8500502705574036,4.35673189163208,8.119146347045898,-0.40998154878616333,-3.1875767707824707,0.07150376588106155
-0.39511483907699585,4.742275238037109,8.535796165466309,-0.05539211630821228,-3.889432191848755,-0.7155702710151672
-1.1443674564361572,3.8108692169189453,8.523832321166992,-0.26937079429626465,-3.030055284500122,-0.8678985834121704
-0.14356936514377594,3.1166515350341797,10.178170204162598,-0.32050198316574097,-1.713693618774414,-0.7038527131080627
0.20817556977272034,3.2410783767700195,10.221240997314453,-0.22250054776668549,-1.2600375413894653,-0.6196992993354797
0.5099703073501587,2.8797619342803955,9.665806770324707,-0.05539211630821228,-0.5826824903488159,-0.509980320930481
0.5554339289665222,3.408874988555908,9.503094673156738,-0.22782671451568604,-0.6476616859436035,-0.4503272473812103
0.12921242415905,3.6768710613250732,9.871889114379883,-0.23315288126468658,0.054193731397390366,-0.38321757316589355
-0.7974081635475159,3.5835509300231934,9.704092025756836,-0.10332760214805603,0.447264701128006,-0.19693495333194733
0.04785645380616188,3.7271203994750977,9.30449104309082,0.03408745676279068,0.2544575333595276,0.07896039634943008
0.9457631707191467,4.3758745193481445,9.266205787658691,0.10971900075674057,-0.09374050796031952,0.04593817517161369
1.0630114078521729,4.4982075691223145,9.084052085876465,0.1278279572725296,-0.1384802907705307,-0.035019535571336746
0.6678966283798218,4.323232173919678,8.973981857299805,0.1374150663614273,0.048867564648389816,-0.19480448961257935
0.24406790733337402,4.330410957336426,8.775378227233887,0.14593692123889923,0.13408620655536652,-0.22569625079631805
0.10767702013254166,4.526921272277832,8.554939270019531,0.13528458774089813,0.1255643367767334,-0.22676147520542145
-0.12921242415905,4.7350969314575195,7.753044605255127,0.04473978653550148,0.004127778112888336,-0.25658801198005676
-0.1579262912273407,4.718347072601318,7.705187797546387,-0.05006595328450203,0.007323476951569319,-0.24700090289115906
-0.9050851464271545,4.708775997161865,8.246265411376953,-0.2214353084564209,0.004127778112888336,-0.1692388951778412
-0.97926265001297,4.464707851409912,9.110373497009277,-0.1788259893655777,0.005193010903894901,0.00226362026296556
-1.1276177167892456,4.66570520401001,9.517452239990234,0.07776200771331787,-0.013981183059513569,0.14713531732559204
-0.04546362906694412,4.8930230140686035,9.266205787658691,0.23009033501148224,-0.3419398069381714,0.26204732060432434
0.43579283356666565,4.931308269500732,9.122337341308594,0.42076703906059265,-0.3483312129974365,0.1950708031654358
0.6870391964912415,4.749454021453857,8.452047348022461,0.5932016372680664,-0.20878566801548004,0.0768299326300621
0.30658039450645447,4.928915500640869,8.361120223999023,0.5953320860862732,-0.40159285068511963,-0.040345702320337296
0.1866401731967926,4.9435715675354,9.069695472717285,0.5804188251495361,-0.7593780159950256,-0.10958584398031235
-0.03349951654672623,4.936093807220459,9.462417602539062,0.7519213557243347,-0.7157034277915955,-0.11810771375894547
-0.47647079825401306,5.1804609298706055,8.609973907470703,0.8808145523071289,-0.536877453327179,-0.08188978582620621
-0.5937191247940063,5.254638671875,7.393822193145752,0.7402037978172302,-0.3707011044025421,-0.007323476951569319
-0.33529427647590637,5.307280540466309,6.91974401473999,0.41011470556259155,-0.14167599380016327,0.07043853402137756
-0.3568296730518341,5.381458282470703,7.403393268585205,0.08308817446231842,0.24060951173305511,0.15459194779396057
-0.34725838899612427,5.463113307952881,8.315656661987305,-0.07243584841489792,0.527157187461853,0.2577863931655884
-0.16271193325519562,5.5229339599609375,8.866305351257324,-0.02343512699007988,0.5749595165252686,0.3280917704105377
-0.08853443711996078,5.678467273712158,8.993124961853027,0.13528458774089813,0.534613847732544,0.31530898809432983
-0.38315072655677795,5.7119669914245605,8.92373275756836,0.32383084297180176,0.5611115097999573,0.27269965410232544
-0.9768698215484619,5.616253852844238,7.973184108734131,0.45272403955459595,0.6356778144836426,0.30252617597579956
-0.8859425783157349,5.97517728805542,7.51585578918457,0.37602725625038147,0.5473966002464294,0.4239627420902252
-0.7229315638542175,5.609075546264648,9.6466646194458,0.1810896098613739,0.5026568174362183,0.4175713360309601
-0.9433703422546387,5.4556355476379395,9.85274600982666,0.23115555942058563,0.41956865787506104,0.39839714765548706
-0.9744769930839539,5.431707382202148,9.594022750854492,0.3312874734401703,0.292805939912796,0.43248459696769714
-0.7444669604301453,5.414957523345947,8.938090324401855,0.444202184677124,0.12130340933799744,0.5017247796058655
-0.3640081584453583,5.4556355476379395,8.332406997680664,0.4378107786178589,0.07549838721752167,0.4889419674873352
-0.24406790733337402,5.532505035400391,7.841578960418701,0.3078523576259613,0.09041165560483932,0.40159285068511963
-0.4573282301425934,5.484648704528809,8.121539115905762,0.14061075448989868,0.31091487407684326,0.30146095156669617
-1.0869396924972534,5.178068161010742,8.135895729064941,0.0426093190908432,0.5431357026100159,0.2684387266635895
-1.3887344598770142,4.955535888671875,8.531010627746582,0.004260932095348835,0.7177007794380188,0.3621792197227478
-1.2903295755386353,4.921737194061279,8.725129127502441,0.0319569893181324,0.7645710110664368,0.41117995977401733
-1.2711870670318604,4.924129962921143,8.08086109161377,0.14700216054916382,0.7986584305763245,0.45165881514549255
-1.0965110063552856,4.967499732971191,7.441678524017334,0.1928071826696396,0.6655043363571167,0.4399412274360657
-1.6615161895751953,5.1182475090026855,7.075277328491211,0.16617634892463684,0.1553908735513687,0.3217003643512726
-1.6974085569381714,4.82841682434082,7.192824840545654,0.11611039936542511,-0.11504516750574112,0.2897433936595917
-1.7309080362319946,4.857131004333496,7.0872416496276855,0.10758853703737259,-0.09054480493068695,0.29080861806869507
-1.7787644863128662,4.881059169769287,6.584449768066406,0.02236989326775074,-0.06284874677658081,0.2748301327228546
-0.8213363885879517,5.053641319274902,6.962814807891846,-0.39613354206085205,-0.36537492275238037,0.07896039634943008
-0.3089732229709625,4.945964336395264,8.121539115905762,-0.527157187461853,-0.49320289492607117,-0.0723026916384697
-0.18903298676013947,4.7662034034729,9.323633193969727,-0.512243926525116,-0.5411383509635925,-0.2608489394187927
-0.6726822853088379,4.565206527709961,9.471988677978516,-0.3386109471321106,-0.33661362528800964,-0.3906742036342621
-1.3504493236541748,4.502993106842041,8.90219783782959,-0.19160878658294678,-0.09267527610063553,-0.3981308341026306
-1.6447664499282837,4.4359941482543945,8.566903114318848,-0.14047759771347046,-0.019307348877191544,-0.31091487407684326
-0.6415755748748779,4.931308269500732,8.720342636108398,-0.06178351491689682,-0.17789392173290253,-0.2629793882369995
-0.8165507316589355,4.960321426391602,8.701200485229492,0.0053261648863554,-0.14593692123889923,-0.3981308341026306
-1.1108678579330444,4.916951656341553,8.413763046264648,0.0532616525888443,-0.11078423261642456,-0.4428706169128418
-1.4676976203918457,4.881059169769287,8.255836486816406,0.0852186381816864,-0.12569749355316162,-0.4332835376262665
-1.2400803565979004,4.8690948486328125,8.542975425720215,0.11291470378637314,-0.20985090732574463,-0.4236964285373688
-1.225723385810852,4.962714195251465,8.341978073120117,0.17363297939300537,-0.17895914614200592,-0.440740168094635
-1.1395817995071411,5.173282623291016,8.46161937713623,0.07776200771331787,-0.536877453327179,-0.49932798743247986
-1.0893324613571167,5.01296329498291,9.534201622009277,0.05432688444852829,-0.5443340539932251,-0.6260907053947449
-1.9106688499450684,4.742275238037109,9.30449104309082,0.20772044360637665,-0.16617634892463684,-0.6580476760864258
-2.255235433578491,4.763810634613037,8.17418098449707,0.32276561856269836,0.1031944528222084,-0.4854799509048462
-1.800299882888794,5.355136871337891,8.3898344039917,0.25991687178611755,-0.11078423261642456,-0.3620460629463196
-0.9290133714675903,5.367101192474365,9.062516212463379,0.3440702557563782,-0.2343512624502182,-0.4130440950393677
-1.6447664499282837,5.654539108276367,8.60758113861084,0.5175700783729553,-0.44313693046569824,-0.6154384016990662
-2.025524377822876,5.491827011108398,8.198408126831055,0.5761579275131226,-0.536877453327179,-0.655917227268219
-2.3416759967803955,4.792524814605713,7.551748275756836,0.6102453470230103,-0.5091813802719116,-0.5600462555885315
-2.367997169494629,4.737489700317383,7.654639720916748,0.5985277891159058,-0.4399412274360657,-0.43541398644447327
-1.7021942138671875,5.146961688995361,8.571688652038574,0.619832456111908,-0.3195699155330658,-0.24593567848205566
-1.8269200325012207,5.438885688781738,8.751449584960938,0.8339443206787109,-0.30359140038490295,-0.30239301919937134
-1.568196177482605,5.644967555999756,7.365108013153076,1.0469908714294434,-0.504920482635498,-0.31411057710647583
-0.34725838899612427,6.0400824546813965,5.978766441345215,0.9777507781982422,-0.971359372138977,-0.5035889148712158
0.17228323221206665,5.862714767456055,6.012266159057617,0.6667027473449707,-1.0331429243087769,-0.893464207649231
-0.9888339638710022,5.453242778778076,6.812067031860352,0.3611139953136444,-0.18535055220127106,-1.1830744743347168
-2.449352979660034,5.134997367858887,7.168896675109863,0.27163442969322205,0.6516563296318054,-1.2160966396331787
-3.129213809967041,5.465506076812744,5.658128261566162,0.22156846523284912,0.8604419827461243,-1.0648335218429565
-1.8867406845092773,5.78135871887207,5.136193752288818,-0.07776200771331787,0.6527215242385864,-0.931812584400177
-1.1922239065170288,6.209972858428955,6.759424686431885,-0.4962654411792755,0.7049179673194885,-1.1255518198013306
-1.8388842344284058,5.735895156860352,8.176573753356934,-0.5399399995803833,0.8721595406532288,-1.2800105810165405
-1.9800606966018677,5.458327770233154,8.24387264251709,-0.488808810710907,0.9659000635147095,-1.3066414594650269
-1.750050663948059,5.489434242248535,8.325227737426758,-0.42915576696395874,1.0564448833465576,-1.3322070837020874
-1.5442678928375244,5.319244861602783,8.24147891998291,-0.34393709897994995,1.045792579650879,-1.4291433095932007
-2.784348249435425,5.149354457855225,8.674580574035645,-0.30345824360847473,0.8146369457244873,-1.4898614883422852
-2.933002471923828,4.747061252593994,9.280562400817871,-0.1267627328634262,-0.17789392173290253,-1.3769468069076538
-2.5474588871002197,4.718347072601318,9.75224781036377,-0.05858781561255455,-0.51344233751297,-1.3311418294906616
-1.6615161895751953,4.220340728759766,9.902996063232422,0.13315412402153015,-0.2130466103553772,-1.3183590173721313
-2.1619153022766113,4.72791862487793,8.46879768371582,0.18641577661037445,0.07656362652778625,-1.3300765752792358
-2.121237277984619,4.773382186889648,7.973184108734131,0.15765449404716492,-0.06178351491689682,-1.3407288789749146
-2.691028118133545,4.938786029815674,7.494320392608643,-0.00852186419069767,-1.6018441915512085,-1.2949239015579224
-2.1260228157043457,4.713561534881592,8.418548583984375,0.02023942768573761,-2.0970444679260254,-1.2107704877853394
-1.477268934249878,4.275375843048096,9.160622596740723,0.01704372838139534,-2.04697847366333,-1.2160966396331787
-1.4629119634628296,3.722334623336792,9.359525680541992,0.04900071769952774,-1.6870628595352173,-1.2395317554473877
-1.994417667388916,4.031308174133301,9.402596473693848,0.07882724702358246,-1.1971887350082397,-1.1298127174377441
-1.9609181880950928,3.8443686962127686,9.103194236755371,0.10758853703737259,-0.9085106253623962,-1.044594168663025
-1.7356936931610107,3.9499518871307373,8.456833839416504,0.10545806586742401,-0.9521851539611816,-0.9669652581214905
-1.4485549926757812,4.495814800262451,8.60040283203125,0.02769605815410614,-1.2738854885101318,-1.0094414949417114
-1.477268934249878,4.761417865753174,9.235098838806152,0.03089175745844841,-1.7296720743179321,-1.189465880393982
-1.628016710281372,4.675276279449463,9.366703987121582,0.07563154399394989,-1.9148895740509033,-1.2832063436508179
-2.6814568042755127,4.526921272277832,9.857531547546387,0.1821548491716385,-2.0501739978790283,-1.3513813018798828
-2.377568483352661,4.0217366218566895,9.689735412597656,0.32596129179000854,-1.4782770872116089,-1.212900996208191
-2.4852454662323,4.067200183868408,9.572486877441406,0.3483312129974365,-1.339796781539917,-1.189465880393982
-2.4134607315063477,4.0935211181640625,9.124730110168457,0.3536573648452759,-1.1812102794647217,-1.144726037979126
-1.9441684484481812,4.167698860168457,8.631509780883789,0.2769605815410614,-1.0129034519195557,-1.128747582435608
-1.9178473949432373,4.28734016418457,8.813663482666016,0.10758853703737259,-0.9958597421646118,-1.1990529298782349
-1.9106688499450684,4.17726993560791,9.182157516479492,0.03834838792681694,-0.9617722630500793,-1.221422791481018
-2.3512473106384277,3.9451663494110107,10.07288646697998,0.0063913981430232525,-0.895727813243866,-1.219292402267456
-2.5307090282440186,3.794119358062744,10.412965774536133,0.05645735189318657,-0.8531184792518616,-1.1724220514297485
-2.353640079498291,3.6218361854553223,10.62114143371582,0.2652430236339569,-0.6306179761886597,-0.9808133244514465
-2.1164517402648926,3.856332778930664,10.132706642150879,0.5314181447029114,-0.3291569948196411,-0.7752233147621155
-1.9513468742370605,4.117449760437012,9.562915802001953,0.6422023773193359,-0.2236989289522171,-0.6846785545349121
-1.5131611824035645,4.534099578857422,8.425726890563965,0.7146382331848145,-0.10971900075674057,-0.5973294377326965
-1.287936806678772,4.596312999725342,8.102396965026855,0.6230281591415405,-0.19813334941864014,-0.655917227268219
-1.0223335027694702,4.3758745193481445,8.444869041442871,0.5175700783729553,-0.41863659024238586,-0.7560491561889648
-0.8811569213867188,3.849154233932495,8.617152214050293,0.4952002167701721,-0.4708330035209656,-0.678287148475647
-1.0630114078521729,4.079164505004883,8.46879768371582,0.5111786723136902,-0.3941362202167511,-0.5834813714027405
-1.0007981061935425,4.455136775970459,8.147860527038574,0.5111786723136902,-0.28335198760032654,-0.3874785006046295
-0.48843491077423096,4.660919189453125,7.987541198730469,0.46124589443206787,-0.4367455542087555,-0.32263246178627014
-0.2105683982372284,4.675276279449463,7.997112274169922,0.4175713360309601,-0.5251598954200745,-0.339676171541214
-0.02392822690308094,4.61067008972168,8.097610473632812,0.38028818368911743,-0.5624430179595947,-0.37376365065574646
-0.7926225066184998,4.706383228302002,8.279764175415039,0.3632444739341736,-0.8445966243743896,-0.4311530590057373
-0.07896314561367035,4.82841682434082,8.87109088897705,0.252460241317749,-0.9841421842575073,-0.47908854484558105
-0.009571290574967861,4.651348114013672,9.15822982788086,0.2748301327228546,-0.6561835408210754,-0.6186341047286987
-0.15553347766399384,4.337589263916016,8.787342071533203,0.3536573648452759,-0.364309698343277,-0.655917227268219
-1.1491531133651733,4.926522731781006,9.294919967651367,0.4856131076812744,-0.6816160082817078,-0.5600462555885315
-1.1994023323059082,5.166104316711426,8.674580574035645,0.6667027473449707,-0.7870740294456482,-0.4929365813732147
-0.6726822853088379,5.340780258178711,7.503891944885254,0.6635070443153381,-1.0054467916488647,-0.5291544795036316
-0.3281157910823822,5.398207664489746,7.183253765106201,0.5154396295547485,-1.0608389377593994,-0.6814828515052795
-0.97926265001297,5.213960647583008,8.126324653625488,0.40159285068511963,-0.9745550751686096,-0.8519201278686523
-2.2480568885803223,4.885844707489014,9.088837623596191,0.5154396295547485,-0.6986597180366516,-0.8231588006019592
-2.841775894165039,4.785346031188965,8.473583221435547,0.7678998708724976,-0.3206351399421692,-0.5515244007110596
-2.6192433834075928,5.2043890953063965,7.314858913421631,0.8531184792518616,-0.08628387749195099,-0.29174068570137024
-1.7620147466659546,5.965605735778809,7.264609336853027,0.7497909069061279,-0.022503048181533813,-0.26937079429626465
-1.4246268272399902,6.126224040985107,7.231110095977783,0.7167686820030212,0.035019535571336746,-0.3726983964443207
-1.4940186738967896,5.936892032623291,7.283751964569092,0.6539199352264404,-0.031024912372231483,-0.6889394521713257
-1.7931214570999146,5.671288967132568,7.417750358581543,0.6102453470230103,-0.2034595012664795,-0.8338111639022827
-2.621636390686035,5.422136306762695,7.465606689453125,0.5665708184242249,-0.4921376705169678,-0.9659000635147095
-2.9353952407836914,5.422136306762695,7.618747234344482,0.5623098611831665,-0.5933347940444946,-0.954182505607605
-3.191427230834961,5.5468621253967285,7.906185150146484,0.6368761658668518,-0.6869421601295471,-0.8572462797164917
-3.067000389099121,5.764608860015869,7.168896675109863,0.7710955739021301,-0.6231613159179688,-0.7432663440704346
-2.5618157386779785,6.15254545211792,5.7873406410217285,0.7252905368804932,-0.5709648728370667,-0.7177007794380188
-2.286342144012451,6.332006931304932,5.332405090332031,0.596397340297699,-0.528355598449707,-0.763505756855011
-2.4924237728118896,6.550053119659424,5.3802618980407715,0.27269965410232544,-0.3547225892543793,-0.931812584400177
-2.870789051055908,6.5165534019470215,5.708377361297607,0.12995843589305878,-0.2684387266635895,-0.999854326248169
-3.5315070152282715,6.22193717956543,6.550950050354004,-0.05752258375287056,-0.17469821870326996,-1.0168980360031128
-3.675076484680176,6.114260196685791,7.041778087615967,-0.05006595328450203,-0.03528584539890289,-0.9307473301887512
-2.8274190425872803,6.169294834136963,6.067300796508789,-0.01384802907705307,-0.24074266850948334,-0.8721595406532288
-3.2679975032806396,5.929713726043701,6.7331037521362305,-0.09054480493068695,-0.5709648728370667,-0.9232907295227051
-3.2919256687164307,6.013761520385742,7.3675007820129395,-0.12037133425474167,-0.5326164960861206,-0.8327459096908569
-2.8755745887756348,6.083153247833252,7.863114356994629,-0.0852186381816864,-0.2141118347644806,-0.8029193878173828
-2.729313373565674,5.98026180267334,7.010671138763428,-0.05645735189318657,-0.0033288532868027687,-0.8199630975723267
-2.5043880939483643,5.79571533203125,4.733900547027588,-0.2501966059207916,0.2011958807706833,-0.8551158308982849
-2.9665019512176514,5.405386447906494,7.111169815063477,-0.978682816028595,-1.0001206398010254,-0.9861394762992859
-2.652743101119995,5.5947184562683105,8.428119659423828,-0.8167673945426941,-1.2451242208480835,-0.9254211783409119
-2.255235433578491,5.7526445388793945,8.789734840393066,-0.488808810710907,-1.1290138959884644,-0.8316806554794312
-1.867598056793213,4.778167724609375,7.04417085647583,-0.28002312779426575,-0.9202281832695007,-1.0360722541809082
-3.2967114448547363,5.307280540466309,6.570092678070068,-0.41956865787506104,-1.0587084293365479,-0.8955946564674377
-3.0478577613830566,4.960321426391602,7.226324558258057,-0.6262238621711731,-0.8754884004592896,-0.7656362652778625
-2.956930637359619,5.027320384979248,7.221538543701172,-0.7199643850326538,-0.6625749468803406,-0.763505756855011
-1.8795621395111084,4.996213912963867,6.574878215789795,-0.9818785190582275,-0.14593692123889923,-0.7549839019775391
-1.3863415718078613,4.984249591827393,6.2877397537231445,-1.1650986671447754,0.13089050352573395,-0.8252893090248108
-1.8388842344284058,5.223531723022461,8.037790298461914,-1.5260794162750244,0.47069984674453735,-1.1244865655899048
-3.5219359397888184,5.37906551361084,9.56770133972168,-1.5740149021148682,0.5324833393096924,-1.350316047668457
-3.9074792861938477,5.053641319274902,10.075279235839844,-1.4983834028244019,0.36630702018737793,-1.3822729587554932
-2.9665019512176514,4.241876125335693,10.91575813293457,-1.255643367767334,-0.6284874677658081,-1.43446946144104
-4.376472473144531,4.048057556152344,8.737092971801758,-0.6507242321968079,-0.29506954550743103,-1.1266170740127563
-4.675874710083008,5.079962253570557,9.433703422546387,-0.5527228116989136,-1.0448604822158813,-0.8178326487541199
-2.7340989112854004,4.086342811584473,9.186943054199219,-0.41850343346595764,-2.158827781677246,-0.46950146555900574
-1.994417667388916,3.7821552753448486,8.734700202941895,-0.38654643297195435,-2.6156797409057617,-0.45565342903137207
-1.5155540704727173,2.8172495365142822,10.267004013061523,-0.3503285050392151,-2.299438714981079,-0.6143731474876404
-0.9481559991836548,3.071187973022461,11.43529987335205,-0.17563030123710632,-1.7467159032821655,-0.977617621421814
-1.0007981061935425,3.1692936420440674,11.289037704467773,0.0021304660476744175,-1.3270140886306763,-1.1702916622161865
-0.45254257321357727,2.525325298309326,10.83679485321045,0.4165061116218567,-0.1587197184562683,-1.6164910793304443
-0.7205387353897095,2.2713868618011475,10.815258979797363,0.618767261505127,0.5154396295547485,-1.800776481628418
-1.3863415718078613,2.2809581756591797,11.011470794677734,0.811574399471283,1.0266183614730835,-1.8849297761917114
-4.900799751281738,3.485445261001587,8.444869041442871,0.7934654355049133,0.34074142575263977,-1.512231469154358
-3.349353551864624,2.501396894454956,6.479165554046631,-0.09161003679037094,-1.1971887350082397,-0.7283530831336975
-2.0757737159729004,2.008176326751709,8.308478355407715,-0.42063388228416443,-1.7861294746398926,-0.2416747361421585
-1.0055837631225586,3.071187973022461,7.798508167266846,-0.5484618544578552,-1.6114312410354614,-0.26830556988716125
-0.7396813035011292,2.5755743980407715,9.280562400817871,-0.6688331961631775,-1.1662969589233398,-0.41730502247810364
-1.683051586151123,2.3359930515289307,8.990732192993164,-0.7125077247619629,-0.7892045378684998,-0.39173945784568787
-0.059820566326379776,2.0751755237579346,10.163813591003418,-0.5516575574874878,-0.6858769059181213,-0.12982527911663055
-0.02632104977965355,2.391327142715454,10.78415298461914,-0.22995717823505402,-0.1800243854522705,-0.25658801198005676
-0.016749758273363113,2.391327142715454,10.635498046875,-0.04154408723115921,0.015845341607928276,-0.2746969759464264
0.01196411345154047,2.252244234085083,10.353145599365234,0.2535254657268524,0.2203700840473175,-0.35458943247795105
0.40707895159721375,2.1684954166412354,9.280562400817871,0.31317850947380066,-0.18322007358074188,-0.43541398644447327
0.6678966283798218,2.084746837615967,8.645866394042969,0.17576344311237335,-0.39946237206459045,-0.4726971685886383
1.036690354347229,1.4694921970367432,8.428119659423828,-0.20865251123905182,-0.41011470556259155,-0.5323501825332642
0.3400799036026001,1.3235300779342651,9.261420249938965,-0.4973306655883789,-0.22902509570121765,-0.48974087834358215
0.2560320198535919,1.3833506107330322,9.656235694885254,-0.574027419090271,-0.18748101592063904,-0.4194355010986328
0.41904306411743164,1.4216357469558716,9.730413436889648,-0.6070496439933777,-0.15339355170726776,-0.35458943247795105
1.5155540704727173,1.5604194402694702,9.424132347106934,-0.6145063042640686,-0.04274247586727142,-0.32476291060447693
1.0869396924972534,2.1708884239196777,9.361918449401855,-0.6230281591415405,0.08721595257520676,-0.3885437548160553
1.3408780097961426,1.8116658926010132,9.431310653686523,-0.6102453470230103,0.17243459820747375,-0.39386990666389465
1.5418751239776611,1.349851131439209,11.423335075378418,-0.09906667470932007,1.2864019870758057,-0.585611879825592
-0.7854440212249756,2.2019951343536377,11.389835357666016,0.4994611442089081,1.6006457805633545,-0.7134398221969604
-0.5697908997535706,2.2546372413635254,9.785747528076172,0.31211328506469727,-0.33554840087890625,-0.595198929309845
-0.3927220106124878,1.9100706577301025,8.557332038879395,0.2673735022544861,-0.8232919573783875,-0.50252366065979
-0.14835500717163086,2.4415764808654785,8.325227737426758,0.23967742919921875,-0.82648766040802,-0.3577851355075836
1.0558329820632935,2.4248266220092773,9.5533447265625,0.3110480308532715,-0.5805519819259644,-0.2725664973258972
0.6798607110977173,2.6928226947784424,10.882258415222168,0.5846797823905945,-0.2013290375471115,-0.50252366065979
-0.3400799036026001,2.2737796306610107,10.587641716003418,0.8690969944000244,-0.06924014538526535,-0.6047860383987427
-0.8859425783157349,2.4415764808654785,8.320442199707031,0.9234238862991333,0.03928046673536301,-0.3268933892250061
-0.9002995491027832,2.6234309673309326,8.03539752960205,0.8094439506530762,0.14899946749210358,-0.22676147520542145
-0.6080760359764099,3.0927233695983887,8.128717422485352,0.4877435564994812,0.25658801198005676,-0.09041165560483932
-0.7085745930671692,2.9252257347106934,8.064111709594727,0.3280917704105377,0.3897421360015869,-0.06271559745073318
-0.9002995491027832,3.159722328186035,8.962018013000488,-0.24700090289115906,0.9989222884178162,-0.025432437658309937
-1.134796142578125,3.008974552154541,9.488738059997559,-0.3705679476261139,1.0841408967971802,-0.021171506494283676
-1.5466607809066772,2.9970104694366455,9.74506950378418,-0.3279586136341095,0.8338111639022827,-0.033954303711652756
-2.2193429470062256,2.9491539001464844,10.161420822143555,-0.20332635939121246,0.41743817925453186,0.0011983871227130294
-2.001596212387085,2.8893332481384277,11.07607650756836,-0.04687025398015976,0.09786828607320786,0.15885287523269653
-0.5673980712890625,3.1405797004699707,10.022636413574219,0.26950395107269287,0.4792217016220093,0.33661362528800964
-0.7109674215316772,3.6003007888793945,9.12712287902832,0.2460688352584839,0.6974613070487976,0.2577863931655884
-1.5179468393325806,3.588336706161499,9.139086723327637,0.18535055220127106,0.6910699009895325,0.20998406410217285
-2.2791635990142822,3.219542980194092,9.244669914245605,0.1374150663614273,0.5962641835212708,0.34513550996780396
-1.6758731603622437,3.142972469329834,8.904590606689453,0.08841434121131897,0.6516563296318054,0.5443340539932251
-1.0654042959213257,3.8898322582244873,8.147860527038574,0.20878566801548004,0.24380521476268768,0.5177032351493835
-1.415055513381958,3.9523448944091797,8.3300142288208,-0.05113118514418602,0.30026257038116455,0.46124589443206787
-1.434198021888733,3.9427735805511475,8.947661399841309,-0.09693620353937149,0.14367330074310303,0.4559197425842285
-1.079761266708374,4.004986763000488,9.972387313842773,-0.0063913981430232525,-0.5805519819259644,0.3717663288116455
-0.8213363885879517,3.9212381839752197,10.697711944580078,0.08947957307100296,-0.8477923274040222,0.299330472946167
-0.579362154006958,3.7725839614868164,11.145468711853027,0.3376788794994354,-0.8211615085601807,0.1087869256734848
-1.2113664150238037,3.3897323608398438,10.295717239379883,0.5644403696060181,-0.47615915536880493,-0.021171506494283676
-1.5418751239776611,3.3128628730773926,8.859127044677734,0.6912030577659607,-0.34726595878601074,0.008655018173158169
-1.3887344598770142,3.595515012741089,7.671688556671143,0.6294195652008057,-0.26950395107269287,0.031024912372231483
-1.7117655277252197,3.7510485649108887,7.029813766479492,0.3504616618156433,-0.10758853703737259,0.015046416781842709
-2.0398812294006348,3.6649069786071777,7.769794464111328,0.01171756349503994,-0.3163742125034332,-0.013714875094592571
-2.190629243850708,3.432803153991699,8.535796165466309,-0.1564560979604721,-0.275895357131958,0.00226362026296556
-2.4972095489501953,2.9659037590026855,9.052945137023926,-0.18095645308494568,0.03928046673536301,0.12583065032958984
-2.494816780090332,2.822035312652588,8.90937614440918,-0.11397993564605713,-0.04593817517161369,0.20359265804290771
-2.7747769355773926,3.071187973022461,9.0481595993042,0.02982652559876442,-0.23754696547985077,0.3110480308532715
-2.42303204536438,3.4591243267059326,8.485547065734863,0.299330472946167,-0.5081161260604858,0.3952014446258545
-1.5155540704727173,3.8300118446350098,8.210372924804688,0.2982652485370636,-0.6103785037994385,0.39733192324638367
-0.8859425783157349,3.8419759273529053,8.078468322753906,0.23754696547985077,-0.22582940757274628,0.15352670848369598
-1.0390832424163818,4.088735580444336,7.901399612426758,0.24180789291858673,-0.07882724702358246,0.005459319334477186
-2.384746789932251,3.4184463024139404,7.240681171417236,0.2354165017604828,-0.35791829228401184,-0.22889193892478943
-2.5163521766662598,3.8443686962127686,7.920542240142822,0.0159784946590662,-0.6698983907699585,-0.15432563424110413
-2.283949136734009,3.4806597232818604,9.517452239990234,0.02556559257209301,-0.49533334374427795,-0.2768274247646332
-2.6168506145477295,3.382553815841675,10.147063255310059,0.16511112451553345,-0.2652430236339569,-0.3268933892250061
-1.6926229000091553,3.4567313194274902,9.215657234191895,0.4866783320903778,0.2533923089504242,-0.027562905102968216
0.9936196208000183,3.1453654766082764,9.373882293701172,0.574027419090271,0.08402025699615479,0.048068638890981674
-2.4421746730804443,4.579563617706299,9.208478927612305,1.0011858940124512,0.03928046673536301,-0.6410039663314819
-3.1100711822509766,4.426422595977783,8.765806198120117,1.1107717752456665,-0.3217003643512726,-0.37695932388305664
-1.9992033243179321,3.6649069786071777,8.368298530578613,1.1661638021469116,-0.4900071918964386,-0.17349982261657715
-1.9992033243179321,4.272983074188232,7.662117004394531,1.1299458742141724,-0.46124589443206787,0.022503048181533813
-1.8891334533691406,4.72791862487793,7.278966426849365,1.018229603767395,-0.4665720760822296,0.08535179495811462
-1.017547845840454,5.352744102478027,6.941279411315918,0.5015916228294373,-0.3749620318412781,-0.13089050352573395
-1.0199406147003174,5.424529075622559,7.83200740814209,0.3493964374065399,-0.33448317646980286,-0.33008909225463867
-1.1611171960830688,5.577968597412109,7.908577919006348,0.3323526978492737,-0.3536573648452759,-0.39386990666389465
-1.438983678817749,5.994618892669678,7.944470405578613,0.31317850947380066,-0.4388760030269623,-0.4982627332210541
-2.3270199298858643,5.9129638671875,7.786543846130371,0.2460688352584839,-0.2897433936595917,-0.5206326246261597
-2.566601276397705,5.767001628875732,8.128717422485352,0.2130466103553772,-0.2577863931655884,-0.46737098693847656
-2.0063817501068115,5.716752529144287,8.794520378112793,0.22902509570121765,-0.13421936333179474,-0.3045234978199005
-1.3624134063720703,5.9560346603393555,8.92373275756836,0.35685306787490845,-0.05232957378029823,-0.2960016131401062
-2.2121646404266357,6.238687038421631,8.926125526428223,0.5782883763313293,-0.09693620353937149,-0.35352420806884766
-2.1954147815704346,6.075974941253662,8.77777099609375,0.7061163187026978,-0.20665520429611206,-0.2874797582626343
-1.5394822359085083,6.02811861038208,8.665008544921875,0.7572475075721741,-0.39094051718711853,-0.27043604850769043
-0.9601200819015503,6.109474182128906,8.1526460647583,0.6933335661888123,-0.3611139953136444,-0.3588503897190094
-1.072582721710205,6.092724800109863,7.635497093200684,0.4687025249004364,-0.32596129179000854,-0.5291544795036316
-1.4916257858276367,6.018547058105469,7.678866863250732,0.12569749355316162,-0.2961347699165344,-0.5589810013771057
-1.324128270149231,5.997011661529541,7.882256984710693,0.04047885537147522,-0.39839714765548706,-0.47802332043647766
-1.1108678579330444,6.248258113861084,7.913363456726074,0.02982652559876442,-0.5571168661117554,-0.39173945784568787
-0.4956133961677551,6.0400824546813965,8.090432167053223,0.0745663121342659,-0.7114425301551819,-0.36524176597595215
-0.23688943684101105,5.884250164031982,8.143074989318848,0.09800143539905548,-0.7604432106018066,-0.3790898025035858
0.040677983313798904,5.434100151062012,8.449654579162598,0.09480573982000351,-0.5411383509635925,-0.4205007255077362
0.4046861231327057,5.26899528503418,8.828020095825195,0.09054480493068695,0.0712374597787857,-0.42689213156700134
0.7061817646026611,5.702395439147949,7.527820110321045,0.19813334941864014,0.3918725848197937,-0.5046541690826416
0.39990049600601196,5.400600910186768,7.3292155265808105,0.14061075448989868,-0.2854824364185333,-0.6196992993354797
0.059820566326379776,5.225924491882324,7.51585578918457,0.14167599380016327,-0.38667958974838257,-0.6207645535469055
-0.3089732229709625,5.034498691558838,7.046563625335693,0.07563154399394989,-0.256721168756485,-0.5877423286437988
-0.6367899179458618,5.355136871337891,6.201598167419434,-0.08202294260263443,-0.11930610239505768,-0.47908854484558105
