accX,accY,accZ,gyroX,gyroY,gyroZ
1.6987147331237793,4.114990711212158,8.604310035705566,-0.7087258696556091,1.0905864238739014,0.09609782695770264
1.7988402843475342,3.470069646835327,9.424324035644531,-0.6652497053146362,0.5662895441055298,1.1796680688858032
2.064452886581421,3.3612961769104004,9.12295150756836,-0.5466720461845398,1.241295576095581,1.2398818731307983
3.8097684383392334,3.9853591918945312,8.14648151397705,-0.9649925231933594,1.902740478515625,0.6980095505714417
1.4187272787094116,3.3737268447875977,7.984030246734619,-1.5843924283981323,1.950684666633606,0.15571828186511993
2.3560667037963867,2.0406930446624756,12.057562828063965,-0.9926385283470154,-0.49785515666007996,0.3909013867378235
2.0628535747528076,1.640832543373108,12.611745834350586,-0.3937113583087921,-0.19427259266376495,0.10719811916351318
1.3263589143753052,0.9827240109443665,12.420879364013672,0.21306979656219482,0.28420940041542053,0.028117254376411438
1.4102901220321655,0.9205226302146912,12.448834419250488,0.5188340544700623,0.4389503002166748,-0.013055062852799892
1.4616312980651855,1.3071670532226562,13.343441009521484,1.1250567436218262,0.7964286208152771,-0.1411098688840866
1.4085949659347534,1.7038575410842896,12.700847625732422,1.7192714214324951,0.998153805732727,-0.3548777997493744
-0.7520953416824341,0.8030152320861816,10.841118812561035,1.9919617176055908,1.2890478372573853,-0.23314107954502106
-0.8063287734985352,1.7987732887268066,9.383451461791992,1.9413995742797852,1.3235355615615845,0.10812314599752426
-0.6644196510314941,3.2226815223693848,6.670877933502197,1.027230978012085,0.2667037546634674,0.19092155992984772
-0.4050701856613159,3.522301435470581,5.892178058624268,0.3764675259590149,-0.47256535291671753,0.19936895370483398
0.2413834035396576,3.7080628871917725,6.501894950866699,-0.23322834074497223,-0.9577668905258179,0.11601203680038452
0.7713063955307007,2.944044351577759,9.10251522064209,-0.5070530772209167,-1.0677924156188965,-0.25153684616088867
0.7649761438369751,2.643639087677002,9.299816131591797,-0.34033921360969543,-0.34581953287124634,-0.2128778100013733
0.46127647161483765,2.5978140830993652,9.215761184692383,-0.05860815569758415,-0.1002517119050026,-0.08087855577468872
0.847690999507904,3.4411189556121826,9.884796142578125,0.09133307635784149,0.34061846137046814,-0.00094247778179124
0.455348402261734,3.2553863525390625,10.000274658203125,0.23774875700473785,0.48895397782325745,0.110025554895401
0.5425260663032532,3.2309558391571045,9.169811248779297,0.416435569524765,0.339815616607666,0.14330898225307465
0.9671041965484619,3.6105422973632812,8.963948249816895,0.2745228409767151,-0.8541990518569946,0.14929546415805817
1.4159883260726929,3.7643649578094482,9.625965118408203,0.34253832697868347,-0.853692889213562,0.042010076344013214
1.5843580961227417,3.5271761417388916,9.45319938659668,0.4820948541164398,-0.5627115964889526,-0.061767201870679855
1.4587966203689575,3.587040662765503,8.84827995300293,0.6768037676811218,-0.4810650944709778,-0.16826719045639038
1.262912631034851,3.741131544113159,9.106145858764648,0.7078182697296143,-0.31726595759391785,-0.06869615614414215
1.4675785303115845,4.048777103424072,8.813841819763184,0.5598841905593872,-0.11082840710878372,0.006370451766997576
1.3926399946212769,3.9529225826263428,8.87491226196289,0.44865432381629944,-0.119834303855896,0.00188495556358248
1.5174736976623535,3.982917070388794,8.804399490356445,0.38231438398361206,-0.24324654042720795,-0.038955748081207275
1.6792738437652588,4.2539215087890625,8.750012397766113,0.26080456376075745,-0.9500001668930054,-0.20692624151706696
1.9501250982284546,4.3264946937561035,8.882919311523438,0.17069320380687714,-1.1388622522354126,-0.31607913970947266
1.9579110145568848,4.307628154754639,8.6498384475708,0.08916886895895004,-0.7282037138938904,-0.33459708094596863
1.819880485534668,4.35613489151001,8.76792049407959,0.13521066308021545,-0.8668527007102966,-0.30855676531791687
1.925627589225769,4.422789573669434,8.91756820678711,0.19666369259357452,-0.9552361369132996,-0.3050835430622101
2.247532844543457,4.554566383361816,9.101682662963867,0.3588745892047882,-0.9281660914421082,-0.2744704782962799
2.3647050857543945,4.438648700714111,8.581652641296387,0.46650904417037964,-0.6756518483161926,-0.17545795440673828
2.5608668327331543,4.44261360168457,8.251683235168457,0.46647414565086365,-0.5424308776855469,-0.12541936337947845
2.594050407409668,4.647959232330322,8.297776222229004,0.43823471665382385,-0.5550845265388489,-0.13585643470287323
2.9043867588043213,4.701034069061279,8.463628768920898,0.4507487416267395,-0.4225791096687317,-0.15482816100120544
2.766068935394287,4.801015853881836,8.380098342895508,0.46881288290023804,-0.1923701912164688,-0.15948818624019623
2.0757153034210205,4.944284915924072,7.843136310577393,0.42071160674095154,-0.19549432396888733,-0.07476990669965744
1.9652947187423706,5.028417110443115,7.499990940093994,0.3278600871562958,-0.2457074522972107,0.011239920742809772
2.338780641555786,5.21142053604126,7.393715858459473,0.09693558514118195,-0.33880332112312317,0.17069320380687714
2.9349656105041504,5.158699989318848,7.0433878898620605,-0.1555611938238144,-0.35587263107299805,0.22912682592868805
3.6855859756469727,5.0077409744262695,7.947092533111572,-0.26946139335632324,-0.11168362200260162,0.09162978827953339
2.5946059226989746,4.892483711242676,8.116401672363281,-0.2660754323005676,-0.18558086454868317,-0.01441641990095377
2.4727792739868164,4.815438747406006,7.949879169464111,-0.22041763365268707,-0.6170262694358826,-0.01762782596051693
2.9180338382720947,4.754788398742676,7.412505626678467,-0.2497042566537857,-0.6102369427680969,-0.014992378652095795
2.8825230598449707,4.7388529777526855,8.042141914367676,-0.26796039938926697,-0.3759090006351471,-0.025359634310007095
3.2146081924438477,4.708216667175293,8.366863250732422,0.00331612559966743,-0.9724799990653992,-0.1330813616514206
3.8283092975616455,4.917623043060303,8.349692344665527,0.05660102888941765,-0.5838649868965149,-0.1947089284658432
3.6495773792266846,4.599864482879639,8.557757377624512,0.16585864126682281,-0.2335948646068573,-0.12051498144865036
3.562131404876709,4.591207027435303,8.092966079711914,0.2600889503955841,-0.3580193817615509,-0.18711674213409424
3.4727797508239746,4.957702159881592,7.166860580444336,0.16004669666290283,-0.47143086791038513,-0.2608918249607086
3.5444812774658203,5.110164642333984,7.556551456451416,-0.04904375225305557,-0.40421825647354126,-0.22673572599887848
4.060153961181641,4.836516857147217,7.174579620361328,-0.18985691666603088,-0.7252715826034546,-0.12522737681865692
4.530442237854004,4.233656883239746,7.0716094970703125,-0.49614474177360535,-1.6655502319335938,-0.3695036470890045
3.802988052368164,4.462667465209961,7.4503912925720215,-0.7404908537864685,-2.2654547691345215,-0.44144612550735474
3.811655044555664,4.9162917137146,7.784200668334961,-0.767875075340271,-2.130645513534546,-0.14131930470466614
4.618529796600342,4.907873630523682,8.309871673583984,-0.5993286371231079,-1.4726738929748535,0.050073496997356415
4.856705188751221,4.671049118041992,8.467055320739746,-0.312204509973526,-0.860586941242218,0.09899507462978363
4.8010735511779785,4.489434242248535,7.70083475112915,-0.14550809562206268,-0.6252990961074829,0.09468410909175873
5.339107990264893,4.5758843421936035,7.484226226806641,-0.1483180820941925,-0.4758814573287964,0.08850564807653427
5.898843288421631,4.664987087249756,6.796860694885254,-0.24335125088691711,0.27436575293540955,-0.010070549324154854
4.753917217254639,4.306948184967041,7.797512531280518,-0.2509608864784241,0.20947441458702087,-0.019390607252717018
4.574763774871826,4.369274139404297,7.52884578704834,-0.2657961845397949,0.2520430088043213,0.12657128274440765
5.009177207946777,4.241940975189209,7.930314064025879,-0.29370400309562683,0.5084667801856995,0.19975292682647705
5.009570121765137,4.20330810546875,7.9961066246032715,-0.25708699226379395,0.6805737018585205,0.18961256742477417
4.630012512207031,4.346395492553711,7.927862167358398,-0.22832396626472473,0.857637345790863,0.15341444313526154
4.2253828048706055,4.2227301597595215,8.342318534851074,-0.16236798465251923,0.6395758986473083,0.1247386783361435
4.355675220489502,4.36027193069458,8.526105880737305,0.03267256170511246,0.3176324665546417,0.15142476558685303
4.565742492675781,4.218372344970703,7.81781530380249,0.13034118711948395,0.019320795312523842,0.09840166568756104
4.5805864334106445,4.246585845947266,7.362764835357666,0.03611086308956146,-0.3282789885997772,0.0374373123049736
4.572139739990234,4.267568588256836,7.653927326202393,-0.07744026184082031,-0.4548502564430237,0.07194247096776962
5.821185111999512,4.088980197906494,8.209211349487305,-0.10018189996480942,-0.3251723051071167,0.20085248351097107
5.217319488525391,3.613300323486328,7.781691551208496,0.07728318125009537,-0.103131502866745,0.1852317899465561
5.510034561157227,3.8120381832122803,7.3289384841918945,0.10655234754085541,-0.18826866149902344,0.0866905003786087
5.578949451446533,3.893153667449951,7.332749843597412,0.10332348942756653,-0.3692069351673126,-0.017296213656663895
5.8306756019592285,3.595841884613037,7.164236545562744,0.09672614932060242,-0.6709394454956055,-0.13915510475635529
4.983128547668457,4.141528129577637,6.663666248321533,0.13552480936050415,-1.4517823457717896,-0.35876989364624023
5.621087551116943,4.688478946685791,6.29635763168335,0.15845844149589539,-0.5283635258674622,-0.037978366017341614
6.797262668609619,4.397468566894531,5.035599708557129,-0.1538333147764206,0.566219687461853,-0.1742536723613739
5.297152996063232,4.124414443969727,6.832773685455322,-0.24818581342697144,0.1992816925048828,-0.1722814440727234
5.11683988571167,4.288177967071533,6.973543167114258,-0.2301216572523117,0.025080380961298943,-0.10934487730264664
5.537960529327393,4.201862335205078,6.969118595123291,-0.3118554353713989,-0.03698352724313736,0.11313223838806152
5.722505569458008,4.309859752655029,7.2322797775268555,-0.2430894523859024,0.16556192934513092,0.08276351541280746
5.66903829574585,4.188971519470215,7.4483323097229,-0.11140436679124832,0.25909411907196045,0.08597491681575775
6.325681686401367,3.7990903854370117,7.263566970825195,-0.046443212777376175,-0.1336747705936432,-0.026912976056337357
7.092630863189697,3.5318591594696045,7.653573036193848,0.02364921197295189,-0.8857545852661133,-0.34318408370018005
6.280699253082275,3.621593952178955,7.48079776763916,0.08155923336744308,-1.1184419393539429,-0.40338048338890076
4.886048316955566,4.49505615234375,7.07106351852417,0.15200072526931763,-0.8224689364433289,-0.11337658762931824
5.178121566772461,4.580873966217041,6.770227432250977,0.15995942056179047,-0.566376805305481,0.058712877333164215
7.065978527069092,4.128905773162842,7.180363655090332,0.16610299050807953,-0.7057413458824158,-0.01745329238474369
7.500115394592285,4.19292688369751,7.379868030548096,0.3156951665878296,-1.0927157402038574,-0.30757936835289
6.171658039093018,4.595909595489502,6.859262943267822,0.5120446681976318,-0.26804766058921814,-0.29710739850997925
6.340248107910156,4.62484073638916,4.312704086303711,0.14945253729820251,0.47476446628570557,-0.30321604013442993
5.41801118850708,4.422109603881836,6.3809494972229,-0.07222172617912292,0.4661250710487366,-0.06894050538539886
5.456576824188232,4.732541561126709,6.738806247711182,-0.017732545733451843,1.0314546823501587,0.28036969900131226
6.508885860443115,4.229519844055176,6.866962909698486,0.017243852838873863,2.031022071838379,0.22420500218868256
6.127528190612793,4.084354877471924,7.886079788208008,0.15875515341758728,1.996848702430725,-0.02410299703478813
5.245178699493408,4.0688018798828125,7.584437847137451,0.3438473045825958,1.9170347452163696,-0.07119198143482208
5.111467361450195,4.321648597717285,6.415014266967773,0.2491282969713211,1.3220345973968506,-0.09569640457630157
4.660294055938721,4.087371349334717,7.099976062774658,-0.0239110104739666,-0.04789183288812637,-0.24640558660030365
4.411718845367432,4.358644008636475,7.608428001403809,-0.07360053062438965,-0.910730242729187,-0.17736035585403442
5.451827049255371,4.685701370239258,6.601963043212891,-0.26996752619743347,0.03317870944738388,0.21706660091876984
6.131425857543945,4.616997718811035,7.567515850067139,-0.19664624333381653,0.3719122111797333,-0.019495327025651932
5.077306747436523,4.047091484069824,7.914914608001709,0.02923426404595375,-0.04326671361923218,-0.213174507021904
4.52462911605835,4.18962287902832,6.9835028648376465,0.03537782281637192,-0.8474445939064026,-0.16322319209575653
4.461077690124512,4.3688530921936035,6.6407790184021,-0.16844172775745392,-1.3402732610702515,0.039043016731739044
5.123007297515869,4.614114761352539,7.002608776092529,-0.32737141847610474,-1.4147639274597168,0.20024162530899048
6.260684013366699,4.691188812255859,7.4237871170043945,-0.3171961307525635,-1.2554327249526978,0.25787240266799927
7.135209083557129,4.310060977935791,8.216269493103027,-0.07237880676984787,-0.8016122579574585,0.1253146380186081
7.462917804718018,4.641734600067139,6.129519939422607,0.12171926349401474,0.24933773279190063,-0.13500121235847473
4.8231000900268555,4.197782516479492,6.656895637512207,0.0357094369828701,0.22169172763824463,-0.10566223412752151
4.386617660522461,4.261133193969727,6.523461818695068,0.002914699725806713,0.0377340167760849,0.08911651372909546
5.597384929656982,4.534378528594971,6.765467643737793,-0.08272860944271088,-0.045465826988220215,0.38002797961235046
6.2929205894470215,5.0135345458984375,7.129941940307617,-0.06204645335674286,0.8705178499221802,0.49099603295326233
6.3276543617248535,4.57886266708374,7.4373955726623535,0.011414453387260437,1.6771740913391113,0.5191307067871094
6.43941593170166,4.390774250030518,7.319610595703125,0.0918915867805481,2.987776756286621,0.44973644614219666
5.523710250854492,3.8262500762939453,7.5743536949157715,0.1143539696931839,3.126373291015625,0.34410911798477173
3.668998956680298,3.940051317214966,6.46607780456543,-0.04616395756602287,2.4913179874420166,0.6211801171302795
3.960019111633301,2.4449970722198486,9.888847351074219,-0.39507272839546204,-0.006248278543353081,0.8062548637390137
4.879268169403076,2.008639335632324,10.772404670715332,-0.2675764262676239,0.733474612236023,0.18332938849925995
4.616011142730713,2.6118154525756836,11.761677742004395,0.14587461948394775,1.397432804107666,-0.5277526378631592
2.3449480533599854,1.6330082416534424,11.170292854309082,0.7854505181312561,2.0514774322509766,-0.41350340843200684
1.9214425086975098,1.3834463357925415,10.841864585876465,1.0131287574768066,2.440808057785034,-0.15502014756202698
1.4403899908065796,2.750401258468628,9.098224639892578,0.990195095539093,2.966571092605591,0.1388409435749054
0.9911994338035583,3.1149520874023438,7.731930255889893,0.7075913548469543,2.1594958305358887,0.05951572582125664
0.9860280156135559,3.0355029106140137,7.253818035125732,0.3877772390842438,1.5004944801330566,-0.009948376566171646
0.43337923288345337,2.47367000579834,8.490528106689453,0.019896753132343292,0.13878858089447021,-0.026686083525419235
1.3066211938858032,2.817103862762451,9.183199882507324,-0.09128072112798691,0.05757841095328331,-0.04153883457183838
1.3658920526504517,3.1209566593170166,9.099997520446777,-0.06197664141654968,0.07585200667381287,-0.24001768231391907
0.3971693217754364,2.874124050140381,9.197431564331055,-0.0345749706029892,0.06923720985651016,-0.21108011901378632
0.45944729447364807,2.8293142318725586,9.538280487060547,0.12540189921855927,0.1581442803144455,-0.051399946212768555
0.8974233865737915,3.0583627223968506,9.572688102722168,0.37400659918785095,0.20484928786754608,0.05810201168060303
0.753943681716919,3.2492570877075195,8.692081451416016,0.38098791241645813,0.00890117883682251,0.14894640445709229
0.8464651703834534,3.2145986557006836,8.532388687133789,0.28993409872055054,-0.14552555978298187,0.1408480703830719
1.0808383226394653,3.2486824989318848,8.385758399963379,0.15193091332912445,-0.210259810090065,0.11526153981685638
1.1916323900222778,3.116532325744629,8.46484375,-0.21334904432296753,-0.3914948105812073,-0.044662974774837494
1.642958641052246,3.3265228271484375,9.975709915161133,-0.0091455252841115,-0.5793620347976685,-0.10855948179960251
1.4583369493484497,3.1906661987304688,10.03001880645752,0.0936194583773613,-0.4363323152065277,-0.13514083623886108
0.8953739404678345,3.210423231124878,9.421317100524902,0.15632914006710052,-0.2211855798959732,-0.056321773678064346
0.7664509415626526,3.360673666000366,8.569029808044434,0.06237806752324104,-0.43856632709503174,0.051487211138010025
0.8982278108596802,3.1257834434509277,8.745301246643066,0.04979424178600311,-0.7555704712867737,0.11817624419927597
1.4559905529022217,2.954167127609253,10.126860618591309,0.4410272538661957,-1.658900499343872,-0.09918706119060516
3.0824291706085205,3.5237956047058105,10.099604606628418,0.6491926908493042,-2.0532402992248535,-0.3265511095523834
3.149993658065796,3.5929975509643555,10.424976348876953,0.9519025683403015,-2.429969549179077,-0.8099200129508972
2.627779960632324,3.5943095684051514,9.166037559509277,1.0371793508529663,-2.144136905670166,-0.8193971514701843
2.5504088401794434,3.6180503368377686,8.11181354522705,0.8363792300224304,-2.0153839588165283,-0.6026272773742676
3.1281487941741943,3.962451457977295,7.639965534210205,0.4530525803565979,-1.6265596151351929,-0.4531223773956299
3.546741485595703,4.230917930603027,7.93386697769165,0.1578301191329956,-0.9332450032234192,-0.3157300651073456
3.283149480819702,4.3520073890686035,8.216402053833008,0.10325367748737335,-0.2869321405887604,0.02015855349600315
3.6185483932495117,4.249353408813477,8.307592391967773,0.15376350283622742,-0.0032463124953210354,0.26373669505119324
4.056907653808594,4.102589130401611,8.223862648010254,0.1828930526971817,0.251676470041275,0.23209388554096222
4.019165515899658,4.091211795806885,8.086004257202148,0.21294762194156647,0.24631831049919128,0.09834930300712585
3.5749452114105225,4.243588447570801,7.865086555480957,0.24073326587677002,-0.0383099764585495,-0.10213666409254074
3.3566226959228516,4.289039611816406,7.625656604766846,0.19943876564502716,-0.3373197913169861,-0.11046189069747925
3.826901435852051,4.408261299133301,7.947695732116699,0.1943947672843933,0.3067066967487335,-0.03237585723400116
3.206468105316162,4.276427268981934,7.575119972229004,0.07211700081825256,0.3589444160461426,0.008447393774986267
3.2538349628448486,4.3374505043029785,7.639409065246582,0.0423416867852211,0.25963518023490906,0.0037000980228185654
3.1138699054718018,4.174970626831055,7.904581069946289,0.1402721107006073,0.017435839399695396,-0.019949113950133324
3.131213426589966,4.126588344573975,8.25372314453125,0.2637541592121124,-0.013072515837848186,-0.02249729447066784
3.242582082748413,4.791237831115723,8.756409645080566,0.5046270489692688,-0.1782504767179489,-0.04110250249505043
2.9040133953094482,4.48107385635376,7.409287929534912,0.6110572218894958,-0.6350380182266235,-0.14788174629211426
4.916464328765869,4.7610039710998535,7.457344055175781,0.28042206168174744,-1.1744669675827026,-0.5344721674919128
4.836201190948486,4.870428562164307,7.227787971496582,0.2909289300441742,-1.0972012281417847,-0.8310559988021851
3.2988460063934326,5.127795696258545,7.442739486694336,0.20315632224082947,-0.7153406739234924,-0.6334497928619385
3.31127667427063,5.180161476135254,7.8728532791137695,0.2592686712741852,-0.4386885166168213,-0.3975161910057068
4.284423828125,4.8790283203125,8.216094970703125,0.5687504410743713,-0.10117673873901367,-0.17188002169132233
4.529101371765137,4.733470439910889,7.20131778717041,0.6985156536102295,0.017994344234466553,-0.28932324051856995
3.9940836429595947,4.768397331237793,6.49352502822876,0.6115633845329285,0.0027576202992349863,-0.3239680230617523
3.068063974380493,5.180822372436523,5.8190016746521,0.18528415262699127,-0.437222421169281,-0.12149237096309662
3.131692409515381,5.529983043670654,5.781498908996582,-0.233839213848114,-0.635840892791748,0.30377456545829773
5.364495754241943,5.4134907722473145,5.989679336547852,-0.4199960231781006,-1.138198971748352,0.3321012556552887
5.037783145904541,5.183887004852295,7.0117926597595215,-0.5118003487586975,-1.1322823762893677,0.20886355638504028
4.608110427856445,4.963553428649902,7.212005615234375,-0.4104839861392975,-1.0040180683135986,0.11852531135082245
4.2823262214660645,5.018045425415039,6.879968166351318,-0.4271867871284485,-1.2026190757751465,0.06696828454732895
4.40483283996582,4.976683139801025,6.9984235763549805,-0.4559149146080017,-1.412041187286377,0.08330456167459488
4.885971546173096,5.009052753448486,7.187479496002197,-0.44804346561431885,-1.5640593767166138,0.11323696374893188
5.3998918533325195,4.985848426818848,7.586381912231445,-0.2880491316318512,-1.2717865705490112,0.1226791962981224
5.713752746582031,4.559383392333984,7.482828140258789,-0.17676694691181183,-0.9955357909202576,0.13472196459770203
6.322521209716797,4.736908912658691,7.581498146057129,-0.19343483448028564,-0.6017197370529175,0.14791665971279144
5.86074686050415,4.63706111907959,8.479304313659668,-0.5902703404426575,0.11074113845825195,0.34636059403419495
6.744322299957275,4.885128974914551,9.087173461914062,-0.37056830525398254,0.7407003045082092,0.26162484288215637
6.423048973083496,4.803496360778809,8.619098663330078,0.0437728576362133,2.04856276512146,0.16842427849769592
2.632932186126709,4.053728103637695,6.185898780822754,-0.17402677237987518,2.4887521266937256,0.24036674201488495
3.9699501991271973,4.89560604095459,6.727725505828857,-0.6826855540275574,1.987493634223938,0.5040685534477234
4.539827823638916,4.218315124511719,9.14684772491455,-0.603866457939148,1.743531584739685,0.4464901387691498
4.889649391174316,3.5781726837158203,9.79660415649414,-0.20467476546764374,1.5403053760528564,0.06817255914211273
3.735347032546997,3.6866681575775146,9.043416976928711,0.060126591473817825,1.1408867835998535,-0.30483919382095337
2.787501811981201,3.581725597381592,8.26331901550293,0.06326818466186523,0.5752779841423035,-0.3674790859222412
2.5547759532928467,3.670445203781128,8.136473655700684,0.03441789373755455,0.42870521545410156,-0.334090918302536
2.935750961303711,4.401557922363281,8.007828712463379,-0.11454595625400543,0.627428412437439,-0.24963444471359253
2.656883716583252,4.78993558883667,7.7724785804748535,-0.3062180280685425,0.9112364053726196,-0.21383774280548096
2.1858582496643066,4.467158794403076,8.234664916992188,-0.3825761675834656,0.9357582926750183,-0.17039649188518524
1.3112850189208984,3.6264779567718506,9.099823951721191,-0.3778288662433624,0.7314849495887756,-0.03476695716381073
1.8852709531784058,4.010622978210449,9.128478050231934,-0.17865189909934998,-0.21179570257663727,-0.07124433666467667
2.2550601959228516,4.163392066955566,9.249979019165039,-0.06400122493505478,-0.45549601316452026,-0.13341297209262848
2.44419264793396,4.143405437469482,8.525589942932129,0.06173229590058327,-0.6370277404785156,-0.16088445484638214
2.4239375591278076,4.2605390548706055,8.283621788024902,0.012758356519043446,-0.667728066444397,-0.10356783866882324
2.606931209564209,4.358126640319824,8.416997909545898,-0.020804325118660927,-0.5638635158538818,-0.07468263804912567
2.942856788635254,4.159034729003906,8.688605308532715,0.03593632951378822,-0.2536661624908447,-0.046216320246458054
2.7584075927734375,4.039515972137451,8.614883422851562,0.1918640434741974,-0.07009242475032806,-0.06742206960916519
2.6108193397521973,4.119808197021484,8.565543174743652,0.2471037209033966,-0.08964011073112488,-0.07133160531520844
2.750066041946411,4.193357944488525,8.086761474609375,0.2548529803752899,-0.2567030191421509,-0.03841469809412956
3.106428623199463,4.137688159942627,7.4818034172058105,0.12477358430624008,-0.22650882601737976,-0.035412728786468506
3.2198755741119385,4.188454627990723,7.294107437133789,-0.009285151958465576,-0.11613421142101288,-0.04358087107539177
2.9653048515319824,3.983769416809082,7.459728717803955,-0.26914721727371216,0.21128955483436584,-0.02007128670811653
2.7967913150787354,4.100999355316162,8.120777130126953,-0.4191233515739441,0.2721666395664215,0.035150930285453796
2.391481876373291,3.821777820587158,8.147066116333008,-0.49497538805007935,0.0021816615480929613,0.12456414848566055
2.522444725036621,3.837388038635254,7.865421295166016,-0.5686806440353394,-0.12065461277961731,0.21125465631484985
2.587796688079834,3.698505163192749,7.9125776290893555,-0.6687054634094238,0.03295181691646576,0.3165503740310669
2.558779001235962,3.4964537620544434,8.114935874938965,-0.7715926170349121,0.20322613418102264,0.4355120062828064
2.3329484462738037,3.5170533657073975,8.36058235168457,-0.877935528755188,0.23354250192642212,0.568506121635437
2.314321517944336,3.507035970687866,8.685657501220703,-0.9387428164482117,0.05628686770796776,0.7502123117446899
1.6482737064361572,0.7613944411277771,9.475781440734863,-0.7893425822257996,0.543338418006897,0.4105188846588135
3.5972113609313965,3.314331531524658,10.244989395141602,-0.5742482542991638,0.6036744713783264,0.4648684561252594
2.439978837966919,2.34033203125,10.755864143371582,-0.27178266644477844,0.5734104514122009,0.535170316696167
2.9747955799102783,2.2810420989990234,10.824319839477539,0.11859512329101562,0.563880980014801,0.6814812421798706
4.110374927520752,2.2628939151763916,10.538049697875977,0.34688419103622437,0.8515985012054443,0.4081626832485199
3.5784599781036377,2.1285505294799805,9.559826850891113,0.3771132826805115,0.9940173625946045,-0.03389429301023483
2.71742844581604,2.2518041133880615,8.962569236755371,0.2698802649974823,1.1281284093856812,-0.16858135163784027
2.478975534439087,2.4999582767486572,9.077366828918457,0.21165607869625092,1.2763417959213257,-0.16720254719257355
1.2569271326065063,2.768223762512207,8.802645683288574,0.157236710190773,1.407730221748352,-0.06255260109901428
0.776554524898529,2.8729748725891113,9.783914566040039,0.16355480253696442,0.7792196869850159,0.19521507620811462
2.0074517726898193,2.590305805206299,9.762261390686035,0.17706365883350372,0.13639748096466064,0.0838281661272049
2.339029550552368,2.7298591136932373,9.366069793701172,0.17587682604789734,-0.4374493360519409,-0.20287707448005676
1.795086145401001,2.616306781768799,8.805164337158203,0.1253146380186081,-0.8994379639625549,-0.3798709213733673
1.7914661169052124,2.559861183166504,9.0770902633667,0.09367182105779648,-1.0585596561431885,-0.4046022295951843
2.297590732574463,2.775550127029419,10.164889335632324,0.11651817709207535,-0.38091811537742615,-0.3933972120285034
2.4205570220947266,3.169281244277954,10.276228904724121,0.1823345422744751,-0.02122320421040058,-0.43158501386642456
2.226846933364868,3.6422605514526367,9.851842880249023,0.36772340536117554,0.09951867163181305,-0.5361302495002747
1.4558278322219849,3.0610058307647705,9.037498474121094,0.49062949419021606,-0.19607028365135193,-0.6045820713043213
1.028568148612976,2.2637081146240234,8.913593292236328,0.5269672870635986,-0.2791828513145447,-0.5502673983573914
0.9490615129470825,1.4645427465438843,9.721503257751465,0.6547951698303223,0.055867988616228104,-0.37836992740631104
1.6022475957870483,3.5200414657592773,8.183897972106934,0.6290341019630432,-0.06380923837423325,-0.30054569244384766
1.5247712135314941,3.789523124694824,8.396368980407715,0.583638072013855,-0.5554859638214111,-0.28014278411865234
1.7544039487838745,3.387354850769043,8.621759414672852,0.4780631363391876,-0.9579064846038818,-0.13440780341625214
2.1185810565948486,3.3732290267944336,8.93249797821045,0.42668065428733826,-0.8560141921043396,-0.05014330893754959
3.0278127193450928,3.461958169937134,9.221267700195312,0.3058514893054962,-0.283982515335083,-0.03199188411235809
2.6399617195129395,3.317702531814575,8.9395751953125,0.17736035585403442,0.014189526438713074,-0.1607273668050766
2.5486085414886475,3.31827712059021,8.897313117980957,0.1339191198348999,0.038065630942583084,-0.20172515511512756
2.355348587036133,3.596780300140381,8.82155990600586,0.00954695139080286,0.15720181167125702,-0.15632914006710052
2.096602439880371,4.096565246582031,8.110234260559082,-0.31330406665802,0.1388583928346634,0.033999014645814896
2.0262320041656494,4.125726699829102,7.8347086906433105,-0.5573883652687073,-0.021694442257285118,0.12887510657310486
1.8149293661117554,3.414198637008667,7.6516289710998535,-1.0134952068328857,-0.45528659224510193,0.21265091001987457
1.8489940166473389,2.84390926361084,8.772335052490234,-1.2592376470565796,-0.7077135443687439,0.22951079905033112
2.5159802436828613,3.226579189300537,10.253340721130371,-1.0997494459152222,-0.4144807755947113,0.203330859541893
2.908428192138672,3.41976261138916,10.584182739257812,-0.6154554486274719,-0.22055725753307343,0.056932639330625534
2.2490172386169434,2.7115769386291504,9.017013549804688,0.6783396601676941,-0.5489234924316406,-0.05722934752702713
2.167853832244873,3.068188428878784,8.195305824279785,0.5711938738822937,-0.8738165497779846,-0.05283111706376076
2.922783851623535,3.2326509952545166,8.532580375671387,0.20430824160575867,-0.9602103233337402,-0.1468869149684906
3.0725746154785156,3.273371696472168,9.169275283813477,0.2096838504076004,-0.8196240663528442,-0.19767598807811737
3.032553195953369,3.3044004440307617,8.911380767822266,0.2894802987575531,-0.83763587474823,-0.1849001795053482
3.394115924835205,3.426839828491211,7.812145709991455,0.27258551120758057,-1.0793465375900269,-0.193539559841156
3.721489429473877,3.6319942474365234,8.551426887512207,0.44457027316093445,-0.09787806123495102,-0.005497787147760391
3.3753933906555176,3.9424359798431396,6.879671096801758,-0.0067369709722697735,1.1287567615509033,0.09112364053726196
2.503070831298828,3.659029483795166,7.494616985321045,-0.43680354952812195,1.1483567953109741,0.374390572309494
3.470529317855835,3.2771735191345215,9.95997428894043,-0.33393383026123047,2.0517916679382324,0.5470036268234253
2.9204087257385254,3.2119266986846924,11.101597785949707,0.1281595230102539,2.946394920349121,0.7132811546325684
1.8685020208358765,3.1455979347229004,8.896834373474121,0.09595820307731628,3.8060219287872314,0.6044249534606934
0.18547400832176208,2.880856513977051,7.282989025115967,-0.15140731632709503,2.9517009258270264,0.4305552840232849
0.5176551342010498,3.465961217880249,8.000004768371582,-0.6201154589653015,2.277829170227051,0.364616721868515
0.7839669585227966,2.9505279064178467,8.165587425231934,0.09826203435659409,0.35700708627700806,-0.08342673629522324
0.6776260733604431,3.1091485023498535,7.647347927093506,-0.19462166726589203,-0.5384864211082458,-0.12993976473808289
1.0672202110290527,3.0589661598205566,8.604702949523926,-0.21443115174770355,-1.4777703285217285,-0.30435052514076233
0.8754254579544067,3.0569357872009277,10.171258926391602,-0.16514305770397186,-1.6479573249816895,-0.3769562244415283
0.9251673817634583,3.185877799987793,10.704113006591797,0.2519906461238861,-1.788124680519104,-0.29907962679862976
1.6075435876846313,3.0583436489105225,10.505489349365234,0.6942570805549622,-1.7406866550445557,-0.21910862624645233
1.8608596324920654,3.2091591358184814,9.855204582214355,0.8827351927757263,-1.721854567527771,-0.24520130455493927
1.8462167978286743,3.143845319747925,8.40280532836914,1.069520354270935,-2.017897367477417,-0.3298497796058655
2.4175307750701904,3.4670815467834473,7.580319881439209,0.8330281972885132,-2.059802770614624,-0.34150856733322144
3.048441171646118,3.8254075050354004,7.267991542816162,0.25041982531547546,-1.509535312652588,-0.1773952692747116
3.420193672180176,3.3928518295288086,7.81781530380249,-0.08845328539609909,-1.233965277671814,-0.139434352517128
3.7708866596221924,3.236194372177124,8.20522689819336,-0.1889493465423584,-1.1399966478347778,-0.2790781557559967
3.67865252494812,3.4356791973114014,8.192852973937988,-0.2736676335334778,-1.1503814458847046,-0.40542253851890564
3.5418190956115723,3.5469906330108643,7.822890758514404,-0.4240626394748688,-1.0654536485671997,-0.3225892186164856
3.6513490676879883,3.4202797412872314,8.12479019165039,-0.5653470754623413,-0.7409620881080627,-0.16865116357803345
3.816912889480591,3.0806479454040527,8.640567779541016,-0.5395860075950623,-0.5392892956733704,-0.1178097277879715
3.6755495071411133,3.084315776824951,8.697779655456543,-0.3810751736164093,-0.6624746322631836,-0.1880417764186859
3.4564225673675537,3.222490072250366,8.45022964477539,-0.3534640669822693,-0.8490154147148132,-0.17982126772403717
3.896496057510376,3.447573661804199,8.662604331970215,-0.1644798219203949,-0.7783121466636658,0.027122415602207184
3.563098669052124,3.6797633171081543,8.31808853149414,-0.21121974289417267,0.030613074079155922,0.0719948336482048
3.1054134368896484,3.751579761505127,8.442586898803711,-0.23380430042743683,0.2765299677848816,0.22884756326675415
3.0914409160614014,3.4066519737243652,9.171813011169434,-0.07482226192951202,-0.5020614266395569,0.33740705251693726
4.562246799468994,3.51350998878479,9.015204429626465,0.12795008718967438,-0.7909134030342102,0.40275219082832336
5.601560115814209,3.3187944889068604,8.532742500305176,0.13156291842460632,-0.31520646810531616,0.13343042135238647
4.256153106689453,2.9870729446411133,6.970966815948486,-0.05686282739043236,-0.19580848515033722,-0.04738568887114525
3.73523211479187,3.0837507247924805,6.710918426513672,-0.30970868468284607,-0.37828266620635986,0.01647590845823288
4.312933921813965,2.9832518100738525,9.051767349243164,-0.6385112404823303,-0.8736768960952759,0.2128428965806961
5.094516277313232,2.769057035446167,10.175835609436035,-0.43308600783348083,-0.9602975845336914,0.23781856894493103
6.205397129058838,2.544222354888916,10.917415618896484,0.2516939342021942,-0.8028689026832581,0.040997784584760666
5.655592441558838,2.4842140674591064,9.326229095458984,0.7013081908226013,-0.44605380296707153,-0.16351990401744843
4.60028600692749,2.781813144683838,7.239242076873779,0.6263462901115417,-0.4260348677635193,-0.10164797306060791
4.686084747314453,2.817304849624634,6.758725643157959,0.4524940550327301,-0.5981417894363403,-0.0437728576362133
6.043568134307861,3.001246690750122,8.002552032470703,0.25624924898147583,-0.6545682549476624,-0.0677013248205185
6.828848361968994,3.639751434326172,6.95263671875,0.20556487143039703,0.4090528190135956,-0.25361379981040955
5.92463493347168,3.2365870475769043,7.7855987548828125,0.15629422664642334,-1.3252633810043335,-0.24937264621257782
6.4819655418396,3.6673710346221924,7.083092212677002,0.17153096199035645,-1.0134079456329346,-0.4282863438129425
5.688019752502441,3.410109281539917,6.548543453216553,-0.05227261036634445,-0.8830667734146118,-0.4378158450126648
5.824393272399902,3.780693292617798,7.690855503082275,-0.23636993765830994,-0.7593404054641724,-0.05009094998240471
6.351424217224121,3.5116043090820312,8.012704849243164,-0.0012217304902151227,-0.5301088690757751,-0.15484561026096344
6.659002304077148,3.765648126602173,7.637876510620117,0.37770670652389526,1.0760129690170288,-0.12966051697731018
5.262388229370117,3.3295300006866455,6.570350170135498,0.16947147250175476,1.700195074081421,-0.22832396626472473
4.113094806671143,3.75687575340271,6.608341217041016,-0.021781709045171738,0.9760579466819763,0.12629202008247375
4.1954169273376465,3.96319842338562,7.626346111297607,-0.18957766890525818,1.2786805629730225,0.6069382429122925
5.746754169464111,4.081615924835205,8.874665260314941,0.08826129883527756,5.273442268371582,0.972916305065155
3.8645670413970947,3.4895966053009033,8.032000541687012,-0.19830431044101715,6.469516754150391,1.3099743127822876
0.9981713891029358,2.838881492614746,7.502450942993164,-0.4583060145378113,2.843717336654663,1.6759873628616333
2.9284820556640625,2.333130359649658,9.490673065185547,-0.17184512317180634,-0.16777850687503815,1.387274980545044
4.776451110839844,3.0163300037384033,11.30510425567627,0.06600835174322128,1.459531545639038,0.8730834722518921
2.8271307945251465,2.5092382431030273,11.19969367980957,0.479337215423584,3.154909610748291,0.7402814030647278
2.055575370788574,2.803619623184204,11.493193626403809,1.163820505142212,3.4482994079589844,0.9195266962051392
0.73532634973526,2.986057758331299,9.362737655639648,1.495590090751648,2.6337890625,0.9634042978286743
1.5582996606826782,3.769009590148926,5.98299503326416,-0.20982348918914795,0.4412890374660492,0.5803394317626953
1.9639636278152466,3.422156810760498,8.172109603881836,-0.9413433074951172,0.036651913076639175,0.35154423117637634
1.869842767715454,3.1280531883239746,9.783608436584473,-1.050251841545105,0.26834437251091003,0.14268065989017487
0.8005635738372803,2.9409990310668945,10.758892059326172,-0.7369303703308105,0.4786390960216522,0.11856021732091904
0.7187393307685852,3.2877559661865234,8.490960121154785,0.13199925422668457,0.29108601808547974,0.10065313428640366
0.6602728962898254,2.9942171573638916,7.841422080993652,-0.02045525796711445,0.037716563791036606,0.08888962119817734
2.007652997970581,3.2551755905151367,10.107112884521484,0.25448647141456604,0.35702455043792725,-0.1324704885482788
0.8086559772491455,2.8996176719665527,8.441743850708008,0.08304276317358017,0.5189213156700134,-0.19507545232772827
0.4330057203769684,3.2509138584136963,7.7654876708984375,-0.35014796257019043,0.1664520502090454,-0.22446680068969727
0.1317768543958664,2.815983295440674,7.957579135894775,-0.4686208963394165,-0.05365142226219177,-0.19947367906570435
0.6246759295463562,3.026759147644043,10.383567810058594,-0.3614751398563385,0.10407398641109467,-0.1958608478307724
0.15666697919368744,3.1342685222625732,11.008749961853027,0.0452214814722538,0.08922123163938522,-0.09587093442678452
0.5861388444900513,2.8471174240112305,9.033390045166016,0.2309943288564682,-0.4795815646648407,-0.09494590759277344
1.457877278327942,3.0394294261932373,10.086867332458496,0.6569070219993591,-0.9511695504188538,-0.11011282354593277
1.2417861223220825,3.228724479675293,8.435481071472168,0.3965562582015991,0.02028072625398636,-0.17905332148075104
1.2593116760253906,3.430680274963379,7.396541118621826,-0.05564109608530998,-0.11554079502820969,-0.17469000816345215
0.9124493598937988,2.8720459938049316,8.219954490661621,-0.2520430088043213,-0.7596196532249451,-0.284017413854599
1.5034053325653076,3.275679588317871,10.622930526733398,-0.030682887881994247,-0.8373914957046509,-0.42666319012641907
1.283493161201477,3.605083465576172,11.089395523071289,0.5686631798744202,-1.3392609357833862,-0.6133261322975159
1.2877261638641357,3.3863396644592285,8.936558723449707,1.2643513679504395,-3.007883071899414,-0.9497383832931519
1.9186078310012817,3.6299831867218018,7.733692646026611,1.4914536476135254,-3.4248769283294678,-1.451817274093628
2.556882858276367,4.292947292327881,7.502556324005127,1.0591007471084595,-2.856126546859741,-1.342507243156433
4.668041706085205,5.410876274108887,8.279667854309082,0.8125729560852051,-1.6500343084335327,-0.908915102481842
4.488563060760498,4.967029571533203,8.78667163848877,0.9632821083068848,-0.18931587040424347,-0.6742381453514099
3.4086055755615234,5.049179553985596,6.085677623748779,0.32239723205566406,-0.7014129161834717,-0.540999710559845
3.801781415939331,5.409822940826416,6.444424629211426,-0.09286896884441376,-1.2725545167922974,-0.5741086006164551
2.458892822265625,5.555572509765625,6.615102291107178,-0.39187878370285034,-1.2684528827667236,-0.3906570374965668
4.431523323059082,4.985570430755615,8.545537948608398,0.19926424324512482,-1.0414729118347168,-0.3251373767852783
3.24507212638855,5.605659008026123,7.722439765930176,0.364616721868515,-0.6364866495132446,-0.056496307253837585
4.517274379730225,5.880877494812012,5.505715370178223,-0.05173156037926674,0.3528532087802887,0.12822933495044708
4.336176872253418,5.421650409698486,7.696419715881348,-0.3599741458892822,0.23465952277183533,0.135402649641037
4.459842205047607,5.295658111572266,8.725543975830078,-0.27056095004081726,0.10766936093568802,0.140516459941864
4.598677158355713,5.574390888214111,8.751802444458008,0.0114493602886796,0.8602727651596069,0.1439896672964096
3.9880216121673584,5.394050121307373,7.975257873535156,0.24017475545406342,2.0266764163970947,0.2105914205312729
2.986421823501587,5.668645858764648,7.600383281707764,0.22800981998443604,2.593053102493286,0.4047069549560547
2.36738657951355,4.966187000274658,8.020452499389648,0.3191858232021332,2.4344027042388916,0.65099036693573
2.9502406120300293,5.015124320983887,7.5814690589904785,0.4007101356983185,2.0011072158813477,0.6484072804450989
3.013648509979248,5.011801242828369,7.353522300720215,0.3455926477909088,1.6758651733398438,0.4196993112564087
2.4890406131744385,5.081788539886475,7.205177307128906,0.1832072138786316,1.2459555864334106,0.21273818612098694
2.0705726146698,4.993998050689697,8.519335746765137,-0.165911003947258,-0.2514844834804535,0.05274384841322899
2.899751663208008,5.104074001312256,9.050944328308105,0.04930555075407028,-0.5912826657295227,-0.06731735169887543
2.9601237773895264,5.073495388031006,8.91967487335205,0.17074556648731232,-0.664848268032074,-0.12866567075252533
2.667121410369873,5.09419059753418,7.909313201904297,0.2471386194229126,-0.6300289630889893,-0.17208945751190186
3.0895063877105713,5.3013176918029785,7.3285746574401855,0.05152212083339691,-0.3986157476902008,-0.20729275047779083
3.124500036239624,5.447766304016113,8.051422119140625,-0.10545279085636139,-0.2866703271865845,-0.30866149067878723
2.4094958305358887,5.4033203125,8.080124855041504,0.09300859272480011,-0.21038198471069336,-0.20636773109436035
2.3064396381378174,5.475903034210205,7.804991722106934,0.11192796379327774,-0.20577432215213776,-0.1679355800151825
2.1680452823638916,5.515148639678955,7.423183917999268,0.07651523500680923,-0.21266837418079376,-0.10114183276891708
2.4276726245880127,5.604806900024414,7.73863410949707,0.037227872759103775,-0.23436281085014343,-0.04115486517548561
3.058046579360962,5.556242942810059,8.158041000366211,0.10969394445419312,-0.2635447084903717,-0.038641590625047684
3.0099806785583496,5.34409761428833,7.808909893035889,0.18668042123317719,-0.3744952976703644,-0.11102039366960526
2.626084804534912,5.0715508460998535,6.82765007019043,0.11133455485105515,-0.7531968355178833,-0.13700833916664124
3.0781772136688232,5.40599250793457,6.877047061920166,0.046303585171699524,-0.7247479557991028,-0.116378553211689
3.0468225479125977,5.52733039855957,7.038425922393799,-0.17931511998176575,-0.016999507322907448,-0.04902629926800728
2.7568178176879883,5.340620994567871,7.387970924377441,-0.2188991904258728,0.036425020545721054,-0.01696459949016571
3.0741453170776367,5.462763786315918,7.701274871826172,-0.20268508791923523,-0.12571606040000916,0.015062191523611546
3.341615915298462,5.358654022216797,7.789994716644287,-0.1275835633277893,0.15999433398246765,-0.01432915311306715
