accX,accY,accZ,gyroX,gyroY,gyroZ
-1.580173134803772,5.0469770431518555,7.862558364868164,-0.03256784379482269,0.0812101662158966,-0.1059938445687294
-2.4803929328918457,5.726930618286133,7.326257228851318,-0.03256784379482269,0.0812101662158966,-0.1059938445687294
-2.231395959854126,5.602431774139404,7.603984832763672,-0.03256784379482269,0.0812101662158966,-0.1059938445687294
-2.0590133666992188,5.3342814445495605,8.245630264282227,-0.03256784379482269,0.0812101662158966,-0.1059938445687294
-1.6950948238372803,5.142745018005371,8.848969459533691,-0.03256784379482269,0.0812101662158966,-0.1059938445687294
-1.647210717201233,4.989516258239746,9.011775016784668,-0.03256784379482269,0.0812101662158966,-0.1059938445687294
-2.097320795059204,5.382165431976318,7.1921820640563965,0.10423105955123901,0.12030554562807083,-0.03879866749048233
-2.250549554824829,5.430049419403076,6.751648902893066,-0.1633279174566269,-0.08979719132184982,-0.054681167006492615
-2.403778553009033,5.4875102043151855,6.646304130554199,-0.44430845975875854,-0.4001341760158539,-0.02658136375248432
-2.671929121017456,5.736507415771484,6.828263282775879,-0.7363369464874268,-0.665232241153717,0.04303981736302376
-3.1316158771514893,5.918466567993164,6.742072105407715,-1.1004126071929932,-0.8790350556373596,0.15910421311855316
-2.7293899059295654,5.679046630859375,7.115567684173584,-1.4889229536056519,-1.3225232362747192,0.2837381660938263
-0.4884171485900879,4.07014274597168,8.293514251708984,-1.7711251974105835,-1.5998735427856445,0.3606897294521332
0.6607996821403503,3.0550012588500977,8.427590370178223,-1.7479298114776611,-1.3750576972961426,0.28616419434547424
1.580173134803772,1.9057846069335938,8.925583839416504,-1.6880650520324707,-1.3836097717285156,0.1114741787314415
1.5322890281677246,1.944091796875,10.333374977111816,-1.6184263229370117,-1.337183952331543,-0.11086331307888031
1.5322890281677246,1.5897499322891235,11.099518775939941,-1.1859163045883179,-0.7703010439872742,-0.2428276538848877
0.09576806426048279,2.652775526046753,10.132261276245117,0.4951499104499817,0.524715781211853,-0.07421139627695084
0.0,3.1028854846954346,8.868123054504395,0.6039188504219055,0.6053325533866882,0.02715732343494892
-0.15322890877723694,3.3039982318878174,8.283937454223633,0.44139376282691956,0.599241316318512,0.0858178362250328
-0.363918662071228,3.265691041946411,9.21288776397705,0.005235987715423107,0.16308356821537018,0.006405358202755451
-0.09576806426048279,3.2561142444610596,9.509769439697266,-0.0313984714448452,0.03113667294383049,-0.03511602431535721
0.33518823981285095,3.1316158771514893,9.519346237182617,-0.005759586580097675,-0.04337143152952194,-0.0607723630964756
0.0,3.07415509223938,9.59596061706543,0.08953539282083511,-0.20830504596233368,-0.11086331307888031
0.24899697303771973,2.940079689025879,9.739612579345703,0.27399924397468567,0.02869321219623089,-0.02045525796711445
0.009576806798577309,3.1316158771514893,9.337387084960938,0.3179815411567688,0.3451214134693146,-0.0558854416012764
0.019153613597154617,3.380612850189209,8.743624687194824,0.2837905287742615,0.31091296672821045,-0.04122467711567879
0.13407529890537262,3.380612850189209,8.53293514251709,0.2727949619293213,0.20340067148208618,-0.00457276264205575
0.19153612852096558,3.44765043258667,7.843404769897461,0.17873917520046234,0.24980898201465607,-0.02658136375248432
-0.09576806426048279,3.8786067962646484,7.920019149780273,-0.033859387040138245,0.21928316354751587,-0.08154178410768509
-0.6512228846549988,3.2848446369171143,8.322244644165039,-0.126728355884552,0.05314527451992035,-0.08520697057247162
-0.6320692300796509,3.6966474056243896,9.394847869873047,-0.24645794928073883,-0.0910014659166336,-0.09742427617311478
-0.7948749661445618,3.514688014984131,10.342951774597168,-0.41868704557418823,-0.5186246037483215,-0.20493656396865845
1.072602391242981,2.9688100814819336,9.155426979064941,-0.16093680262565613,-0.7312057018280029,-0.2721317410469055
0.7469909191131592,3.1890766620635986,9.14585018157959,-0.10594148188829422,-0.5845980048179626,-0.29656633734703064
0.43095630407333374,3.2848446369171143,9.14585018157959,-0.028989918529987335,-0.3145781457424164,-0.2220407873392105
0.0,3.399766445159912,8.992621421813965,-0.013089969754219055,-0.07391469180583954,-0.09742427617311478
0.019153613597154617,3.3518824577331543,8.619126319885254,-0.15114551782608032,-0.05925392732024193,-0.026563910767436028
0.0,3.2561142444610596,8.820239067077637,-0.39182642102241516,-0.15332716703414917,-0.00945968460291624
0.06703764945268631,3.141192674636841,9.289502143859863,-0.529864490032196,-0.11056660860776901,0.027174776419997215
0.15322890877723694,3.246537446975708,10.017339706420898,-0.4199087619781494,0.17652259767055511,0.033283427357673645
-0.5746083855628967,2.671929121017456,9.959878921508789,0.0003490658418741077,0.7091971039772034,0.066252700984478
-1.0055646896362305,3.0358476638793945,10.266336441040039,0.03577924892306328,0.282813161611557,0.01127482671290636
-1.091755986213684,3.0358476638793945,9.940725326538086,-0.02897246554493904,0.011588986031711102,-0.06321582198143005
-0.6416460275650024,3.064578056335449,8.446743965148926,0.1616000384092331,0.07511897385120392,0.00518362782895565
-0.8140285611152649,3.179499864578247,8.015787124633789,0.10786134749650955,0.11054915189743042,-0.003351032268255949
-1.3694833517074585,3.1220390796661377,8.40843677520752,0.05775294452905655,-0.11911872029304504,-0.01679006777703762
-1.359906554222107,3.734954595565796,8.983044624328613,0.29965558648109436,-0.626136839389801,0.12735667824745178
-0.9002198576927185,2.959233283996582,8.609549522399902,0.1713738739490509,-0.24984388053417206,0.15789993107318878
-0.9097966551780701,3.246537446975708,9.682151794433594,-0.6716201305389404,0.10323622822761536,0.08215264976024628
-0.7374141216278076,3.4093432426452637,10.706870079040527,-0.18900170922279358,-0.11301007121801376,0.19455185532569885
-1.139639973640442,3.3518824577331543,8.762778282165527,0.06506587564945221,-0.19118335843086243,-0.04122467711567879
-0.4884171485900879,3.4380736351013184,8.216899871826172,0.028448866680264473,-0.24862214922904968,0.006405358202755451
-0.363918662071228,3.3710360527038574,8.734047889709473,0.1103222593665123,0.1667487621307373,0.05281366407871246
-0.6991068720817566,3.2752678394317627,9.27034854888916,0.1811302751302719,0.40133845806121826,0.07848745584487915
-0.9864110946655273,3.380612850189209,9.921571731567383,0.2898293733596802,0.34147366881370544,0.14323917031288147
-1.0438719987869263,3.380612850189209,9.701305389404297,0.38758525252342224,0.2877175211906433,0.1517912894487381
-0.7086837291717529,3.428496837615967,8.485051155090332,0.4377285838127136,0.4453032910823822,0.15789993107318878
-0.7948749661445618,3.485957622528076,8.485051155090332,0.4609239995479584,0.5601459741592407,0.16767378151416779
-0.9385270476341248,3.5625722408294678,8.83939266204834,0.47314131259918213,0.5369330644607544,0.18844319880008698
-1.0534487962722778,3.821146011352539,8.829815864562988,0.45603707432746887,0.48806387186050415,0.1969953179359436
-0.7852981686592102,3.9647979736328125,8.53293514251709,0.3570943772792816,0.4404163956642151,0.20186477899551392
-0.7086837291717529,4.01268196105957,8.65743350982666,0.22513002157211304,0.35611698031425476,0.1566781997680664
-1.072602391242981,4.252102375030518,9.069235801696777,0.11271335929632187,0.3378084897994995,-0.00823795422911644
-1.2832920551300049,4.194641590118408,9.423578262329102,0.1762607991695404,0.21683970093727112,-0.00945968460291624
-1.1779472827911377,4.041412353515625,9.308655738830566,0.22513002157211304,0.10321877151727676,-0.0009075712296180427
-1.4077905416488647,4.098873138427734,9.251194953918457,0.21046926081180573,-0.07391469180583954,-0.019233528524637222
-1.2832920551300049,4.32871675491333,9.682151794433594,0.29845130443573,-0.006719517521560192,-0.05956808850169182
-1.158793568611145,4.185064792633057,9.327810287475586,0.3778463304042816,-0.025045474991202354,-0.05710717290639877
-0.6607996821403503,3.9647979736328125,8.935160636901855,0.3582811951637268,-0.16308356821537018,-0.04611159861087799
-1.6184803247451782,3.801992416381836,8.916007041931152,0.11271335929632187,-0.28649580478668213,-0.07909832149744034
0.0,3.1316158771514893,9.193734169006348,0.05407030135393143,-0.23638738691806793,-0.267244815826416
-0.1628057211637497,3.1890766620635986,8.887276649475098,0.23612558841705322,-0.22907446324825287,-0.27579692006111145
-0.12449848651885986,3.0166940689086914,8.149862289428711,0.21537363529205322,-0.17043140530586243,-0.19394098222255707
0.12449848651885986,3.160346269607544,7.728483200073242,0.18236945569515228,-0.16310101747512817,-0.13407619297504425
-0.09576806426048279,3.620033025741577,7.565677165985107,0.10293951630592346,-0.17530086636543274,-0.17072810232639313
-0.363918662071228,3.7158010005950928,8.226476669311523,0.011309733614325523,-0.17043140530586243,-0.20615829527378082
0.3064578175544739,3.246537446975708,8.686163902282715,-0.07663740962743759,-0.41233402490615845,-0.30145326256752014
0.6512228846549988,2.911349296569824,8.236053466796875,-0.16824974119663239,-0.9352346658706665,-0.40652209520339966
0.7469909191131592,2.9017724990844727,8.513781547546387,-0.5139994621276855,-0.9230173826217651,-0.44317400455474854
0.8044517636299133,2.8155810832977295,9.59596061706543,-0.6960198283195496,-0.8448266386985779,-0.4053003489971161
0.7852981686592102,2.75812029838562,9.576807022094727,-0.660607099533081,-0.817948579788208,-0.34177038073539734
0.7757213711738586,2.786850690841675,9.758766174316406,-0.6092944145202637,-0.7654141187667847,-0.2220407873392105
0.7469909191131592,3.3901896476745605,8.973467826843262,0.0809483677148819,0.5308418869972229,0.0809309184551239
0.5554547905921936,3.2752678394317627,8.983044624328613,0.12369148433208466,0.4306599795818329,0.09436995536088943
0.6320692300796509,3.093308687210083,9.241618156433105,-0.0460941456258297,0.018936822190880775,0.07726572453975677
0.871489405632019,3.533841609954834,9.749189376831055,-0.13283701241016388,-0.20095720887184143,0.05160938575863838
1.1971008777618408,3.466804027557373,9.557653427124023,0.04185299575328827,0.016493361443281174,0.09436995536088943
0.6607996821403503,3.1220390796661377,8.772355079650879,0.116361103951931,0.25595253705978394,0.0711570754647255
0.8810662031173706,3.2752678394317627,8.71489429473877,-0.23424063622951508,0.5369505286216736,0.16767378151416779
0.9289502501487732,3.7828385829925537,9.050082206726074,-0.07539822161197662,1.0732728242874146,0.19943876564502716
0.38307225704193115,3.19865345954895,9.653421401977539,-0.11815878748893738,0.5369330644607544,0.08215264976024628
0.19153612852096558,3.4955344200134277,10.524910926818848,-0.1975887268781662,-0.20095720887184143,-0.0913156270980835
0.8044517636299133,3.9169139862060547,7.402871608734131,0.6050707697868347,-0.12034045159816742,-0.19882790744304657
0.24899697303771973,3.514688014984131,7.010222434997559,0.6857224106788635,-0.2767219543457031,-0.11819369345903397
-0.009576806798577309,3.265691041946411,6.8378400802612305,0.28007298707962036,0.016493361443281174,0.016179202124476433
0.038307227194309235,3.648763418197632,7.048529624938965,0.0039618974551558495,0.1215621829032898,0.06016149744391441
0.2298433631658554,3.706224203109741,8.092401504516602,-0.7559195756912231,0.5967978835105896,0.2067691534757614
0.3256114423274994,3.7158010005950928,10.170568466186523,-0.4040262699127197,0.27548277378082275,0.2874033749103546
0.7948749661445618,3.227383852005005,9.96945571899414,0.10295697301626205,0.1472010612487793,0.25563836097717285
1.3120225667953491,3.399766445159912,9.739612579345703,0.3277204632759094,0.33658674359321594,0.2434210628271103
-0.5171475410461426,4.280832767486572,9.069235801696777,0.48286280035972595,0.7312057018280029,0.1823345422744751
-0.028730420395731926,4.290409564971924,8.829815864562988,0.4645717442035675,0.06656685471534729,0.30084240436553955
0.47884035110473633,4.414907932281494,8.647856712341309,0.3448247015476227,-0.17407913506031036,0.2519731819629669
0.35434186458587646,4.290409564971924,8.40843677520752,0.25441664457321167,-0.13498376309871674,0.15789993107318878
0.5363011956214905,4.098873138427734,8.111555099487305,0.2018996924161911,0.01771509274840355,0.13957397639751434
-0.6799532771110535,3.620033025741577,8.178592681884766,-0.06932447850704193,0.5076290369033813,0.11025244742631912
-0.9768342971801758,3.648763418197632,8.446743965148926,-0.04242895543575287,0.9755343198776245,0.10780898481607437
-1.436521053314209,3.3231520652770996,9.548076629638672,-0.12061970680952072,0.40254274010658264,0.0406138114631176
-1.5514427423477173,3.380612850189209,9.701305389404297,-0.16826719045639038,-0.08733627200126648,0.01740093342959881
-1.0821791887283325,3.227383852005005,8.647856712341309,-0.05708971992135048,-0.027471482753753662,0.03206169977784157
-1.3503297567367554,3.07415509223938,8.59997272491455,-0.059550635516643524,0.09224065393209457,-0.027785642072558403
-1.8291701078414917,2.7964274883270264,8.59997272491455,-0.2733709216117859,0.048258353024721146,-0.00945968460291624
-1.5705963373184204,2.346317768096924,9.126696586608887,-0.5677730441093445,-0.18385298550128937,0.12857840955257416
-1.522712230682373,2.183511972427368,9.797073364257812,-0.5970771312713623,-0.222965806722641,0.1615651249885559
-1.436521053314209,2.0207061767578125,9.921571731567383,-0.4907865822315216,-0.10201449692249298,0.1725607067346573
-1.3311761617660522,1.9249382019042969,9.710882186889648,-0.33075734972953796,0.1007927656173706,0.18599973618984222
-1.6855180263519287,1.8291701078414917,8.973467826843262,-0.36620497703552246,0.13866640627384186,0.12735667824745178
-2.2409727573394775,1.8962076902389526,9.21288776397705,-0.4651651382446289,0.00427605677396059,0.10292206704616547
-1.2449848651885986,1.4939818382263184,9.710882186889648,-0.30632272362709045,0.08002334833145142,0.11880455911159515
-1.9536685943603516,1.5418659448623657,9.35654067993164,-0.15971508622169495,0.5345070958137512,0.1212480217218399
-1.647210717201233,1.5322890281677246,9.509769439697266,-0.24644048511981964,0.004258603323251009,0.07726572453975677
-1.1492167711257935,1.50355863571167,9.624691009521484,-0.36250486969947815,-0.1765400469303131,0.05160938575863838
-0.9097966551780701,1.4939818382263184,9.605537414550781,-0.4040611684322357,-0.17898350954055786,-0.005794493015855551
-1.3694833517074585,1.5610195398330688,9.481039047241211,-0.3759439289569855,0.15575318038463593,-0.07543312758207321
-2.030282974243164,1.6759412288665771,9.59596061706543,-0.357652872800827,0.4599815309047699,-0.04366813600063324
-2.6815059185028076,1.8100165128707886,10.160991668701172,-0.33688345551490784,0.47830748558044434,0.024731315672397614
-2.7676970958709717,1.580173134803772,11.042057991027832,-0.3087836503982544,0.13377948105335236,0.1114741787314415
-1.723825216293335,1.5610195398330688,11.022904396057129,-0.15606734156608582,-0.4196469783782959,0.1615651249885559
-1.4939818382263184,1.37906014919281,10.371682167053223,0.09683086723089218,0.03848451003432274,0.15423475205898285
-1.522712230682373,1.4939818382263184,10.02691650390625,0.2580992877483368,0.20586158335208893,0.1713389754295349
-1.599326729774475,1.50355863571167,9.701305389404297,0.2873859107494354,0.13011430203914642,0.1725607067346573
-1.6089035272598267,1.3982137441635132,9.672574996948242,0.2067691534757614,0.029932396486401558,0.14934782683849335
-1.3024457693099976,1.3120225667953491,9.509769439697266,0.13470451533794403,-0.16064010560512543,0.11513937264680862
-1.0534487962722778,1.1875240802764893,9.682151794433594,0.10292206704616547,-0.26448720693588257,0.05527457594871521
-0.9002198576927185,1.6089035272598267,9.691728591918945,0.2971772253513336,-0.23516565561294556,-0.015568336471915245
-0.9097966551780701,1.6184803247451782,9.720458984375,0.23486895859241486,-0.14353588223457336,-0.03755948692560196
-1.3407529592514038,1.5610195398330688,9.816226959228516,0.1566607505083084,-0.23516565561294556,-0.06688101589679718
-1.2737152576446533,1.8483237028121948,9.768342971801758,0.21045179665088654,-0.4489684998989105,-0.06932447850704193
-1.0247182846069336,1.8962076902389526,9.931148529052734,0.33140310645103455,-0.33046063780784607,-0.12674580514431
-1.0438719987869263,1.8195933103561401,9.605537414550781,0.5158669948577881,-0.23394393920898438,-0.17439329624176025
-0.8810662031173706,1.8770540952682495,8.868123054504395,0.6307271122932434,-0.23884831368923187,-0.20615829527378082
-0.9481038451194763,2.049436569213867,8.446743965148926,0.6295053362846375,-0.2742784917354584,-0.22081905603408813
-0.7086837291717529,2.5953147411346436,8.9064302444458,0.6539224982261658,-0.4391946494579315,-0.18905405700206757
-0.20111294090747833,2.31758713722229,9.576807022094727,0.5171061754226685,-0.1264316439628601,-0.053441982716321945
-0.3064578175544739,2.719813108444214,9.84495735168457,0.1615651249885559,-0.19484855234622955,-0.13041099905967712
0.0,2.959233283996582,10.189722061157227,0.1664520502090454,-0.18018779158592224,-0.12674580514431
0.0,3.00711727142334,10.141838073730469,0.36683329939842224,-0.05679301545023918,-0.11697196960449219
0.028730420395731926,3.246537446975708,9.097966194152832,0.5830621123313904,0.2620611786842346,-0.11819369345903397
-0.019153613597154617,3.5434184074401855,8.255207061767578,0.4950800836086273,0.4905247986316681,-0.12674580514431
-0.26815059781074524,3.6391866207122803,8.83939266204834,0.1872214674949646,0.3378084897994995,-0.14018484950065613
0.05746084079146385,4.51067590713501,8.33182144165039,0.20921261608600616,0.6200281977653503,-0.024120450019836426
1.1109095811843872,4.424484729766846,8.101978302001953,0.30576422810554504,-0.2278527319431305,-0.1719498336315155
0.9672574996948242,4.443638324737549,8.638279914855957,0.2922903001308441,-0.19851374626159668,-0.27946212887763977
0.0,4.242525577545166,9.069235801696777,0.1921083927154541,-0.4257556200027466,-0.3234444260597229
0.689530074596405,4.7405195236206055,9.366117477416992,0.23366467654705048,-1.0024124383926392,-0.1511804163455963
2.164358377456665,3.773261785507202,8.820239067077637,0.19945622980594635,-0.6652147769927979,-0.0253421813249588
1.656787633895874,3.687070608139038,8.178592681884766,-0.22080160677433014,0.25473079085350037,-0.18294541537761688
0.507570743560791,3.754108190536499,7.7763671875,-0.43338271975517273,0.36224308609962463,-0.18050195276737213
0.019153613597154617,4.290409564971924,8.829815864562988,-0.2623404264450073,0.23151792585849762,-0.003351032268255949
0.009576806798577309,3.2752678394317627,8.772355079650879,-0.16828463971614838,0.5528330206871033,0.2324254959821701
0.4596867263317108,3.112462282180786,9.90241813659668,-0.5909859538078308,0.4990769028663635,-0.04611159861087799
-1.235408067703247,3.2848446369171143,10.946290016174316,-0.9294227361679077,-0.28159141540527344,-0.39186131954193115
-1.0534487962722778,3.0837318897247314,11.405977249145508,-0.5543689131736755,-1.1856719255447388,-0.5726774334907532
0.20111294090747833,2.5474305152893066,8.89685344696045,0.23855160176753998,-0.8326092958450317,-0.3881961405277252
0.0,3.4763808250427246,7.010222434997559,0.5867098569869995,-0.705531895160675,-0.32098349928855896
0.07661445438861847,3.428496837615967,7.805097579956055,0.2739817798137665,-0.8215962648391724,-0.1817236840724945
0.4405331015586853,3.2082302570343018,8.523358345031738,-0.23425808548927307,0.32192596793174744,0.106587253510952
-0.047884032130241394,3.0550012588500977,8.494627952575684,-0.176854208111763,0.2681698501110077,0.23366467654705048
0.26815059781074524,3.093308687210083,9.299078941345215,-0.06812020391225815,0.42210787534713745,0.32162928581237793
0.7948749661445618,3.4189200401306152,8.848969459533691,0.0455007329583168,0.7189883589744568,0.309394508600235
0.4884171485900879,3.3710360527038574,9.069235801696777,0.022270401939749718,0.4807509481906891,0.22509510815143585
0.5841852426528931,3.44765043258667,9.069235801696777,-0.02658136375248432,0.11667525768280029,0.17500416934490204
0.8810662031173706,3.2561142444610596,9.08838939666748,0.03450515866279602,-0.055571284145116806,0.15423475205898285
1.3024457693099976,3.2369606494903564,9.988609313964844,0.14810864627361298,-0.01647590845823288,0.12980014085769653
0.9002198576927185,3.045424461364746,10.591948509216309,0.35093334317207336,0.1459967941045761,0.10170033574104309
0.8427590131759644,3.07415509223938,9.892841339111328,0.5500404834747314,0.18877480924129486,0.16036085784435272
1.1875240802764893,3.361459255218506,8.877699851989746,0.5170537829399109,0.0910189226269722,0.1566956639289856
0.9481038451194763,3.466804027557373,8.772355079650879,0.32040753960609436,0.014049900695681572,-0.0009075712296180427
0.9289502501487732,3.3518824577331543,8.667010307312012,0.27520352602005005,0.24495695531368256,-0.04977678880095482
1.0438719987869263,3.0358476638793945,8.523358345031738,0.2837207317352295,0.4196644127368927,-0.08276351541280746
0.7757213711738586,3.07415509223938,8.054094314575195,0.2128603607416153,0.5467243790626526,-0.11575023829936981
0.038307227194309235,3.179499864578247,8.02536392211914,0.007592182140797377,0.413555771112442,-0.1523846983909607
-0.43095630407333374,3.361459255218506,8.71489429473877,-0.09498082101345062,0.1215621829032898,-0.13041099905967712
-0.181959331035614,3.265691041946411,9.41400146484375,-0.005794493015855551,0.054367005825042725,-0.06321582198143005
0.2777273952960968,3.1507694721221924,9.481039047241211,0.21898646652698517,0.30115655064582825,-0.021676989272236824
0.08619125932455063,3.1507694721221924,8.705317497253418,0.3949156403541565,0.7299839854240417,-0.02045525796711445
-0.3734954595565796,3.3710360527038574,8.02536392211914,0.35580283403396606,0.9828821420669556,-0.00457276264205575
-1.3311761617660522,3.552995204925537,7.910442352294922,0.1371130645275116,1.1282681226730347,-0.011903145350515842
-2.078166961669922,3.8307228088378906,8.360552787780762,-0.09985028952360153,1.1954632997512817,-0.019233528524637222
-4.137180328369141,4.63517427444458,7.565677165985107,-0.23429299890995026,1.0598686933517456,-0.0033335788175463676
-3.5051112174987793,4.367023944854736,9.011775016784668,-0.32101839780807495,0.5051855444908142,0.0956091359257698
