accX,accY,accZ,gyroX,gyroY,gyroZ
-2.1382861137390137,3.2180473804473877,9.447162628173828,0.04650074616074562,-0.029855160042643547,-0.009544488042593002
-2.5929224491119385,3.4764721393585205,9.31047248840332,-0.8114342093467712,-0.8392277956008911,-0.08162446320056915
-2.8396823406219482,3.5386855602264404,8.467900276184082,-1.014006495475769,-1.0158389806747437,0.0014507622690871358
-2.36081862449646,3.4932219982147217,8.5133638381958,-1.2152806520462036,-0.9889616966247559,0.13033953309059143
-1.908276081085205,3.1746773719787598,8.94676399230957,-1.2810994386672974,-0.9375742077827454,0.23540526628494263
-2.0279171466827393,2.9377880096435547,9.030512809753418,-1.2749146223068237,-0.9137511253356934,0.3728458881378174
-1.8221344947814941,2.4900310039520264,8.805587768554688,-1.2953779697418213,-0.7940250635147095,0.556100070476532
-1.072881817817688,1.2451651096343994,10.569994926452637,-0.9090170860290527,-0.11354123055934906,0.5658736228942871
-1.0082756280899048,1.0896315574645996,10.512567520141602,-0.6667397618293762,-0.18195612728595734,0.4864634871482849
-0.9963115453720093,1.0393823385238647,10.445268630981445,-0.5760289430618286,-0.19295138120651245,0.4705814719200134
-0.8691928386688232,0.9556335210800171,10.323235511779785,-0.4989858567714691,-0.17584764957427979,0.4632512927055359
-0.5916253924369812,0.768694281578064,10.311270713806152,-0.3560476005077362,-0.04940227046608925,0.445536732673645
-0.388235479593277,0.617946445941925,10.404590606689453,-0.21257483959197998,0.004352286923676729,0.3838411569595337
-0.39062830805778503,0.7591229677200317,10.304092407226562,-0.10758547484874725,-0.11964970827102661,0.29954421520233154
0.34217363595962524,0.4145565330982208,9.425627708435059,-0.019394399598240852,0.2841203212738037,0.2531198263168335
0.2679961323738098,-0.018843477591872215,9.667302131652832,-0.03802524134516716,0.48875415325164795,0.11934428662061691
-0.024227328598499298,0.08404789865016937,10.574780464172363,-0.12499462068080902,0.4276694357395172,-0.12010784447193146
-0.8117650747299194,0.529412031173706,10.593923568725586,-0.21318569779396057,0.05322006717324257,-0.3241308331489563
-1.297807216644287,1.0824531316757202,10.440483093261719,-0.2331145852804184,-0.28274592757225037,-0.31802234053611755
-1.4533406496047974,1.4940186738967896,10.100702285766602,-0.15110833942890167,-0.2931303381919861,-0.18424680829048157
-1.4991034269332886,1.6689938306808472,9.90688419342041,-0.03306210786104202,-0.2112767994403839,-0.05535803362727165
-1.2762718200683594,1.470090389251709,9.882657051086426,0.03962871432304382,-0.10254598408937454,0.0423775278031826
-0.6610172390937805,0.7591229677200317,10.148558616638184,0.16080553829669952,-0.23448899388313293,0.09368869662284851
-0.5341976284980774,0.7160521745681763,10.143773078918457,0.3310028612613678,-0.2515927255153656,0.06986565887928009
-0.7758727669715881,1.072881817817688,9.954740524291992,0.3900259733200073,-0.13125580549240112,-0.008933641016483307
-1.0082756280899048,1.4054841995239258,9.672088623046875,0.3006131947040558,-0.14958122372627258,0.002061609411612153
-1.0250253677368164,1.2786645889282227,9.492626190185547,0.16019469499588013,-0.253425270318985,0.09063446521759033
-0.7447660565376282,0.9795617461204529,9.782157897949219,0.08811471611261368,-0.3047364354133606,0.14255647361278534
-0.33768710494041443,0.9050851464271545,10.445268630981445,0.16515782475471497,-0.3029038906097412,0.10407309979200363
-0.40259242057800293,1.0920244455337524,10.160523414611816,0.32542887330055237,-0.30656898021698,0.030160583555698395
-0.5533402562141418,1.3576277494430542,9.700801849365234,0.4068242609500885,-0.2772482931613922,0.02710634656250477
-0.3762713670730591,1.474876046180725,9.404091835021973,0.3739148676395416,-0.28518930077552795,0.0423775278031826
-0.15104693174362183,1.3863415718078613,9.226723670959473,0.26762744784355164,-0.2937411665916443,0.013667707331478596
-0.26590242981910706,1.4533406496047974,9.542876243591309,0.1776038408279419,-0.2253262847661972,-0.02970244735479355
-0.4815555512905121,1.6235301494598389,9.691230773925781,0.18814095854759216,-0.2002815455198288,-0.03214583545923233
-0.45284169912338257,1.6618152856826782,9.631410598754883,0.28877803683280945,-0.15507884323596954,0.0130568603053689
-0.23718854784965515,1.6019947528839111,9.50459098815918,0.3925457298755646,-0.13675342500209808,0.05276193097233772
-0.09361918270587921,1.6474584341049194,9.38016414642334,0.37887802720069885,-0.20639002323150635,0.06253548711538315
-0.22761724889278412,1.8293129205703735,9.657731056213379,0.056427016854286194,-0.19172967970371246,0.04787515476346016
-0.0768694281578064,1.8269200325012207,9.969097137451172,-0.038636088371276855,-0.22899135947227478,0.03749075159430504
0.14327025413513184,1.659422516822815,9.930811882019043,-0.02435753494501114,-0.280913382768631,0.020997874438762665
0.27038896083831787,1.659422516822815,9.818050384521484,0.05703786388039589,-0.2375432252883911,0.0032833039294928312
0.16480566561222076,1.8508483171463013,9.774979591369629,0.11858072131872177,-0.20761170983314514,0.00022906772210262716
0.17916259169578552,1.934597134590149,9.85394287109375,0.1396549493074417,-0.14897038042545319,-0.011377030052244663
0.31824541091918945,1.6761722564697266,9.741479873657227,0.15210096538066864,-0.1343100368976593,-0.04130854457616806
0.3565305769443512,1.7790635824203491,9.621838569641113,0.17691664397716522,-0.10560022294521332,-0.07429429888725281
0.2847459018230438,2.2387847900390625,9.425627708435059,0.20677179098129272,-0.11842801421880722,-0.05963396281003952
0.07866404205560684,2.1622142791748047,9.059226989746094,0.10857810080051422,-0.011529741808772087,-0.01626380905508995
0.10259227454662323,2.126322031021118,9.411270141601562,-0.06284090876579285,0.07215633243322372,-0.0034360159188508987
0.07627122104167938,2.1454646587371826,9.545269012451172,-0.13056860864162445,0.048333290964365005,0.016111096367239952
0.1743769496679306,1.8939191102981567,9.952347755432129,-0.149199441075325,0.04405735805630684,0.08086090534925461
0.08584251254796982,1.8628123998641968,10.40219783782959,-0.06910209357738495,-0.06223006546497345,0.09674293547868729
0.05952146276831627,1.9441684484481812,10.450353622436523,-0.008780929259955883,-0.12514732778072357,0.07658497244119644
0.363709032535553,1.6498512029647827,10.354341506958008,0.12102411687374115,-0.11231953650712967,0.03077143058180809
0.3206382393836975,1.8843477964401245,9.617053031921387,0.2558686435222626,-0.19234053790569305,-0.008933641016483307
0.2632105052471161,2.0880367755889893,8.944371223449707,0.27449947595596313,-0.10071343928575516,-0.005879404954612255
0.3086741268634796,2.186142683029175,9.037691116333008,0.19058434665203094,0.03306210786104202,-0.01626380905508995
0.23449662327766418,2.1047866344451904,9.28893756866455,-7.635590736754239e-05,0.0880383625626564,-0.022372281178832054
0.26081767678260803,2.0207388401031494,9.617053031921387,-0.15233004093170166,0.07765395939350128,0.0032833039294928312
0.275174617767334,1.9178473949432373,10.237093925476074,-0.13805148005485535,0.1265217363834381,0.03565821051597595
0.133698970079422,1.9489539861679077,10.498209953308105,0.012293301522731781,0.10514208674430847,0.03626905754208565
0.10737791657447815,1.963310956954956,10.134202003479004,0.17569494247436523,0.0758214145898819,0.04115583375096321
0.275174617767334,2.011167526245117,9.691230773925781,0.24281178414821625,0.0361163429915905,0.04543176665902138
0.23449662327766418,2.119143486022949,9.31047248840332,0.20180866122245789,0.02145601063966751,0.032603971660137177
0.15523436665534973,2.2244277000427246,9.190832138061523,0.125987246632576,0.062993623316288,0.008780929259955883
0.16480566561222076,2.219642162322998,9.281759262084961,0.05329642444849014,0.10330954194068909,-0.0028251686599105597
0.11694920808076859,2.2076780796051025,9.334700584411621,0.028480753302574158,0.10636378079652786,0.006337540224194527
0.10737791657447815,2.195713996887207,9.267401695251465,0.014813045971095562,0.1008661538362503,0.019776180386543274
0.17198412120342255,2.147857427597046,9.468698501586914,0.0023670331574976444,0.16439427435398102,0.049707695841789246
0.05952146276831627,2.116750717163086,9.885348320007324,0.016645587980747223,0.17111359536647797,0.060092099010944366
-0.014656038954854012,2.164607286453247,9.86112117767334,0.03962871432304382,0.11858072131872177,0.06742226332426071
0.10259227454662323,2.1526429653167725,9.719944953918457,0.051463883370161057,0.07337802648544312,0.06681142002344131
0.14087744057178497,2.109572172164917,9.691230773925781,0.05085303261876106,0.11858072131872177,0.04787515476346016
0.16719847917556763,2.0760726928710938,9.60508918762207,0.06139015033841133,0.16072918474674225,0.019776180386543274
0.09541380405426025,2.1287147998809814,9.533304214477539,0.08124268800020218,0.1937149316072464,-0.0009926267666742206
-0.029012974351644516,2.202892303466797,9.59791088104248,0.07444700598716736,0.19676917791366577,0.00022906772210262716
-0.1582254022359848,2.2842483520507812,9.679266929626465,0.05390727147459984,0.19127154350280762,0.010613471269607544
-0.23001007735729218,2.2387847900390625,9.803693771362305,0.051463883370161057,0.18333053588867188,0.02405211143195629
-0.2228316068649292,2.241177558898926,9.782157897949219,0.09865183383226395,0.18333053588867188,0.03504735976457596
-0.13908281922340393,2.2842483520507812,9.624231338500977,0.15767495334148407,0.1802763044834137,0.0423775278031826
-0.17976079881191254,2.3560330867767334,9.449555397033691,0.16515782475471497,0.2193705290555954,0.038101598620414734
-0.29700911045074463,2.4278175830841064,9.284152030944824,0.11667182296514511,0.2871745824813843,0.03382566571235657
-0.37866419553756714,2.5450658798217773,9.509376525878906,0.048333290964365005,0.3079433739185333,0.022219568490982056
-0.5772684812545776,2.5689942836761475,9.806086540222168,-7.635590736754239e-05,0.25174543261528015,0.02832804247736931
-0.6610172390937805,2.425424814224243,9.930811882019043,-0.02557922899723053,0.1283542811870575,0.0552053228020668
-0.48873403668403625,2.2316062450408936,9.834799766540527,-0.03489464893937111,0.05138752609491348,0.05703786388039589
-0.388235479593277,2.3033909797668457,10.012167930603027,-0.018096350133419037,0.040392275899648666,0.022219568490982056
-0.4576273262500763,2.2531416416168213,10.127023696899414,0.047111593186855316,0.03061871975660324,0.0051158457063138485
-0.4743770956993103,2.2531416416168213,9.774979591369629,0.14958122372627258,0.04161396995186806,-0.0064902519807219505
-0.44327038526535034,2.367997169494629,9.229117393493652,0.2092151790857315,0.09292513877153397,-0.022372281178832054
-0.46480581164360046,2.399103879928589,9.114261627197266,0.19867807626724243,0.16989189386367798,-0.012598725035786629
-0.35443684458732605,2.2316062450408936,8.798408508300781,0.15958385169506073,0.26457321643829346,-0.0034360159188508987
-0.6418746709823608,2.3201406002044678,9.617053031921387,0.0781884491443634,0.1802763044834137,-0.0364217683672905
-0.9050851464271545,2.665006160736084,10.02173900604248,-0.08521319180727005,-0.06711684167385101,-0.03886515647172928
-0.6203392744064331,2.5953152179718018,9.660123825073242,-0.21379654109477997,-0.20272493362426758,0.005726693198084831
-0.08404789865016937,2.2698912620544434,9.72951602935791,-0.16347800195217133,-0.011529741808772087,-0.011377030052244663
-0.2515454888343811,2.2387847900390625,10.13898754119873,0.04772244393825531,0.18882815539836884,-0.049860406666994095
-0.7184450030326843,2.4924237728118896,9.660123825073242,0.19058434665203094,0.14423631131649017,-0.06940752267837524
-0.5988038778305054,2.4421746730804443,9.329915046691895,0.29061058163642883,0.30244573950767517,-0.011377030052244663
-0.5198407173156738,2.3344976902008057,8.824729919433594,0.31985488533973694,0.3128301501274109,-0.027259059250354767
-0.984347403049469,2.6985056400299072,9.262616157531738,0.20616094768047333,0.18638476729393005,-0.05596888065338135
-1.0968101024627686,2.830111026763916,9.535696983337402,-0.04734066128730774,0.03367295488715172,-0.00038177953683771193
-0.6275177597999573,2.5546371936798096,9.569196701049805,-0.2877854108810425,-0.02557922899723053,0.02832804247736931
-0.5150550603866577,2.470888376235962,9.626625061035156,-0.32069480419158936,0.03306210786104202,0.016721943393349648
-0.617946445941925,2.401496648788452,10.213165283203125,-0.19768545031547546,0.1784437596797943,-0.01382041908800602
-0.92691969871521,2.4924237728118896,10.500602722167969,0.04214845970273018,0.1546207070350647,0.02038702741265297
-1.041775107383728,2.573779821395874,10.275378227233887,0.16576866805553436,0.12468919903039932,0.0686439573764801
-0.8141579031944275,2.6386852264404297,9.617053031921387,0.34902286529541016,0.20409934222698212,0.14438901841640472
-0.5533402562141418,2.6434707641601562,9.116654396057129,0.42728766798973083,0.39346200227737427,0.12667444348335266
-0.6011967062950134,2.6673989295959473,8.882157325744629,0.4298073947429657,0.5699968338012695,0.082082599401474
-0.8524430394172668,2.7631118297576904,8.944371223449707,0.3552076816558838,0.6665107011795044,0.0680331140756607
-1.0609177350997925,2.727219581604004,9.114261627197266,0.2465532273054123,0.6536829471588135,0.06436803191900253
-1.2499507665634155,2.7870402336120605,9.269794464111328,0.194325789809227,0.61397784948349,0.023441264405846596
-1.5876377820968628,2.909074068069458,9.509376525878906,0.2459423840045929,0.5535039901733398,0.01794363744556904
-1.534995675086975,2.822932481765747,9.131011009216309,0.3378748893737793,0.5223507881164551,0.04359922185540199
-1.3408780097961426,2.7391836643218994,8.750253677368164,0.38132140040397644,0.5767161846160889,0.019776180386543274
-1.4991034269332886,2.9210381507873535,8.791230201721191,0.31237202882766724,0.6610130667686462,-0.06696412712335587
-1.9202401638031006,3.2084760665893555,9.162117958068848,0.11858072131872177,0.6469635963439941,-0.12255123257637024
-2.2483558654785156,3.0933215618133545,9.475876808166504,-0.06971294432878494,0.5235724449157715,-0.11155597865581512
-2.7487549781799316,3.0550363063812256,10.028918266296387,-0.0889546349644661,0.23891763389110565,-0.12010784447193146
-2.9282166957855225,3.361616611480713,10.02413272857666,-0.20639002323150635,-0.11170869320631027,-0.12988139688968658
-2.425424814224243,3.1435706615448,9.9140625,-0.2504473626613617,-0.19722731411457062,-0.057801421731710434
-1.9848463535308838,2.9856443405151367,9.971489906311035,-0.04734066128730774,-0.09338327497243881,-0.06818582862615585
-2.109572172164917,3.090928554534912,9.640981674194336,0.047111593186855316,-0.03596363216638565,-0.02298312820494175
-1.9752750396728516,3.098107099533081,9.066405296325684,0.1247655525803566,-0.00786465872079134,0.031382277607917786
-1.7336000204086304,2.892324447631836,8.839086532592773,0.19623468816280365,0.10758547484874725,0.0423775278031826
-1.9896320104599,3.10528564453125,8.616254806518555,0.16576866805553436,0.06421531736850739,-0.024815669283270836
-2.425424814224243,3.416651725769043,8.649754524230957,-0.1107160672545433,-0.029855160042643547,-0.07001836597919464
-2.26749849319458,3.2084760665893555,9.48066234588623,-0.3791070878505707,-0.06406260281801224,-0.0492495596408844
-2.178964138031006,3.040679454803467,9.942776679992676,-0.4237752854824066,-0.1074327602982521,-0.06146650388836861
-2.399103879928589,3.0215368270874023,10.222736358642578,-0.30641624331474304,-0.31389912962913513,-0.09689565002918243
-2.3823540210723877,2.9976086616516113,10.004989624023438,-0.21196399629116058,-0.463556706905365,-0.0358109213411808
-1.908276081085205,2.8109683990478516,9.621838569641113,-0.1330883502960205,-0.5515187382698059,0.012446013279259205
-1.470090389251709,2.6937201023101807,9.236295700073242,-0.11812258511781693,-0.5777851343154907,-0.02176143415272236
-1.3935201168060303,2.612065076828003,8.965906143188477,-0.23242738842964172,-0.5625139474868774,-0.10300412029027939
-1.568495273590088,2.657827854156494,9.389735221862793,-0.38903334736824036,-0.5252522826194763,-0.15675868093967438
-1.5804593563079834,2.648256540298462,9.703194618225098,-0.41384902596473694,-0.561292290687561,-0.15126104652881622
-1.3767703771591187,2.487638235092163,9.844371795654297,-0.3274904787540436,-0.6003865003585815,-0.11338852345943451
-1.0585249662399292,2.29860520362854,9.593125343322754,-0.23807771503925323,-0.6736881732940674,-0.10544750839471817
-0.8835497498512268,2.1765713691711426,9.332307815551758,-0.21692712604999542,-0.6651363372802734,-0.13660071790218353
-0.8955138921737671,2.2938196659088135,9.51176929473877,-0.2256316989660263,-0.6009973287582397,-0.17752748727798462
-0.8955138921737671,2.3799612522125244,9.794121742248535,-0.19394400715827942,-0.5454102754592896,-0.18730103969573975
-0.7998009920120239,2.344068765640259,9.93559741973877,-0.126216322183609,-0.5050943493843079,-0.1689756214618683
-0.6729813814163208,2.2866411209106445,9.9140625,-0.07773031294345856,-0.49654245376586914,-0.1408766508102417
-0.6586244106292725,2.289033889770508,9.92124080657959,-0.06284090876579285,-0.5026509165763855,-0.1286597102880478
-0.4983053207397461,2.2842483520507812,9.844371795654297,-0.02680092304944992,-0.45622655749320984,-0.1005607321858406
-0.44805604219436646,2.2866411209106445,9.810872077941895,-0.009391776286065578,-0.4324035048484802,-0.08345700800418854
-0.3643072545528412,2.2842483520507812,9.435198783874512,0.006719320081174374,-0.3853682577610016,-0.06513158977031708
-0.34247273206710815,2.344068765640259,9.595518112182617,0.0035887276753783226,-0.33466795086860657,-0.04741701856255531
-0.24915266036987305,2.344068765640259,9.49501895904541,-0.0038177953101694584,-0.3291703164577484,-0.03458922728896141
-0.11276176571846008,2.29860520362854,9.602696418762207,-0.009391776286065578,-0.24976016581058502,-0.03092414326965809
-0.12711870670318604,2.250748872756958,9.662516593933105,-0.006948387715965509,-0.2112767994403839,-0.041919391602277756
-0.09361918270587921,2.2316062450408936,9.51176929473877,0.004886778071522713,-0.2247154414653778,-0.060244809836149216
-0.009870393201708794,2.315355062484741,9.337093353271484,0.009239064529538155,-0.18501035869121552,-0.06146650388836861
0.002093719784170389,2.315355062484741,9.430413246154785,-0.011300674639642239,-0.13247749209403992,-0.05413633957505226
0.06669992953538895,2.250748872756958,9.588339805603027,-0.044820915907621384,-0.11109784245491028,-0.07062921673059464
-0.0026919255033135414,2.2172493934631348,9.86112117767334,-0.044820915907621384,-0.13736428320407867,-0.09750649333000183
-0.005084747914224863,2.2292134761810303,9.885348320007324,0.025961007922887802,-0.17951273918151855,-0.10972344130277634
0.05952146276831627,2.3249263763427734,9.578767776489258,0.11667182296514511,-0.15141376852989197,-0.09017632901668549
0.0930209830403328,2.336890459060669,9.423234939575195,0.14156384766101837,-0.06711684167385101,-0.04680617153644562
0.0810568705201149,2.3033909797668457,9.20997428894043,0.09681928902864456,0.018401773646473885,-0.01626380905508995
-0.057726845145225525,2.367997169494629,9.119047164916992,-0.010078979656100273,0.048333290964365005,-0.027259059250354767
-0.1869392693042755,2.4684956073760986,9.142974853515625,-0.10880716890096664,0.09170344471931458,-0.011377030052244663
-0.15104693174362183,2.45413875579834,9.439984321594238,-0.18898087739944458,0.20409934222698212,0.058870404958724976
-0.17258232831954956,2.243570327758789,9.581160545349121,-0.2187596708536148,0.31954947113990784,0.11262496560811996
-0.09361918270587921,2.312962293624878,9.564411163330078,-0.17775654792785645,0.48508909344673157,0.14072394371032715
-0.055334024131298065,2.2172493934631348,9.461520195007324,-0.16783028841018677,0.6768951416015625,0.11445750296115875
-0.26111677289009094,1.7694923877716064,9.533304214477539,-0.2187596708536148,0.7220978140830994,0.04543176665902138
-0.9580263495445251,1.9489539861679077,9.51176929473877,-0.3045073449611664,0.6713975071907043,0.027717193588614464
-1.0872387886047363,2.1143579483032227,10.107880592346191,-0.2939702570438385,0.6842252612113953,0.06986565887928009
-0.9098708033561707,2.140678882598877,10.282557487487793,-0.15538427233695984,0.6738408803939819,0.08696937561035156
-0.8356932997703552,1.9537396430969238,9.983454704284668,0.11361759155988693,0.8015079498291016,0.07047650218009949
-1.1662019491195679,1.7072789669036865,10.186843872070312,0.27388864755630493,0.4710395932197571,0.006948387715965509
-1.4581263065338135,2.1215364933013916,9.676874160766602,0.09926267713308334,0.09842276573181152,0.006337540224194527
-1.1662019491195679,2.3321046829223633,9.741479873657227,-0.1336991935968399,-0.08360971510410309,0.016111096367239952
-0.9340981245040894,2.186142683029175,9.459127426147461,-0.24487338960170746,-0.06039752438664436,-0.024815669283270836
-0.9508479237556458,1.841277003288269,9.969097137451172,-0.22127941250801086,0.023899398744106293,-0.06818582862615585
-1.1733803749084473,1.9800606966018677,10.165308952331543,-0.1113269105553627,-0.16546325385570526,-0.10972344130277634
-1.2355937957763672,2.0518453121185303,10.186843872070312,-0.049173206090927124,-0.2803025245666504,-0.11216682940721512
-1.1231311559677124,2.0518453121185303,10.026525497436523,0.01916533336043358,-0.380481481552124,-0.10972344130277634
-0.9963115453720093,2.2938196659088135,9.75344467163086,0.16393613815307617,-0.5515187382698059,-0.06329904496669769
-0.8333004713058472,2.0614166259765625,9.276973724365234,0.24899661540985107,-0.35360419750213623,0.10101886838674545
-0.5150550603866577,1.9130617380142212,9.566803932189941,0.20493926107883453,0.011071606539189816,0.09979717433452606
-0.6849454641342163,2.188535451889038,9.46630573272705,0.08689302206039429,0.10392039269208908,0.023441264405846596
-0.9170492887496948,2.1071794033050537,9.377771377563477,-0.05726693198084831,0.11125055700540543,0.006337540224194527
-0.984347403049469,1.994417667388916,9.327521324157715,-0.10819631814956665,0.1020878478884697,0.025884652510285378
-0.8117650747299194,1.9154545068740845,9.832406997680664,-0.13179029524326324,0.15889663994312286,0.04604261368513107
-0.8237292170524597,2.0518453121185303,10.026525497436523,-0.10140064358711243,0.17661121487617493,0.02710634656250477
-0.9939187169075012,2.0808584690093994,10.076774597167969,0.007941014133393764,0.18943901360034943,-0.015042114071547985
-1.170987606048584,2.0374884605407715,10.110274314880371,0.1253764033317566,0.1259108930826187,0.002061609411612153
-1.1733803749084473,2.0760726928710938,9.825228691101074,0.2086043357849121,-0.021303297951817513,0.02832804247736931
-1.1063814163208008,2.2794625759124756,9.269794464111328,0.20493926107883453,-0.05428905040025711,0.05031854286789894
-0.9508479237556458,2.2459630966186523,9.147761344909668,0.14897038042545319,0.06665870547294617,0.08880192041397095
-0.7950153350830078,2.032702922821045,8.987442016601562,0.10796725004911423,0.16928105056285858,0.09918632358312607
-0.9987043738365173,2.1119651794433594,9.530911445617676,0.11422843486070633,0.18577392399311066,0.047264307737350464
-1.226022481918335,2.2172493934631348,9.877870559692383,0.03161134570837021,-0.03474193811416626,0.015500249341130257
-1.2140583992004395,2.3488545417785645,9.985847473144531,-0.05787777900695801,-0.19600561261177063,0.04909684881567955
-0.9364909529685974,2.2004995346069336,10.05284595489502,-0.05787777900695801,-0.22960221767425537,0.048486001789569855
-0.7782655358314514,2.123929262161255,10.05284595489502,0.02351761981844902,-0.31267744302749634,0.012446013279259205
-0.7639086246490479,2.123929262161255,9.877870559692383,0.10300412029027939,-0.35054996609687805,-0.015042114071547985
-0.7591229677200317,2.1358933448791504,9.825228691101074,0.15706409513950348,-0.33711132407188416,-0.05535803362727165
-0.735194742679596,2.1981067657470703,9.770194053649902,0.2315874695777893,-0.34932827949523926,-0.1146102175116539
-0.6849454641342163,2.3177478313446045,9.707980155944824,0.28999972343444824,-0.3218401372432709,-0.13232478499412537
-0.6969096064567566,2.4445674419403076,9.676874160766602,0.29687178134918213,-0.37681639194488525,-0.09506310522556305
-0.7926225066184998,2.5833511352539062,9.959526062011719,0.3775799572467804,-0.6077166795730591,-0.005879404954612255
-0.582054078578949,2.6291139125823975,9.293723106384277,0.4211028218269348,-0.7384379506111145,0.049707695841789246
-0.1582254022359848,2.7966115474700928,9.05444049835205,0.3291703164577484,-0.6413132548332214,0.1358371526002884
-0.024227328598499298,2.8109683990478516,9.710372924804688,0.20677179098129272,-0.4195757210254669,0.20547375082969666
-0.134297177195549,2.7870402336120605,10.06002426147461,0.15087927877902985,-0.44156619906425476,0.21707984805107117
0.06191428750753403,2.633899450302124,9.918848037719727,0.1471378356218338,-0.640091598033905,0.188370019197464
0.2871387302875519,2.8277182579040527,9.48784065246582,0.13530266284942627,-0.7720345854759216,0.16271443665027618
0.7130611538887024,2.7774689197540283,9.542876243591309,0.16821207106113434,-0.7085064649581909,0.12545275688171387
0.7851449251174927,2.597707986831665,9.447162628173828,0.2396811991930008,-0.621155321598053,0.03565821051597595
0.6364908218383789,2.657827854156494,9.595518112182617,0.3167243003845215,-0.5643464922904968,-0.03825430944561958
1.9175482988357544,2.8013970851898193,8.027321815490723,-0.023059483617544174,0.1924932450056076,-0.010155336000025272
1.2541381120681763,3.2324042320251465,8.922835350036621,-0.0647498071193695,0.6249731183052063,-0.11338852345943451
0.6556333899497986,3.1989047527313232,8.93958568572998,-0.08956547826528549,0.7019398808479309,-0.08651123940944672
0.5551348328590393,2.870789051055908,7.967501163482666,-0.2790808379650116,0.6029825806617737,0.02832804247736931
0.6963114142417908,2.820539712905884,8.120641708374023,-0.6971294283866882,0.7214869856834412,0.040544986724853516
0.6580262184143066,2.6264219284057617,9.782157897949219,-1.0437852144241333,0.9096279144287109,-0.04008685052394867
0.133698970079422,2.3512473106384277,10.644172668457031,-1.0114866495132446,0.7514184713363647,-0.11338852345943451
-0.3113660514354706,2.3656044006347656,10.141380310058594,-0.807081937789917,0.48753246665000916,-0.05841226875782013
-0.373878538608551,2.45413875579834,10.074381828308105,-0.6145123243331909,0.3531460762023926,0.053983625024557114
-0.28504499793052673,2.1382861137390137,10.246665000915527,-0.4554629921913147,0.2700708508491516,0.07719582319259644
-0.1414756327867508,1.5876377820968628,10.426126480102539,-0.3262687921524048,0.2584647536277771,0.03443651273846626
-0.12472587823867798,1.7216359376907349,10.040882110595703,-0.2628933787345886,0.2065427303314209,-0.008933641016483307
-0.11276176571846008,1.994417667388916,9.825228691101074,-0.26724568009376526,0.19004985690116882,-0.023593975231051445
-0.029012974351644516,2.3177478313446045,9.85394287109375,-0.29083964228630066,0.2853420376777649,-0.05169294774532318
-0.20368902385234833,2.063809633255005,9.782157897949219,-0.27472856640815735,0.3598653972148895,-0.06818582862615585
-0.43609192967414856,1.9298114776611328,9.794121742248535,-0.2579302489757538,0.3537569046020508,-0.06696412712335587
-0.9317052960395813,1.872383713722229,9.765408515930176,-0.2777827978134155,0.1393495351076126,0.008170082233846188
-0.986740231513977,1.92741858959198,9.933204650878906,-0.3554367423057556,-0.16668494045734406,0.18409408628940582
-0.4217349886894226,1.8843477964401245,9.459127426147461,-0.40514445304870605,-0.357269287109375,0.35207709670066833
0.4331009089946747,1.261914849281311,9.624231338500977,-0.4542413055896759,-0.11231953650712967,0.29710084199905396
0.32542386651039124,0.9218349456787109,10.385448455810547,-0.3995704650878906,0.16439427435398102,-0.004657710436731577
-0.04097708687186241,1.0106685161590576,10.538887977600098,-0.3082487881183624,0.2059318870306015,-0.13110309839248657
-0.45284169912338257,1.501197099685669,10.01456069946289,0.18378867208957672,0.004352286923676729,-0.026037365198135376
-0.4097708761692047,1.5780665874481201,9.810872077941895,0.21791976690292358,-0.03901786729693413,-0.018707197159528732
-0.5341976284980774,1.6091731786727905,9.614660263061523,0.15454435348510742,-0.09827005118131638,-0.033978380262851715
-0.39062830805778503,1.7958134412765503,9.617053031921387,0.08811471611261368,-0.20944425463676453,-0.004657710436731577
-0.26111677289009094,1.8436698913574219,9.727123260498047,0.024128466844558716,-0.2912977933883667,0.038101598620414734
-0.04097708687186241,1.5852450132369995,9.688838005065918,-0.008780929259955883,-0.24487338960170746,0.056427016854286194
0.08584251254796982,1.501197099685669,9.724730491638184,-0.0032069480512291193,-0.1599656194448471,0.04787515476346016
0.014057832770049572,1.561316728591919,9.887741088867188,0.0017561858985573053,-0.10010259598493576,-0.011987877078354359
-0.10079765319824219,1.659422516822815,10.095916748046875,0.03901786729693413,-0.10621106624603271,-0.08223531395196915
-0.08644071966409683,1.7670994997024536,9.74387264251709,0.09681928902864456,-0.16546325385570526,-0.09017632901668549
0.09062815457582474,1.7670994997024536,9.562018394470215,0.10857810080051422,-0.11476293206214905,-0.04802786558866501
0.021236300468444824,1.6402798891067505,9.471091270446777,0.06757497787475586,-0.08727480471134186,-0.02298312820494175
-0.024227328598499298,1.6737794876098633,9.681659698486328,0.02351761981844902,-0.13125580549240112,-0.01748550310730934
0.016450656577944756,1.683350682258606,9.930811882019043,0.03840702027082443,-0.17951273918151855,-0.004046862944960594
-0.029012974351644516,1.6259230375289917,9.52612590789795,-0.352993369102478,0.15767495334148407,0.017332790419459343
0.10259227454662323,1.5469598770141602,9.959526062011719,-0.2933593988418579,0.1918824017047882,0.03504735976457596
0.1456630825996399,1.6067804098129272,10.328021049499512,-0.18462859094142914,0.3531460762023926,0.05337277799844742
0.02841476909816265,1.470090389251709,10.414162635803223,-0.05978667363524437,0.48936501145362854,0.05825955793261528
-0.2826521694660187,1.597209095954895,10.383055686950684,0.07566870748996735,0.44721654057502747,0.031382277607917786
-0.4624129831790924,1.7336000204086304,10.110274314880371,0.13095037639141083,0.2712925374507904,0.027717193588614464
-0.3978067636489868,1.690529227256775,9.877870559692383,0.11422843486070633,0.14545799791812897,0.044820915907621384
-0.3690928816795349,1.6713865995407104,9.660123825073242,0.0794101431965828,0.08009734749794006,0.041766680777072906
-0.2754737138748169,1.597209095954895,9.624231338500977,0.08376242965459824,0.1937149316072464,0.05459447205066681
-0.2946162819862366,1.5397813320159912,9.724730491638184,0.12354385852813721,0.3122192919254303,0.03077143058180809
-0.40259242057800293,1.6977076530456543,9.703194618225098,0.13530266284942627,0.3238253891468048,-0.007711946498602629
-0.6107679605484009,1.6785650253295898,9.72233772277832,0.07070557028055191,0.23525254428386688,-0.031534988433122635
-0.617946445941925,1.7168502807617188,9.650552749633789,-0.013133215717971325,0.15584240853786469,-0.019318044185638428
-0.4265206456184387,1.566102385520935,9.789336204528809,-0.0423775278031826,0.24258272349834442,0.0014507622690871358
-0.5605186820030212,1.5900306701660156,10.03131103515625,0.03527642786502838,0.38124504685401917,-0.010766183026134968
-0.8691928386688232,1.7575281858444214,10.01456069946289,0.1396549493074417,0.3733040392398834,-0.010155336000025272
-0.9556335210800171,1.9872392416000366,9.844371795654297,0.13904410600662231,0.2212030589580536,0.027717193588614464
-0.737587571144104,1.9298114776611328,9.588339805603027,0.07505785673856735,0.1271325796842575,0.08941277116537094
-0.6873382925987244,1.5541383028030396,9.93559741973877,0.14522893726825714,0.19615831971168518,0.08758022636175156
-1.0154540538787842,1.810170292854309,9.648159980773926,0.1626380831003189,-0.07017108052968979,0.03749075159430504
-0.7519445419311523,1.9752750396728516,9.39452075958252,-0.04611896723508835,-0.21005509793758392,0.047264307737350464
-0.373878538608551,1.7048860788345337,9.61944580078125,-0.173404261469841,-0.02680092304944992,0.014278554357588291
-0.7136593461036682,1.6713865995407104,10.110274314880371,-0.1585148572921753,0.034283801913261414,-0.04741701856255531
-0.9891330599784851,1.8005990982055664,10.129416465759277,-0.09208522737026215,-0.04512634128332138,-0.0358109213411808
-0.7567301392555237,1.6139588356018066,9.949954986572266,-0.02435753494501114,-0.11964970827102661,-0.010766183026134968
-0.6681957244873047,1.683350682258606,9.624231338500977,0.009239064529538155,-0.16363070905208588,-0.027869906276464462
-0.7567301392555237,2.001596212387085,9.468698501586914,0.018554486334323883,-0.09277242422103882,-0.04680617153644562
-0.8955138921737671,1.9680966138839722,9.346664428710938,0.0017561858985573053,-0.014583977870643139,-0.011987877078354359
-0.6538388133049011,1.5230315923690796,9.557232856750488,-0.06284090876579285,0.06849125027656555,0.07780666649341583
-0.5892325639724731,1.5254244804382324,9.758230209350586,-0.0889546349644661,-0.00908635277301073,0.041766680777072906
-0.8356932997703552,1.8532410860061646,9.734301567077637,-0.050394900143146515,-0.1086544543504715,-0.007101099472492933
-0.7950153350830078,1.7934205532073975,9.72951602935791,-0.020616095513105392,-0.12026055157184601,0.030160583555698395
-0.9364909529685974,1.8891334533691406,9.966704368591309,-0.018783552572131157,-0.12514732778072357,-0.02053973823785782
-0.6442674994468689,1.6689938306808472,9.392127990722656,-0.1790546029806137,-0.2674747407436371,-0.04375193640589714
-0.3643072545528412,1.5278172492980957,9.432806015014648,-0.4107184112071991,-0.4470638334751129,-0.08712209016084671
-0.22761724889278412,1.5158531665802002,9.691230773925781,-0.4070533514022827,-0.3737621605396271,-0.049860406666994095
-0.01704886183142662,1.2355937957763672,10.055238723754883,-0.19272230565547943,-0.16363070905208588,-0.0034360159188508987
-0.25633111596107483,1.4222339391708374,10.41176986694336,0.06390989571809769,-0.061619218438863754,-0.00038177953683771193
-0.4815555512905121,1.6354942321777344,10.071989059448242,0.16637952625751495,-0.12514732778072357,-0.022372281178832054
-0.3858426511287689,1.6426727771759033,9.459127426147461,0.13660071790218353,-0.14164020121097565,-0.027259059250354767
-0.29700911045074463,1.5828521251678467,9.121439933776855,0.08498412370681763,-0.07872293889522552,0.0008399150101467967
-0.23958136141300201,1.6618152856826782,9.042476654052734,-0.005726693198084831,0.0031305921729654074,0.011835165321826935
-0.16540385782718658,1.5565310716629028,9.416056632995605,-0.1330883502960205,0.044668205082416534,-0.010766183026134968
-0.2754737138748169,1.4030914306640625,9.949954986572266,-0.19951798021793365,0.08131904155015945,-0.032756682485342026
-0.4456632137298584,1.3576277494430542,10.296914100646973,-0.13117945194244385,0.061771929264068604,-0.04130854457616806
-0.5676971673965454,1.407876968383789,10.39501953125,-0.041766680777072906,-0.06711684167385101,-0.024815669283270836
-0.37866419553756714,1.450947880744934,10.105487823486328,-0.013133215717971325,-0.16607409715652466,-0.0022143214009702206
-0.17258232831954956,1.4629119634628296,9.86112117767334,-0.02244863659143448,-0.08360971510410309,-0.0016034740256145597
-0.20847466588020325,1.3719847202301025,9.947562217712402,-0.020005248486995697,0.015347537584602833,-0.018707197159528732
-0.3089732229709625,1.4318052530288696,9.947562217712402,0.04092676565051079,0.03489464893937111,-0.033978380262851715
-0.33768710494041443,1.511067509651184,9.693623542785645,0.07261446863412857,0.01779092662036419,-0.019928891211748123
-0.3041875660419464,1.5900306701660156,9.554840087890625,0.033443886786699295,-0.010918894782662392,-0.004046862944960594
-0.2802593410015106,1.6235301494598389,9.365806579589844,-0.0032069480512291193,0.02145601063966751,0.0051158457063138485
-0.4145565330982208,1.5637096166610718,9.763015747070312,-0.006948387715965509,0.02695363573729992,-0.007711946498602629
-0.38344982266426086,1.5230315923690796,9.961918830871582,-0.026190076023340225,-0.045737188309431076,-0.011377030052244663
-0.2587239444255829,1.4198411703109741,9.796515464782715,-0.008170082233846188,-0.04756972938776016,0.016111096367239952
-0.1821536272764206,1.3025928735733032,9.645767211914062,0.060779303312301636,0.09170344471931458,0.026495499536395073
-0.3520440459251404,1.2738789319992065,10.100702285766602,0.2154763638973236,0.1674485057592392,-0.011987877078354359
-0.646660327911377,1.7096717357635498,9.638588905334473,0.17630578577518463,-0.044515494257211685,-0.011987877078354359
-0.39062830805778503,1.6211373805999756,9.471091270446777,-0.10262233763933182,-0.20394663512706757,0.02160872146487236
-0.07926224917173386,1.410269856452942,9.52612590789795,-0.31321191787719727,-0.1471378356218338,0.012446013279259205
-0.05054837837815285,1.20687997341156,10.18445110321045,-0.22937314212322235,0.023899398744106293,-0.04130854457616806
-0.4576273262500763,1.5254244804382324,10.304092407226562,-0.036727190017700195,0.03061871975660324,-0.031534988433122635
-0.3400799036026001,1.5517455339431763,10.167701721191406,0.048333290964365005,-0.06467345356941223,0.03871244564652443
-0.10079765319824219,1.4724832773208618,9.791728973388672,0.12293300777673721,0.036727190017700195,0.057648710906505585
-0.3089732229709625,1.450947880744934,9.564411163330078,0.25212720036506653,0.09353598952293396,0.02405211143195629
-0.12711870670318604,1.3456636667251587,9.61226749420166,0.3155026137828827,0.22303560376167297,0.006337540224194527
-0.5605186820030212,1.4318052530288696,9.741479873657227,0.26518407464027405,-0.05062396824359894,-0.04497363045811653
-0.4049852192401886,1.7001005411148071,9.425627708435059,-0.01748550310730934,-0.24243000149726868,-0.053525492548942566
-0.20847466588020325,1.6857435703277588,9.420842170715332,-0.26167169213294983,-0.19722731411457062,-0.05413633957505226
-0.263509601354599,1.6426727771759033,9.911669731140137,-0.25174543261528015,-0.02557922899723053,-0.04497363045811653
-0.3568296730518341,1.4629119634628296,10.14616584777832,-0.05230379477143288,7.635590736754239e-05,-0.008322793990373611
-0.39062830805778503,1.5035899877548218,10.15573787689209,0.13591352105140686,-0.11048699915409088,0.015500249341130257
-0.1989033818244934,1.6666009426116943,9.789336204528809,0.2315874695777893,-0.1624090075492859,0.025884652510285378
-0.09122636169195175,1.726421594619751,9.540482521057129,0.21356746554374695,-0.09338327497243881,0.004504998680204153
-0.17976079881191254,1.755135416984558,9.62901782989502,0.10857810080051422,-0.031076854094862938,-0.011987877078354359
-0.19172491133213043,1.5828521251678467,9.957133293151855,-0.0007635590736754239,-0.013973130844533443,-0.004046862944960594
-0.18454644083976746,1.5708880424499512,10.136594772338867,-0.009391776286065578,-0.03352024406194687,0.007559234742075205
-0.1462612897157669,1.6737794876098633,10.026525497436523,0.05825955793261528,-0.07017108052968979,0.020997874438762665
-0.14865410327911377,1.7048860788345337,9.832406997680664,0.1178935244679451,-0.10193513333797455,0.016111096367239952
0.00687936507165432,1.6402798891067505,9.71515941619873,0.030313294380903244,-0.05978667363524437,0.013667707331478596
-0.06251249462366104,1.690529227256775,9.583553314208984,-0.07154548168182373,-0.14530529081821442,-0.007711946498602629
0.03080759197473526,1.7623138427734375,9.688838005065918,-0.12934690713882446,-0.17768019437789917,-0.032756682485342026
0.09541380405426025,1.5804593563079834,9.856335639953613,-0.10071343928575516,-0.12392564117908478,-0.05963396281003952
0.08344969153404236,1.7527425289154053,10.191629409790039,-0.01626380905508995,-0.034131091088056564,-0.049860406666994095
-0.014656038954854012,1.6307085752487183,9.703194618225098,0.07261446863412857,-0.0695602297782898,-0.011987877078354359
-0.01704886183142662,1.683350682258606,9.631410598754883,0.07383616268634796,-0.03352024406194687,0.01794363744556904
-0.031405795365571976,1.7001005411148071,9.535696983337402,0.009239064529538155,-0.059175826609134674,0.025273805484175682
0.07627122104167938,1.7407784461975098,9.506983757019043,-0.05604523420333862,-0.11964970827102661,0.01916533336043358
0.1217348501086235,1.7072789669036865,9.624231338500977,-0.11690089106559753,-0.11048699915409088,0.014889402315020561
0.19112670421600342,1.3313066959381104,9.949954986572266,-0.14675605297088623,-0.03290939703583717,-0.0009926267666742206
0.1504487246274948,1.4796617031097412,10.194023132324219,-0.07528692483901978,-0.029855160042643547,-0.05474718660116196
0.05473581701517105,1.7670994997024536,10.02173900604248,0.1402658075094223,-0.11109784245491028,-0.06696412712335587
0.07387840002775192,1.6426727771759033,9.169296264648438,0.217308908700943,0.019623467698693275,-0.015042114071547985
0.25363919138908386,1.534995675086975,9.198010444641113,0.08063183724880219,0.1937149316072464,-0.011377030052244663
-0.04097708687186241,1.8556339740753174,9.528518676757812,-0.082082599401474,0.26762744784355164,-0.0022143214009702206
-0.12711870670318604,1.5828521251678467,10.083952903747559,-0.10140064358711243,0.21570543944835663,0.05031854286789894
-0.012263216078281403,1.7575281858444214,9.784550666809082,-0.05726693198084831,0.0758214145898819,0.02283041551709175
-0.17497515678405762,1.7647067308425903,9.32004451751709,-0.11812258511781693,0.16134002804756165,0.03687990456819534
0.04755735024809837,1.4676976203918457,10.12463092803955,-0.05604523420333862,0.39346200227737427,0.06314633786678314
-0.25633111596107483,1.604387640953064,10.40219783782959,0.13033953309059143,0.3916294574737549,0.06620056927204132
-0.31854450702667236,1.5804593563079834,10.127023696899414,0.19989976286888123,0.2609081268310547,0.07230904698371887
-0.20368902385234833,1.690529227256775,9.6433744430542,0.12972868978977203,0.10514208674430847,0.03077143058180809
-0.20608185231685638,1.7240287065505981,9.588339805603027,0.032222192734479904,0.08987089991569519,0.016111096367239952
-0.263509601354599,1.6139588356018066,9.841979026794434,0.02473931387066841,0.12163496017456055,0.025273805484175682
-0.28983065485954285,1.6426727771759033,9.904491424560547,0.11361759155988693,0.14301460981369019,0.02160872146487236
-0.373878538608551,1.8628123998641968,9.660123825073242,0.17943638563156128,0.12407834827899933,0.018554486334323883
-0.34247273206710815,1.8747764825820923,9.499805450439453,0.1253764033317566,0.12285665422677994,0.03321481868624687
-0.25633111596107483,1.8699909448623657,9.545269012451172,0.022219568490982056,0.11552648991346359,0.02038702741265297
-0.4217349886894226,1.7670994997024536,9.86829948425293,-0.04611896723508835,0.13324105739593506,0.014889402315020561
-0.47198426723480225,1.7312071323394775,9.93559741973877,-0.030542362481355667,0.09597937762737274,0.020997874438762665
-0.43609192967414856,1.726421594619751,10.182058334350586,0.03161134570837021,0.15156647562980652,0.03687990456819534
-0.46719861030578613,1.7718851566314697,10.213165283203125,0.12293300777673721,0.14667969942092896,0.03749075159430504
-0.5006981492042542,1.9776679277420044,9.815657615661621,0.20555010437965393,0.1149156391620636,0.03077143058180809
-0.4408775866031647,1.8939191102981567,9.451948165893555,0.21356746554374695,0.22425730526447296,0.0423775278031826
-0.584446907043457,1.872383713722229,9.585947036743164,0.18691925704479218,0.29389387369155884,0.02710634656250477
-0.7830511927604675,2.0231316089630127,9.46630573272705,0.1477486789226532,0.2340308576822281,0.019776180386543274
-0.859621524810791,2.1119651794433594,9.36341381072998,0.08559497445821762,0.1656159609556198,0.038101598620414734
-0.7280163168907166,2.0542383193969727,9.19561767578125,0.006108472589403391,0.1656159609556198,0.05154023692011833
-0.5078766345977783,1.8029918670654297,9.293723106384277,-0.016874656081199646,0.30305659770965576,0.04421006888151169
-0.5509474277496338,1.7072789669036865,9.75105094909668,0.08559497445821762,0.4582118093967438,0.005726693198084831
-1.0322039127349854,1.9178473949432373,9.638588905334473,0.03779617324471474,0.1949366331100464,-0.060244809836149216
-1.0322039127349854,1.9154545068740845,9.911669731140137,-0.2181488275527954,-0.04695888236165047,-0.09139802306890488
-0.9556335210800171,1.8269200325012207,10.071989059448242,-0.3784198760986328,-0.17096087336540222,-0.1414874941110611
-0.9221340417861938,1.786242127418518,10.313663482666016,-0.3567348122596741,-0.18501035869121552,-0.18852274119853973
-0.9146564602851868,1.934597134590149,10.38784122467041,-0.18585027754306793,-0.13980767130851746,-0.12438376992940903
-0.8404789566993713,1.755135416984558,10.182058334350586,0.012904148548841476,-0.052456509321928024,-0.018096350133419037
-0.7088736891746521,1.8771693706512451,9.72233772277832,0.10178242623806,-0.02680092304944992,-0.0016034740256145597
-0.771087110042572,1.9178473949432373,9.377771377563477,0.07070557028055191,-0.08849649876356125,-0.04008685052394867
-0.828514814376831,1.9417755603790283,9.38016414642334,0.06016845628619194,-0.278469979763031,-0.05535803362727165
-0.617946445941925,1.9824535846710205,9.260223388671875,0.04023956134915352,-0.17645850777626038,-0.041919391602277756
-0.7447660565376282,1.8029918670654297,9.877870559692383,-0.04359922185540199,-0.04023956134915352,-0.03092414326965809
-0.8979067206382751,1.7216359376907349,10.318449020385742,-0.06284090876579285,-0.11354123055934906,-0.018707197159528732
-0.7806583642959595,1.6163517236709595,10.423733711242676,0.060779303312301636,-0.39330926537513733,0.0038941511884331703
-0.5988038778305054,1.786242127418518,10.483853340148926,0.31855684518814087,-0.39147675037384033,-0.008322793990373611
-0.5461617708206177,1.8652052879333496,10.253843307495117,0.42606595158576965,-0.329781174659729,-0.019318044185638428
-0.48873403668403625,1.9250258207321167,9.856335639953613,0.5155550837516785,-0.22349373996257782,-0.03825430944561958
-0.41216370463371277,2.0470597743988037,9.497411727905273,0.422324538230896,-0.24181915819644928,-0.06818582862615585
-0.4456632137298584,2.1311075687408447,9.552447319030762,0.2862583100795746,-0.31206658482551575,-0.09567394852638245
-0.47198426723480225,2.202892303466797,9.727123260498047,0.24838577210903168,-0.45439401268959045,-0.11338852345943451
-0.37148571014404297,2.3512473106384277,9.384949684143066,0.2999260127544403,-0.5643464922904968,-0.11094513535499573
-0.09122636169195175,2.281855583190918,9.432806015014648,0.34222719073295593,-0.31084489822387695,-0.03214583545923233
0.10259227454662323,2.281855583190918,9.679266929626465,0.3614688515663147,-0.07811209559440613,0.014278554357588291
-0.014656038954854012,2.384746789932251,9.63619613647461,0.3552076816558838,-0.09643751382827759,-0.018096350133419037
-0.15104693174362183,2.3632113933563232,9.502198219299316,0.3067980408668518,-0.14102935791015625,-0.0364217683672905
-0.15104693174362183,2.4828526973724365,9.229117393493652,0.22975492477416992,-0.18195612728595734,0.06986565887928009
0.06669992953538895,2.1765713691711426,9.444769859313965,0.14400723576545715,0.02817532978951931,0.28244051337242126
0.00687936507165432,2.2555344104766846,9.648159980773926,0.15828579664230347,0.02695363573729992,0.3215347230434418
0.03080759197473526,2.5283162593841553,9.315258979797363,0.2092151790857315,-0.1349208950996399,0.26167169213294983
0.3326023519039154,2.4972095489501953,8.69043254852295,0.13721156120300293,-0.1593547761440277,0.16576866805553436
0.5264210104942322,2.4373888969421387,8.779266357421875,-0.028098974376916885,-0.013973130844533443,0.010613471269607544
0.18155542016029358,2.588136672973633,9.557232856750488,-0.1355317384004593,0.09170344471931458,-0.12438376992940903
-0.19651055335998535,2.7320053577423096,10.15573787689209,-0.1044548824429512,0.0293970238417387,-0.17752748727798462
-0.1295115202665329,2.916252613067627,10.215558052062988,0.15271180868148804,-0.21066594123840332,-0.126216322183609
0.11455638706684113,2.7224340438842773,9.428020477294922,0.32542887330055237,-0.1477486789226532,-0.035200074315071106
0.26081767678260803,2.743969440460205,9.346664428710938,0.22479179501533508,0.17538951337337494,-0.011377030052244663
-0.024227328598499298,2.9617161750793457,9.308079719543457,0.03527642786502838,0.25418880581855774,-0.018096350133419037
-0.1534397453069687,2.98085880279541,9.37059211730957,-0.15538427233695984,0.26457321643829346,-0.011377030052244663
-0.17258232831954956,2.7702903747558594,9.284152030944824,-0.2492256760597229,0.2712925374507904,0.01122431829571724
-0.0768694281578064,2.6192433834075928,9.212367057800293,-0.2411319613456726,0.3537569046020508,0.039323292672634125
-0.08883354067802429,2.6168506145477295,9.707980155944824,-0.21005509793758392,0.6359683275222778,0.025884652510285378
-0.4695914387702942,2.5067808628082275,10.569994926452637,-0.02435753494501114,0.7208760976791382,-0.013209572061896324
-0.8859425783157349,2.580958366394043,10.510174751281738,0.23288552463054657,0.5052470564842224,0.03321481868624687
-0.7950153350830078,2.5833511352539062,9.76062297821045,0.3688753843307495,0.2822877764701843,0.12850698828697205
-0.37148571014404297,2.5833511352539062,8.922835350036621,0.33596599102020264,0.2688491642475128,0.1724879890680313
-0.2802593410015106,2.6697919368743896,8.546863555908203,0.168899267911911,0.40873315930366516,0.13828055560588837
-0.46719861030578613,2.703291416168213,8.63061237335205,-0.015042114071547985,0.5803812742233276,0.09368869662284851
-0.7567301392555237,2.6554348468780518,9.707980155944824,-0.11751174181699753,0.6585696935653687,0.025273805484175682
-1.0274182558059692,2.518744945526123,10.368699073791504,-0.020616095513105392,0.5455629825592041,-0.03092414326965809
-1.1733803749084473,2.573779821395874,9.940383911132812,0.12789614498615265,0.3507026731967926,-0.02176143415272236
-1.1255239248275757,2.7415764331817627,9.1716890335083,0.1862320601940155,0.31954947113990784,0.023441264405846596
-1.3767703771591187,2.995215654373169,9.916455268859863,-0.3927747905254364,-0.28763270378112793,-0.04619532451033592
-0.9987043738365173,2.518744945526123,10.215558052062988,-0.44431501626968384,-0.48249298334121704,-0.12071868777275085
-0.771087110042572,2.494816780090332,9.803693771362305,-0.32130566239356995,-0.3817031681537628,-0.17080816626548767
-0.9388837814331055,2.791825771331787,9.569196701049805,-0.1050657257437706,-0.17645850777626038,-0.14759597182273865
-1.017846941947937,2.8325037956237793,9.305686950683594,0.03405473381280899,-0.05428905040025711,-0.08528954535722733
-1.0824531316757202,2.775076150894165,9.425627708435059,0.051463883370161057,-0.07261446863412857,-0.03703261539340019
-1.077667474746704,2.5929224491119385,9.384949684143066,-0.018096350133419037,-0.11231953650712967,0.0032833039294928312
-0.9915258884429932,2.557030200958252,9.471091270446777,-0.09269607067108154,-0.15324631333351135,-0.008933641016483307
-0.9122636318206787,2.4661028385162354,9.724730491638184,-0.13927318155765533,-0.1361425817012787,-0.03336753323674202
-0.8668000102043152,2.3273191452026367,10.064809799194336,-0.13927318155765533,-0.14225105941295624,-0.06818582862615585
-0.8739784955978394,2.501995086669922,10.29452133178711,0.08376242965459824,-0.3022930324077606,-0.03703261539340019
-0.7184450030326843,2.525923490524292,9.52612590789795,0.22975492477416992,-0.19356222450733185,0.007559234742075205
-0.6586244106292725,2.4828526973724365,9.322735786437988,0.2092151790857315,-0.08788564801216125,0.006337540224194527
-0.7926225066184998,2.6240291595458984,9.648159980773926,-0.16225630044937134,0.0892600566148758,0.03382566571235657
-0.7328019142150879,2.408675193786621,9.684052467346191,-0.1274380087852478,-0.02435753494501114,0.04787515476346016
-0.6705885529518127,2.525923490524292,9.808479309082031,-0.037414394319057465,0.004963133949786425,0.04665346071124077
-0.6634100675582886,2.463710069656372,9.700801849365234,0.027869906276464462,0.004352286923676729,0.03199312463402748
-0.6442674994468689,2.4278175830841064,9.571589469909668,0.05329642444849014,-0.0017561858985573053,0.0295497365295887
-0.6825526356697083,2.533101797103882,9.344271659851074,0.056427016854286194,-0.044515494257211685,0.02160872146487236
-0.7040880918502808,2.5761725902557373,9.250652313232422,-0.00259610079228878,-0.03901786729693413,0.012446013279259205
-0.6705885529518127,2.6072793006896973,9.214759826660156,-0.03306210786104202,-0.05306735634803772,0.0032833039294928312
-0.6514459848403931,2.461317300796509,9.437591552734375,-0.08399149775505066,-0.008475505746901035,0.0051158457063138485
-0.6370890140533447,2.4756741523742676,9.652945518493652,-0.05787777900695801,-0.031076854094862938,0.009391776286065578
-0.5437689423561096,2.4661028385162354,9.329915046691895,-0.02244863659143448,-0.014583977870643139,0.010002624243497849
-0.5365904569625854,2.4589242935180664,9.365806579589844,-0.035505495965480804,0.03489464893937111,0.0008399150101467967
-0.6538388133049011,2.4373888969421387,9.60508918762207,-0.06345175951719284,0.1265217363834381,-0.01626380905508995
-0.8500502705574036,2.463710069656372,9.947562217712402,-0.050394900143146515,0.1540098637342453,-0.007101099472492933
-0.8859425783157349,2.5139594078063965,10.033703804016113,-0.03489464893937111,0.13385190069675446,0.0032833039294928312
-0.9026923179626465,2.494816780090332,9.978668212890625,0.03161134570837021,0.09720107167959213,0.014889402315020561
-0.8117650747299194,2.4349961280822754,9.411270141601562,0.1023932695388794,0.09475768357515335,0.015500249341130257
-0.8141579031944275,2.5450658798217773,9.138189315795898,0.11048699915409088,0.1680593490600586,0.03077143058180809
-0.8979067206382751,2.5689942836761475,9.083154678344727,0.06635328382253647,0.2181488275527954,0.04665346071124077
-1.041775107383728,2.6264219284057617,9.676874160766602,0.011682453565299511,0.1802763044834137,0.05215108394622803
-0.9747761487960815,2.4134607315063477,10.158130645751953,-0.02870982140302658,0.06482616811990738,0.03871244564652443
-1.017846941947937,2.6434707641601562,9.897313117980957,0.16393613815307617,-0.06039752438664436,0.01916533336043358
-0.9098708033561707,2.703291416168213,9.691230773925781,0.25831204652786255,0.05077667906880379,0.038101598620414734
-0.8739784955978394,2.6865415573120117,9.533304214477539,0.3179459869861603,0.14667969942092896,0.07047650218009949
-0.8763712644577026,2.696112871170044,9.399306297302246,0.3931565582752228,0.3097759187221527,0.10590564459562302
-0.9122636318206787,2.8181469440460205,9.293723106384277,0.4595862030982971,0.4582118093967438,0.11506835371255875
-0.9723833203315735,3.0239295959472656,9.030512809753418,0.4912739098072052,0.559001624584198,0.12423106282949448
-1.2092727422714233,3.2012975215911865,8.951549530029297,0.5043307542800903,0.6707866191864014,0.19020256400108337
-1.0920244455337524,3.19651198387146,9.059226989746094,0.5484644770622253,0.8570950627326965,0.2763320207595825
-1.7455641031265259,3.306581735610962,9.245866775512695,0.6857523918151855,1.105099081993103,0.19570018351078033
-2.449352979660034,3.9290146827697754,8.884550094604492,0.6068767309188843,0.9371160268783569,0.16576866805553436
-2.624328136444092,4.058227062225342,8.589934349060059,0.4005630910396576,0.7691330313682556,0.22318831086158752
-2.3799612522125244,3.6583266258239746,8.410472869873047,0.1459161341190338,0.6573479771614075,0.25678491592407227
-2.1837496757507324,3.378366470336914,8.618648529052734,-0.0653606578707695,0.6524612307548523,0.2011978179216385
-2.3009979724884033,3.3640096187591553,9.018548965454102,-0.14797775447368622,0.6701757907867432,0.10407309979200363
-2.597707986831665,3.426223039627075,9.226723670959473,-0.09330692142248154,0.6084802150726318,0.005726693198084831
-3.059821844100952,3.667897939682007,8.329116821289062,-0.02680092304944992,0.44965994358062744,-0.06574243307113647
-3.4836506843566895,4.01754903793335,8.803194046020508,-0.17775654792785645,0.10758547484874725,-0.10117157548666
-3.2252259254455566,3.9074792861938477,9.073583602905273,-0.4995967149734497,-0.14286190271377563,-0.10605835169553757
