accX,accY,accZ,gyroX,gyroY,gyroZ
1.5057220458984375,5.124298095703125,7.55645751953125,-0.4514617919921875,0.3317718505859375,-0.260101318359375
0.8544921875,4.86572265625,7.8270111083984375,-0.575042724609375,0.0377655029296875,-0.2430572509765625
1.1513824462890625,4.784332275390625,8.291488647460938,-0.66558837890625,-0.2147064208984375,-0.1610260009765625
1.5105133056640625,4.8106689453125,8.44232177734375,-0.6730499267578125,-0.1923370361328125,-0.1418609619140625
1.481781005859375,4.975860595703125,8.894821166992188,-0.609130859375,0.22418212890625,-0.1844635009765625
1.5895233154296875,4.20013427734375,7.75518798828125,-0.503662109375,-0.707916259765625,0.142578125
1.4434661865234375,4.5832061767578125,8.535690307617188,-0.644287109375,-0.65252685546875,-0.08966064453125
0.4929656982421875,4.731658935546875,8.62188720703125,-0.608062744140625,-0.630157470703125,-0.0491790771484375
0.2798919677734375,4.638275146484375,8.748779296875,-0.5803680419921875,-0.684478759765625,0.069061279296875
1.0627899169921875,4.087615966796875,8.70806884765625,-0.493011474609375,-0.6898040771484375,0.2906494140625
1.7020416259765625,4.0157928466796875,8.617095947265625,-0.424835205078125,-0.52789306640625,0.3183441162109375
2.0659637451171875,4.109161376953125,8.574005126953125,-0.3491973876953125,-0.2786102294921875,0.2831878662109375
1.735565185546875,4.2863311767578125,8.418380737304688,-0.19793701171875,0.1773223876953125,0.115936279296875
1.0053253173828125,4.3174591064453125,8.722442626953125,-0.1340179443359375,0.1645355224609375,0.1020965576171875
1.6014862060546875,4.2025299072265625,8.20050048828125,-0.1222991943359375,-0.09326171875,0.1574859619140625
1.3596649169921875,3.855377197265625,8.035308837890625,-0.2160491943359375,-0.0431976318359375,0.1265869140625
1.9749755859375,4.0301513671875,8.566818237304688,-0.2139129638671875,0.0974273681640625,0.1468353271484375
1.6038818359375,3.632720947265625,8.971435546875,-0.1233673095703125,0.203948974609375,0.1383056640625
1.6781005859375,3.697357177734375,8.892425537109375,-0.015777587890625,0.180511474609375,0.1915740966796875
1.967803955078125,3.78594970703125,8.777511596679688,-0.005126953125,0.1038055419921875,0.2373809814453125
2.264678955078125,3.714111328125,8.684127807617188,-0.0083160400390625,0.0729217529296875,0.228851318359375
2.2407379150390625,3.592010498046875,8.293869018554688,-0.02642822265625,0.2092742919921875,0.104217529296875
2.006103515625,3.8433990478515625,8.183746337890625,-0.1116485595703125,0.4468231201171875,0.0328521728515625
1.4698028564453125,3.7763671875,8.62188720703125,-0.23309326171875,0.6747894287109375,0.01580810546875
1.187286376953125,3.639892578125,9.14141845703125,-0.2512054443359375,0.671600341796875,0.059478759765625
1.1513824462890625,3.527374267578125,9.349716186523438,-0.2266998291015625,0.6470947265625,0.0871734619140625
1.2854461669921875,3.527374267578125,9.677719116210938,-0.0903472900390625,0.54803466796875,0.10528564453125
1.1992645263671875,3.60638427734375,9.514923095703125,0.0918121337890625,0.4329833984375,0.072265625
1.07476806640625,3.5225830078125,9.344924926757812,0.1663818359375,0.3935699462890625,0.05841064453125
1.3070068359375,3.7117156982421875,9.244369506835938,0.3347015380859375,0.36480712890625,0.060546875
1.038848876953125,3.9248046875,8.830184936523438,0.3911590576171875,0.4809112548828125,0.016876220703125
0.595916748046875,3.8362274169921875,8.447097778320312,0.314453125,0.4969024658203125,0.03924560546875
0.4235382080078125,3.697357177734375,8.171768188476562,0.1823577880859375,0.3552093505859375,0.0680084228515625
0.722808837890625,3.8936767578125,8.51654052734375,0.0161895751953125,0.20501708984375,0.0765228271484375
1.048431396484375,4.078033447265625,8.815811157226562,-0.062652587890625,0.2753143310546875,0.0200653076171875
1.05560302734375,4.48504638671875,8.85650634765625,-0.04986572265625,0.4404296875,-0.053436279296875
0.1003265380859375,3.97747802734375,8.597946166992188,-0.07330322265625,0.5618743896484375,-0.090728759765625
-0.2037353515625,3.7763671875,8.011367797851562,-0.1766357421875,0.511810302734375,0.0893096923828125
0.109893798828125,3.697357177734375,8.097549438476562,-0.314056396484375,0.32965087890625,0.2320556640625
0.5552215576171875,4.11395263671875,8.69610595703125,-0.3609161376953125,0.319000244140625,0.22991943359375
0.679718017578125,4.1977386474609375,9.294647216796875,-0.2586517333984375,0.4585418701171875,0.1692047119140625
0.050048828125,3.6159515380859375,9.347320556640625,-0.1095123291015625,0.4404296875,0.1681365966796875
-0.0840301513671875,3.2783660888671875,8.724838256835938,-0.0221710205078125,0.1528167724609375,0.1116790771484375
-0.2276763916015625,3.4292144775390625,8.652999877929688,-0.0477294921875,-0.09112548828125,0.072265625
0.255950927734375,2.96234130859375,8.025726318359375,-0.11590576171875,-0.4085845947265625,0.016876220703125
0.3134002685546875,2.6175689697265625,8.1478271484375,-0.1531982421875,-0.4778289794921875,0.03924560546875
0.4379119873046875,3.273590087890625,9.344924926757812,-0.20965576171875,-0.0783538818359375,0.1937103271484375
1.060394287109375,4.4706878662109375,9.704055786132812,-0.208587646484375,0.59063720703125,0.254425048828125
0.066802978515625,3.422027587890625,9.131851196289062,-0.2053985595703125,0.772796630859375,0.118072509765625
0.28228759765625,2.4954681396484375,8.6434326171875,-0.2032623291015625,0.4958343505859375,0.057342529296875
-0.1462860107421875,2.46673583984375,8.8541259765625,-0.1105804443359375,-0.390472412109375,0.0307159423828125
0.1745452880859375,3.0700836181640625,8.614700317382812,0.07476806640625,-1.2639923095703125,0.0541534423828125
0.255950927734375,3.32147216796875,9.124664306640625,0.155731201171875,-1.64215087890625,0.059478759765625
0.667755126953125,3.7021484375,10.38641357421875,0.3442840576171875,-1.4568023681640625,0.0775909423828125
1.2112274169921875,3.7260894775390625,9.558013916015625,0.5136566162109375,-0.437347412109375,-0.0033721923828125
1.407562255859375,3.3861083984375,8.51654052734375,0.5285797119140625,0.0377655029296875,-0.076873779296875
1.26629638671875,3.5680694580078125,8.38006591796875,0.3879547119140625,0.0633392333984375,-0.156768798828125
0.9574432373046875,4.046905517578125,8.526107788085938,0.223907470703125,-0.136932373046875,-0.213226318359375
0.5121307373046875,3.580047607421875,7.6953277587890625,0.0800933837890625,-0.39898681640625,-0.20257568359375
0.7491455078125,3.6303253173828125,7.793487548828125,-0.26824951171875,-0.3712921142578125,-0.08966064453125
0.4594573974609375,4.0229644775390625,8.973831176757812,-0.49407958984375,-0.1081695556640625,-0.0960540771484375
0.2224273681640625,3.94635009765625,9.988967895507812,-0.2725067138671875,0.0622711181640625,0.1010284423828125
0.986175537109375,3.75482177734375,9.706451416015625,0.1312255859375,0.1645355224609375,0.2938385009765625
1.314178466796875,3.7356719970703125,9.105514526367188,0.34002685546875,0.2540130615234375,0.207550048828125
1.1058807373046875,3.644683837890625,8.456680297851562,0.3549346923828125,0.2103424072265625,0.0424346923828125
0.890411376953125,3.5297698974609375,8.08319091796875,0.1397552490234375,0.053741455078125,-0.0001678466796875
0.89520263671875,3.61834716796875,8.5380859375,-0.128692626953125,-0.0517120361328125,-0.0140228271484375
0.7802734375,3.8841094970703125,8.70806884765625,-0.2469329833984375,-0.2487945556640625,-0.0523681640625
1.3524932861328125,4.03973388671875,8.566818237304688,-0.33642578125,-0.4650421142578125,-0.022552490234375
1.1154632568359375,3.2041473388671875,8.674560546875,-0.48236083984375,-0.540679931640625,0.038177490234375
1.5176849365234375,3.639892578125,9.306625366210938,-0.5579986572265625,-0.5065765380859375,0.060546875
1.4315032958984375,3.7356719970703125,9.493377685546875,-0.4184417724609375,-0.5438690185546875,-0.1610260009765625
0.8616790771484375,3.0772552490234375,9.57476806640625,-0.161712646484375,-0.378753662109375,-0.170623779296875
1.1848907470703125,3.3190765380859375,9.464645385742188,-0.0360107421875,-0.2008514404296875,-0.0694122314453125
1.69964599609375,3.814666748046875,9.222824096679688,0.233489990234375,0.1506805419921875,-0.00762939453125
1.081939697265625,3.0126190185546875,9.431121826171875,0.37518310546875,0.305145263671875,-0.0406494140625
1.196868896484375,3.1395111083984375,9.196487426757812,0.4465484619140625,0.34881591796875,-0.0044403076171875
1.481781005859375,3.565673828125,8.267547607421875,0.3986053466796875,0.154937744140625,0.0222015380859375
1.407562255859375,3.5201873779296875,7.8533477783203125,0.282501220703125,0.053741455078125,-0.0246734619140625
1.25433349609375,3.4603271484375,7.8222198486328125,0.135498046875,-0.09539794921875,-0.086456298828125
1.1681365966796875,3.697357177734375,8.308242797851562,-0.1329498291015625,-0.285003662109375,-0.165283203125
1.2447509765625,3.706939697265625,8.562026977539062,-0.2032623291015625,-0.300994873046875,-0.1535797119140625
1.577545166015625,3.93438720703125,8.91876220703125,-0.218170166015625,-0.2786102294921875,-0.12054443359375
1.4961395263671875,4.3605499267578125,9.038467407226562,-0.1414794921875,-0.1337432861328125,-0.0395965576171875
1.0891265869140625,3.560882568359375,9.119873046875,0.28143310546875,0.6119384765625,0.104217529296875
0.509735107421875,3.5225830078125,9.06719970703125,0.349609375,0.7642822265625,0.139373779296875
0.96942138671875,3.675811767578125,8.880462646484375,0.4337615966796875,0.4372406005859375,0.1819915771484375
1.4003753662109375,3.8481903076171875,9.301834106445312,0.477447509765625,0.24761962890625,0.1436309814453125
2.0492095947265625,4.288726806640625,10.290634155273438,0.6862335205078125,0.4447021484375,-0.1194915771484375
2.2766571044921875,4.722076416015625,10.094314575195312,0.8683929443359375,0.7088775634765625,-0.29205322265625
0.89520263671875,4.0373382568359375,9.38323974609375,1.215667724609375,1.057220458984375,-0.518951416015625
-1.0393218994140625,3.1706390380859375,8.310638427734375,1.238037109375,1.3139495849609375,-0.2973785400390625
-0.6849822998046875,3.908050537109375,7.0584716796875,1.02178955078125,1.30010986328125,0.05096435546875
-0.5844268798828125,3.982269287109375,6.3545684814453125,0.6883697509765625,0.497955322265625,0.141510009765625
-0.2157135009765625,4.1067657470703125,5.9954376220703125,0.1642608642578125,-0.22747802734375,0.153228759765625
0.7347869873046875,4.731658935546875,7.9993896484375,-0.674102783203125,-0.7388153076171875,0.016876220703125
0.986175537109375,4.5496978759765625,9.603500366210938,-0.7103271484375,-0.312713623046875,-0.1620941162109375
0.5863494873046875,4.5018157958984375,10.199661254882812,-0.4088592529296875,-0.0442657470703125,-0.3953857421875
0.014129638671875,3.7045440673828125,9.445480346679688,-0.119110107421875,-0.2157745361328125,-0.462493896484375
0.0787811279296875,5.5648345947265625,6.7735595703125,-0.1904754638671875,0.120849609375,0.1127471923828125
0.2846832275390625,4.892059326171875,7.5660400390625,-0.56439208984375,0.1048736572265625,0.3268585205078125
0.8736419677734375,4.552093505859375,8.320205688476562,-0.7614593505859375,0.091033935546875,0.415283203125
1.156158447265625,4.3126678466796875,8.878067016601562,-0.7998046875,0.1496124267578125,0.37054443359375
1.345306396484375,4.046905517578125,9.253952026367188,-0.7721099853515625,0.250823974609375,0.2725372314453125
0.8856201171875,4.066070556640625,10.120651245117188,-0.5558624267578125,0.394622802734375,0.0402984619140625
0.1673583984375,4.2432403564453125,10.03924560546875,-0.1926116943359375,0.2199249267578125,-0.0118865966796875
0.1553955078125,4.1498565673828125,8.952285766601562,0.05560302734375,0.0239105224609375,0.0637359619140625
0.3038330078125,4.319854736328125,8.128677368164062,-0.005126953125,-0.05810546875,0.0669403076171875
0.1865081787109375,4.41082763671875,8.588363647460938,-0.208587646484375,0.1506805419921875,0.0978240966796875
0.2798919677734375,4.3749237060546875,9.675323486328125,-0.2000732421875,0.533111572265625,0.16387939453125
0.1122894287109375,3.9367828369140625,9.833343505859375,0.0843658447265625,0.4947662353515625,0.1787872314453125
0.2966461181640625,3.90325927734375,8.988189697265625,0.3453521728515625,0.03350830078125,0.106353759765625
0.627044677734375,4.300689697265625,8.20050048828125,0.2782440185546875,-0.1209564208984375,0.037109375
0.32537841796875,4.3892822265625,8.12628173828125,0.0577239990234375,0.020721435546875,-0.0118865966796875
0.02850341796875,4.3964691162109375,8.45428466796875,-0.0456085205078125,0.100616455078125,0.028594970703125
0.0955352783203125,4.353363037109375,8.5692138671875,-0.081817626953125,0.0835723876953125,0.1031494140625
0.3134002685546875,4.3270263671875,8.69610595703125,-0.1255035400390625,0.0579986572265625,0.1351165771484375
0.3277740478515625,4.3150634765625,8.827789306640625,-0.1372222900390625,0.0388336181640625,0.1383056640625
0.361297607421875,4.2863311767578125,8.837356567382812,-0.1244354248046875,-0.002716064453125,0.11700439453125
0.0428619384765625,4.37969970703125,8.5811767578125,-0.09246826171875,-0.082611083984375,0.096771240234375
0.0691986083984375,4.5089874267578125,8.459075927734375,-0.1468048095703125,-0.0740814208984375,0.219268798828125
0.5887451171875,4.2767486572265625,8.5811767578125,-0.2490692138671875,-0.0069732666015625,0.31195068359375
0.6629638671875,4.08282470703125,8.703277587890625,-0.32257080078125,0.179443359375,0.221405029296875
0.193695068359375,3.9319915771484375,8.365707397460938,-0.366241455078125,0.2305755615234375,0.209686279296875
0.4833984375,3.5824432373046875,8.54766845703125,-0.6794281005859375,-0.16143798828125,0.217132568359375
0.4977569580078125,3.3669586181640625,8.997772216796875,-0.66558837890625,-0.1923370361328125,0.1681365966796875
0.540863037109375,3.400482177734375,9.20367431640625,-0.6038055419921875,-0.205108642578125,0.1468353271484375
0.5384674072265625,3.4459686279296875,9.392822265625,-0.52923583984375,-0.197662353515625,0.1127471923828125
0.5240936279296875,3.5106048583984375,9.558013916015625,-0.3769073486328125,-0.0900726318359375,0.0680084228515625
0.6509857177734375,3.347808837890625,9.328170776367188,-0.23309326171875,-0.0037841796875,0.0402984619140625
0.7036590576171875,3.39569091796875,9.031295776367188,-0.116973876953125,0.1496124267578125,0.0211334228515625
0.7036590576171875,3.465118408203125,8.969039916992188,-0.1031341552734375,0.2795867919921875,0.0189971923828125
0.002166748046875,3.232879638671875,9.239593505859375,-0.0328216552734375,0.5853118896484375,0.0797271728515625
0.0931396484375,3.1778106689453125,8.94989013671875,0.0374908447265625,0.4851837158203125,0.07012939453125
0.1865081787109375,3.4244232177734375,8.578781127929688,0.077972412109375,0.307281494140625,0.0083465576171875
-0.0265655517578125,3.465118408203125,8.763137817382812,-0.016845703125,0.3797149658203125,-0.020416259765625
-0.3282470703125,3.21612548828125,8.930740356445312,-0.0125732421875,0.3669281005859375,-0.0161590576171875
-0.3809051513671875,3.347808837890625,8.6123046875,0.044952392578125,0.159210205078125,0.024322509765625
0.0380706787109375,3.4459686279296875,8.54766845703125,-0.01470947265625,-0.254119873046875,0.001953125
0.2343902587890625,3.359771728515625,8.935516357421875,-0.114837646484375,-0.3265533447265625,-0.0832672119140625
-0.1797943115234375,3.4770965576171875,9.210861206054688,-0.0679779052734375,-0.1571807861328125,-0.09710693359375
-0.2947235107421875,3.5034332275390625,9.2874755859375,-0.0200347900390625,-0.07940673828125,-0.0502471923828125
-0.2013397216796875,3.5345458984375,9.220428466796875,0.0129852294921875,-0.0538482666015625,0.000885009765625
0.2487640380859375,3.3621673583984375,8.890029907226562,-0.004058837890625,-0.2487945556640625,-0.0044403076171875
0.4977569580078125,3.15386962890625,9.081573486328125,-0.039215087890625,-0.22747802734375,-0.0683441162109375
0.5145263671875,3.2448577880859375,9.131851196289062,-0.0317535400390625,-0.04638671875,-0.0800628662109375
0.08355712890625,3.3406219482421875,9.285079956054688,0.0151214599609375,0.250823974609375,-0.0832672119140625
-0.2157135009765625,3.3932952880859375,9.644210815429688,0.085418701171875,0.285980224609375,-0.0459747314453125
-0.230072021484375,3.4244232177734375,9.900390625,0.1546630859375,0.295562744140625,-0.0140228271484375
-0.038543701171875,3.5201873779296875,9.723220825195312,0.336822509765625,0.22845458984375,0.000885009765625
-0.0624847412109375,3.412445068359375,9.486190795898438,0.4220428466796875,0.1432342529296875,-0.00762939453125
0.1170806884765625,3.3837127685546875,8.645828247070312,0.520050048828125,-0.0197601318359375,-0.0363922119140625
-0.1582489013671875,3.8433990478515625,8.535690307617188,0.3996734619140625,0.0516204833984375,-0.0715484619140625
-0.445556640625,3.886505126953125,8.471054077148438,0.23883056640625,0.09210205078125,-0.05450439453125
-0.2635955810546875,3.6686248779296875,8.425552368164062,0.147216796875,-0.12841796875,-0.0023040771484375
0.51690673828125,3.793121337890625,8.84454345703125,0.120574951171875,-0.1923370361328125,0.0062103271484375
0.2607269287109375,3.8003082275390625,8.8349609375,0.112060546875,0.06439208984375,-0.0598297119140625
-0.0720672607421875,3.814666748046875,8.7607421875,0.10992431640625,0.1879730224609375,-0.086456298828125
-0.345001220703125,3.912841796875,8.870880126953125,0.1291046142578125,0.1773223876953125,-0.043853759765625
-0.292327880859375,3.9990234375,8.942703247070312,0.144012451171875,0.1517486572265625,-0.00762939453125
0.00933837890625,3.814666748046875,8.818206787109375,0.223907470703125,-0.037872314453125,0.0424346923828125
0.0524444580078125,3.7907257080078125,8.715255737304688,0.256927490234375,-0.1326751708984375,0.0189971923828125
-0.1055755615234375,3.7691802978515625,8.576385498046875,0.305938720703125,-0.334014892578125,-0.063018798828125
-0.038543701171875,3.79791259765625,8.660186767578125,0.3336334228515625,-0.3840789794921875,-0.098175048828125
0.3134002685546875,4.0732421875,8.976226806640625,0.465728759765625,-0.2583770751953125,-0.1738128662109375
0.14581298828125,4.183380126953125,8.861297607421875,0.6319122314453125,0.0963592529296875,-0.2419891357421875
-0.514984130859375,4.183380126953125,7.9251708984375,0.69049072265625,0.1315155029296875,-0.282470703125
-0.555694580078125,4.1785888671875,7.118316650390625,0.5243072509765625,-0.240264892578125,-0.294189453125
0.0524444580078125,4.257598876953125,7.1087493896484375,0.1482696533203125,-0.4991302490234375,-0.3783416748046875
0.44268798828125,4.0852203369140625,7.688140869140625,-0.23095703125,-0.489532470703125,-0.579681396484375
0.5600128173828125,3.9056549072265625,8.013748168945312,-0.3374786376953125,-0.5214996337890625,-0.73626708984375
0.6461944580078125,3.9583282470703125,8.935516357421875,-0.356658935546875,-0.743072509765625,-1.0526580810546875
0.2296142578125,4.542510986328125,9.8070068359375,-0.2266998291015625,-0.93695068359375,-1.0760955810546875
-0.1151580810546875,4.700531005859375,9.716033935546875,0.0470733642578125,-1.02642822265625,-0.851318359375
-0.2779541015625,4.8944549560546875,9.127059936523438,0.3080596923828125,-0.846405029296875,-0.5402679443359375
0.1745452880859375,5.1362762451171875,8.542877197265625,0.3123321533203125,-0.494873046875,-0.2430572509765625
0.6557769775390625,5.0668487548828125,8.808624267578125,0.1898193359375,-0.06024169921875,-0.07794189453125
0.6007080078125,4.6813812255859375,8.822998046875,0.2089996337890625,0.190093994140625,0.01580810546875
0.404388427734375,4.48504638671875,8.11669921875,0.181304931640625,0.0175323486328125,0.047760009765625
0.4379119873046875,4.6550445556640625,7.8916473388671875,-0.028564453125,-0.3478546142578125,0.0669403076171875
0.689300537109375,4.6191253662109375,8.698501586914062,-0.222442626953125,-0.446929931640625,0.0680084228515625
0.6749267578125,4.4922332763671875,9.134246826171875,-0.2171173095703125,-0.367034912109375,0.0658721923828125
0.65338134765625,4.44195556640625,9.359298706054688,-0.138275146484375,-0.251983642578125,0.0669403076171875
0.53607177734375,4.5185699462890625,9.040863037109375,0.07476806640625,-0.0442657470703125,0.0861053466796875
0.80181884765625,4.2863311767578125,8.12628173828125,0.054534912109375,-0.3957977294921875,0.1031494140625
1.19207763671875,4.5832061767578125,8.444717407226562,-0.070098876953125,-0.55133056640625,0.0307159423828125
1.01251220703125,4.72686767578125,8.80145263671875,-0.00299072265625,-0.216827392578125,0.0307159423828125
1.0532073974609375,4.310272216796875,8.396820068359375,0.0619964599609375,-0.1337432861328125,0.0552215576171875
1.29742431640625,4.34619140625,8.219650268554688,0.05133056640625,-0.1656951904296875,0.03924560546875
1.5368499755859375,4.2552032470703125,8.253173828125,-0.0296173095703125,-0.101776123046875,-0.032135009765625
1.3788299560546875,4.2240753173828125,8.317825317382812,-0.0434722900390625,-0.04852294921875,-0.0821990966796875
1.0579986572265625,4.44195556640625,8.3585205078125,-0.040283203125,-0.045318603515625,-0.131195068359375
0.8233642578125,4.45391845703125,8.451889038085938,-0.0754241943359375,-0.2104339599609375,-0.1280059814453125
0.974212646484375,4.5712432861328125,8.8349609375,0.02044677734375,-0.11669921875,-0.07794189453125
0.9981536865234375,4.4563140869140625,8.499771118164062,0.212188720703125,0.05267333984375,-0.029998779296875
1.2782745361328125,4.3964691162109375,8.150222778320312,0.2089996337890625,-0.068756103515625,-0.051300048828125
1.3644561767578125,4.4754791259765625,8.0736083984375,0.1717071533203125,-0.14013671875,-0.08538818359375
0.8664703369140625,4.8729095458984375,8.164596557617188,0.0001983642578125,-0.12841796875,-0.147186279296875
0.615081787109375,4.6502532958984375,8.092758178710938,-0.0679779052734375,-0.057037353515625,-0.07794189453125
0.6749267578125,4.6885528564453125,7.908416748046875,-0.1713104248046875,-0.026153564453125,-0.009765625
0.911956787109375,4.6885528564453125,8.087982177734375,-0.222442626953125,-0.0069732666015625,0.01580810546875
1.0675811767578125,4.5377197265625,8.526107788085938,-0.262908935546875,0.065460205078125,0.0211334228515625
0.911956787109375,4.3342132568359375,8.4949951171875,-0.2725067138671875,-0.05810546875,-0.00762939453125
0.93829345703125,4.3701324462890625,8.313034057617188,-0.3374786376953125,-0.22003173828125,-0.009765625
1.0723724365234375,4.5233612060546875,8.363311767578125,-0.4077911376953125,-0.1305389404296875,0.0307159423828125
1.0771636962890625,4.573638916015625,8.4949951171875,-0.4440155029296875,0.1751861572265625,0.1010284423828125
1.1777191162109375,4.3605499267578125,8.66497802734375,-0.438690185546875,0.5064849853515625,0.186248779296875
1.081939697265625,4.204925537109375,8.815811157226562,-0.422698974609375,0.5959625244140625,0.2043609619140625
0.5935211181640625,3.8362274169921875,9.165359497070312,-0.3832855224609375,0.3743896484375,0.1479034423828125
0.615081787109375,3.9224090576171875,9.684906005859375,-0.300201416015625,-0.141204833984375,0.012603759765625
0.6461944580078125,3.9798736572265625,9.948272705078125,-0.20965576171875,-0.2583770751953125,-0.0459747314453125
0.605499267578125,4.0325469970703125,9.713638305664062,0.06304931640625,-0.2221527099609375,-0.0033721923828125
0.8616790771484375,4.08282470703125,9.325775146484375,0.1972808837890625,-0.14971923828125,0.060546875
1.1082763671875,4.099578857421875,8.480621337890625,0.32830810546875,0.11126708984375,0.1329803466796875
1.1465911865234375,4.0708465576171875,8.26275634765625,0.249481201171875,0.1719818115234375,0.14044189453125
1.2327728271484375,3.8577728271484375,8.461471557617188,0.1610565185546875,-0.0421295166015625,0.0882415771484375
1.323760986328125,3.8817138671875,8.471054077148438,0.1525421142578125,-0.1337432861328125,0.0530853271484375
1.29742431640625,4.140289306640625,8.334579467773438,0.1408233642578125,-0.1667633056640625,-0.022552490234375
1.101104736328125,4.2384490966796875,8.317825317382812,0.124847412109375,-0.1465301513671875,-0.051300048828125
0.72760009765625,4.2384490966796875,8.329788208007812,0.07904052734375,-0.1337432861328125,-0.0268096923828125
0.9526519775390625,4.2408447265625,8.425552368164062,0.040679931640625,-0.1539764404296875,0.038177490234375
1.1777191162109375,4.1474609375,8.540481567382812,0.0279083251953125,-0.106048583984375,0.016876220703125
1.0771636962890625,4.4036407470703125,8.3585205078125,0.054534912109375,-0.1092376708984375,-0.0044403076171875
1.1058807373046875,4.4012603759765625,8.341766357421875,0.04388427734375,0.1134033203125,0.0520172119140625
1.1681365966796875,4.204925537109375,8.5692138671875,-0.0445404052734375,0.0814361572265625,0.057342529296875
1.323760986328125,4.226470947265625,8.588363647460938,-0.0796966552734375,0.0079345703125,0.060546875
1.6326141357421875,4.1953582763671875,8.449493408203125,-0.1105804443359375,0.0622711181640625,0.061614990234375
1.8887939453125,4.171417236328125,8.1478271484375,-0.1595916748046875,0.3701324462890625,0.05841064453125
1.857666015625,4.152252197265625,8.248382568359375,-0.31298828125,0.613006591796875,0.02752685546875
1.376434326171875,4.3916778564453125,8.882843017578125,-0.4642486572265625,0.782379150390625,0.03924560546875
0.7515411376953125,4.384490966796875,9.194091796875,-0.503662109375,0.862274169921875,0.1106109619140625
-0.3210601806640625,3.8505859375,9.189300537109375,-0.52923583984375,0.821807861328125,0.3609466552734375
0.4115753173828125,3.6829986572265625,9.074386596679688,-0.506866455078125,0.6108856201171875,0.4994354248046875
0.8856201171875,3.6853790283203125,9.596328735351562,-0.4109954833984375,0.7557525634765625,0.365203857421875
0.4139556884765625,3.6039886474609375,9.524490356445312,-0.25439453125,1.09130859375,0.264007568359375
-0.1941680908203125,3.72369384765625,9.0025634765625,-0.1255035400390625,0.977325439453125,0.3375091552734375
0.1649627685546875,3.6374969482421875,8.562026977539062,-0.081817626953125,0.73870849609375,0.4546966552734375
0.2583465576171875,3.390899658203125,8.468658447265625,-0.0317535400390625,0.95709228515625,0.414215087890625
-0.148681640625,3.417236328125,8.542877197265625,-0.0679779052734375,1.3256683349609375,0.3524322509765625
-0.5628662109375,3.486663818359375,8.48541259765625,-0.1233673095703125,1.36614990234375,0.2949066162109375
-1.2308502197265625,3.592010498046875,8.609909057617188,-0.2703704833984375,0.958160400390625,0.22247314453125
-0.6993408203125,3.3837127685546875,8.904403686523438,-0.33428955078125,0.3594818115234375,0.1968994140625
-0.3641510009765625,3.194580078125,8.492599487304688,-0.2586517333984375,0.09210205078125,0.059478759765625
-0.6011810302734375,3.3765411376953125,8.641036987304688,-0.30126953125,-0.1241607666015625,-0.076873779296875
-0.9076385498046875,3.381317138671875,8.868484497070312,-0.436553955078125,-0.1422576904296875,-0.1056365966796875
-0.8501739501953125,3.21612548828125,8.9403076171875,-0.502593994140625,-0.2413330078125,-0.090728759765625
-0.725677490234375,3.115570068359375,9.146209716796875,-0.4983367919921875,-0.2583770751953125,-0.0726165771484375
-0.8597564697265625,3.120361328125,9.376052856445312,-0.434417724609375,-0.10498046875,-0.0118865966796875
-0.7496185302734375,3.1921844482421875,9.397598266601562,-0.4216461181640625,0.0963592529296875,0.059478759765625
-0.86932373046875,3.019805908203125,9.347320556640625,-0.448272705078125,0.202880859375,0.06268310546875
-0.93157958984375,2.8498077392578125,9.18212890625,-0.43548583984375,0.1634674072265625,0.0680084228515625
-0.8765106201171875,2.7277069091796875,9.467041015625,-0.3790283203125,0.0974273681640625,0.096771240234375
-0.5652618408203125,2.5577239990234375,9.579559326171875,-0.2852935791015625,0.075042724609375,0.11700439453125
-0.3378143310546875,2.3637847900390625,9.629837036132812,-0.1063232421875,-0.1124420166015625,0.0765228271484375
-0.366546630859375,2.67742919921875,9.560409545898438,0.06304931640625,-0.2786102294921875,-0.0385284423828125
-0.5532989501953125,2.7707977294921875,9.450271606445312,0.031097412109375,-0.1571807861328125,-0.0928497314453125
-0.46710205078125,2.5912322998046875,9.289871215820312,-0.08074951171875,0.1378936767578125,-0.0491790771484375
-0.3689422607421875,2.5840606689453125,9.124664306640625,-0.1095123291015625,0.225250244140625,-0.044921875
-0.450347900390625,2.4164581298828125,9.083969116210938,-0.0786285400390625,0.178375244140625,-0.0875244140625
-0.716094970703125,2.5625,9.301834106445312,0.019378662109375,0.14642333984375,-0.0917816162109375
-1.06805419921875,2.9288177490234375,9.438308715820312,0.088623046875,0.1155242919921875,-0.0598297119140625
-1.0129852294921875,2.936004638671875,9.122268676757812,0.0907440185546875,-0.09539794921875,-0.043853759765625
-0.8405914306640625,2.7755889892578125,8.995376586914062,0.0939483642578125,-0.16357421875,-0.0268096923828125
-0.462310791015625,2.6271514892578125,8.84454345703125,0.1259002685546875,-0.1305389404296875,-0.00762939453125
-0.514984130859375,2.7133331298828125,9.043258666992188,0.1621246337890625,0.01220703125,-0.0289306640625
-0.6753997802734375,2.799530029296875,9.045654296875,0.1631927490234375,0.0622711181640625,-0.033203125
-0.704132080078125,2.8282623291015625,8.878067016601562,0.101409912109375,0.0026092529296875,-0.0236053466796875
-0.58203125,2.777984619140625,8.746383666992188,-0.0072479248046875,-0.16143798828125,-0.0470428466796875
-0.567657470703125,2.799530029296875,9.311416625976562,-0.12017822265625,-0.193389892578125,-0.0598297119140625
-0.4264068603515625,2.85699462890625,9.704055786132812,-0.1361541748046875,0.011138916015625,-0.0715484619140625
-0.7400360107421875,2.6223602294921875,9.716033935546875,-0.015777587890625,0.1389617919921875,-0.0726165771484375
-0.577239990234375,2.63433837890625,9.16058349609375,0.3666534423828125,-0.41497802734375,-0.0598297119140625
-0.6323089599609375,2.8641815185546875,8.933120727539062,0.3687896728515625,-0.740936279296875,-0.12481689453125
-0.5221710205078125,2.9431915283203125,9.02410888671875,0.3347015380859375,-0.832550048828125,-0.12481689453125
-0.1414947509765625,3.0868377685546875,9.12945556640625,0.2207183837890625,-0.7398834228515625,-0.11309814453125
0.0165252685546875,3.12274169921875,9.105514526367188,0.1056671142578125,-0.4671630859375,-0.1386566162109375
-0.2037353515625,3.084442138671875,8.882843017578125,0.02044677734375,-0.3137664794921875,-0.1301422119140625
-0.0624847412109375,3.0437469482421875,9.139022827148438,-0.0338897705078125,-0.23919677734375,-0.0598297119140625
-0.1103668212890625,2.988677978515625,9.206069946289062,-0.016845703125,-0.0655670166015625,-0.0150909423828125
0.0189208984375,2.97430419921875,9.031295776367188,0.00872802734375,-0.0197601318359375,0.02325439453125
0.215240478515625,2.988677978515625,9.012130737304688,-0.0083160400390625,0.01220703125,-0.006561279296875
0.0644073486328125,3.0150146484375,9.289871215820312,-0.048797607421875,0.0612030029296875,-0.0140228271484375
-0.0409393310546875,2.9910736083984375,9.455062866210938,-0.040283203125,-0.3265533447265625,-0.121612548828125
0.07159423828125,2.904876708984375,9.411972045898438,0.0268402099609375,-0.29779052734375,-0.1269378662109375
0.0787811279296875,3.0964202880859375,9.237197875976562,0.147216796875,-0.0197601318359375,-0.0576934814453125
0.045257568359375,3.137115478515625,9.189300537109375,0.169586181640625,-0.0538482666015625,-0.044921875
-0.0265655517578125,3.0605010986328125,9.031295776367188,0.193023681640625,-0.2370758056640625,-0.0491790771484375
-0.0098114013671875,3.0341644287109375,8.811019897460938,0.1610565185546875,-0.3372039794921875,-0.0619659423828125
0.3325653076171875,3.1873931884765625,8.811019897460938,0.005523681640625,-0.3712921142578125,-0.0374603271484375
0.20806884765625,3.0341644287109375,9.110305786132812,-0.048797607421875,0.042022705078125,-0.0289306640625
0.2703094482421875,3.0988006591796875,9.208465576171875,-0.001922607421875,-0.1454620361328125,-0.0044403076171875
0.6198577880859375,2.9766998291015625,9.0887451171875,0.0502777099609375,-0.4170989990234375,-0.08538818359375
0.8042144775390625,3.0245819091796875,9.230010986328125,0.07904052734375,-0.37554931640625,-0.16741943359375
0.5935211181640625,3.12274169921875,9.490982055664062,0.0918121337890625,-0.2381439208984375,-0.177001953125
0.488189697265625,3.1347198486328125,9.433517456054688,0.20367431640625,-0.17315673828125,-0.170623779296875
0.636627197265625,3.1395111083984375,9.105514526367188,0.256927490234375,-0.5097808837890625,-0.2441253662109375
0.741973876953125,3.1778106689453125,8.861297607421875,0.2047271728515625,-0.606719970703125,-0.3133697509765625
0.95025634765625,3.32147216796875,8.84454345703125,0.041748046875,-0.5534515380859375,-0.2984466552734375
1.1082763671875,3.369354248046875,8.94989013671875,-0.013641357421875,-0.686614990234375,-0.314422607421875
1.1681365966796875,3.3406219482421875,9.0145263671875,-0.0434722900390625,-0.766510009765625,-0.3229522705078125
1.2064361572265625,3.268798828125,9.218032836914062,-0.0903472900390625,-0.740936279296875,-0.337860107421875
1.2256011962890625,3.2352752685546875,9.184524536132812,-0.0530548095703125,-0.7121734619140625,-0.341064453125
1.450653076171875,3.6901702880859375,9.196487426757812,0.018310546875,-0.5758209228515625,-0.283538818359375
1.048431396484375,3.5537109375,8.899612426757812,0.2196502685546875,0.030303955078125,-0.0491790771484375
1.2639007568359375,3.565673828125,8.248382568359375,0.110992431640625,0.2082061767578125,0.1106109619140625
1.4362945556640625,3.2975311279296875,8.3154296875,-0.1574554443359375,0.1538848876953125,0.1894378662109375
1.6757049560546875,3.211334228515625,8.59075927734375,-0.2352142333984375,0.206085205078125,0.244842529296875
2.137786865234375,3.0988006591796875,9.0025634765625,-0.2128448486328125,0.474517822265625,0.21820068359375
0.95025634765625,3.105987548828125,9.122268676757812,-0.107391357421875,0.8835906982421875,0.137237548828125
0.2272186279296875,3.158660888671875,8.777511596679688,-0.1585235595703125,0.54803466796875,0.072265625
0.066802978515625,3.2185211181640625,8.937911987304688,-0.19793701171875,0.328582763671875,0.060546875
0.531280517578125,3.2352752685546875,9.378448486328125,-0.210723876953125,0.018585205078125,0.0988922119140625
1.113067626953125,3.12274169921875,9.498153686523438,-0.09674072265625,0.0377655029296875,0.12872314453125
1.2112274169921875,3.1131744384765625,9.378448486328125,-0.013641357421875,0.1091461181640625,0.1148681640625
1.153778076171875,3.149078369140625,9.263534545898438,0.0566558837890625,0.157073974609375,0.0893096923828125
0.8042144775390625,3.1658477783203125,9.103118896484375,0.07904052734375,0.1634674072265625,0.048828125
0.5456390380859375,3.0724639892578125,8.849334716796875,-0.001922607421875,0.1506805419921875,0.0552215576171875
0.509735107421875,3.0437469482421875,8.758346557617188,-0.074371337890625,0.1187286376953125,0.096771240234375
0.6390228271484375,3.120361328125,9.122268676757812,-0.1063232421875,0.091033935546875,0.139373779296875
0.7491455078125,3.13232421875,9.3736572265625,-0.105255126953125,0.1165924072265625,0.1585540771484375
0.83294677734375,3.022186279296875,9.35211181640625,-0.06158447265625,0.190093994140625,0.141510009765625
0.6749267578125,2.9647369384765625,9.14141845703125,-0.0115203857421875,0.1165924072265625,0.08184814453125
0.6461944580078125,3.022186279296875,9.081573486328125,-0.00299072265625,0.065460205078125,0.0743865966796875
0.785064697265625,3.17303466796875,9.043258666992188,-0.0232391357421875,0.0026092529296875,0.0648040771484375
0.86407470703125,3.1514739990234375,9.06719970703125,-0.034942626953125,0.018585205078125,0.03924560546875
0.7730865478515625,3.041351318359375,9.06719970703125,-0.0338897705078125,0.075042724609375,0.013671875
0.3756561279296875,2.9192352294921875,8.971435546875,-0.0221710205078125,0.1506805419921875,0.03924560546875
0.46185302734375,2.969512939453125,8.885238647460938,-0.0519866943359375,0.042022705078125,0.0765228271484375
0.847320556640625,2.98388671875,9.038467407226562,-0.107391357421875,-0.082611083984375,0.0445709228515625
0.90716552734375,3.0389556884765625,9.196487426757812,-0.083953857421875,-0.1113739013671875,-0.0342559814453125
0.5671844482421875,3.041351318359375,9.273101806640625,0.088623046875,0.04522705078125,-0.0055084228515625
0.689300537109375,3.053314208984375,8.846939086914062,0.04388427734375,0.203948974609375,0.05096435546875
0.7395782470703125,2.9024810791015625,9.337753295898438,-0.0242919921875,0.4404296875,0.1244659423828125
0.7371826171875,3.0174102783203125,9.558013916015625,-0.046661376953125,0.5182037353515625,0.1436309814453125
-0.024169921875,3.00543212890625,9.069595336914062,-0.0360107421875,0.147491455078125,0.0200653076171875
0.0428619384765625,3.0916290283203125,9.131851196289062,-0.0317535400390625,0.0931549072265625,0.0435028076171875
0.1434173583984375,3.127532958984375,9.139022827148438,-0.015777587890625,0.156005859375,0.0978240966796875
0.109893798828125,3.1634521484375,9.004959106445312,-0.0200347900390625,0.225250244140625,0.1265869140625
0.3660736083984375,2.8043212890625,9.148605346679688,-0.1819610595703125,0.4212646484375,0.2032928466796875
0.1960906982421875,2.7755889892578125,9.45745849609375,-0.1531982421875,0.513946533203125,0.1937103271484375
0.0859527587890625,2.7181243896484375,9.4478759765625,-0.11590576171875,0.521392822265625,0.1777191162109375
-0.091217041015625,2.7372894287109375,9.191696166992188,-0.0242919921875,0.34881591796875,0.141510009765625
0.0117340087890625,2.756439208984375,9.186920166015625,0.0279083251953125,-0.0197601318359375,0.0861053466796875
0.150604248046875,2.773193359375,9.20367431640625,0.0353546142578125,-0.17529296875,0.036041259765625
0.057220458984375,2.82586669921875,8.822998046875,0.006591796875,-0.2125701904296875,-0.0236053466796875
-0.06488037109375,2.8234710693359375,8.803848266601562,-0.027496337890625,-0.2360076904296875,-0.0363922119140625
0.0644073486328125,2.883331298828125,9.232406616210938,-0.114837646484375,-0.1784820556640625,-0.010833740234375
0.1601715087890625,2.8593902587890625,9.380844116210938,-0.142547607421875,-0.0847320556640625,0.001953125
0.3325653076171875,2.672637939453125,9.268310546875,-0.1318817138671875,0.0281829833984375,0.001953125
0.3277740478515625,2.63433837890625,9.275497436523438,-0.0679779052734375,-0.024017333984375,-0.0459747314453125
0.066802978515625,2.768402099609375,9.241973876953125,-0.0189666748046875,-0.0644989013671875,-0.08966064453125
-0.0720672607421875,2.75164794921875,9.18212890625,-0.0104522705078125,-0.0740814208984375,-0.0715484619140625
-0.038543701171875,2.81390380859375,9.189300537109375,-0.0530548095703125,-0.01336669921875,-0.0342559814453125
-0.134307861328125,2.8498077392578125,9.344924926757812,-0.08502197265625,0.02178955078125,-0.0172119140625
-0.0888214111328125,3.0078277587890625,9.558013916015625,-0.130828857421875,-0.026153564453125,-0.0012359619140625
-0.0146026611328125,2.9551544189453125,9.70166015625,-0.1127166748046875,-0.094329833984375,-0.020416259765625
0.004547119140625,2.6558837890625,9.63702392578125,0.0385589599609375,-0.1007232666015625,-0.0278778076171875
0.1338348388671875,2.725311279296875,9.064804077148438,0.2100677490234375,-0.0304107666015625,0.016876220703125
-0.091217041015625,2.8857269287109375,8.803848266601562,0.2324371337890625,0.032440185546875,0.036041259765625
-0.1175537109375,3.1035919189453125,8.688919067382812,0.073699951171875,0.0505523681640625,0.0658721923828125
0.246368408203125,2.847412109375,8.985794067382812,-0.0914154052734375,0.0015411376953125,0.072265625
0.47381591796875,2.63433837890625,9.297042846679688,-0.1127166748046875,0.0377655029296875,0.0562896728515625
0.4139556884765625,2.6534881591796875,9.323379516601562,-0.0775604248046875,0.0388336181640625,0.0402984619140625
0.20806884765625,2.7013702392578125,9.280288696289062,-0.0104522705078125,-0.0517120361328125,0.00408935546875
0.1697540283203125,2.7013702392578125,9.344924926757812,0.0012664794921875,-0.0900726318359375,-0.0055084228515625
0.246368408203125,2.7181243896484375,9.440704345703125,0.0108489990234375,-0.049591064453125,0.000885009765625
0.2846832275390625,2.703765869140625,9.356903076171875,0.0364227294921875,0.011138916015625,0.0062103271484375
0.1529998779296875,2.75164794921875,9.347320556640625,0.147216796875,-0.07940673828125,-0.006561279296875
0.1170806884765625,2.7301025390625,9.227615356445312,0.188751220703125,-0.1230926513671875,-0.0363922119140625
0.07159423828125,2.6439056396484375,9.306625366210938,0.3314971923828125,-0.1795501708984375,-0.109893798828125
-0.371337890625,2.8641815185546875,8.995376586914062,0.555206298828125,-0.18487548828125,-0.166351318359375
-0.483856201171875,2.9431915283203125,8.614700317382812,0.6297760009765625,-0.32122802734375,-0.1716766357421875
0.0261077880859375,2.988677978515625,8.193313598632812,0.6425628662109375,-0.7270965576171875,-0.283538818359375
1.11785888671875,3.4100494384765625,9.371261596679688,0.6159210205078125,-0.74200439453125,-0.52215576171875
1.153778076171875,3.295135498046875,9.893203735351562,0.8172607421875,-0.2796783447265625,-0.74798583984375
0.6557769775390625,3.0437469482421875,9.778274536132812,1.16241455078125,-0.1987152099609375,-0.920562744140625
0.4594573974609375,3.4794921875,8.672164916992188,1.3008880615234375,-0.6365509033203125,-1.000457763671875
0.849700927734375,4.2959136962890625,7.1877593994140625,0.95361328125,-1.175567626953125,-0.93121337890625
1.397979736328125,4.86572265625,7.022552490234375,0.611663818359375,-1.1531982421875,-0.792724609375
1.280670166015625,4.7244720458984375,8.109527587890625,0.0950164794921875,-0.5651702880859375,-0.6212310791015625
0.1865081787109375,4.2504119873046875,9.84771728515625,0.1152496337890625,0.1368408203125,-0.3112335205078125
0.4019927978515625,4.0756378173828125,9.53167724609375,0.3208465576171875,-0.1561126708984375,-0.1610260009765625
0.7467498779296875,4.1043701171875,8.913970947265625,0.373046875,-0.37554931640625,-0.133331298828125
0.8114013671875,4.1666259765625,7.76715087890625,0.2654571533203125,-0.5864715576171875,-0.154632568359375
0.13623046875,4.415618896484375,7.793487548828125,-0.0125732421875,-0.729217529296875,-0.1258697509765625
0.7826690673828125,4.765167236328125,8.576385498046875,-0.1649169921875,-0.74200439453125,0.014739990234375
1.1058807373046875,4.310272216796875,9.050445556640625,-0.0647735595703125,-0.30950927734375,0.0999603271484375
0.933502197265625,4.099578857421875,9.048049926757812,0.0268402099609375,-0.1912689208984375,0.1020965576171875
0.753936767578125,4.34619140625,8.4327392578125,0.1365509033203125,-0.3350830078125,0.129791259765625
1.5847320556640625,4.71728515625,7.9922027587890625,0.040679931640625,-0.5193634033203125,0.2086181640625
2.65972900390625,4.7029266357421875,8.660186767578125,-0.060516357421875,-0.597137451171875,0.1553497314453125
1.462615966796875,4.2911224365234375,8.983413696289062,0.009796142578125,-0.5758209228515625,0.0115509033203125
1.493743896484375,4.59039306640625,7.6953277587890625,0.0694427490234375,-0.4416046142578125,0.014739990234375
2.0444183349609375,4.226470947265625,7.604339599609375,-0.16278076171875,-0.22747802734375,0.0893096923828125
1.9606170654296875,4.245635986328125,8.090362548828125,-0.321502685546875,-0.1784820556640625,0.0339202880859375
1.6900787353515625,4.0301513671875,8.143035888671875,-0.3641204833984375,-0.127349853515625,0.0317840576171875
1.6804962158203125,3.93438720703125,8.111923217773438,-0.4514617919921875,-0.1561126708984375,0.0754547119140625
2.4777679443359375,4.1642303466796875,8.473434448242188,-0.54095458984375,-0.1348114013671875,0.0999603271484375
2.7626800537109375,4.171417236328125,8.703277587890625,-0.5686492919921875,-0.059173583984375,0.08184814453125
2.2096099853515625,3.9056549072265625,9.316207885742188,-0.594207763671875,0.1283111572265625,-0.032135009765625
1.6110687255859375,3.87213134765625,9.8692626953125,-0.56439208984375,0.1634674072265625,-0.067291259765625
1.122650146484375,3.8505859375,10.520477294921875,-0.309783935546875,0.0857086181640625,-0.0353240966796875
1.512908935546875,3.8314361572265625,9.886016845703125,0.0577239990234375,0.1613311767578125,0.0317840576171875
1.893585205078125,3.9846649169921875,8.870880126953125,0.2622528076171875,0.4095458984375,0.0520172119140625
2.085113525390625,3.9439544677734375,7.8653106689453125,0.2313690185546875,0.582122802734375,0.05096435546875
1.6900787353515625,3.991851806640625,7.455902099609375,-0.140411376953125,0.702484130859375,0.0094146728515625
1.038848876953125,3.8505859375,8.253173828125,-0.4056549072265625,0.6183319091796875,0.082916259765625
0.5552215576171875,3.697357177734375,9.60589599609375,-0.5004730224609375,0.2795867919921875,0.217132568359375
1.017303466796875,3.2041473388671875,9.744766235351562,-0.300201416015625,-0.0080413818359375,0.28851318359375
1.3812255859375,3.3238677978515625,9.517318725585938,-0.1318817138671875,0.1155242919921875,0.2821197509765625
1.534454345703125,3.960723876953125,8.923553466796875,0.073699951171875,0.634307861328125,0.2576141357421875
0.701263427734375,3.7332763671875,8.459075927734375,0.0044708251953125,0.8931732177734375,0.3737335205078125
0.46185302734375,3.3621673583984375,8.322601318359375,-0.290618896484375,0.7525634765625,0.51434326171875
0.6821136474609375,3.2759857177734375,8.937911987304688,-0.3300323486328125,0.53204345703125,0.4653472900390625
0.9095611572265625,3.2352752685546875,9.196487426757812,-0.2938079833984375,0.4031524658203125,0.4184722900390625
1.113067626953125,3.15386962890625,9.332962036132812,-0.1776885986328125,0.22418212890625,0.252288818359375
0.9239349365234375,3.3406219482421875,9.143814086914062,-0.0892791748046875,0.046295166015625,0.05841064453125
0.80181884765625,3.508209228515625,8.899612426757812,-0.0647735595703125,-0.1081695556640625,-0.043853759765625
0.50494384765625,3.508209228515625,8.976226806640625,-0.0679779052734375,0.0153961181640625,-0.021484375
0.299041748046875,3.412445068359375,9.069595336914062,-0.062652587890625,0.2220611572265625,0.1127471923828125
0.5456390380859375,3.2568206787109375,9.16058349609375,-0.013641357421875,0.296630859375,0.1894378662109375
0.8832244873046875,3.2616119384765625,9.112686157226562,0.0811614990234375,0.1251220703125,0.1244659423828125
0.9311065673828125,3.39569091796875,9.146209716796875,0.132293701171875,0.0015411376953125,-0.021484375
0.4762115478515625,3.3861083984375,8.969039916992188,0.122711181640625,-0.00164794921875,-0.076873779296875
0.4402923583984375,3.412445068359375,8.693710327148438,0.0832977294921875,-0.1944580078125,-0.0598297119140625
0.5815582275390625,3.54412841796875,8.514144897460938,0.02044677734375,-0.230682373046875,-0.09710693359375
0.3708648681640625,3.4794921875,8.430343627929688,-0.0296173095703125,-0.11669921875,-0.0843353271484375
0.404388427734375,3.5297698974609375,8.688919067382812,-0.0711669921875,0.00048828125,0.0072784423828125
0.8880157470703125,3.422027587890625,8.890029907226562,-0.1212310791015625,-0.01123046875,0.071197509765625
1.1465911865234375,3.232879638671875,8.990585327148438,-0.093536376953125,0.168792724609375,0.049896240234375
0.806610107421875,3.1634521484375,9.50054931640625,-0.025360107421875,0.3701324462890625,0.0307159423828125
0.299041748046875,3.2568206787109375,9.771102905273438,0.0034027099609375,0.3594818115234375,0.0445709228515625
-0.0409393310546875,3.443572998046875,9.804611206054688,0.0140533447265625,0.2114105224609375,0.059478759765625
0.342132568359375,3.6279296875,9.5220947265625,0.053466796875,-0.174224853515625,0.01580810546875
0.574371337890625,3.2975311279296875,9.134246826171875,0.1844940185546875,-0.0772857666015625,0.05096435546875
0.89520263671875,3.5321502685546875,8.803848266601562,0.294219970703125,0.170928955078125,0.130859375
0.78985595703125,3.491455078125,8.8660888671875,0.301666259765625,0.296630859375,0.080780029296875
0.643798828125,3.3238677978515625,9.23480224609375,0.3442840576171875,0.239105224609375,-0.0150909423828125
0.14581298828125,3.548919677734375,9.0025634765625,0.484893798828125,0.0175323486328125,-0.156768798828125
-0.186981201171875,3.6590576171875,8.741592407226562,0.5605316162109375,-0.1103057861328125,-0.2174835205078125
0.0739898681640625,4.02056884765625,9.244369506835938,0.6840972900390625,-0.287139892578125,-0.2196197509765625
0.4450836181640625,4.003814697265625,9.505340576171875,0.89715576171875,0.0707855224609375,-0.2089691162109375
0.3660736083984375,4.6765899658203125,6.778350830078125,0.599945068359375,-0.5321502685546875,-0.131195068359375
1.3070068359375,4.59039306640625,7.338592529296875,0.017242431640625,-0.661041259765625,-0.145050048828125
1.354888916015625,4.4658966064453125,7.676177978515625,-0.1830291748046875,-0.616302490234375,-0.1727447509765625
1.1777191162109375,4.415618896484375,8.202896118164062,-0.33428955078125,-0.5204315185546875,-0.1599578857421875
0.7491455078125,4.5018157958984375,9.177337646484375,-0.311920166015625,-0.4724884033203125,-0.100311279296875
1.0891265869140625,4.552093505859375,9.201278686523438,-0.1137847900390625,-0.4075164794921875,0.028594970703125
1.6709136962890625,4.647857666015625,8.8660888671875,0.006591796875,0.2454986572265625,0.107421875
1.16094970703125,4.3437957763671875,8.293869018554688,-0.09674072265625,0.28277587890625,0.1095428466796875
1.2064361572265625,3.941558837890625,8.0736083984375,-0.298065185546875,0.08782958984375,0.1436309814453125
1.3070068359375,3.8793182373046875,8.662582397460938,-0.5132598876953125,0.0249786376953125,0.0893096923828125
0.583953857421875,3.8912811279296875,9.091140747070312,-0.598480224609375,0.0366973876953125,0.0104827880859375
0.636627197265625,4.14508056640625,9.196487426757812,-0.4535980224609375,-0.01123046875,0.18304443359375
1.22320556640625,3.654266357421875,9.208465576171875,-0.17449951171875,0.086761474609375,0.2341766357421875
1.0843353271484375,3.5561065673828125,8.985794067382812,-0.0796966552734375,0.16986083984375,0.1553497314453125
0.667755126953125,3.886505126953125,9.057632446289062,-0.034942626953125,0.226318359375,0.1787872314453125
0.4019927978515625,3.7260894775390625,9.064804077148438,-0.037078857421875,0.201812744140625,0.2320556640625
0.595916748046875,3.5944061279296875,8.578781127929688,-0.062652587890625,0.192230224609375,0.3630828857421875
1.3596649169921875,3.4770965576171875,8.310638427734375,-0.2160491943359375,0.4383087158203125,0.357757568359375
1.213623046875,3.5848236083984375,8.645828247070312,-0.288482666015625,0.5405731201171875,0.3055572509765625
0.4642333984375,3.5537109375,9.20367431640625,-0.344940185546875,0.431915283203125,0.2554931640625
0.2272186279296875,3.4411773681640625,9.148605346679688,-0.3204345703125,0.2316436767578125,0.2736053466796875
0.4810028076171875,3.3454132080078125,8.794265747070312,-0.2607879638671875,-0.0527801513671875,0.3194122314453125
0.75872802734375,3.3621673583984375,8.913970947265625,-0.2597198486328125,0.1496124267578125,0.2959747314453125
0.8042144775390625,3.18499755859375,9.074386596679688,-0.253326416015625,0.4095458984375,0.22991943359375
1.1202545166015625,2.9384002685546875,9.2874755859375,-0.194732666015625,0.3019561767578125,0.1116790771484375
0.69647216796875,3.15386962890625,8.930740356445312,-0.1244354248046875,-0.0783538818359375,-0.0736846923828125
0.1482086181640625,3.1443023681640625,8.796661376953125,-0.1244354248046875,-0.3020477294921875,-0.0736846923828125
0.311004638671875,3.381317138671875,8.600326538085938,-0.185150146484375,-0.32122802734375,0.0115509033203125
0.330169677734375,3.328643798828125,8.861297607421875,-0.2362823486328125,-0.014434814453125,0.0797271728515625
0.22003173828125,3.2975311279296875,9.263534545898438,-0.2043304443359375,0.2454986572265625,0.164947509765625
0.29425048828125,3.180206298828125,9.77349853515625,-0.0232391357421875,0.406341552734375,0.31195068359375
0.890411376953125,3.1754150390625,9.613082885742188,0.34747314453125,0.6396331787109375,0.3162078857421875
0.868865966796875,2.852203369140625,9.253952026367188,0.6500091552734375,0.76214599609375,0.1351165771484375
0.394805908203125,3.0293731689453125,9.244369506835938,0.679840087890625,0.5533599853515625,0.038177490234375
0.0955352783203125,3.623138427734375,7.9586944580078125,0.270782470703125,-0.308441162109375,-0.1738128662109375
0.0739898681640625,3.8481903076171875,8.155014038085938,-0.1180419921875,-0.2370758056640625,-0.10882568359375
0.1074981689453125,3.508209228515625,9.194091796875,-0.3854217529296875,0.018585205078125,0.0062103271484375
0.2870635986328125,3.3358306884765625,9.66815185546875,-0.2703704833984375,0.1996917724609375,0.047760009765625
0.47381591796875,3.1873931884765625,9.53167724609375,0.088623046875,-0.024017333984375,-0.06622314453125
0.5025482177734375,3.2376708984375,9.25634765625,0.1727752685546875,-0.216827392578125,-0.158905029296875
0.5456390380859375,3.1179656982421875,9.019317626953125,0.2537384033203125,-0.6354827880859375,-0.361297607421875
0.5145263671875,3.1778106689453125,9.048049926757812,0.280364990234375,-0.7057952880859375,-0.4113616943359375
0.72760009765625,3.814666748046875,9.402389526367188,0.349609375,-0.3031158447265625,-0.3090972900390625
0.4139556884765625,3.87213134765625,8.566818237304688,0.397552490234375,-0.04638671875,-0.1972503662109375
0.4019927978515625,3.886505126953125,7.7264556884765625,0.1844940185546875,0.098480224609375,-0.05450439453125
0.6916961669921875,3.7620086669921875,8.150222778320312,-0.1031341552734375,0.1378936767578125,0.026458740234375
0.7922515869140625,3.4459686279296875,9.388031005859375,-0.2927398681640625,0.1613311767578125,-0.009765625
0.53607177734375,3.5537109375,9.663360595703125,-0.208587646484375,0.065460205078125,-0.051300048828125
0.4115753173828125,3.5848236083984375,8.911575317382812,-0.0594482421875,0.1496124267578125,0.0520172119140625
-0.124725341796875,3.4507598876953125,8.751174926757812,-0.3087158203125,0.4606781005859375,0.1883697509765625
-0.09600830078125,3.1969757080078125,9.514923095703125,-0.2916717529296875,0.3136749267578125,0.21820068359375
0.421142578125,3.30230712890625,9.756729125976562,-0.1233673095703125,0.1315155029296875,0.22991943359375
0.32537841796875,3.390899658203125,8.9403076171875,-0.0221710205078125,0.0633392333984375,0.21075439453125
0.2535552978515625,3.4459686279296875,8.600326538085938,-0.1297607421875,-0.082611083984375,0.174530029296875
0.18890380859375,3.201751708984375,8.743988037109375,0.099273681640625,0.11126708984375,0.1787872314453125
0.495361328125,3.508209228515625,8.487808227539062,-0.016845703125,0.2689208984375,0.137237548828125
0.0332794189453125,3.1347198486328125,9.148605346679688,-0.15106201171875,0.16986083984375,0.013671875
0.0069427490234375,3.2304840087890625,9.40478515625,-0.0424041748046875,-0.0165557861328125,0.0530853271484375
0.050048828125,3.1610565185546875,9.24676513671875,0.005523681640625,0.02178955078125,0.08184814453125
0.3229827880859375,3.168243408203125,8.585968017578125,-0.0083160400390625,0.170928955078125,0.130859375
0.330169677734375,2.926422119140625,8.808624267578125,-0.1670379638671875,0.126190185546875,0.0552215576171875
0.198486328125,3.0700836181640625,8.921157836914062,-0.1361541748046875,0.13470458984375,0.02752685546875
0.0907440185546875,3.2304840087890625,8.629058837890625,-0.185150146484375,0.11126708984375,-0.051300048828125
-0.28753662109375,3.20654296875,9.371261596679688,-0.286346435546875,-0.0762176513671875,-0.147186279296875
-0.46710205078125,3.3310394287109375,10.053619384765625,-0.2011260986328125,-0.1241607666015625,-0.13226318359375
-0.5054168701171875,3.2999267578125,10.106292724609375,-0.1009979248046875,-0.10711669921875,-0.088592529296875
-0.297119140625,3.2376708984375,9.672943115234375,0.09820556640625,-0.0964508056640625,0.02752685546875
-0.0624847412109375,3.105987548828125,9.012130737304688,0.19940185546875,-0.073028564453125,0.0893096923828125
0.050048828125,3.1347198486328125,8.73919677734375,0.1940765380859375,-0.047454833984375,0.1010284423828125
0.1865081787109375,3.1179656982421875,8.597946166992188,0.033233642578125,0.0015411376953125,0.0402984619140625
-0.13909912109375,2.9647369384765625,8.942703247070312,-0.09674072265625,-0.127349853515625,-0.0012359619140625
0.0596160888671875,3.1658477783203125,9.265914916992188,-0.1137847900390625,-0.273284912109375,0.0552215576171875
0.06201171875,3.149078369140625,9.311416625976562,-0.0562591552734375,-0.17315673828125,0.094635009765625
0.2272186279296875,3.146697998046875,9.069595336914062,0.0108489990234375,-0.06024169921875,0.1233978271484375
0.5600128173828125,3.1083831787109375,9.148605346679688,-0.006195068359375,-0.0165557861328125,0.03497314453125
0.4019927978515625,3.03656005859375,8.858901977539062,-0.0189666748046875,-0.1241607666015625,-0.0619659423828125
0.2391815185546875,3.06768798828125,8.550048828125,-0.070098876953125,-0.2530517578125,-0.1141510009765625
0.2655181884765625,2.96234130859375,9.450271606445312,-0.02642822265625,0.0271148681640625,0.059478759765625
0.6126861572265625,2.9024810791015625,9.25634765625,0.0119171142578125,0.2689208984375,0.028594970703125
0.4067840576171875,2.8067169189453125,9.16058349609375,-0.034942626953125,0.04522705078125,-0.0012359619140625
0.658172607421875,2.988677978515625,9.153396606445312,0.0129852294921875,0.338165283203125,0.0424346923828125
0.035675048828125,2.9288177490234375,8.921157836914062,-0.1585235595703125,0.5980987548828125,0.0637359619140625
0.0117340087890625,3.149078369140625,8.777511596679688,-0.3396148681640625,0.3978271484375,0.05841064453125
-0.16064453125,2.9766998291015625,8.521331787109375,-0.5441436767578125,0.1719818115234375,-0.0481109619140625
-0.4599151611328125,2.5625,9.507736206054688,-0.6038055419921875,-0.0165557861328125,-0.0949859619140625
-0.4072418212890625,2.440399169921875,10.285858154296875,-0.32470703125,0.022857666015625,-0.021484375
-0.38330078125,2.8857269287109375,9.739974975585938,-0.0200347900390625,0.2295074462890625,0.094635009765625
-0.30908203125,3.0174102783203125,9.325775146484375,0.0108489990234375,0.2923583984375,0.1319122314453125
-0.323455810546875,2.715728759765625,9.0025634765625,-0.0796966552734375,0.1719818115234375,0.129791259765625
-0.1271209716796875,2.6798248291015625,9.18212890625,-0.1137847900390625,0.079315185546875,0.0903778076171875
-0.1582489013671875,2.72052001953125,9.265914916992188,-0.1222991943359375,0.126190185546875,0.059478759765625
-0.45751953125,2.5433502197265625,9.483795166015625,-0.119110107421875,0.246551513671875,0.0200653076171875
-0.54132080078125,2.5385589599609375,9.639419555664062,-0.0786285400390625,0.2550811767578125,0.0317840576171875
-0.63470458984375,2.5529327392578125,9.57476806640625,0.0811614990234375,0.2188568115234375,0.10528564453125
-0.36175537109375,2.852203369140625,8.63385009765625,0.112060546875,0.1496124267578125,0.1479034423828125
-0.2372589111328125,2.842620849609375,8.741592407226562,0.0119171142578125,0.1048736572265625,0.108489990234375
-0.1989593505859375,2.5529327392578125,9.766311645507812,-0.0764923095703125,0.0473480224609375,0.0189971923828125
-0.3737335205078125,2.440399169921875,9.601104736328125,0.0800933837890625,0.022857666015625,-0.0140228271484375
-0.445556640625,2.7324981689453125,8.712860107421875,0.113128662109375,0.04095458984375,0.0222015380859375
-0.23486328125,2.6654510498046875,8.868484497070312,-0.1031341552734375,0.1410980224609375,-0.0289306640625
-0.483856201171875,2.3374481201171875,9.409576416015625,-0.1830291748046875,0.0590667724609375,-0.0587615966796875
-0.483856201171875,2.651092529296875,9.534072875976562,-0.0221710205078125,-0.1316070556640625,-0.0001678466796875
-0.42401123046875,2.3518218994140625,9.70166015625,-0.0637054443359375,0.075042724609375,-0.0491790771484375
-0.30908203125,2.3159027099609375,10.024887084960938,0.0364227294921875,0.133636474609375,-0.0172119140625
-0.13909912109375,2.46673583984375,9.948272705078125,0.212188720703125,0.330718994140625,0.0115509033203125
-0.15106201171875,2.34942626953125,9.026504516601562,0.2750396728515625,0.191162109375,-0.029998779296875
-0.186981201171875,2.6271514892578125,8.55963134765625,0.1269683837890625,0.0175323486328125,-0.168487548828125
-0.9651031494140625,2.8162841796875,8.846939086914062,-0.0211029052734375,-0.1454620361328125,-0.26861572265625
-1.2140960693359375,2.947967529296875,9.423934936523438,0.018310546875,-0.2019195556640625,-0.166351318359375
-0.953125,2.995849609375,9.481399536132812,0.1738433837890625,0.02178955078125,0.0062103271484375
-0.8501739501953125,2.9551544189453125,9.282684326171875,0.25799560546875,0.3030242919921875,0.094635009765625
-0.852569580078125,2.90008544921875,9.316207885742188,0.3464202880859375,0.319000244140625,0.1319122314453125
-0.589202880859375,2.97430419921875,8.91876220703125,0.39434814453125,0.21673583984375,0.141510009765625
-0.7663726806640625,2.8976898193359375,8.753570556640625,0.20367431640625,-0.10498046875,0.0637359619140625
-0.3114776611328125,3.0245819091796875,8.990585327148438,0.017242431640625,-0.218963623046875,0.014739990234375
-0.60357666015625,2.7396697998046875,9.38323974609375,-0.0008544921875,-0.0655670166015625,-0.0012359619140625
-0.4886474609375,2.8498077392578125,9.445480346679688,0.0460052490234375,0.020721435546875,0.04669189453125
-0.3521881103515625,3.041351318359375,9.261138916015625,0.09820556640625,0.0835723876953125,0.0669403076171875
-0.5054168701171875,2.8043212890625,9.388031005859375,0.100341796875,-0.1891326904296875,-0.0140228271484375
-0.345001220703125,3.2568206787109375,8.885238647460938,0.223907470703125,-0.113494873046875,-0.018280029296875
-0.3378143310546875,3.1610565185546875,8.815811157226562,0.1514739990234375,-0.01123046875,0.00408935546875
-0.2157135009765625,3.1299285888671875,9.000167846679688,0.0811614990234375,0.0388336181640625,-0.0044403076171875
-0.42401123046875,3.1179656982421875,9.062408447265625,0.05133056640625,-0.002716064453125,-0.051300048828125
-0.419219970703125,3.0557098388671875,9.206069946289062,0.0832977294921875,-0.15185546875,-0.090728759765625
-0.4264068603515625,3.20654296875,9.198883056640625,0.123779296875,-0.136932373046875,-0.0992431640625
-0.4000701904296875,3.2975311279296875,8.849334716796875,0.1056671142578125,-0.0996551513671875,-0.076873779296875
-0.282745361328125,3.2783660888671875,9.040863037109375,0.0609283447265625,-0.2477264404296875,-0.11309814453125
-0.313873291015625,3.3454132080078125,9.048049926757812,0.13336181640625,-0.353179931640625,-0.1610260009765625
-0.0361480712890625,3.2879486083984375,8.72723388671875,0.0481414794921875,-0.289276123046875,-0.1386566162109375
-0.0840301513671875,3.347808837890625,8.870880126953125,-0.0338897705078125,-0.41070556640625,-0.1940460205078125
-0.1534576416015625,3.3502044677734375,8.933120727539062,-0.0519866943359375,-0.435211181640625,-0.1961822509765625
-0.1271209716796875,3.2256927490234375,8.923553466796875,-0.02642822265625,-0.4075164794921875,-0.1493072509765625
0.0596160888671875,3.220916748046875,9.177337646484375,0.0460052490234375,-0.251983642578125,-0.086456298828125
-0.0840301513671875,3.220916748046875,8.78228759765625,0.0353546142578125,0.0239105224609375,-0.0576934814453125
0.1051177978515625,3.307098388671875,9.086349487304688,0.005523681640625,0.1368408203125,-0.0044403076171875
0.0787811279296875,3.33343505859375,9.399993896484375,-0.0242919921875,0.1613311767578125,-0.022552490234375
-0.0481109619140625,3.33343505859375,9.739974975585938,0.030029296875,0.132568359375,-0.0374603271484375
-0.2540130615234375,3.4244232177734375,9.265914916992188,0.1429443359375,-0.0410614013671875,-0.0502471923828125
-0.2635955810546875,3.5034332275390625,8.693710327148438,0.144012451171875,-0.1358795166015625,-0.018280029296875
-0.081634521484375,3.455535888671875,8.511749267578125,0.0619964599609375,-0.115631103515625,-0.0012359619140625
-0.1462860107421875,3.43878173828125,8.6434326171875,-0.02642822265625,-0.1092376708984375,-0.0353240966796875
-0.1295166015625,3.412445068359375,9.100723266601562,-0.0647735595703125,-0.09112548828125,-0.05450439453125
-0.143890380859375,3.347808837890625,9.402389526367188,0.044952392578125,-0.049591064453125,-0.053436279296875
-0.1534576416015625,3.4052581787109375,9.380844116210938,0.1312255859375,0.01007080078125,-0.04278564453125
-0.218109130859375,3.453155517578125,9.2132568359375,0.2846221923828125,0.135772705078125,-0.0118865966796875
-0.2779541015625,3.5201873779296875,8.1358642578125,0.5520172119140625,-0.08367919921875,-0.100311279296875
-0.323455810546875,3.66143798828125,7.6115264892578125,0.48809814453125,-0.2178955078125,-0.1482391357421875
-0.366546630859375,3.750030517578125,7.613922119140625,0.2718505859375,-0.6195068359375,-0.270751953125
0.17694091796875,3.802703857421875,9.275497436523438,0.2196502685546875,-0.7516021728515625,-0.352783203125
0.4067840576171875,3.8649444580078125,10.233184814453125,0.3314971923828125,-0.503387451171875,-0.3719482421875
0.224822998046875,3.855377197265625,10.85089111328125,0.7682647705078125,0.2305755615234375,-0.3836669921875
0.06201171875,3.802703857421875,10.520477294921875,1.0164642333984375,0.4148712158203125,-0.3804779052734375
0.2008819580078125,4.1761932373046875,9.0887451171875,1.3509521484375,0.1134033203125,-0.4134979248046875
0.5767669677734375,4.657440185546875,7.6522369384765625,1.203948974609375,-0.3350830078125,-0.485931396484375
0.2798919677734375,4.6358795166015625,7.1015625,0.6660003662109375,-0.435211181640625,-0.5040435791015625
0.1122894287109375,4.6191253662109375,7.9275665283203125,0.226043701171875,-0.6109771728515625,-0.4603729248046875
0.361297607421875,4.7029266357421875,8.45428466796875,0.030029296875,-0.8740997314453125,-0.30377197265625
1.048431396484375,4.7771453857421875,8.755950927734375,-0.013641357421875,-0.9412078857421875,-0.1833953857421875
0.976593017578125,4.6837615966796875,8.550048828125,0.0236358642578125,-0.57049560546875,-0.177001953125
0.5336761474609375,4.786712646484375,7.824615478515625,0.0108489990234375,-0.355316162109375,-0.1642303466796875
0.75872802734375,5.0620574951171875,7.963470458984375,-0.1691741943359375,-0.3468017578125,-0.0811309814453125
