accX,accY,accZ,gyroX,gyroY,gyroZ
-4.304994583129883,5.540134429931641,6.046642303466797,-0.8874824643135071,0.1238660141825676,0.988606870174408
-4.169751167297363,5.174492359161377,6.6476731300354,-0.8728216886520386,0.12224286049604416,1.003669023513794
-4.024298667907715,5.240294456481934,6.526000022888184,0.13084733486175537,0.13329079747200012,-0.0483979806303978
-3.949599504470825,5.3389739990234375,6.238829612731934,0.13723523914813995,0.15138985216617584,-0.0728849470615387
-4.179940700531006,5.5196404457092285,6.236052513122559,0.1074250116944313,0.10135126858949661,-0.07182029634714127
-4.2294816970825195,5.590892791748047,6.054696559906006,0.056409042328596115,0.0377340167760849,-0.03499384969472885
-4.088855743408203,5.5102643966674805,6.0085554122924805,0.009128072299063206,0.005794493015855551,-0.002007128670811653
-3.902050733566284,5.381782054901123,6.162023544311523,-0.01235693134367466,0.025795966386795044,0.005340707488358021
-3.812507390975952,5.212186336517334,6.468318462371826,0.0228987205773592,0.07609635591506958,-0.024905849248170853
-4.042571067810059,5.302821159362793,6.635385990142822,0.05117305368185043,0.1019621342420578,-0.0622209869325161
-4.369149684906006,5.445372104644775,6.724172592163086,0.005375613924115896,0.014974924735724926,-0.0812101662158966
-4.61010217666626,5.55377197265625,6.777295112609863,-0.04614650458097458,-0.09574875980615616,-0.10344566404819489
-4.926031589508057,5.808189392089844,6.828761100769043,-0.03956661373376846,-0.1641656756401062,-0.08731882274150848
-4.9438252449035645,5.9455976486206055,5.961638450622559,-0.12864822149276733,-0.3493974506855011,0.04242895543575287
-4.973139762878418,5.932984828948975,5.86263370513916,-0.19736182689666748,-0.4322831332683563,0.04680972918868065
-5.283945560455322,5.931979179382324,5.679381370544434,-0.4317770004272461,-0.6829822659492493,0.08045967668294907
-5.332576274871826,5.712708473205566,5.626555919647217,-0.7240672707557678,-0.9865822792053223,0.14857988059520721
-5.217013359069824,5.496838092803955,5.724172115325928,-0.9652369022369385,-1.2020256519317627,0.24446827173233032
-4.839112281799316,5.412102222442627,5.865448951721191,-1.0506707429885864,-1.1523187160491943,0.3442138433456421
-4.1573872566223145,5.533066749572754,5.958497524261475,-0.987175703048706,-0.8693485260009766,0.5073148608207703
-3.4983978271484375,4.954464912414551,6.170192718505859,-0.8936434984207153,-0.515622615814209,0.6444628238677979
-2.5542778968811035,4.453617095947266,6.977478981018066,-0.6532418131828308,-0.14449581503868103,0.5662371516227722
-2.5489628314971924,4.602469444274902,7.952244758605957,-0.3096912205219269,0.19425514340400696,0.5082224011421204
-2.8249855041503906,4.919174671173096,7.985581874847412,-0.053703781217336655,0.2868448495864868,0.5028642416000366
-2.6741890907287598,5.169895172119141,7.2862162590026855,-0.09023351967334747,0.15561355650424957,0.4879067838191986
-2.525825262069702,5.197668075561523,7.105503082275391,-0.28988173604011536,0.018273597583174706,0.45865505933761597
-2.346461296081543,5.058650970458984,7.782468318939209,-0.3695211112499237,-0.11423180252313614,0.42500513792037964
-2.0533246994018555,4.90731954574585,8.115032196044922,-0.2627069652080536,-0.16542230546474457,0.35124751925468445
-2.0584962368011475,4.9990739822387695,7.992870807647705,-0.11342895030975342,-0.15547393262386322,0.23596851527690887
-2.0795938968658447,4.943911552429199,8.096874237060547,-0.016493361443281174,-0.10732029378414154,0.20256291329860687
-2.0988242626190186,4.808227062225342,8.24068832397461,0.1054178848862648,-0.055693455040454865,0.16198401153087616
-2.346959114074707,4.80560302734375,8.32496452331543,0.20540779829025269,-0.05258677154779434,0.11142181605100632
-2.4155867099761963,4.970017910003662,7.739534378051758,0.2963045537471771,-0.16941910982131958,0.06321582198143005
-2.4418749809265137,5.0370073318481445,7.290516376495361,0.2568601071834564,-0.19570377469062805,0.04049163684248924
-2.4119186401367188,4.925054550170898,7.32647705078125,0.229842409491539,-0.18305012583732605,0.0246265958994627
-2.5289759635925293,4.934460163116455,7.525454521179199,0.22828906774520874,-0.19422024488449097,-0.012479104101657867
-2.45119309425354,4.982975006103516,7.391953945159912,0.21045179665088654,-0.297805517911911,-0.054628804326057434
-2.322499990463257,5.276437282562256,6.485729217529297,0.13720032572746277,-0.15201817452907562,-0.11585495620965958
-2.7112035751342773,5.4811320304870605,6.719182968139648,0.08251916617155075,0.07670722156763077,-0.10468484461307526
-2.9903674125671387,5.430748462677002,7.27276086807251,0.025935592129826546,0.07815584540367126,-0.03141592815518379
-2.864748477935791,5.417110919952393,7.716195583343506,-0.004974188283085823,-0.02099631167948246,-0.012444197200238705
-2.509209394454956,5.265337944030762,8.053980827331543,0.05440191179513931,-0.21160371601581573,-0.03597123548388481
-2.3225669860839844,5.451166152954102,7.5623250007629395,0.2134712189435959,-0.15974998474121094,-0.047368235886096954
-2.525221824645996,5.7054877281188965,7.349539279937744,0.2897944748401642,-0.03378957509994507,-0.0033859387040138245
-2.68562388420105,5.807011604309082,7.300437927246094,0.2344849854707718,-0.066252700984478,0.05215043947100639
-2.623795986175537,5.790798187255859,7.189155101776123,0.08415977656841278,-0.22139501571655273,0.0734609067440033
-2.5157504081726074,5.510207176208496,6.426295757293701,-0.03012438304722309,0.11662290245294571,0.1613033264875412
-1.9809815883636475,5.454355239868164,7.701993465423584,0.06661921739578247,-0.03785619139671326,0.14416418969631195
-1.9244401454925537,5.180362701416016,7.947916030883789,0.14327408373355865,-0.035185836255550385,0.133657306432724
-2.056657552719116,5.22875452041626,7.601724147796631,0.16086699068546295,-0.05927138030529022,0.12325514853000641
-2.0995616912841797,5.317378044128418,7.223469257354736,0.13974851369857788,-0.0630587488412857,0.12796753644943237
-2.1137447357177734,5.28925085067749,7.254957675933838,0.059201568365097046,-0.022427480667829514,0.14206980168819427
-2.081442356109619,5.211372375488281,7.6128716468811035,0.04717624932527542,-0.07595673203468323,0.12250465899705887
-1.9859519004821777,5.211334228515625,7.546896934509277,0.09805259853601456,-0.10763445496559143,0.08300785720348358
-1.8102271556854248,5.34406852722168,7.171285152435303,0.146328404545784,-0.08747590333223343,0.038606684654951096
-1.9085521697998047,5.586544036865234,6.816435813903809,0.12603022158145905,-0.027977628633379936,0.030054569244384766
-1.7504582405090332,5.384262561798096,7.500219821929932,0.043703045696020126,-0.0029321531765162945,0.039706241339445114
-1.7051599025726318,5.345332622528076,7.495431423187256,0.03246312215924263,0.0009250245057046413,0.039653878659009933
-1.6830470561981201,5.306929588317871,7.574497222900391,0.026511551812291145,-0.031782444566488266,0.026371924206614494
-1.7307395935058594,5.343532562255859,7.468386173248291,0.01993165910243988,-0.06518805027008057,0.027715828269720078
-1.6572279930114746,5.316784381866455,7.396090984344482,0.014364060014486313,-0.09485864639282227,0.03424336016178131
-1.4817522764205933,5.319580554962158,7.274168491363525,0.007278022821992636,-0.1169545128941536,0.033737216144800186
-1.428754210472107,5.397938251495361,7.128170013427734,0.006510077975690365,-0.07904595881700516,0.04106759652495384
-1.368343710899353,5.388351917266846,7.284463882446289,0.023020893335342407,-0.04660028964281082,0.03867649659514427
-1.4565173387527466,5.747520446777344,7.571097373962402,0.05244714394211769,-0.039671335369348526,0.09053023159503937
-1.4847018718719482,5.787312030792236,7.708955764770508,0.03380702808499336,-0.01335176918655634,0.1264840066432953
-1.1983362436294556,5.502488136291504,7.623875141143799,-0.06302383542060852,-0.12653636932373047,0.0950506329536438
-1.206878662109375,5.697261333465576,7.566098213195801,-0.1016654297709465,-0.13917255401611328,0.09512044489383698
-1.0113778114318848,5.78820276260376,7.331610202789307,-0.06908012926578522,-0.02958333119750023,0.12374384701251984
-0.9371958374977112,5.474006652832031,7.864818096160889,0.17502161860466003,0.15048228204250336,0.04565781354904175
-0.9843137264251709,5.5721211433410645,7.503169059753418,0.11754792183637619,-0.02661627158522606,0.009983283467590809
-0.9099594354629517,5.592395305633545,7.2003889083862305,0.03822271153330803,-0.1408306211233139,-0.02209586836397648
-0.9774280190467834,5.671748638153076,7.128055095672607,0.0207345113158226,-0.13398893177509308,-0.03003711625933647
-1.013206958770752,5.7444939613342285,6.992907524108887,0.06293657422065735,-0.004206243436783552,-0.02272418700158596
-1.2392292022705078,5.828176021575928,7.168183326721191,0.07262314856052399,0.09402088820934296,-0.005654866807162762
-1.3208714723587036,5.791048049926758,7.306528568267822,0.010681414976716042,0.0313984714448452,-0.00045378561480902135
-1.1829750537872314,5.714499473571777,7.199986934661865,-0.08253662288188934,-0.05895722284913063,-0.02033308520913124
-1.14308762550354,5.688057899475098,7.2665839195251465,-0.11013027280569077,-0.04735078290104866,-0.04476769641041756
-1.282171607017517,5.7908935546875,7.332864761352539,-0.03876376152038574,0.038117989897727966,-0.058660514652729034
-1.355472445487976,5.936575889587402,7.181848049163818,-0.005532693583518267,0.08271115273237228,-0.05420992523431778
-1.3592456579208374,5.97697114944458,7.069282531738281,-0.013456488028168678,0.09669124335050583,-0.048572514206171036
-1.3166576623916626,5.991747856140137,7.061745643615723,-0.053389620035886765,0.09841911494731903,-0.05017821490764618
-1.3231794834136963,5.965402126312256,7.19674015045166,-0.0564439482986927,0.10588912665843964,-0.049008846282958984
-1.2691854238510132,5.875226974487305,7.289903163909912,-0.011850785464048386,0.14187781512737274,-0.05382595211267471
-1.1270943880081177,5.870601654052734,7.36374044418335,0.08630653470754623,0.20832249522209167,-0.09054768085479736
-1.058419108390808,5.934411525726318,7.2697248458862305,0.1276184767484665,0.2617470324039459,-0.1356469839811325
-1.3697706460952759,6.189135551452637,7.464986324310303,0.09232791513204575,0.19825194776058197,-0.1281769871711731
-1.9534578323364258,7.132929801940918,4.669305801391602,0.03127630054950714,0.13658946752548218,-0.0855560377240181
-1.8335274457931519,6.571135520935059,5.604174613952637,-0.24190263450145721,0.2580643892288208,0.0017627825727686286
-1.6158753633499146,6.203845500946045,8.122052192687988,-0.1278977245092392,0.10679669678211212,-0.061226148158311844
-1.8083500862121582,6.493716239929199,7.4538679122924805,-0.11035716533660889,0.07068583369255066,0.0325503908097744
-1.6481492519378662,5.693469047546387,8.023362159729004,-0.09089674800634384,0.06443755328655243,-0.014154620468616486
-1.492621898651123,5.65244197845459,7.571145534515381,-0.028152160346508026,0.106587253510952,-0.03450515866279602
-1.4282658100128174,5.5676679611206055,7.459652423858643,0.042498767375946045,0.1762607991695404,-0.07380997389554977
-1.5457731485366821,5.514344215393066,7.409948825836182,0.09204866737127304,0.18413223326206207,-0.1284562349319458
-1.8226003646850586,5.610227108001709,7.439425945281982,0.12924163043498993,0.19753636419773102,-0.14906856417655945
-2.0039658546447754,5.668808460235596,7.448151588439941,0.15721926093101501,0.18420204520225525,-0.12753120064735413
-1.9464284181594849,5.6051130294799805,7.309391975402832,0.1388060301542282,0.1739744246006012,-0.10506881773471832
-2.0490152835845947,5.546675682067871,7.411854267120361,0.11451105028390884,0.17315411567687988,-0.0927467942237854
-2.0647881031036377,5.480279445648193,7.442729949951172,0.09545205533504486,0.1417207419872284,-0.07866198569536209
-2.094169855117798,5.462016582489014,7.234903812408447,0.04530874639749527,0.13435544073581696,-0.06836454570293427
-2.1712727546691895,5.428373336791992,7.150618076324463,-0.0224623866379261,0.13936454057693481,-0.06312856078147888
-2.3645806312561035,5.3823089599609375,7.22467565536499,-0.09522516280412674,0.13636256754398346,-0.05178391933441162
-2.468383550643921,5.3038554191589355,7.477809906005859,-0.11386527866125107,0.13751448690891266,-0.04605923965573311
-2.5825774669647217,5.2448530197143555,7.585280895233154,-0.09655161201953888,0.15456636250019073,-0.03759439289569855
-2.690354824066162,5.2173004150390625,7.505831718444824,-0.061540309339761734,0.19406315684318542,-0.03003711625933647
-2.873549461364746,5.187545299530029,7.535270690917969,-0.03937462717294693,0.23579397797584534,-0.016004668548703194
-3.2676541805267334,5.1242523193359375,7.549818992614746,-0.01788962446153164,0.21409954130649567,0.002373647876083851
-3.3118607997894287,5.004580497741699,7.424380779266357,0.006143558770418167,0.20525072515010834,0.03003711625933647
-3.2075884342193604,4.88118314743042,7.324781894683838,0.051940999925136566,0.19090411067008972,0.033737216144800186
-3.1348814964294434,4.8433356285095215,7.0026469230651855,0.08866272866725922,0.20209167897701263,0.024260075762867928
-3.248950719833374,4.9807915687561035,6.743135929107666,0.09007643908262253,0.220051109790802,0.018448129296302795
-3.464629888534546,5.1143975257873535,6.639609336853027,0.050335295498371124,0.25942572951316833,0.043964844197034836
-3.626544952392578,5.0994672775268555,6.92658805847168,-0.02754129469394684,0.27174776792526245,0.06527531147003174
-2.982102632522583,5.263767242431641,6.652662754058838,-0.033999014645814896,0.06436774134635925,0.1425759494304657
-2.815178871154785,5.398618221282959,6.497259616851807,0.020839231088757515,0.12660618126392365,0.14358823001384735
-2.7782890796661377,5.458329677581787,6.313614845275879,0.011431906372308731,0.15971508622169495,0.15994197130203247
-3.1104795932769775,5.082756042480469,7.455735206604004,-0.05391322076320648,0.054227378219366074,0.10690141469240189
-3.019270181655884,5.099237442016602,7.49526834487915,-0.02799508161842823,-0.0007504915702156723,0.06059783324599266
-3.0465736389160156,5.255703449249268,7.220088481903076,0.009023352526128292,-0.014503685757517815,0.017470745369791985
-3.0880794525146484,5.500065326690674,6.969789028167725,0.016685348004102707,0.006841690745204687,0.006422811653465033
-3.098623514175415,5.567035675048828,6.915086269378662,-0.013683381490409374,-0.004398229531943798,0.007609635591506958
-3.0771236419677734,5.583852767944336,7.016341686248779,-0.02174680307507515,-0.026232298463582993,0.0074525559321045876
-3.157252788543701,5.698056221008301,6.990675926208496,-0.002827433403581381,-0.012164944782853127,0.011903145350515842
-3.22426176071167,5.851160526275635,6.945540428161621,0.0080634206533432,0.01665044017136097,0.039357174187898636
-3.204792022705078,5.737005233764648,7.0435686111450195,0.03661700710654259,0.04673991724848747,0.05794493108987808
-3.2592074871063232,5.829344749450684,7.100914478302002,0.05691518634557724,0.03947934880852699,0.10346312075853348
-3.1735525131225586,5.840741157531738,7.002311706542969,0.06544984877109528,0.04310963302850723,0.10924015939235687
-3.199725866317749,5.896966457366943,6.953853130340576,0.028728120028972626,-0.01912880875170231,0.12449433654546738
-3.1494956016540527,5.824795722961426,7.0394792556762695,-0.01687733456492424,-0.09136798232793808,0.13032373785972595
-2.9218931198120117,5.68644905090332,7.08333158493042,0.020036378875374794,-0.1019621342420578,0.11515682190656662
-2.7624871730804443,5.648927211761475,6.949179649353027,0.09061749279499054,-0.016144296154379845,0.09602801501750946
-2.7036759853363037,5.607430934906006,7.086367607116699,0.12103858590126038,0.03984586521983147,0.07674212753772736
-2.7113471031188965,5.596656799316406,7.299068450927734,0.13721778988838196,0.035063665360212326,0.038152895867824554
-2.752115488052368,5.707374572753906,7.344280242919922,0.1566956639289856,-0.003176499158143997,0.008604473434388638
-2.8490519523620605,5.915555000305176,7.21235990524292,0.12664109468460083,-0.07494443655014038,0.002024581888690591
-3.803840398788452,6.786986827850342,3.8491482734680176,-0.06459463387727737,-0.20725785195827484,0.040945425629615784
-2.7710680961608887,5.675090789794922,6.082603454589844,-0.30264008045196533,0.026197392493486404,0.1186649352312088
-3.0799968242645264,5.5222930908203125,8.511569023132324,0.04815363511443138,0.06485643237829208,0.04944517835974693
-2.8837201595306396,5.856945037841797,7.591122627258301,0.15418238937854767,-0.09115854650735855,0.09365436434745789
-2.4459738731384277,6.035504341125488,6.738317489624023,0.073722705245018,-0.1572716236114502,0.0553094856441021
-2.575547933578491,6.165969371795654,6.725235462188721,0.03413863852620125,-0.12330751121044159,0.059288833290338516
-2.5246376991271973,6.000606536865234,6.838893413543701,0.05141739919781685,-0.1028173491358757,0.08923868089914322
-2.502476930618286,5.838222503662109,6.9317307472229,0.051940999925136566,-0.11140436679124832,0.08478809148073196
-2.493915319442749,5.752605438232422,6.934298515319824,0.02940879762172699,-0.15505504608154297,0.06899286806583405
-2.5039901733398438,5.717401504516602,6.989775657653809,0.009878563694655895,-0.1500634104013443,0.03960151970386505
-2.5423548221588135,5.6736159324646,7.136013507843018,0.02431243658065796,-0.12747885286808014,0.01633628085255623
-2.532653570175171,5.6444549560546875,7.12882137298584,0.05548401549458504,-0.09423032402992249,-0.024469515308737755
-2.5515389442443848,5.690557479858398,7.121514320373535,0.07855726778507233,-0.08951793611049652,-0.07237880676984787
-2.7081005573272705,5.9259843826293945,7.0070343017578125,0.08681267499923706,-0.10564477741718292,-0.08969247341156006
-2.629925012588501,6.039660930633545,6.960355758666992,0.10967648774385452,-0.11402235925197601,-0.07726572453975677
-2.5401041507720947,6.030658721923828,6.88545560836792,0.14816099405288696,-0.09114108979701996,-0.07768460363149643
-2.1464784145355225,5.73915958404541,7.200283527374268,0.11969467997550964,-0.1814444214105606,-0.058835048228502274
-2.3396425247192383,5.9500412940979,6.5503153800964355,0.11114256829023361,-0.3265685439109802,-0.09761626273393631
-3.2277188301086426,6.87362813949585,3.8349075317382812,-0.11430161446332932,-0.40079739689826965,-0.054628804326057434
-2.218658685684204,5.631047248840332,6.487682819366455,-0.3107558786869049,-0.2776818871498108,-0.008970992639660835
-1.9622684717178345,5.169609069824219,8.925555229187012,0.12431979924440384,-0.02998475730419159,-0.07939502596855164
-2.3277194499969482,5.698324203491211,7.8958563804626465,0.3510380685329437,-0.0035604715812951326,-0.03769911080598831
-2.0316810607910156,5.708552360534668,7.3418288230896,0.17893114686012268,-0.16210618615150452,-0.08824384957551956
-2.403385877609253,5.934938430786133,7.258711814880371,0.034924037754535675,-0.3643200397491455,-0.12170180678367615
-2.4658169746398926,6.024472236633301,6.979701042175293,0.06023131310939789,-0.3528008460998535,-0.0702844113111496
-2.2793948650360107,5.877496719360352,6.811437606811523,0.1298874020576477,-0.2313084900379181,-0.021450096741318703
-2.1151716709136963,5.749818801879883,6.839544296264648,0.1229759007692337,-0.2214822769165039,-0.030979594215750694
-2.0351672172546387,5.722362041473389,6.80723237991333,-0.006492624990642071,-0.293756365776062,-0.07981390506029129
-1.9922246932983398,5.734811782836914,6.7481913566589355,0.030421089380979538,-0.2237686663866043,-0.08442157506942749
-1.9532567262649536,5.814596176147461,6.717535972595215,0.018168877810239792,-0.20746728777885437,-0.09599310904741287
-2.0150365829467773,5.842866897583008,6.785828113555908,-0.05489060655236244,-0.22715459764003754,-0.09293878078460693
-2.035703420639038,5.767995357513428,7.239529132843018,-0.06880088150501251,-0.23537510633468628,-0.0852593332529068
-2.0068390369415283,5.714077949523926,7.517821788787842,-0.005427973810583353,-0.23202407360076904,-0.08026769012212753
-2.0715110301971436,5.850442409515381,7.270969867706299,0.03579670190811157,-0.21650809049606323,-0.06731735169887543
-2.0444469451904297,5.9169721603393555,7.132010459899902,-0.003996803890913725,-0.2313259392976761,-0.03892084211111069
-1.9509966373443604,5.838653087615967,7.220117092132568,-0.04920083284378052,-0.24274039268493652,-0.0114493602886796
-1.796484351158142,5.686946868896484,7.303741931915283,-0.04394739121198654,-0.2520080804824829,-0.004485496319830418
-1.7507551908493042,5.609681606292725,7.378440856933594,-0.02586578018963337,-0.23888321220874786,-0.015149458311498165
-1.7485524415969849,5.716893672943115,7.264994144439697,-0.004852015525102615,-0.23221606016159058,-0.02068215236067772
-1.7715750932693481,5.789054870605469,7.1438188552856445,-0.009442231617867947,-0.22369885444641113,-0.015568336471915245
-1.6582144498825073,5.8163299560546875,7.108127117156982,-0.042586032301187515,-0.2137155681848526,0.005340707488358021
-1.5424116849899292,5.712507724761963,7.154573440551758,-0.06281439960002899,-0.21045179665088654,0.006684611085802317
-1.522942066192627,5.670608997344971,7.189691543579102,-0.04633849114179611,-0.19921188056468964,0.007260569836944342
-1.717581033706665,5.900088310241699,7.811763763427734,-0.19120082259178162,-0.12014846503734589,0.17112953960895538
-1.5270887613296509,5.80007791519165,7.90664005279541,-0.1846209317445755,-0.10014699399471283,0.21875956654548645
-1.2214738130569458,5.661051273345947,7.947877883911133,-0.14535102248191833,-0.11850785464048386,0.22973768413066864
-0.8446934819221497,5.658992290496826,7.6190009117126465,-0.09482374042272568,-0.10365510731935501,0.22115066647529602
-0.7075918912887573,5.732360363006592,7.210789203643799,-0.07017968595027924,-0.01864011585712433,0.21013763546943665
-0.7836892008781433,5.8103346824646,7.293753147125244,-0.09232791513204575,0.057421330362558365,0.21277308464050293
-0.91912442445755,5.514219760894775,7.973486423492432,-0.07738789916038513,0.02511528693139553,0.19687314331531525
-0.8914282917976379,5.510878562927246,7.7881269454956055,-0.04352851212024689,0.01563815027475357,0.1849525421857834
-0.7138360142707825,5.55399227142334,7.399155616760254,-0.007819075137376785,0.06522295624017715,0.17411404848098755
-0.615932285785675,5.558464527130127,7.286953449249268,0.0,0.12362167239189148,0.1550026834011078
-0.6268786191940308,5.547911167144775,7.192631721496582,-0.016283921897411346,0.14512412250041962,0.12215559184551239
-0.9302909970283508,5.70542049407959,7.266315460205078,-0.04478514939546585,0.15454889833927155,0.10559242218732834
-1.0691642761230469,5.805459976196289,7.301778793334961,-0.07995353639125824,0.14147639274597168,0.13030628859996796
-1.0354442596435547,5.736171722412109,7.585788249969482,-0.0757472887635231,0.17037904262542725,0.15601497888565063
-0.9698527455329895,5.661808013916016,7.674297332763672,-0.04986405745148659,0.20526817440986633,0.16957618296146393
-0.974124014377594,5.635241985321045,7.776654243469238,-0.07061602175235748,0.14924310147762299,0.16208872199058533
-0.9243629574775696,5.692454814910889,7.659883975982666,-0.08489281684160233,0.07354817539453506,0.14685200154781342
-0.914058268070221,5.9575300216674805,6.89698600769043,-0.018814649432897568,0.10587166994810104,0.14903366565704346
-1.1102583408355713,6.0669450759887695,5.926692962646484,-0.08751080930233002,0.41231659054756165,0.23233823478221893
-0.8177060484886169,5.382222652435303,8.046030044555664,-0.1587202399969101,0.2512052357196808,0.1632930040359497
-1.1141464710235596,5.936356067657471,7.52315616607666,-0.058974675834178925,0.23942427337169647,0.1647939831018448
-1.0825622081756592,5.953967571258545,7.526144027709961,-0.11410962790250778,0.29194122552871704,0.21652553975582123
-0.9939863085746765,5.831786632537842,7.573434352874756,-0.10360274463891983,0.25734880566596985,0.1932428479194641
-1.0422533750534058,5.851189136505127,7.5685882568359375,-0.08042477071285248,0.2698802649974823,0.17931511998176575
-1.0591756105422974,5.90408182144165,7.584150791168213,-0.04749041050672531,0.2912081778049469,0.17760470509529114
-1.044264554977417,5.881308555603027,7.6152753829956055,-0.018151424825191498,0.33075734972953796,0.16338026523590088
-1.1747868061065674,5.949878215789795,7.791584491729736,0.043999750167131424,0.37257543206214905,0.15404276549816132
-1.243529200553894,6.036251544952393,7.771511554718018,0.0875806212425232,0.38290777802467346,0.16692328453063965
-1.2716370820999146,6.182086944580078,7.441667079925537,0.06410594284534454,0.36995744705200195,0.17441074550151825
-1.5494985580444336,6.175249099731445,7.55997896194458,-0.025499260053038597,0.36219072341918945,0.20359265804290771
-1.6001981496810913,5.800049304962158,7.947400093078613,-0.08552113175392151,0.28188812732696533,0.2249380350112915
-1.3708240985870361,5.817124366760254,7.101556301116943,0.02710496261715889,0.29283133149147034,0.06679374724626541
-1.538533091545105,5.892360210418701,7.286561012268066,0.0414690226316452,0.2609616219997406,0.0570373609662056
-1.6696587800979614,5.951716899871826,7.436370849609375,0.1431519091129303,0.31586968898773193,0.08080874383449554
-1.7328752279281616,5.901745319366455,7.259669303894043,0.0867079570889473,0.32644638419151306,0.16727235913276672
-1.7177438735961914,5.751408576965332,7.61822509765625,0.0005759586347267032,0.2214648276567459,0.16538739204406738
-1.9095289707183838,5.724469184875488,7.613091945648193,0.010070549324154854,0.2024931013584137,0.15200072526931763
-2.038317918777466,5.776815891265869,7.599856853485107,0.040509093552827835,0.19135789573192596,0.17444565892219543
-2.3910796642303467,5.797990322113037,7.11099910736084,0.031119219958782196,0.24237386882305145,0.173956960439682
-2.1200942993164062,5.702711582183838,6.884402275085449,0.0337023064494133,0.2525666058063507,0.18188075721263885
-2.044456720352173,5.725723743438721,6.847579479217529,-0.0016057029133662581,0.25441664457321167,0.1696634590625763
-2.0657076835632324,5.803324222564697,7.226323127746582,0.0256388857960701,0.2565982937812805,0.1641831248998642
-2.0551252365112305,5.802931785583496,7.266124248504639,0.07387978583574295,0.26483625173568726,0.17662732303142548
-2.0752365589141846,5.783481121063232,7.284750938415527,0.07426375895738602,0.2113768309354782,0.15603242814540863
-2.18265962600708,5.737819194793701,7.177769660949707,0.07578219473361969,0.16249015927314758,0.15255923569202423
-2.094667911529541,5.654271125793457,6.91431999206543,0.028553586453199387,0.1944645792245865,0.13702580332756042
-2.101754665374756,5.56968879699707,7.235976219177246,0.0437728576362133,0.19540706276893616,0.1022413894534111
-2.201813220977783,5.656483173370361,7.227146625518799,0.09801769256591797,0.1838006228208542,0.059288833290338516
-2.2988741397857666,5.876577377319336,6.8869781494140625,0.1071632131934166,0.15861551463603973,0.03741985931992531
-2.3246262073516846,5.972604274749756,6.701628684997559,0.09557422995567322,0.14795155823230743,0.03487167879939079
-2.3852951526641846,6.090436935424805,6.559183597564697,0.06923720985651016,0.17229890823364258,0.03680899366736412
-2.4759013652801514,6.161592960357666,6.650191783905029,0.039217546582221985,0.16488125920295715,0.04611159861087799
-2.5270702838897705,6.166630268096924,6.876405715942383,0.017575465142726898,0.15760323405265808,0.056810468435287476
-2.540238380432129,6.160290241241455,7.00246524810791,0.05333726108074188,0.13264502584934235,0.06024876609444618
-2.5750787258148193,6.285219669342041,6.8651251792907715,0.08126252889633179,0.1428551971912384,0.08515461534261703
-2.5477943420410156,6.323526859283447,6.676461219787598,0.08545131981372833,0.15533430874347687,0.12049753218889236
-2.266772508621216,5.984268665313721,6.763389587402344,0.12487830966711044,0.1546885371208191,0.09773843735456467
-2.4318385124206543,6.115039825439453,6.59995174407959,0.1068490594625473,0.10567968338727951,0.06873106211423874
-2.4358415603637695,6.25544548034668,6.451406002044678,0.07021459192037582,0.07190756499767303,0.055920347571372986
-2.3278918266296387,6.241549491882324,6.541054725646973,0.05452408641576767,0.08930850028991699,0.04738568887114525
-2.1728432178497314,6.07370662689209,6.692281723022461,0.04783947393298149,0.13461723923683167,0.03185226023197174
-2.1531150341033936,5.9018025398254395,7.116419315338135,0.0671253651380539,0.12562879920005798,-0.031119219958782196
-2.9803690910339355,7.02341890335083,4.431647777557373,-0.0022689281031489372,0.3816162347793579,0.01607448235154152
-2.5905261039733887,5.978886604309082,6.860144138336182,-0.0820828378200531,0.2226516455411911,0.026284659281373024
-2.552304983139038,5.89585542678833,7.8418145179748535,-0.020874137058854103,-0.110008105635643,-0.08520697057247162
-2.5365800857543945,6.213489532470703,6.834938049316406,0.018622662872076035,0.03611086308956146,-0.059149209409952164
-2.7604281902313232,6.200455188751221,7.233267307281494,0.12566371262073517,0.23167499899864197,-0.04797910153865814
-3.086489677429199,6.285717964172363,7.309085845947266,0.1477595716714859,0.11770500242710114,-0.04016002640128136
-2.8950493335723877,6.3308916091918945,6.5879998207092285,0.08365362882614136,-0.05071926862001419,-0.04131194204092026
-2.7665860652923584,6.348512649536133,6.155990123748779,0.05035274848341942,-0.02330014482140541,-0.04115486517548561
-2.809767961502075,6.3228278160095215,6.208893775939941,0.07209955155849457,0.06874851882457733,-0.037489671260118484
-2.801215887069702,6.287222385406494,6.214140892028809,0.053930673748254776,0.052290063351392746,-0.039269909262657166
-3.003650426864624,6.115442276000977,6.6774091720581055,-0.015044738538563251,0.0036651913542300463,-0.10218902677297592
-2.96405029296875,6.157129764556885,6.524860382080078,0.033737216144800186,-0.0016406094655394554,-0.09660397469997406
-2.8136274814605713,6.197572708129883,6.290563583374023,0.036582101136446,-0.016004668548703194,-0.10526080429553986
-2.8696517944335938,6.3702521324157715,6.029911518096924,0.010279988870024681,-0.011397000402212143,-0.10304424166679382
-2.982466459274292,6.423949241638184,6.126848220825195,-0.01748819835484028,-0.013665927574038506,-0.0728674978017807
-3.000518798828125,6.387021064758301,6.180018424987793,-0.09688322991132736,-0.02719222940504551,-0.0026703537441790104
-2.9275338649749756,6.343226432800293,6.086242198944092,-0.16399113833904266,-0.04991641640663147,0.016283921897411346
-2.760974168777466,6.330441474914551,6.015613555908203,-0.2931978702545166,-0.023335052654147148,0.028815384954214096
-2.729370594024658,6.059379577636719,7.078763484954834,-0.26825711131095886,-0.027750734239816666,0.01014036312699318
-2.673269748687744,5.98994779586792,7.451617240905762,-0.11730358004570007,-0.05297074094414711,-0.035988688468933105
-2.6857099533081055,6.1480512619018555,7.082038879394531,-0.011030481196939945,-0.07332128286361694,-0.08775515109300613
-2.763521671295166,6.369869232177734,6.733184337615967,-0.014678219333291054,-0.11208504438400269,-0.10060077905654907
-2.7449328899383545,6.399997711181641,6.628270626068115,-0.05506513640284538,-0.18743090331554413,-0.09950122237205505
-2.7723705768585205,6.435614109039307,6.576249122619629,-0.04438372328877449,-0.23362977802753448,-0.1071457639336586
-2.7648911476135254,6.473068714141846,6.402401447296143,-0.04239404574036598,-0.2246587872505188,-0.0950680822134018
-2.736668109893799,6.374772548675537,6.874748706817627,0.03242821618914604,-0.1915673315525055,-0.08969247341156006
-2.729562282562256,6.354182243347168,6.7851481437683105,0.09810495376586914,-0.1915498822927475,-0.08819148689508438
-2.6050732135772705,6.283773422241211,6.506319522857666,0.05063199996948242,-0.23884831368923187,-0.11124728620052338
-2.531494617462158,6.258232116699219,6.502689838409424,0.05284857004880905,-0.22853341698646545,-0.10993828624486923
-2.3466622829437256,6.098979473114014,6.577207088470459,0.12889257073402405,-0.2197893112897873,-0.22052234411239624
-2.334183692932129,6.271103382110596,6.308711528778076,0.11058405786752701,-0.22326251864433289,-0.2402271181344986
-2.4879777431488037,6.450141906738281,6.209352493286133,0.07679449021816254,-0.20186477899551392,-0.24171064794063568
-2.6535894870758057,6.5097575187683105,6.224100589752197,0.057473693042993546,-0.1874658167362213,-0.22884756326675415
-2.69429087638855,6.370951175689697,6.670561790466309,0.027488935738801956,-0.19861847162246704,-0.20556487143039703
-2.8696324825286865,6.331447124481201,7.188628673553467,0.12028808891773224,-0.23314107954502106,-0.21622884273529053
-2.894944190979004,6.424581527709961,6.877784729003906,0.15433946251869202,-0.21654300391674042,-0.19634954631328583
-2.993192434310913,6.513865947723389,6.7425217628479,0.09801769256591797,-0.23279201984405518,-0.19111354649066925
-3.243999481201172,6.648132801055908,6.774441242218018,0.02506292797625065,-0.31209978461265564,-0.14563027024269104
-2.9977033138275146,6.583815097808838,6.790060997009277,0.035814154893159866,-0.3433586359024048,-0.0820828378200531
-2.8070576190948486,6.476631164550781,6.786182403564453,0.07904595881700516,-0.3131120800971985,-0.0648040771484375
-2.570117950439453,6.324733734130859,6.61341667175293,0.17749997973442078,-0.2327047437429428,-0.0472286082804203
-2.3524467945098877,6.192975997924805,6.545536518096924,0.20870646834373474,-0.18985691666603088,-0.054593898355960846
-2.8864972591400146,6.435077667236328,5.434090614318848,0.1955641359090805,0.14761994779109955,0.019285887479782104
-2.5819549560546875,6.018476963043213,6.575339317321777,0.014782939106225967,-0.24101251363754272,-0.05023057386279106
-2.745239496231079,6.287757396697998,5.949878215789795,-0.2425134927034378,-0.41177552938461304,-0.059149209409952164
-2.420231342315674,5.984890937805176,6.780263900756836,-0.1759815514087677,-0.09145525097846985,-0.042062435299158096
-2.7076408863067627,5.882974624633789,7.652289867401123,0.058887407183647156,0.07936011999845505,-0.06455972790718079
-2.728757858276367,6.076378345489502,7.044219970703125,0.09882054477930069,-0.07358308136463165,-0.08854055404663086
-2.4639110565185547,6.470291614532471,6.165720462799072,-0.0253421813249588,-0.07408922910690308,-0.07698646932840347
-2.5118143558502197,6.44105339050293,6.3980631828308105,-0.02165953628718853,-0.04256857931613922,-0.038117989897727966
-2.477912425994873,6.256910800933838,6.783855438232422,-0.032532937824726105,-0.05216789245605469,-0.022026054561138153
-2.6363415718078613,6.230066776275635,7.006449222564697,-0.002949606394395232,-0.06799802929162979,-0.013212142512202263
-2.737673759460449,6.220767974853516,7.094689846038818,0.0025307273026555777,-0.10609856247901917,0.02914699912071228
-2.5194756984710693,6.073620319366455,6.955912113189697,-8.726646046852693e-05,-0.1607448309659958,0.047944195568561554
-2.4791958332061768,6.119531631469727,6.7338738441467285,0.003351032268255949,-0.1647939831018448,0.05579817667603493
-2.381387948989868,6.142276287078857,6.6000285148620605,0.013281955383718014,-0.14069099724292755,0.08218755573034286
-2.4016714096069336,6.287891864776611,6.548859596252441,-0.010105456225574017,-0.14852751791477203,0.10890854150056839
-2.339125394821167,6.306796073913574,6.571719646453857,-0.05506513640284538,-0.1569400131702423,0.14981906116008759
-2.1004905700683594,6.157369136810303,6.8157172203063965,-0.05230751633644104,-0.15081390738487244,0.17448055744171143
-1.875617504119873,6.040283203125,6.881394863128662,-0.03460988029837608,-0.13700833916664124,0.17402677237987518
-1.751147747039795,5.983387470245361,6.936232089996338,-0.04260348528623581,-0.15142476558685303,0.1538158655166626
-1.6161435842514038,5.9876298904418945,6.874863624572754,-0.06695082783699036,-0.18181094527244568,0.11904890835285187
-1.4667741060256958,5.9547529220581055,6.895300388336182,-0.06749188154935837,-0.16318827867507935,0.08937831223011017
-1.7764114141464233,6.0887322425842285,6.934852600097656,0.11039207130670547,0.045553091913461685,-0.0313984714448452
-1.8611853122711182,6.086175441741943,6.737876892089844,0.2534392476081848,0.28244662284851074,-0.012374384328722954
-2.0002691745758057,6.203309535980225,6.5477681159973145,0.4317246377468109,0.6136053800582886,0.03862413763999939
-2.071693181991577,6.2455525398254395,6.550632476806641,0.5614200830459595,0.8601506352424622,0.08281587064266205
-2.061781167984009,6.173161506652832,6.780216217041016,0.5784718990325928,0.875666618347168,0.09225810319185257
-2.069490432739258,6.10235071182251,6.870698928833008,0.5354146361351013,0.6738192439079285,0.033196162432432175
-2.2951200008392334,6.279310703277588,6.606444835662842,0.37549012899398804,0.38467055559158325,-0.03537782281637192
-2.448798894882202,6.503360271453857,6.381418704986572,0.24965189397335052,0.20155061781406403,-0.03436553105711937
-2.4288792610168457,6.617554187774658,6.452066898345947,0.19116590917110443,0.12566371262073517,-0.024783674627542496
-2.430612564086914,6.646121501922607,6.414745807647705,0.10273008048534393,0.02307325229048729,-0.0228987205773592
-2.4162092208862305,6.627858638763428,6.498351573944092,0.07239625602960587,-0.00043633230961859226,-0.015934856608510017
-2.3570244312286377,6.502957820892334,6.644340515136719,0.12180652469396591,0.06448991596698761,-0.008464846760034561
-2.3688995838165283,6.547691345214844,6.583632946014404,0.1656492054462433,0.12360421568155289,-0.00205948855727911
-2.283388376235962,6.521824359893799,6.4990315437316895,0.13894565403461456,0.09323548525571823,-0.012566370889544487
-1.9697288274765015,6.553715229034424,6.538660526275635,0.1526290476322174,0.0769166573882103,-0.037088245153427124
-2.130801200866699,6.563598155975342,6.882505893707275,0.17992599308490753,0.006352998316287994,-0.06520549952983856
-3.282057762145996,8.129666328430176,0.7901344299316406,-0.8271464109420776,-0.9668251276016235,-0.080075703561306
-1.985923171043396,6.050061225891113,6.983886241912842,-0.8223293423652649,-0.6747093796730042,-0.09932668507099152
-3.019270181655884,6.859358787536621,8.047725677490234,0.0038746309000998735,-0.12088150531053543,0.047996554523706436
-2.451422929763794,6.647175312042236,7.244279384613037,0.17283995449543,0.013316862285137177,0.18496999144554138
-1.24334716796875,6.480950355529785,6.447355270385742,-0.5206491947174072,-0.7851014733314514,0.18592992424964905
-1.0303685665130615,6.397919654846191,6.527139663696289,-0.4092971682548523,-0.5626417994499207,0.18968237936496735
-0.9569336771965027,6.380192756652832,6.805163860321045,-0.3580542802810669,-0.4340808391571045,0.18975219130516052
-1.0116171836853027,6.246270656585693,7.205244541168213,-0.3527834117412567,-0.42987459897994995,0.16406095027923584
-1.0956345796585083,6.1940484046936035,7.439465522766113,-0.3049962818622589,-0.42151445150375366,0.157236710190773
-1.0653334856033325,6.16342306137085,7.2912821769714355,-0.24438099563121796,-0.3989298939704895,0.15690509974956512
-1.0469365119934082,6.14304256439209,7.257390022277832,-0.19718730449676514,-0.3323805034160614,0.16008159518241882
-1.1275156736373901,6.221390247344971,7.1447954177856445,-0.21106266975402832,-0.3186098635196686,0.15966272354125977
-1.0461894273757935,6.218469619750977,7.165146350860596,-0.2505245506763458,-0.33454471826553345,0.18610446155071259
-1.045461654663086,6.181924343109131,7.130075931549072,-0.2952224314212799,-0.35412731766700745,0.21355848014354706
-1.0170568227767944,6.161994934082031,7.282404899597168,-0.30974358320236206,-0.35212016105651855,0.23239058256149292
-0.8673809170722961,6.051784992218018,7.463090419769287,-0.2652376890182495,-0.30401891469955444,0.2609092593193054
-0.7273679971694946,6.010997295379639,7.409728527069092,-0.1912706345319748,-0.20806069672107697,0.2975088357925415
-0.5204706788063049,5.9997639656066895,7.198655605316162,-0.17496925592422485,-0.12603022158145905,0.3193603456020355
-0.40055951476097107,5.894639492034912,7.141692638397217,-0.22345450520515442,-0.1137605607509613,0.3133215010166168
-0.30974265933036804,5.767631530761719,7.3785176277160645,-0.25445154309272766,-0.09815731644630432,0.310424268245697
-0.22616586089134216,5.709347248077393,7.588469982147217,-0.18610446155071259,-0.022270401939749718,0.3029193580150604
-0.16926047205924988,5.728127479553223,7.462152004241943,-0.03487167879939079,0.16296139359474182,0.308260053396225
-0.1767686903476715,5.794992446899414,7.315071105957031,0.07525859773159027,0.34585443139076233,0.3168819844722748
-0.2927151024341583,5.834161758422852,7.387855052947998,0.07145377993583679,0.4064173698425293,0.3196919560432434
-0.36265450716018677,5.679821968078613,7.615179538726807,0.11859512329101562,0.47446775436401367,0.30864402651786804
-0.4672906994819641,5.754386901855469,7.78020715713501,0.2376440316438675,0.5808979272842407,0.3165678083896637
-0.5665925741195679,5.854598522186279,7.628989219665527,0.25162410736083984,0.5107182264328003,0.312274307012558
-0.4323640763759613,5.931299209594727,7.212810039520264,0.011379546485841274,0.2105565220117569,0.2917143404483795
-0.2498684525489807,5.954168796539307,7.0158915519714355,-0.20184732973575592,-0.0002617993741296232,0.2733185589313507
-0.04721365496516228,5.800154685974121,7.227376461029053,-0.14008012413978577,0.14295992255210876,0.2594955563545227
-0.11474929749965668,5.889505863189697,7.470952987670898,0.060440752655267715,0.3581066429615021,0.246527761220932
-0.18835662305355072,5.9743852615356445,7.257447719573975,0.07206464558839798,0.3606373965740204,0.24212951958179474
-0.11844594031572342,6.0551276206970215,7.15266752243042,-0.08634144067764282,0.18901915848255157,0.2136981189250946
-0.17000746726989746,6.169493675231934,7.218278408050537,-0.17386969923973083,0.1077391728758812,0.20006708800792694
-0.1945432424545288,6.036577224731445,7.536487102508545,-0.07850491255521774,0.24237386882305145,0.2211855798959732
-0.300606369972229,5.925696849822998,7.618991374969482,-0.13262757658958435,0.15219271183013916,0.1978854238986969
-0.38759249448776245,5.907491207122803,7.642195701599121,-0.1679355800151825,0.09239772707223892,0.18619172275066376
-0.34083855152130127,5.795615196228027,7.710872173309326,-0.1803448647260666,0.001483529806137085,0.18339920043945312
-0.08108682185411453,5.715677261352539,7.587637901306152,-0.13686871528625488,-0.0005235987482592463,0.15618951618671417
0.12299492210149765,5.573634147644043,7.509949684143066,-0.04054399952292442,0.0694291964173317,0.10752973705530167
0.08477389067411423,5.5500946044921875,7.424572467803955,0.04246386140584946,0.15025539696216583,0.046931903809309006
-0.08172846585512161,5.583920001983643,7.509164333343506,0.05455899238586426,0.15041247010231018,-0.0074525559321045876
-0.1311543583869934,5.574199199676514,7.575531482696533,0.06902777403593063,0.11070623248815536,-0.04016002640128136
-0.19342276453971863,5.68235969543457,7.5040693283081055,0.11960741132497787,0.1578301191329956,-0.07182029634714127
-0.2756875157356262,5.756647109985352,7.496273994445801,0.15559610724449158,0.1883733868598938,-0.08395033329725266
-0.5618903636932373,6.0234761238098145,7.242143630981445,0.18301522731781006,0.21652553975582123,-0.07742280513048172
-0.6694762110710144,6.187517166137695,6.9427056312561035,0.12899728119373322,0.2001718133687973,-0.03378957509994507
-0.6107608079910278,6.173630714416504,7.083159446716309,0.029949849471449852,0.15941837430000305,0.0
-0.573708176612854,5.973226547241211,7.451071262359619,-0.06368706375360489,0.05092870816588402,0.028274333104491234
-0.532250165939331,5.951707363128662,7.468031883239746,-0.025132741779088974,0.1071457639336586,0.028867745772004128
-0.4011053740978241,5.838423252105713,7.438851356506348,-0.0032463124953210354,0.15261158347129822,0.018570303916931152
-0.3555102050304413,5.711368083953857,7.534351348876953,0.01722639985382557,0.1682322919368744,-0.022532200440764427
-0.42085275053977966,5.707709789276123,7.627045154571533,0.03796090930700302,0.139451801776886,-0.0786270797252655
-0.6244077682495117,5.928205966949463,7.488574028015137,0.08398524671792984,0.1382300704717636,-0.11815878748893738
-0.7674565315246582,6.098194122314453,7.449960708618164,0.11672762036323547,0.20064304769039154,-0.1123468428850174
-0.8179071545600891,6.074645042419434,7.657212257385254,0.09615018963813782,0.14032447338104248,-0.11430161446332932
-0.9513599276542664,6.165586471557617,7.671299457550049,0.06574655324220657,0.03361504152417183,-0.112922802567482
-0.91252601146698,6.0994486808776855,7.5380778312683105,0.07597418129444122,-0.02649409882724285,-0.09899507462978363
-0.848773181438446,6.052398204803467,7.44076681137085,0.09457939118146896,-0.02710496261715889,-0.09978047013282776
-1.0924071073532104,6.53061580657959,5.552440643310547,0.23726005852222443,0.1379682719707489,-0.09370672702789307
-1.3514310121536255,6.207599639892578,5.722640037536621,0.20617574453353882,0.5416454672813416,0.03799581900238991
-0.9620476365089417,5.824431896209717,7.611751079559326,-0.0302465558052063,0.06688101589679718,-0.049235738813877106
-1.0697005987167358,6.007032871246338,7.369505882263184,-0.26110124588012695,-0.29857346415519714,-0.11122982949018478
-1.1980584859848022,6.042247772216797,7.731566429138184,0.059236474335193634,0.14271557331085205,-0.05527457594871521
-1.1704485416412354,5.934441566467285,7.689696788787842,0.19287633895874023,0.1961750090122223,-0.02604031190276146
-0.9730226993560791,5.914511203765869,7.096490383148193,0.0792204961180687,0.005166174378246069,-0.07304202765226364
-1.0496562719345093,6.053049087524414,6.991030216217041,-0.05311036854982376,-0.0685565322637558,-0.10290461033582687
-1.0762319564819336,5.981970310211182,7.348733901977539,-0.0342782661318779,-0.01780235767364502,-0.08691739290952682
-1.0507001876831055,5.8753132820129395,7.356396198272705,0.053616516292095184,0.047507863491773605,-0.09049531817436218
-1.105527400970459,5.916512489318848,7.1166300773620605,0.08782497048377991,0.05801474303007126,-0.10794861614704132
-1.0955196619033813,6.02968168258667,6.958287239074707,0.05037020146846771,0.0547335259616375,-0.10953686386346817
-1.3175195455551147,6.013908863067627,7.393275260925293,0.020804325118660927,0.05838126316666603,-0.1111774742603302
-1.4261971712112427,6.038588047027588,7.365090847015381,0.06435029208660126,0.08278096467256546,-0.09377653896808624
-1.4464137554168701,6.1117167472839355,7.232011318206787,0.055693455040454865,0.06981316953897476,-0.06370452046394348
-1.5104155540466309,6.12924337387085,7.147639751434326,0.014154620468616486,0.05134758725762367,-0.04438372328877449
-1.4327667951583862,6.005471706390381,7.1397294998168945,0.00024434609804302454,0.03553490340709686,-0.024434609338641167
-1.3370850086212158,5.821319103240967,7.054993629455566,0.02237512171268463,0.0607723630964756,-0.030927233397960663
-1.3707187175750732,5.788623809814453,6.914818286895752,0.04548327997326851,0.08477064222097397,-0.049497537314891815
-1.4134217500686646,5.805948257446289,6.719728946685791,0.029286624863743782,0.09711012244224548,-0.07569492608308792
-1.575556993484497,5.90398645401001,6.791775226593018,-0.02785545401275158,0.18458601832389832,-0.11765264719724655
-1.7817552089691162,5.878695011138916,7.18687629699707,-0.03378957509994507,0.21739821135997772,-0.1324879378080368
-2.036306858062744,6.088866710662842,7.166477680206299,0.11102039366960526,0.2123192995786667,-0.11053170263767242
-1.9130150079727173,5.978742599487305,7.240544319152832,0.11189305782318115,0.2402096688747406,-0.08637634664773941
-1.8693351745605469,5.897129058837891,7.448447227478027,0.12135273963212967,0.18914133310317993,-0.09232791513204575
-2.0617713928222656,6.06939697265625,7.148942470550537,0.11920598894357681,0.08674286305904388,-0.09574875980615616
-2.1054129600524902,6.1855058670043945,6.699923992156982,0.06230825558304787,0.031119219958782196,-0.06246533244848251
-2.549901247024536,6.630377292633057,4.837264060974121,-0.05513495206832886,0.3384891450405121,0.062168627977371216
-2.223820686340332,6.0428786277771,7.248101711273193,-0.15707963705062866,0.06817255914211273,0.05389576777815819
-2.0949552059173584,5.824259281158447,6.691276550292969,-0.28839820623397827,-0.04836307466030121,0.07457792013883591
-1.8821393251419067,5.785032749176025,6.930026054382324,-0.17615607380867004,0.1534842550754547,0.0846833735704422
-1.8710685968399048,5.751456260681152,7.01830530166626,-0.07476990669965744,0.2813994288444519,0.08311257511377335
-1.8977208137512207,5.810306072235107,6.948518753051758,-0.14161601662635803,0.1930159628391266,0.06014404445886612
-2.1618587970733643,5.858706951141357,7.464536190032959,-0.005427973810583353,0.18444639444351196,-0.014887658879160881
-2.228015184402466,5.9282732009887695,7.36883544921875,-0.03291691094636917,0.13341297209262848,-0.012409291230142117
-2.270277738571167,5.924901962280273,7.3485517501831055,-0.04618141055107117,0.10538297891616821,-0.0034732052590698004
-2.3412132263183594,5.9793267250061035,7.116294860839844,0.07614871859550476,0.20497146248817444,0.03988077491521835
-2.301814079284668,5.931299209594727,7.001009464263916,0.055204764008522034,0.17709855735301971,0.04939281940460205
-2.308537006378174,5.93605899810791,6.910499095916748,-0.013857914134860039,0.09178686141967773,0.05145230516791344
-2.2498600482940674,5.839993953704834,7.035725116729736,0.001658062799833715,0.13035863637924194,0.05677555873990059
-2.212156057357788,5.774048328399658,7.126532554626465,-0.0021293016616255045,0.10648253560066223,0.04040437191724777
-2.300722360610962,5.775187969207764,7.120355606079102,-0.006003932561725378,0.07264060527086258,0.014748032204806805
-2.4558284282684326,5.941134452819824,6.931146621704102,0.0020943949930369854,0.08335692435503006,0.009791296906769276
-2.6024396419525146,6.0624918937683105,6.856572151184082,-0.009529497474431992,0.10114183276891708,0.04014257341623306
-2.555436611175537,6.0047736167907715,6.930313587188721,-0.05590289458632469,0.07791149616241455,0.06382668763399124
-2.2361459732055664,5.968055248260498,6.994449138641357,0.011885692365467548,0.12833406031131744,0.06515314429998398
-2.134018898010254,5.875341892242432,7.138906955718994,0.012217304669320583,0.13351768255233765,0.06585127115249634
-2.0372836589813232,5.76655912399292,7.218681812286377,0.023544492200016975,0.11906635761260986,0.03464478626847267
-2.2881383895874023,5.8816819190979,7.432655334472656,0.05222025141119957,0.06037093698978424,0.017435839399695396
-2.191336154937744,5.934335231781006,7.234463214874268,0.09033824503421783,0.04202752932906151,0.025411993265151978
-2.0970141887664795,5.927430152893066,7.045072078704834,0.10063568502664566,0.026371924206614494,0.01762782596051693
-2.2244813442230225,5.93192195892334,6.8931169509887695,0.020577432587742805,-0.07274532318115234,-0.008691739290952682
-3.0131027698516846,6.670217037200928,4.622542381286621,-0.169907808303833,-0.3205297291278839,-0.008482299745082855
-1.9767773151397705,5.578700542449951,6.82385778427124,-0.3765198886394501,-0.17505651712417603,0.02188642881810665
-2.59359073638916,5.803133964538574,7.800988674163818,-0.08335692435503006,-0.03769911080598831,-0.009721484035253525
-2.3390390872955322,5.733863830566406,7.371143341064453,0.1201135590672493,0.16913986206054688,0.018901916220784187
-2.2197887897491455,5.795442581176758,7.167674541473389,0.14161601662635803,0.18285813927650452,-0.012339477427303791
-2.220315456390381,5.997752666473389,6.860766410827637,0.05345943570137024,0.06771877408027649,-0.03729768469929695
-2.1733028888702393,6.120920181274414,6.509326457977295,-0.014835298992693424,0.01886700838804245,-0.026057764887809753
-2.0711758136749268,6.0697126388549805,6.5652265548706055,-0.040037851780653,0.07728318125009537,-0.0028972465079277754
-2.084190845489502,5.878454685211182,6.939334869384766,-0.05066690966486931,0.1137780100107193,-0.003577925032004714
-2.1527798175811768,5.736861228942871,7.243436813354492,-0.050387654453516006,0.07447320222854614,-0.023055799305438995
-2.292170286178589,5.737570285797119,7.270692348480225,-0.03738495334982872,0.02528982050716877,-0.03651228919625282
-2.291480779647827,5.724775314331055,7.125144004821777,-0.0293738916516304,0.013299409300088882,-0.03179989755153656
-2.517598867416382,5.771941184997559,6.720897197723389,-0.05803219601511955,0.05400048568844795,-0.0351334773004055
-2.458299160003662,5.703160762786865,6.906591892242432,-0.05307546257972717,0.05976007506251335,-0.030857421457767487
-2.5955636501312256,5.772027492523193,6.937093734741211,-0.05740387737751007,0.03914773464202881,-0.030019663274288177
-2.6233937740325928,5.799225330352783,6.921809196472168,-0.07485716789960861,0.030316369608044624,-0.022043507546186447
-2.7275032997131348,5.793134689331055,7.0814738273620605,-0.0777544155716896,0.023893557488918304,-0.02494075521826744
-2.8035430908203125,5.843652248382568,7.178247451782227,-0.0613483227789402,0.01473057921975851,-0.02914699912071228
-2.886152505874634,5.835789680480957,7.094048023223877,-0.0918741300702095,0.0036651913542300463,-0.05017821490764618
-3.04046368598938,5.807049751281738,7.382903575897217,-0.15083135664463043,-0.0483979806303978,-0.0596204474568367
-3.016770601272583,5.731814384460449,7.607270240783691,-0.13899801671504974,-0.08220500499010086,-0.05347688868641853
-2.8739709854125977,5.638124465942383,7.893404960632324,-0.005742133129388094,-0.0768992081284523,-0.06143558770418167
-2.683497667312622,5.729544639587402,7.402861595153809,0.15620696544647217,-0.0114493602886796,-0.07049384713172913
-2.681295156478882,5.947244644165039,7.01615047454834,0.2108183205127716,0.014032446779310703,-0.07630579173564911
-2.7870900630950928,6.106372833251953,6.808956146240234,0.18008306622505188,-0.06037093698978424,-0.055257122963666916
-2.7324256896972656,6.134260654449463,6.755747318267822,0.14810864627361298,-0.12089895457029343,-0.01679006777703762
-2.617178440093994,6.139460563659668,6.638728618621826,0.09372418373823166,-0.09655161201953888,0.04890412464737892
-2.6478240489959717,6.050195217132568,6.799599647521973,0.0455181859433651,-0.12063715606927872,0.04906120523810387
-2.5824432373046875,5.954954147338867,7.01399564743042,0.048171088099479675,-0.12220795452594757,0.03520328924059868
-2.427691698074341,5.832437992095947,7.315971374511719,0.09882054477930069,-0.1281769871711731,-0.012130037881433964
-2.600419044494629,5.976942539215088,7.189280986785889,0.17058847844600677,-0.14039428532123566,-0.06894050538539886
-2.699366569519043,6.134136199951172,6.859952449798584,0.18486528098583221,-0.1446005254983902,-0.06949900835752487
-2.5816006660461426,6.119234561920166,6.772890090942383,0.1736951619386673,-0.15709708631038666,-0.0691499412059784
-2.4640069007873535,6.013650417327881,6.898671627044678,0.18849556148052216,-0.15535175800323486,-0.08421213924884796
-2.4318289756774902,5.900423526763916,7.01083517074585,0.2442239224910736,-0.14561282098293304,-0.09979792684316635
-2.501720428466797,5.968735218048096,7.050607681274414,0.3096737563610077,-0.1517738252878189,-0.11307988315820694
-2.4760162830352783,6.12526798248291,6.789831161499023,0.320302814245224,-0.2056346982717514,-0.10098475217819214
-2.287400960922241,6.112453937530518,6.61341667175293,0.3139323592185974,-0.21439623832702637,-0.09091419726610184
-2.162548303604126,6.056746006011963,6.578921318054199,0.29185396432876587,-0.2039242684841156,-0.11588986217975616
-2.3000519275665283,5.954609394073486,7.03982400894165,0.249477356672287,-0.19971802830696106,-0.20977112650871277
-2.529311180114746,6.013027667999268,7.079127311706543,0.23659683763980865,-0.21561796963214874,-0.2566157579421997
-2.5681259632110596,6.130104064941406,6.903421878814697,0.18739600479602814,-0.2862339913845062,-0.27090999484062195
-2.37798810005188,6.114943981170654,6.770543575286865,0.16526523232460022,-0.2973342835903168,-0.29024824500083923
-2.2874298095703125,6.0738115310668945,6.833606719970703,0.24261821806430817,-0.21134191751480103,-0.3067939877510071
-2.281358003616333,6.136999607086182,6.773695468902588,0.3862413763999939,-0.09386380761861801,-0.30487412214279175
-2.3705086708068848,6.318671703338623,6.48798942565918,0.4118627905845642,-0.041032690554857254,-0.2759016454219818
-2.350924015045166,6.421248912811279,6.59752893447876,0.3625746965408325,-0.08426449447870255,-0.2376440316438675
-2.3105099201202393,6.435585021972656,6.659826278686523,0.24984388053417206,-0.2041860669851303,-0.1996133029460907
-2.610666275024414,6.004657745361328,7.8198933601379395,0.03125884756445885,-0.21839304268360138,-0.09976302087306976
-2.4329111576080322,6.308491230010986,7.0495924949646,0.06731735169887543,-0.26227062940597534,-0.005078908056020737
-1.689635992050171,6.138397693634033,6.875275611877441,-0.006667157635092735,-0.2963743507862091,-0.039531707763671875
-1.5737375020980835,6.277462482452393,6.66016149520874,-0.025307273492217064,-0.37713074684143066,-0.0907396674156189
-1.4007515907287598,6.418797016143799,6.163144111633301,-0.06080726906657219,-0.42678534984588623,-0.0967959612607956
-1.374539852142334,6.548782825469971,6.017337322235107,-0.07993607968091965,-0.32129767537117004,-0.09499827027320862
-1.5421148538589478,6.5449137687683105,6.481142044067383,-0.0890117883682251,-0.220051109790802,-0.0705462098121643
-2.06036376953125,6.226035118103027,7.185678958892822,-0.13753195106983185,-0.30286699533462524,-0.04731587693095207
-2.0322365760803223,6.1550612449646,7.293140411376953,-0.13411110639572144,-0.3145606815814972,-0.02316051907837391
-1.7917438745498657,6.03737211227417,7.292623043060303,-0.11489502340555191,-0.3361853063106537,-0.009826203808188438
-1.5506861209869385,6.049812316894531,7.006573677062988,-0.11339404433965683,-0.3594505488872528,-0.029932396486401558
-1.5970282554626465,6.210798263549805,6.70851469039917,-0.13994050025939941,-0.34691908955574036,-0.03691371530294418
-1.5652811527252197,6.2895965576171875,6.838903903961182,-0.1374097764492035,-0.28131216764450073,-0.008168140426278114
-1.4438471794128418,6.226293563842773,6.9611124992370605,-0.11555825173854828,-0.23584634065628052,0.016842426732182503
-1.2604897022247314,6.091768264770508,7.115164756774902,-0.09731955826282501,-0.20291197299957275,0.028989918529987335
-1.0649312734603882,5.979307651519775,7.281044960021973,-0.034400440752506256,-0.1304459124803543,0.014206980355083942
-1.1055177450180054,6.0030198097229,7.278813362121582,0.017331119626760483,-0.11220721900463104,-0.009669124148786068
-1.1398506164550781,6.119741916656494,7.09913444519043,0.008325220085680485,-0.12973032891750336,-0.01448623277246952
-0.9290459752082825,5.899954319000244,7.30794620513916,-0.045064400881528854,-0.14842279255390167,-0.06944665312767029
-1.1199405193328857,6.01832389831543,7.32457160949707,-0.006579891312867403,-0.116919606924057,-0.09150761365890503
-1.210968017578125,6.080505847930908,7.30654764175415,0.04417428374290466,-0.08311257511377335,-0.08494517207145691
-1.2624433040618896,6.139077663421631,7.086645126342773,0.02427753061056137,-0.0863937959074974,-0.08600982278585434
-1.3295097351074219,6.153452396392822,7.139087677001953,0.04483750835061073,-0.07405432313680649,-0.07347836345434189
-1.273629069328308,6.227691650390625,6.990972995758057,0.04677482321858406,-0.07365289330482483,-0.06103416532278061
-1.2037471532821655,6.168220043182373,6.859752655029297,0.01302015595138073,-0.07785914093255997,-0.04761258140206337
-1.1798529624938965,6.013545036315918,7.038444995880127,-0.019338248297572136,-0.06382668763399124,-0.06089453771710396
-1.3682862520217896,6.033598899841309,7.27090311050415,0.01647590845823288,-0.06459463387727737,-0.0757298395037651
-1.4675018787384033,6.223334312438965,7.038033485412598,0.06181956082582474,-0.041573744267225266,-0.06756169348955154
-1.3927549123764038,6.321889400482178,6.78695821762085,0.054017938673496246,-0.00970403105020523,-0.0388859361410141
-1.298758625984192,6.242497444152832,6.789572715759277,-0.008674286305904388,-0.01788962446153164,-0.027960173785686493
-1.390236258506775,6.214390754699707,7.057675361633301,-0.03534291684627533,-0.0478045679628849,-0.03073524869978428
-1.360883355140686,6.156459808349609,7.189720153808594,0.01539380382746458,-0.01581268385052681,-0.02494075521826744
-1.3458669185638428,6.2318196296691895,7.114934921264648,0.044052109122276306,0.017662731930613518,-0.013910274021327496
-1.3365966081619263,6.209888458251953,7.165414333343506,0.0029845130629837513,-0.016632987186312675,-0.007819075137376785
-1.316389560699463,6.14375114440918,7.2461371421813965,-0.017523106187582016,-0.050823986530303955,-0.009826203808188438
-1.3850551843643188,6.23042106628418,7.008574962615967,0.05766567960381508,-0.05513495206832886,-0.010227628983557224
-1.8265076875686646,6.662306308746338,4.980265140533447,0.12810716032981873,0.2678556740283966,0.08082620054483414
-1.4152029752731323,6.147438049316406,7.45408821105957,0.1327846497297287,0.15193091332912445,0.04221951588988304
-1.2879559993743896,6.242497444152832,6.898125648498535,0.012566370889544487,-0.010506882332265377,0.021816615015268326
-1.2443623542785645,6.256805419921875,6.790348529815674,-0.05832890421152115,-0.023544492200016975,0.015254177153110504
-1.2550692558288574,6.140676975250244,7.277281284332275,0.0008028514566831291,0.058573249727487564,0.02471386268734932
-1.220286250114441,6.0746355056762695,7.293236255645752,0.055257122963666916,0.06592108309268951,0.003577925032004714
-1.407110571861267,6.2124552726745605,7.15847110748291,0.04518657550215721,0.02373647689819336,-0.012601276859641075
-1.4414626359939575,6.2487993240356445,7.070010185241699,0.041434116661548615,0.037891097366809845,0.0022165682166814804
-1.3872003555297852,6.2177510261535645,7.035801887512207,0.08079128712415695,0.07080800831317902,0.006562437862157822
-1.3886082172393799,6.258136749267578,6.778042316436768,0.09328784793615341,0.09697049111127853,-3.490658491500653e-05
-1.4284764528274536,6.273545742034912,6.692348957061768,0.09681341052055359,0.12227776646614075,0.0015009831404313445
-1.5060964822769165,6.267426013946533,6.830235958099365,0.07826056331396103,0.1319119781255722,0.003228859044611454
-1.5416839122772217,6.264744758605957,6.89872932434082,0.06571164727210999,0.11461576819419861,0.0009948377264663577
-1.5833908319473267,6.261871337890625,7.002340793609619,0.012705996632575989,0.027872908860445023,-0.004607669077813625
-1.6153677701950073,6.198003768920898,7.1076579093933105,-0.0008901178953237832,-0.006824237294495106,-0.007138396613299847
-1.6211618185043335,6.192812919616699,7.139537811279297,0.06693337857723236,0.037978366017341614,-5.2359879191499203e-05
-1.5707303285598755,6.222884178161621,6.934996604919434,0.11969467997550964,0.0961850956082344,0.0020943949930369854
-1.5966835021972656,6.279713153839111,6.735808372497559,0.11821115016937256,0.0979304239153862,-0.0091455252841115
-1.662447452545166,6.368815898895264,6.7306084632873535,0.03741985931992531,0.09471901506185532,0.009407324716448784
-1.6729340553283691,6.33154296875,6.8214826583862305,0.05996951460838318,0.12061970680952072,0.02338741160929203
-1.4169363975524902,6.272645473480225,7.008488655090332,0.009773843921720982,0.03827507048845291,0.030752701684832573
-1.3423713445663452,6.17435884475708,7.136913776397705,0.04029965400695801,0.0478045679628849,-0.005288347601890564
-1.623508095741272,6.3692851066589355,7.074492454528809,0.08016297221183777,0.034924037754535675,-0.020123645663261414
-2.0136096477508545,6.9889235496521,5.041499137878418,0.06819001585245132,-0.013456488028168678,0.004153883550316095
-1.5392417907714844,6.314313888549805,6.422426700592041,-0.10290461033582687,0.09251990169286728,0.05075417459011078
-1.8438129425048828,6.3506388664245605,7.358310699462891,-0.027663469314575195,-0.022619467228651047,0.007888888008892536
-1.6219470500946045,6.283917427062988,6.948213577270508,0.023509584367275238,0.03724532574415207,0.017959438264369965
-1.6203573942184448,6.281350612640381,6.9230265617370605,0.05133013427257538,0.08257152885198593,0.014713125303387642
-1.6666324138641357,6.467705726623535,6.873053550720215,0.06464699655771255,0.06227334588766098,0.013281955383718014
-1.6260842084884644,6.518138408660889,6.759349346160889,0.037367500364780426,0.01326450239866972,0.0161268413066864
-1.4475630521774292,6.52006196975708,6.511366367340088,-0.026773350313305855,-0.028047440573573112,0.016842426732182503
-1.4047163724899292,6.45934534072876,6.77736234664917,-0.031031953170895576,-0.00045378561480902135,0.020315632224082947
-1.437976598739624,6.324647426605225,7.082335472106934,-0.010471975430846214,0.019896753132343292,0.011658798903226852
-1.7098908424377441,6.527945041656494,6.679190635681152,0.03214896470308304,-0.04902629926800728,-0.053354714065790176
-1.6984179019927979,6.500094413757324,6.629180431365967,0.009843656793236732,-0.04389503225684166,-0.04438372328877449
-1.7213926315307617,6.478240489959717,6.666069984436035,-0.022130774334073067,-0.06373942643404007,-0.03460988029837608
-1.6231250762939453,6.427761077880859,6.706512928009033,-0.0019373154500499368,-0.03269001841545105,-0.03118903376162052
-1.6850295066833496,6.444194793701172,6.80856466293335,0.04565781354904175,0.009564404375851154,-0.02715732343494892
-1.6191602945327759,6.438084602355957,6.5672760009765625,0.04180063679814339,0.00708603672683239,-0.021799162030220032
-1.5217736959457397,6.3607330322265625,6.691333770751953,0.0041015236638486385,0.01061160210520029,-0.025411993265151978
-1.486655592918396,6.282126426696777,6.7964582443237305,0.010925761424005032,0.018221236765384674,-0.032707471400499344
-1.4895477294921875,6.266669273376465,7.012722015380859,0.054367005825042725,0.04848524555563927,-0.053215090185403824
-1.675998568534851,6.359727382659912,7.185046672821045,0.08477064222097397,0.02569124661386013,-0.060301125049591064
-1.6620930433273315,6.3788042068481445,7.118058204650879,0.08665559440851212,-0.03378957509994507,-0.05578072369098663
-1.454649806022644,5.916675567626953,7.30579137802124,-0.22965042293071747,-0.13320352137088776,0.004764748737215996
-2.158602476119995,6.262417316436768,7.246204376220703,0.04150392860174179,-0.08213519304990768,0.012287117540836334
