accX,accY,accZ,gyroX,gyroY,gyroZ
-1.1075778007507324,3.087937593460083,8.714061737060547,-0.9524514675140381,-0.7696308493614197,0.15432563424110413
-0.9400802254676819,2.7957141399383545,8.991928100585938,-0.8555153012275696,-0.5663045048713684,0.19800019264221191
-0.7483552694320679,2.6449663639068604,9.181260108947754,-0.7660356760025024,-0.4288894534111023,0.23528334498405457
-0.6119644045829773,2.767000198364258,9.894919395446777,-0.5829487442970276,-0.2371474951505661,0.2619141638278961
0.32243284583091736,2.1251256465911865,8.606085777282715,-0.3699021637439728,0.23142187297344208,-0.008655018173158169
0.14027923345565796,1.7775681018829346,9.818349838256836,-0.3560541272163391,0.47003406286239624,-0.0874822586774826
-0.07058826833963394,1.8496519327163696,10.148858070373535,-0.2687050402164459,0.3805544972419739,-0.07576470077037811
-0.6382854580879211,0.8482556343078613,9.815957069396973,0.12636326253414154,0.11318100988864899,0.18521739542484283
-0.9496514797210693,1.090229868888855,9.89013385772705,0.0017310036346316338,-0.1423417627811432,0.06697652488946915
-0.5781657695770264,2.208874464035034,9.9981107711792,-0.19946488738059998,-0.46830305457115173,-0.008655018173158169
0.18335004150867462,1.8400806188583374,9.937990188598633,-0.18242116272449493,-0.5993267297744751,-0.04274247586727142
0.6409773826599121,1.1787642240524292,9.21715259552002,-0.07483261823654175,-0.584413468837738,-0.20678836107254028
0.5763711333274841,1.9453648328781128,8.639585494995117,0.0560578890144825,-0.2797568142414093,-0.34726595878601074
0.2602194547653198,2.1873390674591064,8.57019329071045,0.15725502371788025,-0.05938674136996269,-0.3291569948196411
-0.28594231605529785,2.3958137035369873,8.579764366149902,0.36071452498435974,0.38161972165107727,-0.20252743363380432
-0.46091747283935547,2.513062000274658,9.609874725341797,0.4842815697193146,0.6861432194709778,-0.0778951644897461
-0.4824528694152832,2.4699912071228027,10.160821914672852,0.5746932029724121,0.7159697413444519,-0.044872939586639404
-0.29790642857551575,2.2184457778930664,10.10578727722168,0.7078473567962646,0.5114449858665466,-0.16098333895206451
-0.9448658227920532,3.1767711639404297,9.415757179260254,0.3404751121997833,-0.11477886140346527,-0.4378107786178589
-0.5446662306785583,3.2700912952423096,8.63479995727539,0.02623136341571808,-0.4469984173774719,-0.4921376705169678
-0.49202415347099304,3.234198808670044,8.349754333496094,-0.04300878196954727,-0.2818872928619385,-0.4037233293056488
-0.5518447160720825,2.589632272720337,9.415757179260254,-0.06204982474446297,0.08974587917327881,-0.24939768016338348
-0.6765705943107605,2.7263224124908447,9.262616157531738,0.8410014510154724,1.0280829668045044,-0.1407439112663269
-0.7890332937240601,2.7071797847747803,9.578767776489258,0.773891806602478,0.9801475405693054,-0.10026505589485168
-0.8632107973098755,2.6087749004364014,9.794421195983887,0.6311505436897278,0.6573819518089294,-0.1418091505765915
-0.9472586512565613,2.884547710418701,9.317651748657227,0.48534679412841797,0.3805544972419739,-0.22915825247764587
-1.0357930660247803,2.96111798286438,9.082855224609375,0.46510738134384155,0.326227605342865,-0.27283281087875366
-1.2921242713928223,3.2461631298065186,9.099605560302734,0.4469984173774719,0.29853156208992004,-0.30478981137275696
-0.9448658227920532,3.040081262588501,9.087641716003418,0.45445504784584045,0.2580527067184448,-0.3312874734401703
-0.8177471160888672,2.9659037590026855,8.759525299072266,0.4693683087825775,0.25698745250701904,-0.4335498511791229
-1.1461620330810547,3.258127212524414,8.704490661621094,0.40119338035583496,0.218639075756073,-0.514507532119751
-1.184447169303894,3.2318060398101807,8.735597610473633,0.2584521770477295,0.132355198264122,-0.5390079021453857
-1.1676974296569824,3.0831520557403564,9.11874771118164,0.21264714002609253,0.12702903151512146,-0.575225830078125
-1.373480200767517,3.1839497089385986,9.073284149169922,0.3639102280139923,0.22076953947544098,-0.6007914543151855
-1.4814562797546387,3.265305519104004,8.869595527648926,0.4608464241027832,0.2729659676551819,-0.5848129391670227
-1.4814562797546387,3.382553815841675,8.920144081115723,0.4736292362213135,0.27616167068481445,-0.5784215331077576
-1.4934204816818237,3.552743434906006,8.838488578796387,0.5322170257568359,0.26657456159591675,-0.5794867873191833
-1.3806586265563965,3.6966118812561035,8.601300239562988,0.5651060938835144,0.19946488738059998,-0.5954652428627014
-1.4934204816818237,3.7827534675598145,8.356932640075684,0.5959978699684143,-0.021038351580500603,-0.6636402010917664
-1.5460625886917114,3.64127779006958,8.213363647460938,0.3436708152294159,-0.26377832889556885,-0.805316150188446
-2.458625316619873,3.3538401126861572,9.140283584594727,-0.11637670546770096,-0.5183690190315247,-1.0118381977081299
-2.509173631668091,3.243770122528076,9.193224906921387,-0.1749645173549652,-0.631283700466156,-1.0246210098266602
-2.3437697887420654,2.8124639987945557,9.463912963867188,-0.06524552404880524,-0.6557840704917908,-1.0374038219451904
-2.518744945526123,3.087937593460083,10.295119285583496,0.0017310036346316338,-0.951785683631897,-1.1109049320220947
-2.844467878341675,3.780360698699951,9.753743171691895,0.09121058136224747,-1.1776151657104492,-1.0501866340637207
-2.5307090282440186,4.060619831085205,8.606085777282715,0.09227581322193146,-1.0444610118865967,-0.9447285532951355
-2.068295955657959,3.9672999382019043,8.313861846923828,0.04434032365679741,-0.6557840704917908,-0.874556303024292
-1.3926228284835815,3.329911708831787,8.816953659057617,0.000665770610794425,-0.4171718955039978,-0.874556303024292
-1.1315059661865234,2.6952157020568848,9.044570922851562,-0.012117025442421436,-0.5332822799682617,-1.002251148223877
-1.6250256299972534,2.71435809135437,8.816953659057617,-0.0504654161632061,-0.6472622156143188,-1.0821435451507568
-2.358126640319824,2.970689296722412,8.934500694274902,-0.1430075317621231,-0.7685656547546387,-1.0832087993621826
-2.4972095489501953,2.937189817428589,9.054141998291016,-0.0504654161632061,-0.6430012583732605,-0.9255543351173401
-2.286342144012451,2.8579275608062744,8.898308753967285,0.19027724862098694,-0.29680055379867554,-0.7754896283149719
-2.255235433578491,2.8435707092285156,8.697312355041504,0.3852148950099945,-0.010386021807789803,-0.6796186566352844
-2.3844478130340576,2.999403238296509,8.40030288696289,0.4395417869091034,0.03967992961406708,-0.6572487950325012
-2.5618157386779785,3.1983065605163574,8.304290771484375,0.3564535975456238,-0.07003907114267349,-0.6657706499099731
-2.674278497695923,3.3346974849700928,8.503194808959961,0.29786577820777893,-0.19027724862098694,-0.6572487950325012
-2.487638235092163,3.128615617752075,8.472087860107422,0.33621418476104736,-0.24140843749046326,-0.6604444980621338
-2.4996023178100586,3.0616166591644287,8.34736156463623,0.354323148727417,-0.23288656771183014,-0.7169018387794495
-2.8803603649139404,3.1238300800323486,8.318648338317871,0.3298227787017822,-0.22223423421382904,-0.7477935552597046
-2.9593234062194824,3.025724172592163,8.543871879577637,0.3213009238243103,-0.19240771234035492,-0.720097541809082
-3.0194430351257324,2.999403238296509,8.541479110717773,0.37030163407325745,-0.1295589655637741,-0.6636402010917664
-3.0361928939819336,3.0209386348724365,8.639585494995117,0.31810522079467773,-0.15938548743724823,-0.6679010987281799
-3.009572744369507,3.1576285362243652,8.55583667755127,0.26484355330467224,-0.22436471283435822,-0.696662425994873
-2.9688947200775146,3.234198808670044,8.507980346679688,0.22969086468219757,-0.24566936492919922,-0.7169018387794495
-2.971287488937378,3.3155548572540283,8.505587577819824,0.19027724862098694,-0.27230018377304077,-0.7371412515640259
-2.8588249683380127,3.3562328815460205,8.311469078063965,0.1306242048740387,-0.3095833361148834,-0.7584459185600281
-2.518744945526123,3.4737801551818848,8.031209945678711,0.1956034153699875,-0.1934729516506195,-0.7861419916152954
-2.758326292037964,3.428316593170166,8.124829292297363,0.2669740319252014,-0.10199606418609619,-0.7797505855560303
-3.127120018005371,3.722932815551758,8.36411190032959,0.2509955167770386,-0.24247366189956665,-0.7499240636825562
-2.8181469440460205,3.5671002864837646,7.7700934410095215,0.1625811904668808,-0.36817115545272827,-0.7339455485343933
-2.6407787799835205,3.528815269470215,7.729415416717529,0.1316894292831421,-0.25206077098846436,-0.7680330276489258
-2.7846474647521973,3.5120654106140137,7.7007012367248535,0.07842778414487839,-0.17536398768424988,-0.7872071862220764
-2.9449665546417236,3.528815269470215,8.028817176818848,0.03049229457974434,-0.1423417627811432,-0.7488588094711304
-2.971287488937378,3.3801610469818115,8.474480628967285,0.05073172226548195,-0.16471165418624878,-0.7318150997161865
-2.9066812992095947,3.279662609100342,8.330612182617188,0.13595037162303925,-0.11051792651414871,-0.7179670333862305
-3.0505497455596924,3.203092098236084,8.256434440612793,0.0880148783326149,-0.08388710021972656,-0.7105104327201843
-3.0290143489837646,3.2557342052459717,8.443373680114746,0.09440627694129944,-0.08495233207941055,-0.720097541809082
-3.002394199371338,3.2676985263824463,8.620442390441895,0.1508636325597763,-0.1295589655637741,-0.7307498455047607
-3.230011463165283,3.320340633392334,8.74038314819336,0.1742987483739853,-0.21264714002609253,-0.7477935552597046
-3.646960735321045,3.61017107963562,9.030213356018066,0.15832026302814484,-0.2999962568283081,-0.7169018387794495
-3.3403804302215576,3.6125640869140625,8.852845191955566,0.17962491512298584,-0.32662707567214966,-0.6551182866096497
-3.062513828277588,3.5886356830596924,8.749954223632812,0.23182134330272675,-0.2882786989212036,-0.6178351640701294
-2.775076150894165,3.5407793521881104,8.505587577819824,0.37243208289146423,-0.205190509557724,-0.5464645624160767
-2.6623141765594482,3.4737801551818848,8.170292854309082,0.41184571385383606,-0.15618979930877686,-0.529420793056488
-3.0577282905578613,3.6580276489257812,8.26121997833252,0.44380271434783936,-0.06577813625335693,-0.5187684893608093
-3.2925238609313965,3.79471755027771,8.368897438049316,0.4501941204071045,-0.05193011090159416,-0.4814853370189667
-3.290131092071533,3.6125640869140625,8.572586059570312,0.4054543077945709,-0.10625699162483215,-0.40798425674438477
-3.436093330383301,3.6197423934936523,8.8648099899292,0.37349733710289,-0.21158191561698914,-0.4292888939380646
-3.4791641235351562,3.79471755027771,8.56301498413086,0.4384765326976776,-0.2712349593639374,-0.444202184677124
-3.203690528869629,3.8066816329956055,8.052745819091797,0.5141080617904663,-0.2041252851486206,-0.4133104085922241
-3.0888350009918213,4.101297855377197,8.026424407958984,0.5194342732429504,0.005592473316937685,-0.34513550996780396
-3.4432718753814697,4.208974838256836,8.26121997833252,0.5173037648200989,0.026897134259343147,-0.3037245571613312
-3.6349966526031494,4.6402812004089355,7.935497283935547,0.39054104685783386,-0.2477998286485672,-0.32596129179000854
-3.086441993713379,3.842574119567871,7.8179497718811035,0.31917044520378113,-0.2382127344608307,-0.3291569948196411
-2.6647071838378906,3.8138601779937744,8.242077827453613,0.05925358831882477,-0.5194342732429504,-0.4399412274360657
-3.0601210594177246,4.125226020812988,8.534300804138184,0.03368799388408661,-0.5545869469642639,-0.4665720760822296
-2.9976086616516113,4.07258415222168,8.460124015808105,0.08268871158361435,-0.4928034245967865,-0.4260932207107544
-2.6240291595458984,3.828217029571533,8.002495765686035,0.2360822707414627,-0.29360485076904297,-0.31424373388290405
-2.7197420597076416,3.8760735988616943,8.280363082885742,0.28508299589157104,-0.10625699162483215,-0.3206351399421692
-2.9521448612213135,4.01754903793335,8.313861846923828,0.21158191561698914,-0.20838621258735657,-0.3111811876296997
-2.964108943939209,3.9529430866241455,8.191828727722168,0.23182134330272675,-0.2062557488679886,-0.2973331809043884
-2.738884687423706,3.801896095275879,7.990531921386719,0.26271310448646545,-0.14447222650051117,-0.2983984053134918
-2.6192433834075928,3.864109516143799,8.1224365234375,0.2573869228363037,-0.13488513231277466,-0.30798548460006714
-2.501995086669922,3.8449668884277344,8.158329010009766,0.270169734954834,-0.13381989300251007,-0.2994636297225952
-2.23848557472229,3.82582426071167,8.095816612243652,0.3330184817314148,-0.0583215095102787,-0.30692026019096375
-2.0946171283721924,3.9744784832000732,7.99292516708374,0.34793174266815186,-0.0050598569214344025,-0.3195699155330658
-2.168794631958008,3.895216226577759,8.14397144317627,0.31917044520378113,0.026897134259343147,-0.33554840087890625
-2.338984251022339,4.185046672821045,8.266005516052246,0.28721344470977783,-0.11690932512283325,-0.3515268862247467
-2.2432711124420166,3.7348971366882324,7.880462169647217,0.09973244369029999,-0.33940985798835754,-0.3920057415962219
-1.9462621212005615,3.895216226577759,8.905488014221191,-0.0695064514875412,-0.5812177658081055,-0.3930709958076477
-1.9244276285171509,4.101297855377197,8.584549903869629,-0.03022598661482334,-0.5833482146263123,-0.3280917704105377
-1.306481122970581,3.9071803092956543,8.673383712768555,-0.11850717663764954,-0.4821510910987854,-0.38348388671875
-1.3854442834854126,3.7660038471221924,8.821739196777344,-0.17176882922649384,-0.5620435476303101,-0.4122451841831207
-1.428814172744751,3.8377883434295654,9.034998893737793,-0.19413872063159943,-0.6174356937408447,-0.43248459696769714
-1.5364912748336792,3.988835334777832,8.783453941345215,-0.1430075317621231,-0.6121095418930054,-0.43141937255859375
-1.5340983867645264,4.163511276245117,8.191828727722168,-0.279357373714447,-0.5290213227272034,-0.3536573648452759
-0.9281160831451416,3.842574119567871,8.282755851745605,-0.40612009167671204,-0.5449998378753662,-0.34620073437690735
-1.2059825658798218,3.655634880065918,8.440980911254883,-0.4327509105205536,-0.38947582244873047,-0.33554840087890625
-0.9520443081855774,3.4378879070281982,8.613264083862305,-0.4412727653980255,-0.3415403366088867,-0.2888112962245941
-0.7292127013206482,3.2676985263824463,9.17886734008789,-0.37309786677360535,-0.22969086468219757,-0.28241991996765137
-0.7890332937240601,3.3107693195343018,8.70927619934082,-0.03342168778181076,0.05565842613577843,-0.24087581038475037
-0.8201399445533752,3.406482219696045,8.632407188415527,-0.02170412242412567,0.1664426624774933,-0.20998406410217285
-0.8105686902999878,3.4307093620300293,8.673383712768555,-0.06737598776817322,0.16963836550712585,-0.20785360038280487
-0.7746763229370117,3.459423303604126,8.927322387695312,-0.13128997385501862,0.16857312619686127,-0.21211452782154083
-0.8464609980583191,3.4881372451782227,9.097212791442871,-0.13555090129375458,0.1643121987581253,-0.21211452782154083
-1.3423734903335571,3.6053855419158936,9.336793899536133,-0.12063764035701752,0.11744193732738495,-0.18761417269706726
-0.9305089116096497,3.274876832962036,9.186046600341797,-0.01637795753777027,0.111050546169281,-0.09600412845611572
-0.8560323119163513,3.2676985263824463,9.030213356018066,0.0347532257437706,0.1856168508529663,-0.08428656309843063
-0.9735797047615051,3.258127212524414,9.046963691711426,0.04114462435245514,0.21650861203670502,-0.07256899774074554
-1.2705888748168945,3.2078778743743896,9.097212791442871,0.02303566411137581,0.22396524250507355,-0.0555252730846405
-1.5532410144805908,3.1671998500823975,9.181260108947754,-0.07696308940649033,0.11531147360801697,-0.058720968663692474
-1.7042878866195679,3.3729825019836426,8.766703605651855,0.09973244369029999,0.08974587917327881,-0.0033288532868027687
-1.9052850008010864,3.4785659313201904,8.579764366149902,0.12636326253414154,0.15046416223049164,0.03928046673536301
-2.0180468559265137,3.4331023693084717,8.567800521850586,0.08694964647293091,0.2079867422580719,0.052063263952732086
-2.154437780380249,3.4857444763183594,8.809774398803711,0.008122402243316174,0.2292914092540741,0.058454662561416626
-2.245664119720459,3.047259569168091,9.17886734008789,0.06351451575756073,0.10785484313964844,0.18308693170547485
-2.3030917644500732,3.0903303623199463,8.979964256286621,0.13701559603214264,0.13661614060401917,0.19160878658294678
-2.6192433834075928,3.227020502090454,8.699705123901367,0.17536398768424988,0.15259462594985962,0.18734785914421082
-2.6886353492736816,3.224627733230591,8.601300239562988,0.16577689349651337,0.1536598652601242,0.19373925030231476
-2.7173492908477783,3.219841957092285,8.522336959838867,0.13488513231277466,0.14726845920085907,0.20332635939121246
-2.4681966304779053,3.102294445037842,8.206185340881348,0.07416684925556183,0.12489857524633408,0.19373925030231476
-2.5139594078063965,3.0855448246002197,8.251648902893066,0.03049229457974434,0.14726845920085907,0.1788259893655777
-2.5546371936798096,3.0855448246002197,8.421838760375977,0.014513799920678139,0.14833369851112366,0.17989122867584229
-2.5761725902557373,2.932404041290283,8.567800521850586,0.02623136341571808,0.1557903289794922,0.18308693170547485
-2.557030200958252,3.040081262588501,8.196614265441895,0.08908011019229889,0.19946488738059998,0.16071702539920807
-2.767897605895996,3.056830883026123,8.309076309204102,0.09547150880098343,0.2719007432460785,0.16604319214820862
-2.892324447631836,3.0592236518859863,8.7236328125,-0.08655018359422684,0.06418029218912125,0.13941237330436707
-2.8636105060577393,3.2940194606781006,8.692526817321777,-0.1557903289794922,-0.05938674136996269,0.12769481539726257
-2.5618157386779785,3.142972469329834,8.625227928161621,-0.0238345880061388,0.1227681040763855,0.15219517052173615
-2.5067808628082275,3.126222848892212,8.661419868469238,-0.06524552404880524,0.019440501928329468,0.11810771375894547
-2.573779821395874,3.2054851055145264,8.397910118103027,-0.12170287221670151,-0.03169068321585655,0.0829550251364708
-2.760719060897827,3.3346974849700928,8.474480628967285,-0.12383333593606949,0.013049104250967503,0.07443315535783768
-2.775076150894165,3.2844481468200684,8.51755142211914,-0.1334204375743866,0.03435376659035683,0.07869409024715424
-2.789433002471924,3.2533414363861084,8.4529447555542,-0.11744193732738495,0.04713656008243561,0.07975932210683823
-2.98085880279541,3.2150564193725586,8.951250076293945,-0.1334204375743866,0.06204982474446297,0.08934641629457474
-3.10319185256958,3.3323047161102295,9.48784065246582,-0.21224768459796906,-0.16684211790561676,0.10106398165225983
-2.760719060897827,3.188735246658325,8.965607643127441,-0.01744319126009941,-0.06364767253398895,0.0925421193242073
-2.5689942836761475,3.142972469329834,8.606085777282715,-0.008921326138079166,-0.05725627392530441,0.0712374597787857
-2.171187400817871,3.0975089073181152,8.541479110717773,-0.04194355010986328,-0.10412652790546417,0.024367205798625946
-2.1185452938079834,3.243770122528076,8.500801086425781,-0.0025299284607172012,-0.06045197322964668,-0.012915950268507004
-2.2743778228759766,3.4546377658843994,8.766703605651855,-0.03448691964149475,-0.06471290439367294,-0.004394086077809334
-1.994118571281433,3.358625650405884,8.754739761352539,-0.01637795753777027,-0.0061250897124409676,0.030758604407310486
-1.9510477781295776,3.320340633392334,8.745168685913086,0.01877473294734955,0.05352795869112015,0.028628136962652206
-1.9630118608474731,3.351447105407715,8.996713638305664,0.07310161739587784,0.09507204592227936,0.022236740216612816
-1.7617156505584717,3.361018419265747,8.812167167663574,0.0880148783326149,0.03328853100538254,-0.0011983871227130294
-1.6465610265731812,3.545564889907837,8.373682975769043,0.11038476973772049,0.03328853100538254,-0.028894444927573204
-1.4623137712478638,3.5024940967559814,8.182256698608398,0.06990591436624527,0.07270215451717377,-0.026763979345560074
-1.4383854866027832,3.406482219696045,8.397910118103027,-0.0588541254401207,0.05565842613577843,-0.03848154470324516
-1.3423734903335571,3.3418760299682617,8.682954788208008,-0.16111649572849274,0.011983871459960938,-0.04913387447595596
-1.1748759746551514,3.250948667526245,8.883952140808105,-0.12063764035701752,0.04394086077809334,-0.06298190355300903
-1.179661512374878,3.265305519104004,8.70209789276123,-0.03129122033715248,0.09826774895191193,-0.09280842542648315
-1.2586246728897095,3.384946823120117,8.728418350219727,0.004926702938973904,0.1334204375743866,-0.10985215753316879
-1.3902299404144287,3.5168511867523193,8.685347557067871,-0.07270215451717377,0.08335448056459427,-0.10665645450353622
-1.5029916763305664,3.483351469039917,9.106783866882324,-0.09187635034322739,0.09933298081159592,-0.08961272984743118
-1.77607262134552,3.445066452026367,9.12831974029541,-0.03129122033715248,0.13448566198349,-0.05659050494432449
-2.0730817317962646,3.483351469039917,9.130712509155273,-0.0014646954368799925,0.14939893782138824,-0.009720250964164734
-2.1185452938079834,3.282055377960205,9.051749229431152,-0.07270215451717377,0.07802832126617432,0.06697652488946915
-1.9797616004943848,3.3634114265441895,8.601300239562988,-0.03661738336086273,0.09294158220291138,0.061650361865758896
-2.108973979949951,3.4139597415924072,8.512765884399414,0.0027962366584688425,0.17176882922649384,0.09893351793289185
-2.1352951526641846,3.2389845848083496,8.515158653259277,0.000665770610794425,0.17816022038459778,0.1351514458656311
-2.310270309448242,3.459423303604126,8.956035614013672,-0.05352795869112015,0.11957240849733353,0.13195574283599854
-2.5211377143859863,3.5264222621917725,9.00389289855957,-0.03768261894583702,0.08441971987485886,0.15219517052173615
-2.478066921234131,3.483351469039917,8.656634330749512,0.02410089783370495,0.1856168508529663,0.17030413448810577
-2.2432711124420166,3.203092098236084,8.484051704406738,0.015579032711684704,0.23355233669281006,0.14367330074310303
-2.2959132194519043,3.1094729900360107,8.507980346679688,-0.005725627299398184,0.21224768459796906,0.10212921351194382
-2.5522444248199463,3.1381869316101074,8.42423152923584,-0.07057169079780579,0.09933298081159592,0.021171506494283676
-2.8660032749176025,3.5479576587677,8.558229446411133,-0.12489857524633408,-0.0007989247678779066,0.07762885838747025
-2.7774689197540283,3.4713873863220215,8.63479995727539,-0.0588541254401207,0.12915951013565063,0.13408620655536652
-2.8516464233398438,3.327518939971924,8.620442390441895,-0.01957365684211254,0.20479105412960052,0.14793424308300018
-3.093620538711548,3.210270643234253,8.951250076293945,-0.08655018359422684,0.1760297566652298,0.13195574283599854
-3.220440149307251,3.056830883026123,9.082855224609375,-0.1430075317621231,0.07696308940649033,0.11810771375894547
-3.182155132293701,3.272484064102173,8.522336959838867,0.000665770610794425,0.12170287221670151,0.09467258304357529
-3.31884503364563,3.418745279312134,8.323433876037598,0.06457975506782532,0.16750788688659668,0.1138467788696289
-3.1941192150115967,3.4570305347442627,8.316255569458008,0.04220985993742943,0.1643121987581253,0.12662957608699799
-3.0505497455596924,3.500101327896118,8.541479110717773,-0.013182258233428001,0.08761541545391083,0.09147688746452332
-2.94975209236145,3.5742788314819336,8.419445991516113,-0.0588541254401207,-0.026364516466856003,0.042476166039705276
-2.9042885303497314,3.655634880065918,8.493622779846191,-0.08761541545391083,-0.11051792651414871,0.009453942999243736
-2.9425735473632812,3.617349624633789,8.440980911254883,-0.03874785080552101,-0.08708280324935913,0.013714875094592571
-2.861217737197876,3.5336008071899414,8.42423152923584,0.02303566411137581,-0.026364516466856003,0.038215234875679016
-2.8013970851898193,3.384946823120117,8.69491958618164,0.01877473294734955,-0.11477886140346527,0.031823836266994476
-2.971287488937378,3.408874988555908,8.699705123901367,0.09547150880098343,-0.10732222348451614,0.006258244160562754
-3.0984063148498535,3.4498519897460938,8.685347557067871,0.14979839324951172,-0.13808083534240723,-0.009720250964164734
-2.94975209236145,3.4331023693084717,8.661419868469238,0.12210233509540558,-0.2509955167770386,-0.028894444927573204
-2.6479573249816895,3.344268798828125,8.726025581359863,0.08375394344329834,-0.3639102280139923,-0.07469946891069412
-2.5307090282440186,3.3394830226898193,8.659027099609375,0.09653674066066742,-0.40332385897636414,-0.12263495475053787
-2.355733871459961,3.368196964263916,8.70927619934082,0.13808083534240723,-0.41078048944473267,-0.15033100545406342
-2.2600209712982178,3.3897323608398438,8.656634330749512,0.14447222650051117,-0.4395417869091034,-0.16098333895206451
-2.192722797393799,3.531208038330078,8.421838760375977,0.12636326253414154,-0.4587159752845764,-0.17802706360816956
-2.3222343921661377,3.684647798538208,8.450551986694336,0.08694964647293091,-0.4097152650356293,-0.16098333895206451
-2.365305185317993,3.624528169631958,8.678169250488281,0.05179695412516594,-0.39373674988746643,-0.14500483870506287
-2.3294129371643066,3.490530014038086,9.027820587158203,0.013448567129671574,-0.40012815594673157,-0.13328728079795837
-2.14725923538208,3.1983065605163574,9.42772102355957,-0.015312724746763706,-0.45445504784584045,-0.13435252010822296
-2.0635104179382324,3.1381869316101074,9.52612590789795,-0.012117025442421436,-0.4949339032173157,-0.14926578104496002
-1.9510477781295776,3.102294445037842,9.576375007629395,0.03049229457974434,-0.569500207901001,-0.15459194779396057
-1.7904295921325684,3.217449188232422,9.231510162353516,0.14553746581077576,-0.5481955409049988,-0.13541774451732635
-1.7832510471343994,3.655634880065918,8.196614265441895,0.3340837061405182,-0.32662707567214966,-0.04274247586727142
-1.3112667798995972,3.3897323608398438,9.085248947143555,0.13595037162303925,-0.40012815594673157,-0.15778763592243195
-1.0357930660247803,3.3251261711120605,8.814560890197754,0.1934729516506195,-0.3095833361148834,-0.15778763592243195
-0.968794047832489,3.186342477798462,8.883952140808105,0.1402112990617752,-0.24140843749046326,-0.1737661361694336
-1.0716854333877563,2.9515466690063477,9.135498046875,0.05712312087416649,-0.26271310448646545,-0.21957115828990936
-1.1772687435150146,2.9874391555786133,8.726025581359863,0.04434032365679741,-0.24353890120983124,-0.23341917991638184
-1.5053845643997192,3.071187973022461,8.270791053771973,0.16790735721588135,-0.027429750189185143,-0.151396244764328
-1.2729816436767578,3.171985626220703,8.40030288696289,-0.007856093347072601,-0.2158428430557251,-0.14500483870506287
-1.0286146402359009,3.248555898666382,8.596514701843262,-0.13874660432338715,-0.3404751121997833,-0.1833532303571701
-1.0501500368118286,3.468994617462158,8.778668403625488,-0.13768136501312256,-0.3106485903263092,-0.18761417269706726
-0.9975079298019409,3.5742788314819336,8.891130447387695,-0.0025299284607172012,-0.13701559603214264,-0.14393961429595947
-0.7363911867141724,3.3945181369781494,8.932107925415039,0.05818835273385048,-0.04234301298856735,-0.1087869256734848
-0.597308337688446,3.241377353668213,9.109176635742188,-0.08441971987485886,-0.1423417627811432,-0.14820054173469543
-0.722034215927124,3.1911280155181885,9.298508644104004,-0.16963836550712585,-0.21051667630672455,-0.19187510013580322
-0.9831510186195374,3.3490543365478516,9.31047248840332,-0.12809427082538605,-0.17749445140361786,-0.1631138026714325
-1.0621141195297241,3.384946823120117,9.159425735473633,-0.02809552103281021,-0.07643046975135803,-0.09174319356679916
-0.784247636795044,3.408874988555908,8.742775917053223,0.098667211830616,0.10465914756059647,-0.015046416781842709
-0.9400802254676819,3.3227334022521973,8.821739196777344,0.2147776037454605,0.28894445300102234,0.043541401624679565
-0.9807581901550293,3.4953157901763916,8.898308753967285,0.03155753016471863,0.08868064731359482,0.017975807189941406
-0.9951151013374329,3.538386583328247,9.168996810913086,-0.09720251709222794,-0.06577813625335693,0.007323476951569319
-1.002293586730957,3.492922782897949,9.322437286376953,-0.1856168508529663,-0.17536398768424988,-0.018242115154862404
-1.0094720125198364,3.5192439556121826,9.499805450439453,-0.10572437942028046,-0.07430000603199005,0.0030625448562204838
-0.9017950296401978,3.4857444763183594,9.260223388671875,0.08375394344329834,0.06737598776817322,0.06271559745073318
-0.5781657695770264,3.392125129699707,8.824131965637207,0.18921200931072235,0.13768136501312256,0.09893351793289185
-0.6047859191894531,3.4259238243103027,8.771489143371582,0.13914605975151062,0.112115778028965,0.08508548885583878
-0.7268198728561401,3.6747772693634033,8.852845191955566,0.08162347972393036,0.09294158220291138,0.0936073511838913
-0.6981059908866882,3.6675989627838135,8.704490661621094,0.09547150880098343,0.15685556828975677,0.12343387305736542
-0.7651050686836243,3.6699917316436768,8.697312355041504,0.10399337112903595,0.22609570622444153,0.11810771375894547
-0.9352945685386658,3.804288864135742,8.512765884399414,0.11890663951635361,0.24526990950107574,0.10958584398031235
-1.002293586730957,3.555136203765869,8.598907470703125,0.13275466859340668,0.2729659676551819,0.15432563424110413
-0.8297112584114075,3.3323047161102295,8.666205406188965,0.03581846132874489,0.21011722087860107,0.13941237330436707
-1.0166505575180054,3.552743434906006,9.106783866882324,-0.07483261823654175,0.10892007499933243,0.10852061212062836
-1.1653046607971191,3.722932815551758,9.365508079528809,-0.20266057550907135,-0.09560466557741165,0.1138467788696289
-0.9424729943275452,3.7660038471221924,9.272188186645508,-0.1856168508529663,-0.10199606418609619,0.11597724258899689
-0.8994022011756897,3.8162529468536377,8.951250076293945,-0.014247491955757141,0.12383333593606949,0.14047759771347046
-0.6861419081687927,3.7109687328338623,8.603693008422852,0.07523208111524582,0.23568280041217804,0.1777607649564743
-0.5925226807594299,3.6293137073516846,8.54865837097168,0.04327509179711342,0.20053011178970337,0.17989122867584229
-0.5829514265060425,3.6604204177856445,8.613264083862305,-0.01744319126009941,0.12702903151512146,0.16178226470947266
-0.7674978375434875,3.928715705871582,8.378767967224121,-0.02063889056444168,0.23035664856433868,0.2001306563615799
-0.7674978375434875,3.835395574569702,8.450551986694336,-0.02170412242412567,0.32090145349502563,0.23634858429431915
-0.9472586512565613,3.8138601779937744,8.63479995727539,-0.03661738336086273,0.3443365693092346,0.22676147520542145
-1.1748759746551514,3.9071803092956543,8.742775917053223,-0.03661738336086273,0.30705341696739197,0.23528334498405457
-1.1362916231155396,3.866502285003662,8.711668968200684,-0.02916075475513935,0.2932053804397583,0.2523270845413208
-1.095613718032837,3.7851462364196777,8.673383712768555,-0.03661738336086273,0.28574874997138977,0.25978371500968933
-1.1413763761520386,3.9143588542938232,8.656634330749512,-0.06524552404880524,0.30918389558792114,0.25978371500968933
-0.9759725332260132,3.8712878227233887,8.939286231994629,-0.20585627853870392,0.2292914092540741,0.18095645308494568
-1.43599271774292,3.835395574569702,9.092427253723145,-0.2623136341571808,0.18029068410396576,0.1564560979604721
-1.5388840436935425,3.399303674697876,9.897313117980957,-0.22290000319480896,0.07589785009622574,0.22356578707695007
-1.1868400573730469,3.4402806758880615,9.324830055236816,-0.13448566198349,0.026897134259343147,0.19160878658294678
-0.9592227935791016,3.614956855773926,8.558229446411133,-0.08441971987485886,0.04181039705872536,0.15006470680236816
-1.1461620330810547,3.699004650115967,7.93071174621582,-0.005725627299398184,0.1877473145723343,0.13941237330436707
-1.6345969438552856,3.7899320125579834,8.52472972869873,-0.07483261823654175,0.1866820901632309,0.19373925030231476
-1.7066807746887207,3.73250412940979,8.812167167663574,-0.10998530685901642,0.09826774895191193,0.24806614220142365
-1.4455640316009521,3.514458179473877,8.429017066955566,-0.02276935614645481,0.22396524250507355,0.22463101148605347
-1.4766706228256226,3.500101327896118,8.43858814239502,-0.04194355010986328,0.3358147144317627,0.18628261983394623
-1.740180253982544,3.2533414363861084,8.505587577819824,-0.20053011178970337,0.15259462594985962,0.13302096724510193
-1.6561323404312134,3.3897323608398438,9.101998329162598,-0.23355233669281006,0.09613727778196335,0.1553908735513687
-1.5245270729064941,3.358625650405884,9.082855224609375,-0.09507204592227936,0.1547250896692276,0.1681736707687378
-1.526919960975647,3.4809587001800537,8.968000411987305,-0.02703028731048107,0.20266057550907135,0.17030413448810577
-1.2681959867477417,3.3466615676879883,8.639585494995117,0.010252867825329304,0.23248711228370667,0.14793424308300018
-1.2251251935958862,3.4474592208862305,8.529515266418457,-0.05778888985514641,0.18881255388259888,0.11171631515026093
-1.2323036193847656,3.337090253829956,8.56301498413086,-0.11637670546770096,0.1856168508529663,0.08188978582620621
-1.558026671409607,3.3538401126861572,8.948857307434082,-0.12596380710601807,0.21011722087860107,0.057389430701732635
-1.8957136869430542,3.4713873863220215,8.9943208694458,-0.06098458915948868,0.2410089671611786,0.06591129302978516
-2.1209380626678467,3.435495138168335,8.814560890197754,-0.02916075475513935,0.2846835255622864,0.09041165560483932
-2.2815563678741455,3.4112677574157715,8.752346992492676,-0.04194355010986328,0.31024911999702454,0.09680305421352386
-2.372483730316162,3.3945181369781494,8.766703605651855,-0.07589785009622574,0.29959678649902344,0.09573781490325928
-2.3916261196136475,3.4139597415924072,8.797810554504395,-0.13874660432338715,0.24420467019081116,0.09999874979257584
-2.4705893993377686,3.3777682781219482,8.874381065368652,-0.14194230735301971,0.218639075756073,0.10639014840126038
-2.511566400527954,3.392125129699707,8.654241561889648,-0.07270215451717377,0.25379177927970886,0.14260807633399963
-2.3772692680358887,3.2318060398101807,8.44576644897461,-0.06311506032943726,0.28894445300102234,0.17243459820747375
-2.751147747039795,3.0927233695983887,8.704490661621094,-0.03448691964149475,0.33901041746139526,0.18734785914421082
-2.956930637359619,2.845963478088379,9.03260612487793,-0.3251623809337616,0.17176882922649384,0.21291345357894897
-2.837289333343506,2.5010979175567627,9.492626190185547,-0.32196667790412903,0.05246272683143616,0.145803764462471
-3.1917262077331543,2.642573595046997,9.89013385772705,-0.19946488738059998,-0.012516488321125507,0.11278154700994492
-3.2829527854919434,2.96111798286438,9.564411163330078,-0.12596380710601807,0.0023967742454260588,0.1362166702747345
-3.004786968231201,2.8363921642303467,8.618049621582031,-0.03022598661482334,0.1749645173549652,0.22782671451568604
-2.767897605895996,2.977867841720581,8.678169250488281,-0.05459319427609444,0.2612484097480774,0.2310224175453186
-2.700599431991577,2.932404041290283,8.7236328125,-0.132355198264122,0.10465914756059647,0.18415215611457825
-3.0000014305114746,2.968296527862549,8.706883430480957,-0.19413872063159943,-0.026364516466856003,0.1362166702747345
-3.1079776287078857,3.056830883026123,8.920144081115723,-0.17283405363559723,-0.0061250897124409676,0.1553908735513687
-3.373879909515381,3.2078778743743896,8.936893463134766,-0.14726845920085907,0.04926702752709389,0.21823962032794952
-3.3236305713653564,3.1815567016601562,8.984749794006348,-0.08761541545391083,0.12383333593606949,0.3043903410434723
-3.2012975215911865,3.126222848892212,8.771489143371582,-0.04194355010986328,0.1451379954814911,0.34167349338531494
-3.0122644901275635,3.0185458660125732,8.368897438049316,-0.16750788688659668,0.030092833563685417,0.34273871779441833
-2.9449665546417236,2.8651061058044434,8.54865837097168,-0.2612484097480774,-0.03488638252019882,0.33102115988731384
-2.8181469440460205,2.6617159843444824,8.797810554504395,-0.2846835255622864,-0.06045197322964668,0.3139774203300476
-2.7966115474700928,2.6473591327667236,8.673383712768555,-0.18987779319286346,0.030092833563685417,0.3161078989505768
-2.8660032749176025,2.582453727722168,8.546265602111816,-0.11531147360801697,0.15152940154075623,0.35339105129241943
-2.722134828567505,2.424527645111084,8.790632247924805,-0.14620323479175568,0.1866820901632309,0.3789566457271576
-2.396411895751953,2.103590250015259,9.260223388671875,-0.2591179311275482,0.05246272683143616,0.29067546129226685
-2.33180570602417,2.1346969604492188,9.418149948120117,-0.23461757600307465,-0.026364516466856003,0.2203700840473175
-2.3150558471679688,2.2184457778930664,9.28893756866455,-0.17922545969486237,-0.03169068321585655,0.20652204751968384
-2.2983062267303467,2.3213369846343994,8.984749794006348,-0.07057169079780579,0.016244804486632347,0.2011958807706833
-2.283949136734009,2.5226333141326904,8.706883430480957,-0.04620448127388954,0.04500609636306763,0.21930484473705292
-2.2743778228759766,2.6210381984710693,8.852845191955566,-0.08974587917327881,0.024766668677330017,0.23421810567378998
-2.403590440750122,2.6617159843444824,8.886344909667969,-0.0801587849855423,0.03541899845004082,0.22782671451568604
-2.3605196475982666,2.8651061058044434,8.836095809936523,-0.1014634445309639,0.03435376659035683,0.2214353084564209
-2.1879372596740723,2.7574288845062256,8.685347557067871,-0.13128997385501862,0.0002663082559593022,0.20439158380031586
-2.1592233180999756,2.71435809135437,8.871988296508789,-0.21544337272644043,-0.06471290439367294,0.14047759771347046
-2.293520450592041,2.649751901626587,8.874381065368652,-0.18029068410396576,-0.09453943371772766,0.10745538026094437
-2.358126640319824,2.6473591327667236,8.991928100585938,-0.09507204592227936,-0.03169068321585655,0.11171631515026093
-2.36291241645813,2.5800609588623047,9.33440113067627,-0.007856093347072601,0.029027599841356277,0.11597724258899689
-2.214557409286499,2.6234309673309326,9.21715259552002,0.07949301600456238,0.03967992961406708,0.09041165560483932
-2.130509376525879,2.7023940086364746,8.845666885375977,0.08588441461324692,0.0375494658946991,0.060585130006074905
-2.231307029724121,2.7550361156463623,8.936893463134766,0.04007939249277115,0.025831900537014008,0.03288906812667847
-2.444268226623535,2.80767822265625,9.063713073730469,0.01770949922502041,-0.0050598569214344025,0.021171506494283676
-2.417947292327881,2.7813572883605957,9.092427253723145,0.05073172226548195,0.005592473316937685,0.023301972076296806
-2.33180570602417,2.767000198364258,8.895915985107422,0.08588441461324692,0.017310036346316338,0.020106272771954536
-2.3150558471679688,2.759821891784668,8.922536849975586,0.11145000159740448,0.03435376659035683,0.024367205798625946
-2.2432711124420166,2.728715181350708,8.852845191955566,0.12636326253414154,0.018375270068645477,0.022236740216612816
-2.2887349128723145,2.80767822265625,8.64197826385498,0.11571093648672104,0.009853405877947807,0.023301972076296806
-2.202294111251831,2.759821891784668,8.610871315002441,0.08908011019229889,0.0375494658946991,0.028628136962652206
-2.2046868801116943,2.759821891784668,8.812167167663574,0.08055824786424637,0.06204982474446297,0.020106272771954536
-2.33180570602417,2.7167510986328125,8.907880783081055,0.098667211830616,0.06098458915948868,0.004127778112888336
-2.494816780090332,2.8363921642303467,8.92492961883545,0.07842778414487839,0.027962366119027138,-0.021437814459204674
-2.4634108543395996,2.8651061058044434,8.934500694274902,0.009187635034322739,-0.05725627392530441,-0.07256899774074554
-2.3676979541778564,2.8674988746643066,8.836095809936523,0.11464570462703705,-0.06471290439367294,-0.12796111404895782
-2.6623141765594482,3.008974552154541,8.409873962402344,0.15832026302814484,0.09187635034322739,-0.08535179495811462
-2.518744945526123,2.8579275608062744,9.051749229431152,-0.11531147360801697,-0.19879911839962006,-0.11091738939285278
-2.3700907230377197,2.9898319244384766,9.229117393493652,-0.12596380710601807,-0.22329947352409363,-0.11730878800153732
-2.3772692680358887,2.8869404792785645,9.171390533447266,0.011318100616335869,-0.08282186836004257,-0.11624355614185333
-2.2432711124420166,2.9970104694366455,8.956035614013672,0.12529803812503815,0.023701434955000877,-0.08641702681779861
-2.106581211090088,2.977867841720581,8.891130447387695,0.10612384229898453,-0.026364516466856003,-0.06511236727237701
-2.195115566253662,3.1214370727539062,8.895915985107422,0.08055824786424637,-0.06364767253398895,-0.07150376588106155
-2.2265214920043945,3.2150564193725586,8.663812637329102,0.06031882017850876,-0.009320789016783237,-0.066177599132061
-2.1520447731018066,3.0975089073181152,8.92492961883545,0.02516612969338894,0.016244804486632347,-0.044872939586639404
-2.0563318729400635,3.025724172592163,9.056534767150879,0.013448567129671574,0.0034620072692632675,-0.044872939586639404
-2.051546335220337,2.8773691654205322,9.085248947143555,0.04753602296113968,-0.012516488321125507,-0.07256899774074554
-2.106581211090088,2.9347970485687256,8.876773834228516,0.08588441461324692,-0.00719032296910882,-0.08109086751937866
-2.0252251625061035,2.8651061058044434,8.610871315002441,0.07203638553619385,0.008788172155618668,-0.06404713541269302
-1.9462621212005615,3.0687949657440186,8.436195373535156,0.11145000159740448,0.07802832126617432,-0.06937330216169357
-2.4900310039520264,3.0664021968841553,8.177471160888672,0.2797568142414093,0.3475322723388672,-0.017176883295178413
-2.5929224491119385,3.0305099487304688,8.584549903869629,0.1093195378780365,0.18029068410396576,0.010519175790250301
-2.5450658798217773,3.1743783950805664,8.905488014221191,-0.1334204375743866,-0.08921326696872711,-0.060851436108350754
-2.4756741523742676,3.1671998500823975,8.70927619934082,-0.09720251709222794,-0.029560215771198273,-0.025698747485876083
-2.3676979541778564,3.1238300800323486,8.807381629943848,0.04860125854611397,0.12489857524633408,0.024367205798625946
-2.3365912437438965,3.064009428024292,8.742775917053223,0.10718907415866852,0.16324695944786072,0.04673709720373154
-2.2815563678741455,2.953939437866211,8.534300804138184,0.11571093648672104,0.17070358991622925,0.060585130006074905
-2.5953152179718018,3.274876832962036,8.881559371948242,0.008122402243316174,0.10252867639064789,0.012649642303586006
-3.2491540908813477,3.193521022796631,8.850452423095703,-0.07696308940649033,0.2090519815683365,0.08402025699615479
-3.3643085956573486,3.219841957092285,9.087641716003418,0.0038614696823060513,0.2175738513469696,0.12662957608699799
-2.9904301166534424,3.0616166591644287,8.730812072753906,0.10292813926935196,0.2410089671611786,0.16284750401973724
-2.9377880096435547,3.2294132709503174,8.41465950012207,0.17962491512298584,0.2921401560306549,0.15326039493083954
-3.4025938510894775,3.5024940967559814,8.292326927185059,0.19986434280872345,0.2921401560306549,0.17136935889720917
-3.4193434715270996,3.559921979904175,8.258827209472656,0.20732097327709198,0.32196667790412903,0.20332635939121246
-3.397808074951172,3.4881372451782227,8.361719131469727,0.20092958211898804,0.3656412363052368,0.24380521476268768
-3.4743785858154297,3.3490543365478516,8.53190803527832,0.14873315393924713,0.3443365693092346,0.21397867798805237
-3.19651198387146,3.3227334022521973,8.289934158325195,0.09973244369029999,0.2697702646255493,0.13195574283599854
-3.280559778213501,3.4737801551818848,8.191828727722168,0.14873315393924713,0.31131434440612793,0.0925421193242073
-3.3930225372314453,3.5910286903381348,7.909176349639893,0.21158191561698914,0.12915951013565063,0.07017222791910172
-3.623032569885254,3.5814573764801025,8.170292854309082,-0.08868064731359482,-0.04340824484825134,0.029693370684981346
-3.99900484085083,3.928715705871582,8.598907470703125,-0.283618301153183,-0.24140843749046326,-0.03954677656292915
-3.8530426025390625,3.943072557449341,8.893523216247559,-0.1653774231672287,-0.17962491512298584,0.025432437658309937
-3.5341989994049072,3.7420754432678223,8.639585494995117,0.009187635034322739,-0.05725627392530441,0.058454662561416626
-3.2419755458831787,3.586242914199829,8.534300804138184,0.06351451575756073,-0.05512581020593643,0.08188978582620621
-3.19651198387146,3.61017107963562,8.405088424682617,0.06138405203819275,-0.11371362209320068,0.08615072071552277
-3.1941192150115967,3.655634880065918,8.388339042663574,0.007057168986648321,-0.14979839324951172,0.08402025699615479
-3.2659037113189697,3.8377883434295654,8.670990943908691,-0.06418029218912125,-0.24140843749046326,0.09786828607320786
-2.8636105060577393,3.7205400466918945,8.659027099609375,-0.04833494871854782,-0.2563216984272003,0.1042596846818924
-2.6503500938415527,3.5359935760498047,8.630014419555664,0.010252867825329304,-0.2488650679588318,0.060585130006074905
-2.7774689197540283,3.583850145339966,8.34018325805664,-0.05259587988257408,-0.3628450036048889,0.010519175790250301
-2.789433002471924,3.5336008071899414,8.457730293273926,-0.08655018359422684,-0.4097152650356293,0.017975807189941406
-2.8899314403533936,3.5096726417541504,8.697312355041504,-0.039813082665205,-0.3979976773262024,0.022236740216612816
-2.7559335231781006,3.4737801551818848,8.613264083862305,0.07310161739587784,-0.3671059310436249,0.031823836266994476
-2.6024937629699707,3.66520619392395,8.206185340881348,0.15832026302814484,-0.3671059310436249,0.030758604407310486
-2.3844478130340576,3.7731821537017822,7.961818218231201,0.10505861043930054,-0.37882348895072937,0.022236740216612816
-2.2887349128723145,3.809074640274048,8.045567512512207,0.05818835273385048,-0.38308441638946533,0.020106272771954536
-2.2983062267303467,3.6053855419158936,8.344968795776367,-0.02276935614645481,-0.40119338035583496,0.004127778112888336
-2.3222343921661377,3.468994617462158,8.663812637329102,-0.08655018359422684,-0.41078048944473267,-0.015046416781842709
-2.154437780380249,3.179163932800293,9.20997428894043,-0.12489857524633408,-0.46617260575294495,-0.017176883295178413
-1.811964988708496,3.0376882553100586,9.315258979797363,-0.02063889056444168,-0.48854249715805054,-0.024633513763546944
-1.5843477249145508,3.073580741882324,8.74756145477295,0.15832026302814484,-0.4097152650356293,-0.013981183059513569
-1.5604194402694702,3.155235767364502,8.270791053771973,0.21371237933635712,-0.31597474217414856,0.014780107885599136
-1.5388840436935425,3.234198808670044,8.433802604675293,0.12742850184440613,-0.29786577820777893,0.013714875094592571
-1.4982060194015503,3.4040892124176025,8.603693008422852,0.09121058136224747,-0.31917044520378113,0.004127778112888336
-1.6082758903503418,3.5264222621917725,8.761918067932129,0.13808083534240723,-0.30745288729667664,-0.011850717477500439
-1.6657036542892456,3.6364922523498535,8.603693008422852,0.1742987483739853,-0.2999962568283081,-0.004394086077809334
-1.6226328611373901,3.655634880065918,8.608478546142578,0.11038476973772049,-0.30851811170578003,0.013714875094592571
-1.4455640316009521,3.57906436920166,8.888737678527832,0.05073172226548195,-0.32662707567214966,-0.005459319334477186
-1.433599829673767,3.5671002864837646,9.075676918029785,0.03688369318842888,-0.33727940917015076,-0.028894444927573204
-1.4120644330978394,3.6364922523498535,9.121140480041504,0.06564498692750931,-0.3649754524230957,-0.06298190355300903
-1.3950155973434448,3.6364922523498535,8.651848793029785,0.09653674066066742,-0.34686651825904846,-0.07576470077037811
-1.2705888748168945,3.600599765777588,8.55583667755127,0.08481918275356293,-0.2691044807434082,-0.05659050494432449
-1.4240286350250244,3.6125640869140625,8.488837242126465,0.3031919598579407,0.06631075590848923,0.012649642303586006
-1.3639088869094849,3.607778310775757,8.52472972869873,0.2914743721485138,0.07696308940649033,0.050998032093048096
-1.1051849126815796,3.5742788314819336,8.301898002624512,0.11464570462703705,-0.0370168462395668,0.024367205798625946
-1.215553879737854,3.6340994834899902,8.376375198364258,-0.0025299284607172012,-0.11477886140346527,-0.0001331541279796511
-1.4431711435317993,3.6293137073516846,8.527122497558594,-0.2516613006591797,-0.2467346042394638,-0.040612008422613144
-1.4527424573898315,3.586242914199829,8.783453941345215,-0.32835808396339417,-0.2552564740180969,-0.03954677656292915
-1.4312070608139038,3.4737801551818848,9.245866775512695,-0.18987779319286346,-0.07323476672172546,-0.026763979345560074
-1.3663017749786377,3.4785659313201904,9.28893756866455,0.04753602296113968,0.12383333593606949,0.024367205798625946
-1.3280165195465088,3.5096726417541504,8.991928100585938,0.13488513231277466,0.11637670546770096,0.048867564648389816
-1.2658032178878784,3.7971103191375732,8.809774398803711,0.12636326253414154,0.09826774895191193,0.03928046673536301
-1.3160524368286133,4.00319242477417,8.70927619934082,0.09760197252035141,0.08974587917327881,0.03608476743102074
-1.2442678213119507,4.029513359069824,8.706883430480957,0.0773625448346138,0.08228924870491028,0.042476166039705276
-1.0142576694488525,3.9382870197296143,8.692526817321777,0.04434032365679741,0.07589785009622574,0.04673709720373154
-0.966401219367981,3.8473596572875977,8.828917503356934,0.02090519852936268,0.0375494658946991,0.035019535571336746
-0.719641387462616,3.840181350708008,8.661419868469238,0.08908011019229889,0.030092833563685417,0.022236740216612816
-1.1988041400909424,3.708575963973999,8.69491958618164,0.28614822030067444,0.2825530469417572,0.07975932210683823
-1.2203395366668701,3.7420754432678223,8.735597610473633,0.22116900980472565,0.17176882922649384,0.1042596846818924
-0.9520443081855774,3.5742788314819336,8.845666885375977,-0.08228924870491028,-0.10412652790546417,0.06378082931041718
-1.002293586730957,3.6699917316436768,9.154640197753906,-0.23142187297344208,-0.21371237933635712,-0.0001331541279796511
-0.8488538265228271,3.866502285003662,8.977571487426758,-0.09720251709222794,-0.08814803510904312,0.007323476951569319
-0.664606511592865,3.708575963973999,8.55583667755127,0.06884068250656128,0.07696308940649033,0.055258963257074356
-0.6215356588363647,3.61017107963562,8.474480628967285,0.06884068250656128,0.08228924870491028,0.06910699605941772
-0.9352945685386658,3.7899320125579834,8.632407188415527,0.0347532257437706,0.07270215451717377,0.061650361865758896
-1.1003992557525635,3.9792640209198,8.546265602111816,0.01877473294734955,0.111050546169281,0.07869409024715424
-1.1123634576797485,4.115654945373535,8.498408317565918,0.02410089783370495,0.1536598652601242,0.11810771375894547
-0.9975079298019409,4.058227062225342,8.325826644897461,0.03049229457974434,0.1856168508529663,0.12876003980636597
-0.9233304262161255,4.110869407653809,8.033602714538574,0.03049229457974434,0.23674803972244263,0.11171631515026093
-1.0860424041748047,4.216452598571777,7.81555700302124,0.1721682846546173,0.410381019115448,0.12769481539726257
-1.3423734903335571,3.9792640209198,8.476873397827148,0.05286218971014023,0.32729285955429077,0.14899946749210358
-1.2131611108779907,3.897608995437622,9.020642280578613,-0.21118244528770447,0.03967992961406708,0.0723026916384697
-1.3902299404144287,4.053441524505615,9.154640197753906,-0.30705341696739197,-0.05193011090159416,0.006258244160562754
-1.3758729696273804,4.1419758796691895,8.972785949707031,-0.3059881925582886,-0.04021254554390907,0.03288906812667847
-0.877866804599762,3.8521454334259033,8.83370304107666,-0.20159535109996796,0.07163692265748978,0.06591129302978516
-0.9041878581047058,3.7588253021240234,8.991928100585938,-0.10678961127996445,0.08548495173454285,0.09680305421352386
-0.8679963946342468,3.6942191123962402,8.912964820861816,-0.07163692265748978,0.07163692265748978,0.11917294561862946
-0.6837490797042847,3.6966118812561035,8.74038314819336,-0.09187635034322739,0.07163692265748978,0.13089050352573395
-0.7914260625839233,3.928715705871582,8.912964820861816,-0.1334204375743866,0.06631075590848923,0.15432563424110413
-0.6167500615119934,4.194618225097656,8.35453987121582,0.0027962366584688425,0.22503048181533813,0.20332635939121246
-1.0764710903167725,3.88803768157959,8.522336959838867,0.2999962568283081,0.6179683208465576,0.3256950080394745
-0.9352945685386658,3.468994617462158,8.63479995727539,-0.2495308369398117,0.07696308940649033,0.28002312779426575
-1.5173486471176147,3.6029927730560303,9.173783302307129,-0.5073172450065613,0.0002663082559593022,0.17243459820747375
-1.9773688316345215,3.514458179473877,9.854242324829102,-0.41677242517471313,0.06204982474446297,0.19160878658294678
-1.6369898319244385,3.562314748764038,9.801599502563477,-0.12702903151512146,0.14833369851112366,0.24487043917179108
-1.2251251935958862,3.7372899055480957,8.440980911254883,0.13595037162303925,0.23248711228370667,0.28108835220336914
-1.491027593612671,3.6822550296783447,8.323433876037598,0.15832026302814484,0.46896883845329285,0.3469996452331543
-1.593919038772583,3.6747772693634033,8.804988861083984,-0.05259587988257408,0.37416309118270874,0.30865126848220825
-2.2408783435821533,3.8210387229919434,8.991928100585938,-0.132355198264122,0.279357373714447,0.23315288126468658
-2.4059832096099854,3.7540395259857178,8.975178718566895,-0.07270215451717377,0.3134448230266571,0.29067546129226685
-2.1352951526641846,3.442673683166504,8.982357025146484,-0.015312724746763706,0.32196667790412903,0.3363473415374756
-1.843071699142456,3.224627733230591,8.472087860107422,0.05499265342950821,0.3592498302459717,0.3224993050098419
-2.0012969970703125,3.250948667526245,8.177471160888672,-0.0238345880061388,0.35072797536849976,0.2608489394187927
-2.144866466522217,3.2844481468200684,8.426624298095703,-0.06418029218912125,0.3326190114021301,0.24060951173305511
-2.2265214920043945,3.2294132709503174,8.37129020690918,-0.06311506032943726,0.28894445300102234,0.2203700840473175
-2.3533411026000977,3.358625650405884,8.496015548706055,-0.14726845920085907,0.23355233669281006,0.16284750401973724
-2.4323041439056396,3.3083763122558594,8.412266731262207,-0.17389929294586182,0.21118244528770447,0.14154283702373505
-2.3700907230377197,3.3562328815460205,8.397910118103027,-0.15898603200912476,0.2591179311275482,0.12343387305736542
-2.2600209712982178,3.188735246658325,8.356932640075684,-0.15898603200912476,0.2814878225326538,0.10639014840126038
-2.341377019882202,3.265305519104004,8.598907470703125,-0.13555090129375458,0.28894445300102234,0.09893351793289185
-2.6958138942718506,3.5048868656158447,8.313861846923828,-0.09720251709222794,0.3485974967479706,0.11065108329057693
-2.978466033935547,3.6460635662078857,8.505587577819824,-0.14087706804275513,0.3699021637439728,0.14793424308300018
-2.9425735473632812,3.4809587001800537,8.845666885375977,-0.11531147360801697,0.38588064908981323,0.12236864119768143
-3.117548704147339,3.5048868656158447,8.761918067932129,-0.039813082665205,0.37309786677360535,0.145803764462471
-3.0505497455596924,3.305983543395996,8.53908634185791,0.02410089783370495,0.4007939398288727,0.17243459820747375
-3.1534411907196045,3.4163525104522705,8.448159217834473,0.012383334338665009,0.4220985770225525,0.13834713399410248
-3.4887354373931885,3.559921979904175,8.172685623168945,0.1199718713760376,0.24313943088054657,0.06484606117010117
-3.670889139175415,3.57906436920166,8.251648902893066,-0.15259462594985962,0.07057169079780579,0.045671865344047546
-3.711566925048828,3.3705897331237793,8.905488014221191,-0.25485700368881226,-0.05406057462096214,0.006258244160562754
-3.749852180480957,3.5120654106140137,8.821739196777344,-0.11424624174833298,-0.04873441159725189,0.015845341607928276
-3.510270833969116,3.4642090797424316,8.191828727722168,-0.013182258233428001,0.05246272683143616,0.03928046673536301
-3.462414264678955,3.4857444763183594,8.368897438049316,-0.11531147360801697,-0.06577813625335693,-0.006524552125483751
-3.577569007873535,3.5168511867523193,8.706883430480957,-0.2388785034418106,-0.24034319818019867,-0.009720250964164734
-3.6182470321655273,3.6340994834899902,9.051749229431152,-0.2090519815683365,-0.2509955167770386,0.026497671380639076
-2.451446771621704,3.1381869316101074,8.460124015808105,-0.12596380710601807,-0.1519288569688797,-0.033155377954244614
-2.533101797103882,3.1983065605163574,8.522336959838867,-0.18348638713359833,-0.19773387908935547,-0.07150376588106155
-2.557030200958252,3.135794162750244,8.613264083862305,-0.20159535109996796,-0.2169080674648285,-0.07043853402137756
-2.760719060897827,3.1094729900360107,8.778668403625488,-0.20159535109996796,-0.21158191561698914,-0.06830807030200958
-2.8325037956237793,3.0544381141662598,8.946464538574219,0.005991935729980469,-0.03275591507554054,0.029693370684981346
-2.758326292037964,3.087937593460083,8.670990943908691,0.11358047276735306,0.07057169079780579,0.054193731397390366
-3.014657497406006,3.3394830226898193,8.433802604675293,0.02729659713804722,0.03648423030972481,0.025432437658309937
-2.846860647201538,3.2365918159484863,8.36411190032959,0.004926702938973904,0.05033225938677788,0.028628136962652206
-2.6312077045440674,3.071187973022461,8.385946273803711,-0.02916075475513935,0.04074516147375107,-0.019307348877191544
-2.700599431991577,3.111865758895874,8.412266731262207,-0.03342168778181076,0.03222329914569855,-0.04593817517161369
-2.799004316329956,3.212663412094116,8.275577545166016,-0.004660394508391619,0.05139749497175217,-0.067242830991745
-2.738884687423706,3.195913791656494,8.54865837097168,-0.06524552404880524,0.021570969372987747,-0.0778951644897461
-2.822932481765747,3.2629127502441406,8.70927619934082,-0.07163692265748978,0.015179570764303207,-0.0981345921754837
-2.8325037956237793,3.3107693195343018,8.663812637329102,-0.04087831825017929,0.027962366119027138,-0.09174319356679916
-2.8492536544799805,3.248555898666382,8.51037311553955,0.014513799920678139,0.05672365799546242,-0.067242830991745
-2.8348965644836426,3.219841957092285,8.472087860107422,0.02516612969338894,0.0695064514875412,-0.051264338195323944
-2.8803603649139404,3.095116138458252,8.455337524414062,0.007057168986648321,0.06204982474446297,-0.03954677656292915
-2.916252613067627,3.102294445037842,8.546265602111816,-0.012117025442421436,0.05778888985514641,-0.041677240282297134
-3.10319185256958,3.1983065605163574,8.654241561889648,-0.006790860556066036,0.04713656008243561,-0.047003407031297684
-3.1989047527313232,3.227020502090454,8.654241561889648,0.0038614696823060513,0.04500609636306763,-0.040612008422613144
-3.1845479011535645,3.210270643234253,8.534300804138184,0.02836182899773121,0.0482017956674099,-0.020372580736875534
-3.1151559352874756,3.111865758895874,8.55583667755127,0.02942706272006035,0.04926702752709389,-0.018242115154862404
-3.206083297729492,3.1528429985046387,8.57019329071045,0.03368799388408661,0.05352795869112015,-0.03209014609456062
-3.253939628601074,3.047259569168091,9.073284149169922,0.03049229457974434,-0.05406057462096214,-0.067242830991745
-3.38105845451355,3.2054851055145264,9.229117393493652,0.0560578890144825,-0.10306129604578018,-0.0874822586774826
-3.002394199371338,3.2389845848083496,8.915358543395996,0.2382127344608307,-0.03275591507554054,-0.09387365728616714
-3.1366913318634033,3.358625650405884,8.390731811523438,0.4395417869091034,0.1962691843509674,-0.036351077258586884
-2.9186453819274902,3.296412229537964,8.014460563659668,0.2509955167770386,-0.016777420416474342,-0.066177599132061
-3.141477108001709,3.5647075176239014,8.22293472290039,0.05499265342950821,-0.1945381760597229,-0.12476541846990585
-3.4193434715270996,3.8066816329956055,8.381160736083984,-0.0588541254401207,-0.2797568142414093,-0.15033100545406342
-3.3068809509277344,3.8234314918518066,8.43140983581543,-0.06311506032943726,-0.2669740319252014,-0.14287437498569489
-3.0577282905578613,3.61017107963562,8.23968505859375,0.11677616834640503,-0.06258244067430496,-0.13435252010822296
-3.10319185256958,3.4498519897460938,8.098209381103516,0.2062557488679886,0.011983871459960938,-0.1290263533592224
-3.172583818435669,3.4881372451782227,8.098209381103516,0.19240771234035492,-0.024234050884842873,-0.12689588963985443
-3.151048421859741,3.5048868656158447,8.127222061157227,0.18814678490161896,-0.04021254554390907,-0.11517832428216934
-3.2156546115875244,3.5910286903381348,8.088638305664062,0.18601632118225098,-0.028494983911514282,-0.08961272984743118
-3.096013307571411,3.7037904262542725,7.8541412353515625,0.17855969071388245,0.030092833563685417,-0.07256899774074554
-3.22761869430542,3.9000017642974854,7.93789005279541,0.13914605975151062,0.06311506032943726,-0.04274247586727142
-3.172583818435669,3.8712878227233887,7.985746383666992,0.14340700209140778,0.0790935531258583,-0.011850717477500439
-3.1558339595794678,3.7827534675598145,8.043173789978027,0.16897258162498474,0.09507204592227936,0.03288906812667847
-3.0888350009918213,3.691826343536377,8.1224365234375,0.1615159511566162,0.04287562891840935,0.058454662561416626
-3.124727249145508,3.66520619392395,8.045567512512207,0.1093195378780365,-0.012516488321125507,0.06697652488946915
-3.1055846214294434,3.6870405673980713,8.13679313659668,0.098667211830616,0.013049104250967503,0.09467258304357529
-2.9832515716552734,3.507279872894287,8.582157135009766,0.23182134330272675,0.22716094553470612,0.21717438101768494
-2.901895761489868,3.459423303604126,8.625227928161621,0.5279561281204224,0.4944012761116028,0.30758604407310486
-2.899502754211426,3.6699917316436768,8.294719696044922,0.7078473567962646,0.5508586168289185,0.32889068126678467
-3.10319185256958,4.1730828285217285,7.703094482421875,0.5778889060020447,0.32835808396339417,0.25871846079826355
-3.4480574131011963,4.618745803833008,7.880462169647217,-0.02276935614645481,-0.13381989300251007,0.06484606117010117
-3.531806230545044,5.0356950759887695,7.061219692230225,0.02303566411137581,-0.12543119490146637,0.045671865344047546
-3.639782428741455,4.47487735748291,7.590631484985352,-0.00359516148455441,-0.07749570161104202,0.09999874979257584
-3.2563323974609375,4.314558506011963,7.813164234161377,-0.11531147360801697,-0.26377832889556885,0.08402025699615479
-3.179762125015259,3.921537160873413,8.34736156463623,-0.3432713449001312,-0.546065092086792,-0.051264338195323944
-3.4241292476654053,4.168296813964844,8.907880783081055,-0.4934692084789276,-0.7717612981796265,-0.13435252010822296
