accX,accY,accZ,gyroX,gyroY,gyroZ
0.4860421121120453,4.330410957336426,9.203693389892578,-0.6053186655044556,0.396932452917099,0.23275341093540192
0.6032904386520386,4.124628067016602,9.316454887390137,-0.541404664516449,0.4713656008243561,0.16670896112918854
0.23210379481315613,4.227519512176514,9.376275062561035,-0.40505486726760864,0.4480636417865753,0.07190322875976562
0.14356936514377594,3.8611185550689697,9.512666702270508,-0.11224892735481262,-0.29000967741012573,-0.07190322875976562
-0.02632104977965355,3.7486557960510254,9.467203140258789,0.008122402243316174,-0.37096738815307617,-0.11131685227155685
-0.27308088541030884,3.5907294750213623,9.227920532226562,0.10399337112903595,-0.19520394504070282,-0.1177082508802414
-0.734895646572113,3.6553356647491455,8.959625244140625,0.13701559603214264,-0.03555215150117874,-0.0644465982913971
-0.9672985672950745,3.6529428958892822,8.861519813537598,0.11677616834640503,-0.03874785080552101,0.047402869910001755
-0.8548358678817749,3.619443416595459,8.749056816101074,0.07842778414487839,-0.08881380409002304,0.15073047578334808
-0.5171487927436829,3.619443416595459,8.763413429260254,0.01664426550269127,-0.0014646954368799925,0.22103585302829742
0.6846463680267334,3.8347973823547363,9.594022750854492,0.015579032711684704,0.2786915898323059,0.19866596162319183
0.8261220455169678,4.28734016418457,9.615557670593262,0.06138405203819275,0.20199480652809143,0.026098208501935005
0.5291129350662231,4.167698860168457,9.601201057434082,0.11464570462703705,0.13914605975151062,-0.07296846061944962
0.12681959569454193,3.9834516048431396,9.850353240966797,0.23075610399246216,-0.02276935614645481,-0.17416560649871826
-0.42382872104644775,4.040879249572754,9.294919967651367,0.36071452498435974,-0.3326190114021301,-0.11451254785060883
-0.1866401731967926,3.9523448944091797,9.2255277633667,0.48641201853752136,-0.4306204617023468,0.0026630824431777
0.11485548317432404,4.1868414878845215,9.196515083312988,0.6194329857826233,-0.46896883845329285,0.050598569214344025
0.14835500717163086,4.433601379394531,8.495118141174316,0.544866681098938,-0.6990591883659363,0.18588316440582275
1.1252248287200928,4.495814800262451,8.648259162902832,0.4736292362213135,-0.8033188581466675,0.23168818652629852
1.2065808773040771,4.639383792877197,8.011468887329102,0.38095396757125854,-0.663906455039978,0.1699046641588211
0.9290133714675903,4.6178483963012695,7.623532772064209,0.0880148783326149,-0.16963836550712585,0.06977276504039764
1.0558329820632935,4.534099578857422,7.877471446990967,-0.11331415921449661,0.19134248793125153,0.017576344311237335
1.1826525926589966,4.560420989990234,8.207980155944824,-0.2719007432460785,0.3351489305496216,-0.036750540137290955
0.7779664397239685,4.550849437713623,8.883054733276367,-0.35072797536849976,0.21051667630672455,-0.09001219272613525
0.5578267574310303,4.510171413421631,9.189335823059082,-0.3155752718448639,-0.0185084231197834,-0.09320788830518723
0.6415755748748779,4.505385875701904,9.16540813446045,-0.2708354890346527,-0.11544463038444519,-0.0846860259771347
0.9529415965080261,4.462315082550049,8.832805633544922,-0.1760297566652298,-0.24633513391017914,-0.06657706201076508
1.1443674564361572,4.34955358505249,8.669795036315918,-0.12170287221670151,-0.24526990950107574,-0.07190322875976562
0.9840483069419861,4.325624942779541,8.399405479431152,-0.12915951013565063,-0.2942706346511841,-0.11451254785060883
0.9074779748916626,4.122235298156738,8.545368194580078,-0.21650861203670502,-0.2729659676551819,-0.1486000120639801
0.9361918568611145,4.112663745880127,8.746664047241211,-0.2292914092540741,-0.18881255388259888,-0.14433906972408295
1.170688509941101,4.1629133224487305,8.91655445098877,-0.23248711228370667,0.004926702938973904,-0.14327384531497955
1.017547845840454,4.196412563323975,9.060123443603516,-0.21544337272644043,0.12103710323572159,-0.15073047578334808
0.8117650747299194,4.127020835876465,9.050552368164062,-0.17922545969486237,0.09121058136224747,-0.12409964948892593
0.5602195858955383,3.995415687561035,8.985946655273438,-0.132355198264122,-0.007856093347072601,-0.09107742458581924
0.5530411601066589,4.057629108428955,9.086444854736328,-0.05792204663157463,-0.0185084231197834,-0.028228675946593285
1.312164068222046,4.359124660491943,8.9883394241333,-0.03768261894583702,0.28401774168014526,-0.025032976642251015
0.4166502356529236,4.17009162902832,8.835198402404785,-0.3645760118961334,0.6162372827529907,-0.1070559173822403
0.14835500717163086,4.0935211181640625,9.328418731689453,-0.4625774323940277,0.40332385897636414,-0.015445878729224205
0.2225325107574463,4.028914928436279,9.617950439453125,-0.43488138914108276,0.3223661482334137,0.010119713842868805
0.4812564551830292,3.937987804412842,9.720842361450195,-0.2814878225326538,0.3213009238243103,0.039946239441633224
0.48364928364753723,3.8970108032226562,9.56052303314209,-0.1143793985247612,0.34899696707725525,0.031424373388290405
0.5027918815612793,3.8730826377868652,9.620343208312988,-0.0504654161632061,0.37243208289146423,0.022902509197592735
0.3616153299808502,3.794119358062744,9.6466646194458,0.0667102187871933,0.40225863456726074,-0.018641578033566475
-0.2105683982372284,3.76779842376709,9.000303268432617,0.12103710323572159,0.22862564027309418,-0.035685304552316666
-0.37118661403656006,3.7654054164886475,8.691329956054688,0.11464570462703705,0.10292813926935196,-0.019706811755895615
-0.07178468257188797,3.729513168334961,8.25105094909668,0.02197043038904667,-0.1037270650267601,0.028228675946593285
0.3448655605316162,3.729513168334961,8.27258586883545,-0.1143793985247612,-0.18029068410396576,0.010119713842868805
0.6511468887329102,3.619443416595459,8.825627326965332,-0.1856168508529663,-0.06005251035094261,-0.049533337354660034
0.20817556977272034,3.5380873680114746,9.309276580810547,-0.15792079269886017,0.05712312087416649,-0.09214265644550323
-0.2273181527853012,3.4567313194274902,9.826425552368164,-0.0611177459359169,-0.01957365684211254,-0.035685304552316666
-0.064606212079525,3.6098721027374268,9.871889114379883,0.06564498692750931,-0.20159535109996796,0.00905448105186224
0.5673980712890625,3.5763726234436035,9.483952522277832,0.2691044807434082,-0.28681400418281555,0.044207170605659485
0.8835497498512268,3.6720855236053467,9.060123443603516,0.30638766288757324,-0.23142187297344208,0.036750540137290955
1.0630114078521729,3.9499518871307373,8.598010063171387,0.1508636325597763,0.24034319818019867,-0.020772043615579605
-0.02392822690308094,3.684049606323242,8.906983375549316,-0.13128997385501862,0.42143282294273376,-0.01118494663387537
-0.1746760457754135,3.7893338203430176,9.278169631958008,-0.1856168508529663,0.33621418476104736,0.055924732238054276
0.007178467698395252,3.7582271099090576,10.192526817321777,-0.10266183316707611,0.312779039144516,0.19014409184455872
0.2273181527853012,3.8826539516448975,10.135099411010742,0.1093195378780365,0.3436708152294159,0.19547025859355927
0.4094717800617218,3.8730826377868652,8.906983375549316,0.34686651825904846,0.098667211830616,0.0964035913348198
-0.08614161610603333,4.179663181304932,8.480761528015137,0.20945143699645996,0.3671059310436249,0.027163442224264145
0.01196411345154047,4.308875560760498,9.02662467956543,0.11571093648672104,0.33727940917015076,0.058055199682712555
-0.08614161610603333,4.253840446472168,9.194122314453125,0.13488513231277466,0.183885857462883,0.037815771996974945
-0.263509601354599,4.160520553588867,9.072088241577148,0.183885857462883,0.02197043038904667,0.050598569214344025
-0.20338992774486542,4.155734539031982,9.0481595993042,0.2158428430557251,-0.01744319126009941,0.06764229387044907
-0.14835500717163086,4.2107696533203125,8.950054168701172,0.265908807516098,-0.05579157918691635,0.09001219272613525
0.16749759018421173,4.253840446472168,8.933303833007812,0.3010614812374115,0.03581846132874489,0.11238208413124084
0.37118661403656006,4.54845666885376,8.62193775177002,0.30745288729667664,0.05179695412516594,0.0964035913348198
0.08853443711996078,4.567599296569824,8.054539680480957,0.19240771234035492,0.09014534205198288,0.030359141528606415
0.059820566326379776,4.620241641998291,7.884649753570557,0.02090519852936268,0.5224968194961548,-0.038881003856658936
-0.20099709928035736,4.3447675704956055,8.138288497924805,-0.0611177459359169,0.5235620141029358,0.039946239441633224
-0.4405784606933594,4.3519463539123535,8.480761528015137,-0.08135717362165451,0.34899696707725525,0.0846860259771347
-0.7277171611785889,4.526921272277832,9.591629981994629,-0.02489982172846794,-0.03768261894583702,0.19014409184455872
-0.6894320249557495,4.560420989990234,10.970792770385742,0.22329947352409363,-0.3123795986175537,0.22742724418640137
-0.4405784606933594,4.366302967071533,10.013065338134766,0.5842803120613098,-0.6138405203819275,0.2338186502456665
0.16749759018421173,3.8826539516448975,7.839186191558838,0.6588466167449951,-0.9481905698776245,0.12196917831897736
1.3671990633010864,4.653740882873535,7.300501823425293,-0.1877473145723343,0.008122402243316174,-0.24660144746303558
0.9984052777290344,4.3519463539123535,7.566105365753174,-0.5722964406013489,0.4097152650356293,-0.4009270668029785
0.004785645287483931,4.35673189163208,7.6498541831970215,-0.8043841123580933,0.6599118709564209,-0.44140592217445374
-0.7564310431480408,4.481457710266113,8.380263328552246,-0.8203625679016113,0.8963935971260071,-0.3167736828327179
-0.8476574420928955,4.406980991363525,8.976374626159668,-0.6660369634628296,0.7632394433021545,-0.17949175834655762
-0.43579283356666565,4.165306091308594,9.155837059020996,-0.48920828104019165,0.5853455662727356,-0.08894696086645126
-0.1459621787071228,3.58115816116333,9.58205795288086,-0.345401793718338,0.47456130385398865,-0.059120431542396545
-1.0917253494262695,3.877868175506592,10.429716110229492,0.1721682846546173,-0.05366111174225807,-0.0026630824431777
-1.0031908750534058,3.8682968616485596,9.522237777709961,0.5949326157569885,-0.302792489528656,0.1912093311548233
-0.4740779995918274,4.2346978187561035,8.674580574035645,0.6236939430236816,-0.2292914092540741,0.2679060995578766
-0.2273181527853012,4.249054908752441,8.37547779083252,0.46404212713241577,-0.10692276805639267,0.24873191118240356
-0.031106693670153618,4.253840446472168,7.906185150146484,0.24140843749046326,0.07523208111524582,0.19333979487419128
0.014356935396790504,4.253840446472168,7.94925594329834,0.008122402243316174,0.2477998286485672,0.09853405505418777
-0.10049854964017868,4.265804767608643,8.224729537963867,-0.07496577501296997,0.2914743721485138,0.046337638050317764
-0.20099709928035736,4.095914363861084,9.285347938537598,-0.09094426780939102,0.12423279881477356,-0.06657706201076508
-0.385543555021286,4.306482315063477,9.665806770324707,0.04114462435245514,-0.06963960826396942,-0.09214265644550323
-0.38315072655677795,4.605884552001953,9.124730110168457,0.2989310026168823,0.02410089783370495,-0.06977276504039764
-1.1108678579330444,4.842773914337158,9.14865779876709,0.5725627541542053,0.396932452917099,0.07083799690008163
-1.0079765319824219,4.871487617492676,9.208478927612305,0.666303277015686,0.46284374594688416,0.14007814228534698
-0.7998009920120239,4.775774955749512,8.981161117553711,0.797326922416687,0.43315038084983826,0.21038351953029633
-0.5291129350662231,4.965106964111328,8.061718940734863,0.7664351463317871,0.44593316316604614,0.21890538930892944
-0.6343970894813538,5.0464630126953125,7.683652400970459,0.6183677911758423,0.5789541602134705,0.16457849740982056
-1.1084750890731812,5.127819061279297,7.69322395324707,0.40012815594673157,0.6226286888122559,0.0953383520245552
-0.9720842242240906,5.041677474975586,7.793722629547119,0.2904091477394104,0.559779942035675,0.059120431542396545
-0.9720842242240906,4.979464054107666,7.884649753570557,0.1721682846546173,0.4267589747905731,-0.017576344311237335
-1.2281162738800049,5.134997367858887,7.958827018737793,0.07416684925556183,0.27336543798446655,-0.09746882319450378
-1.225723385810852,5.103890895843506,7.642675399780273,0.0454055592417717,0.19240771234035492,-0.1283605843782425
-1.5203397274017334,5.123033046722412,7.681259632110596,-0.05153064802289009,-0.0717700719833374,-0.1272953450679779
-1.5634105205535889,5.400600910186768,8.06650447845459,-0.1749645173549652,-0.38268497586250305,-0.07829462736845016
-1.5801602602005005,5.242674350738525,8.217551231384277,-0.24526990950107574,-0.3145100474357605,-0.035685304552316666
-1.0582258701324463,5.032105922698975,7.676474094390869,-0.32196667790412903,-0.29000967741012573,-0.045272402465343475
-0.612861692905426,4.904987335205078,7.774580001831055,-0.4764254689216614,-0.20479105412960052,-0.12516488134860992
-0.7612167000770569,4.861916542053223,7.997112274169922,-0.6117100715637207,-0.26444411277770996,-0.16457849740982056
-1.2089736461639404,4.955535888671875,8.590831756591797,-0.6532541513442993,-0.39546775817871094,-0.07935985922813416
-0.6008976101875305,4.586741924285889,8.569295883178711,-0.6649717092514038,-0.2942706346511841,-0.0953383520245552
-0.33529427647590637,3.9212381839752197,8.598010063171387,0.12742850184440613,0.14979839324951172,-0.06977276504039764
-0.5171487927436829,4.284946918487549,8.957232475280762,0.0667102187871933,-0.05898727849125862,-0.11451254785060883
-0.9840483069419861,4.6728835105896,9.254241943359375,0.12103710323572159,-0.1877473145723343,-0.08042509108781815
-0.8763712644577026,4.644169807434082,9.273384094238281,0.21051667630672455,-0.2079867422580719,-0.01118494663387537
-0.6415755748748779,4.558028221130371,8.87109088897705,0.27656111121177673,-0.2292914092540741,-0.0037283156998455524
-0.4621138870716095,4.5771708488464355,8.696115493774414,0.29467007517814636,-0.13035789132118225,-0.033554840832948685
-0.5003990530967712,4.567599296569824,8.564510345458984,0.28721344470977783,-0.07709623873233795,-0.049533337354660034
-0.7181459069252014,4.605884552001953,8.162217140197754,0.24993029236793518,-0.05898727849125862,-0.051663801074028015
-0.5913262963294983,4.6178483963012695,8.143074989318848,0.1199718713760376,-0.11224892735481262,-0.028228675946593285
-0.6200401782989502,4.660919189453125,8.236693382263184,0.0667102187871933,-0.14846685528755188,-0.029293907806277275
-0.7372884750366211,4.646562576293945,8.502297401428223,0.04647079110145569,-0.11224892735481262,-0.00585878174751997
-0.5434698462486267,4.692026138305664,8.688937187194824,0.04327509179711342,-0.05685681104660034,0.019706811755895615
-0.5865406394004822,4.620241641998291,8.866305351257324,0.06457975506782532,-0.03448691964149475,0.0047935484908521175
-0.5745765566825867,4.5939202308654785,8.727521896362305,0.10718907415866852,-0.13248835504055023,0.012250179424881935
-0.4142574071884155,4.632205486297607,8.578866958618164,0.13701559603214264,-0.11650986224412918,0.023967742919921875
-0.5267201066017151,4.747061252593994,8.437690734863281,0.13914605975151062,-0.05898727849125862,0.039946239441633224
-0.5721837282180786,4.782953262329102,8.411369323730469,0.12423279881477356,-0.03022598661482334,0.058055199682712555
-0.5291129350662231,4.761417865753174,8.385048866271973,0.08055824786424637,0.0038614696823060513,0.08894696086645126
-0.4046861231327057,4.814060211181641,8.60758113861084,0.02942706272006035,0.0773625448346138,0.08149032294750214
-0.4740779995918274,4.816452980041504,8.542975425720215,0.009187635034322739,0.09227581322193146,0.033554840832948685
-0.4980062246322632,4.842773914337158,8.353941917419434,-0.01957365684211254,0.02303566411137581,-0.0005326165119186044
-0.4621138870716095,4.857131004333496,8.349156379699707,-0.06750914454460144,-0.03555215150117874,-0.01438064593821764
-0.5027918815612793,4.787738800048828,8.442476272583008,-0.09520520269870758,-0.11970555782318115,-0.020772043615579605
-0.3568296730518341,4.692026138305664,8.516654014587402,-0.1430075317621231,-0.015312724746763706,-0.07083799690008163
-0.4453641176223755,4.713561534881592,8.598010063171387,-0.12596380710601807,0.0027962366584688425,-0.061250898987054825
-0.47168517112731934,4.6728835105896,8.612366676330566,-0.10798799991607666,-0.04940018057823181,-0.030359141528606415
-0.40707895159721375,4.653740882873535,8.590831756591797,-0.09094426780939102,-0.09627043455839157,-0.012250179424881935
-0.4501497745513916,4.574777603149414,8.588438987731934,-0.08348763734102249,-0.08774857223033905,-0.010119713842868805
-0.45254257321357727,4.589134693145752,8.667402267456055,-0.07390054315328598,-0.06324820965528488,-0.0047935484908521175
-0.47647079825401306,4.584349155426025,8.813663482666016,-0.04300878196954727,-0.02489982172846794,-0.006924014538526535
-0.4405784606933594,4.5460638999938965,8.851948738098145,-0.014247491955757141,-0.06857437640428543,-0.00905448105186224
-0.3209373354911804,4.529314041137695,8.849555015563965,-0.00359516148455441,-0.09946613013744354,-0.015445878729224205
-0.3975076675415039,4.653740882873535,8.58604621887207,-0.02170412242412567,-0.13994498550891876,-0.043141938745975494
-0.4501497745513916,4.648955345153809,8.519046783447266,-0.06963960826396942,-0.1643121987581253,-0.046337638050317764
-0.39511483907699585,4.572384834289551,8.638688087463379,-0.09733566641807556,-0.13887976109981537,-0.062316130846738815
-0.35443684458732605,4.5221357345581055,8.676973342895508,-0.09200949966907501,-0.10798799991607666,-0.0740336924791336
-0.37836506962776184,4.469493389129639,8.708378791809082,-0.07709623873233795,-0.07603100687265396,-0.08149032294750214
-0.3616153299808502,4.505385875701904,8.722735404968262,-0.04194355010986328,-0.05153064802289009,-0.07296846061944962
-0.31854450702667236,4.574777603149414,8.641080856323242,-0.02596505545079708,-0.07816147059202194,-0.052729032933712006
-0.3233301639556885,4.581956386566162,8.676973342895508,-0.0238345880061388,-0.09200949966907501,-0.045272402465343475
-0.28504499793052673,4.529314041137695,8.744271278381348,-0.005725627299398184,-0.11331415921449661,-0.037815771996974945
-0.3041875660419464,4.385445594787598,8.947661399841309,0.05179695412516594,-0.1356840580701828,-0.044207170605659485
-0.18424734473228455,4.591527462005615,8.978767395019531,0.1306242048740387,-0.17816022038459778,-0.06764229387044907
-0.31375887989997864,4.677669048309326,8.79930591583252,0.17642922699451447,-0.12929265201091766,-0.08149032294750214
-0.2682952284812927,4.66570520401001,8.749056816101074,0.16790735721588135,-0.09627043455839157,-0.0740336924791336
-0.16271193325519562,4.692026138305664,8.722735404968262,0.11677616834640503,-0.05898727849125862,-0.0644465982913971
-0.1746760457754135,4.6728835105896,8.739485740661621,0.08908011019229889,-0.03768261894583702,-0.0633813664317131
-0.2874378263950348,4.7111687660217285,8.7538423538208,0.06244928762316704,-0.07070484012365341,-0.056989967823028564
-0.28504499793052673,4.7039899826049805,8.710771560668945,0.06138405203819275,-0.11118369549512863,-0.039946239441633224
-0.18903298676013947,4.778167724609375,8.581260681152344,0.0773625448346138,-0.1536598652601242,-0.025032976642251015
-0.17706887423992157,4.7662034034729,8.533403396606445,0.08481918275356293,-0.09627043455839157,-0.020772043615579605
-0.11006984114646912,4.739882469177246,8.540582656860352,0.08055824786424637,-0.03874785080552101,-0.023967742919921875
-0.04785645380616188,4.715954303741455,8.60758113861084,0.07949301600456238,0.06351451575756073,-0.046337638050317764
-0.22971096634864807,4.689633369445801,8.739485740661621,0.11358047276735306,0.12529803812503815,-0.059120431542396545
-0.5267201066017151,4.689633369445801,8.471190452575684,0.15832026302814484,-0.03874785080552101,-0.045272402465343475
-0.4046861231327057,4.823631286621094,8.26540756225586,0.2062557488679886,-0.2921401560306549,0.028228675946593285
-0.04785645380616188,4.840381145477295,8.246265411376953,0.2616478502750397,-0.21331290900707245,0.13049104809761047
0.3089732229709625,4.904987335205078,7.954041481018066,0.22862564027309418,-0.05259587988257408,0.1294258087873459
-0.33529427647590637,4.778167724609375,8.315656661987305,-0.14726845920085907,0.5427362322807312,0.06764229387044907
-0.3496512174606323,4.818845748901367,8.749056816101074,-0.2708354890346527,0.30745288729667664,0.13581721484661102
-0.13639089465141296,4.871487617492676,9.1414794921875,-0.197334423661232,0.19666863977909088,0.15499140322208405
-0.2560320198535919,4.854738235473633,9.381061553955078,-0.10479229688644409,0.24034319818019867,0.15499140322208405
-0.35922250151634216,4.866702079772949,9.527023315429688,0.12636326253414154,0.3756277859210968,0.1805569976568222
-0.3161516785621643,4.823631286621094,9.235098838806152,0.35964930057525635,0.47456130385398865,0.19973118603229523
-0.3233301639556885,4.842773914337158,8.89262580871582,0.5416709780693054,0.590671718120575,0.17736129462718964
-0.6798607110977173,5.1182475090026855,8.46161937713623,0.690803587436676,0.904915452003479,0.11344731599092484
-0.8189435601234436,5.209175109863281,7.920542240142822,0.6428681015968323,0.8868064880371094,0.11557777971029282
-0.828514814376831,5.158925533294678,7.075277328491211,0.4916050434112549,0.6961297988891602,0.09320788830518723
-1.2544373273849487,5.438885688781738,7.798508167266846,0.1945381760597229,0.13595037162303925,0.036750540137290955
-1.5777673721313477,5.7287163734436035,7.94207763671875,-0.012117025442421436,-0.2942706346511841,0.039946239441633224
-1.4796617031097412,5.783751487731934,8.030611991882324,-0.12915951013565063,-0.40505486726760864,0.047402869910001755
-1.1228320598602295,5.441278457641602,8.114360809326172,-0.3049229383468628,-0.5083824396133423,0.0037283156998455524
-0.7564310431480408,5.209175109863281,8.267800331115723,-0.35179319977760315,-0.5147738456726074,-0.029293907806277275
-0.14356936514377594,5.00578498840332,8.528617858886719,-0.37096738815307617,-0.410381019115448,-0.13262151181697845
-0.5578267574310303,5.103890895843506,8.449654579162598,-0.326227605342865,-0.29000967741012573,-0.2146444469690323
-0.857228696346283,5.2354960441589355,8.411369323730469,-0.28787922859191895,-0.27616167068481445,-0.16670896112918854
-0.7396813035011292,5.134997367858887,8.437690734863281,-0.23568280041217804,-0.23248711228370667,-0.07829462736845016
-0.5602195858955383,5.056034088134766,8.294121742248535,-0.11864032596349716,-0.0238345880061388,-0.032489608973264694
-0.7420741319656372,5.101497650146484,8.432905197143555,-0.04300878196954727,0.0667102187871933,0.017576344311237335
-0.7061817646026611,5.0703911781311035,8.46161937713623,0.05392742156982422,0.05073172226548195,0.058055199682712555
-0.7181459069252014,5.0943193435668945,8.313263893127441,0.06777545064687729,-0.03342168778181076,0.046337638050317764
-0.6583253145217896,5.13021183013916,8.198408126831055,0.02090519852936268,-0.09413997083902359,0.030359141528606415
-0.7181459069252014,5.06082010269165,8.363512992858887,-0.06431344151496887,-0.11650986224412918,0.022902509197592735
-0.5961119532585144,5.06082010269165,8.533403396606445,-0.09840089827775955,-0.11118369549512863,0.017576344311237335
-0.4621138870716095,4.960321426391602,8.413763046264648,-0.14087706804275513,-0.09733566641807556,-0.025032976642251015
-0.4812564551830292,5.010570526123047,8.440083503723145,-0.17070358991622925,-0.04620448127388954,-0.041011471301317215
-0.4692923426628113,5.00578498840332,8.540582656860352,-0.16857312619686127,-0.006790860556066036,-0.045272402465343475
-0.6224330067634583,4.974678039550781,8.633902549743652,-0.12915951013565063,-0.01957365684211254,-0.039946239441633224
-0.6415755748748779,4.989035129547119,8.602795600891113,-0.07603100687265396,-0.13035789132118225,-0.012250179424881935
-0.610468864440918,4.996213912963867,8.538188934326172,-0.04940018057823181,-0.17176882922649384,-0.0015978495357558131
-0.4740779995918274,4.962714195251465,8.341978073120117,-0.015312724746763706,-0.18029068410396576,0.0037283156998455524
-0.45254257321357727,4.955535888671875,8.253443717956543,-0.004660394508391619,-0.11970555782318115,-0.01118494663387537
-0.48364928364753723,4.9531426429748535,8.322834968566895,-0.0014646954368799925,-0.06431344151496887,-0.015445878729224205
-0.5362913608551025,5.00578498840332,8.3300142288208,-0.0025299284607172012,0.009187635034322739,-0.015445878729224205
-0.5386841893196106,4.984249591827393,8.432905197143555,0.000665770610794425,0.0027962366584688425,-0.017576344311237335
-0.5123631358146667,4.941178798675537,8.509475708007812,0.005991935729980469,-0.015312724746763706,-0.018641578033566475
-0.5482555031776428,4.912165641784668,8.480761528015137,0.013448567129671574,-0.07496577501296997,-0.020772043615579605
-0.5458626747131348,4.936093807220459,8.373085021972656,0.011318100616335869,-0.09520520269870758,-0.016511112451553345
-0.48364928364753723,4.95074987411499,8.327621459960938,-0.015312724746763706,0.0027962366584688425,-0.021837277337908745
-0.5075774788856506,4.957928657531738,8.442476272583008,-0.03555215150117874,0.02836182899773121,-0.044207170605659485
-0.4621138870716095,4.941178798675537,8.308478355407715,-0.008921326138079166,-0.06857437640428543,-0.029293907806277275
-0.47168517112731934,5.008177757263184,8.356334686279297,-0.02809552103281021,-0.05259587988257408,-0.033554840832948685
-0.43579283356666565,4.9435715675354,8.519046783447266,-0.03661738336086273,-0.04620448127388954,-0.034620072692632675
-0.46450668573379517,4.897809028625488,8.609973907470703,-0.0025299284607172012,-0.09094426780939102,-0.038881003856658936
-0.4214358925819397,4.941178798675537,8.45444107055664,0.02303566411137581,-0.0930747389793396,-0.030359141528606415
-0.4573282301425934,4.977071285247803,8.274978637695312,0.02090519852936268,-0.05792204663157463,-0.010119713842868805
-0.44775694608688354,4.981856822967529,8.21994400024414,0.004926702938973904,-0.039813082665205,-0.0037283156998455524
-0.48843491077423096,4.984249591827393,8.260622024536133,-0.03874785080552101,-0.03874785080552101,-0.010119713842868805
-0.4668995141983032,4.972285270690918,8.557332038879395,-0.06750914454460144,-0.03661738336086273,-0.01438064593821764
-0.4549354016780853,4.895416259765625,8.60040283203125,-0.04833494871854782,-0.01637795753777027,-0.018641578033566475
-0.4334000051021576,4.895416259765625,8.655437469482422,0.0038614696823060513,-0.01637795753777027,-0.0026630824431777
-0.36640095710754395,4.931308269500732,8.734700202941895,0.07523208111524582,0.010252867825329304,0.01438064593821764
-0.38793638348579407,4.921737194061279,8.648259162902832,0.10292813926935196,0.02729659713804722,0.016511112451553345
-0.3496512174606323,4.857131004333496,8.418548583984375,0.13488513231277466,0.04966649040579796,0.020772043615579605
-0.34725838899612427,4.878666400909424,8.181658744812012,0.11890663951635361,0.09227581322193146,0.010119713842868805
-0.49322056770324707,4.8930230140686035,8.210372924804688,0.0667102187871933,0.1423417627811432,-0.0015978495357558131
-0.5410770177841187,4.914558410644531,8.270193099975586,0.04966649040579796,0.16577689349651337,-0.0015978495357558131
-0.6343970894813538,4.967499732971191,8.325227737426758,0.03049229457974434,0.16897258162498474,0.0047935484908521175
-0.6487540602684021,5.051248550415039,8.325227737426758,0.009187635034322739,0.15725502371788025,0.013315413147211075
-0.6296114325523376,5.0703911781311035,8.315656661987305,-0.014247491955757141,0.16577689349651337,0.017576344311237335
-0.6200401782989502,5.096712112426758,8.313263893127441,-0.0238345880061388,0.17962491512298584,0.017576344311237335
-0.6966105103492737,5.07517671585083,8.263014793395996,-0.04513924941420555,0.1828206181526184,0.012250179424881935
-0.6343970894813538,5.029713153839111,8.155038833618164,-0.07816147059202194,0.14979839324951172,0.0079892473295331
-0.5721837282180786,4.965106964111328,7.743473052978516,-0.10053136944770813,0.1519288569688797,-0.00585878174751997
-0.9553344249725342,5.089533805847168,8.780163764953613,-0.11757509410381317,0.1412765234708786,-0.022902509197592735
-1.0462616682052612,5.2043890953063965,9.558130264282227,-0.05579157918691635,-0.18881255388259888,0.0037283156998455524
-0.5051847100257874,4.835595607757568,9.107980728149414,-0.006790860556066036,-0.3347494900226593,0.022902509197592735
-0.07896314561367035,4.725525856018066,8.526225090026855,0.007057168986648321,-0.24846559762954712,-0.060185667127370834
-0.5123631358146667,4.938786029815674,8.430512428283691,-0.004660394508391619,-0.11224892735481262,-0.0964035913348198
-0.6702894568443298,5.089533805847168,8.368298530578613,-0.008921326138079166,-0.12396649271249771,-0.037815771996974945
-0.521934449672699,4.991427898406982,8.133502960205078,-0.013182258233428001,-0.13355359435081482,0.019706811755895615
-0.37836506962776184,4.962714195251465,8.157431602478027,-0.03022598661482334,-0.11331415921449661,0.031424373388290405
-0.48843491077423096,4.955535888671875,8.24147891998291,-0.04513924941420555,-0.0930747389793396,0.028228675946593285
-0.35443684458732605,4.8690948486328125,8.186444282531738,-0.07283531129360199,-0.11224892735481262,0.029293907806277275
-0.33768710494041443,4.881059169769287,8.3898344039917,-0.10585752874612808,-0.1643121987581253,0.0079892473295331
-0.5434698462486267,4.938786029815674,8.373085021972656,-0.12383333593606949,-0.14846685528755188,0.0037283156998455524
-0.7253243923187256,5.034498691558838,8.471190452575684,-0.13768136501312256,-0.11864032596349716,0.016511112451553345
-0.8309076428413391,5.125426292419434,8.538188934326172,-0.14939893782138824,-0.1664426624774933,0.052729032933712006
-0.263509601354599,4.82841682434082,7.841578960418701,-0.16324695944786072,-0.10585752874612808,0.00585878174751997
0.20817556977272034,4.7662034034729,7.946863174438477,-0.22076953947544098,0.14447222650051117,-0.10492545366287231
0.2754737138748169,4.5771708488464355,8.9883394241333,-0.2069215178489685,0.10505861043930054,-0.19866596162319183
-0.40229329466819763,4.531706809997559,9.021839141845703,-0.11331415921449661,-0.2069215178489685,-0.15073047578334808
0.1746760457754135,4.335196495056152,8.89501953125,-0.07390054315328598,-0.29746630787849426,-0.0633813664317131
0.40707895159721375,4.421637058258057,8.782556533813477,-0.09946613013744354,-0.4220985770225525,-0.0857512578368187
0.0,4.443172454833984,8.519046783447266,-0.1983996480703354,-0.4615122079849243,-0.1496652364730835
-0.08853443711996078,4.42402982711792,8.686544418334961,-0.26657456159591675,-0.471099317073822,-0.15392617881298065
0.6248258352279663,4.907380104064941,9.369096755981445,-0.32835808396339417,-0.3794892728328705,-0.10066451877355576
-0.45972105860710144,4.514957427978516,8.973981857299805,-0.2388785034418106,-0.218639075756073,-0.058055199682712555
-0.10049854964017868,4.656133651733398,9.194122314453125,-0.1440727710723877,-0.12183602899312973,0.023967742919921875
0.09092725813388824,4.558028221130371,8.832805633544922,-0.04300878196954727,0.02836182899773121,0.0740336924791336
0.11485548317432404,4.488636016845703,8.679366111755371,-0.013182258233428001,0.09440627694129944,0.06657706201076508
-0.05742774158716202,4.457529544830322,8.789734840393066,-0.03448691964149475,0.06138405203819275,0.033554840832948685
-0.009571290574967861,4.378267288208008,8.87109088897705,-0.03235645219683647,-0.10798799991607666,-0.030359141528606415
0.16031911969184875,4.371088981628418,8.835198402404785,0.0038614696823060513,-0.13035789132118225,-0.045272402465343475
-0.02632104977965355,4.5460638999938965,8.638688087463379,0.06031882017850876,0.04966649040579796,-0.015445878729224205
-0.08135596662759781,4.505385875701904,8.703593254089355,0.06777545064687729,0.12316756695508957,0.0015978495357558131
-0.016749758273363113,4.483850479125977,8.653044700622559,0.0454055592417717,0.09547150880098343,-0.0005326165119186044
-0.03349951654672623,4.507778644561768,8.598010063171387,0.0017310036346316338,0.03794892504811287,-0.016511112451553345
-0.09810572862625122,4.560420989990234,8.749056816101074,-0.03874785080552101,-0.006790860556066036,-0.017576344311237335
0.03349951654672623,4.495814800262451,8.820841789245605,-0.04620448127388954,0.02516612969338894,-0.0026630824431777
0.02632104977965355,4.483850479125977,8.839983940124512,-0.04620448127388954,0.07203638553619385,0.0037283156998455524
-0.07417750358581543,4.371088981628418,8.914161682128906,-0.03555215150117874,0.10505861043930054,0.013315413147211075
-0.14356936514377594,4.534099578857422,8.804091453552246,0.05179695412516594,0.24460414052009583,0.006924014538526535
-0.7253243923187256,4.6728835105896,9.881460189819336,0.2573869228363037,0.07842778414487839,0.09107742458581924
-0.5889334678649902,4.747061252593994,9.519845008850098,0.3202356696128845,-0.10266183316707611,0.14220860600471497
0.2802593410015106,4.251447677612305,8.533403396606445,0.26271310448646545,-0.23781327903270721,0.137947678565979
0.4980062246322632,4.488636016845703,7.839186191558838,0.1423417627811432,0.0454055592417717,-0.015445878729224205
0.09092725813388824,4.54127836227417,8.155038833618164,0.03688369318842888,0.3532578945159912,-0.07296846061944962
-0.4262215197086334,4.706383228302002,8.847162246704102,0.012383334338665009,0.29680055379867554,-0.028228675946593285
-0.5051847100257874,4.854738235473633,9.057730674743652,0.05499265342950821,0.16471165418624878,0.059120431542396545
-0.30658039450645447,4.744668006896973,8.722735404968262,0.20199480652809143,0.24247366189956665,0.0857512578368187
-0.1052841991186142,4.739882469177246,8.722735404968262,0.2712349593639374,0.3958672285079956,0.08788172155618668
-0.39990049600601196,4.792524814605713,8.849555015563965,0.32556185126304626,0.4681699275970459,0.07190322875976562
-0.5410770177841187,4.885844707489014,8.775378227233887,0.3649754524230957,0.5033226013183594,0.10066451877355576
-0.6726822853088379,4.866702079772949,8.686544418334961,0.3884105980396271,0.4788222312927246,0.13155627250671387
-0.6080760359764099,4.847559452056885,8.456833839416504,0.396932452917099,0.37882348895072937,0.15179570019245148
-0.20099709928035736,4.804488658905029,7.920542240142822,0.34686651825904846,0.4182371199131012,0.11344731599092484
-0.2153540402650833,4.811667442321777,7.81765079498291,0.29680055379867554,0.4660394489765167,0.07296846061944962
-0.5602195858955383,4.965106964111328,7.178467750549316,0.19879911839962006,0.49373549222946167,-0.0005326165119186044
-1.3097712993621826,5.017749309539795,8.45444107055664,0.15832026302814484,0.46497422456741333,0.033554840832948685
-1.2616157531738281,5.096712112426758,8.993124961853027,0.2158428430557251,0.03901416063308716,0.08788172155618668
-1.0414760112762451,5.276174068450928,8.823234558105469,0.21264714002609253,-0.28681400418281555,0.055924732238054276
-0.7444669604301453,5.111069202423096,8.263014793395996,0.11145000159740448,-0.45938172936439514,-0.00585878174751997
-0.40229329466819763,5.190032482147217,8.047361373901367,0.0017310036346316338,-0.3784240186214447,-0.06977276504039764
-0.6056832075119019,5.2283172607421875,8.155038833618164,-0.0930747389793396,-0.23142187297344208,-0.0953383520245552
-0.5985047817230225,5.257031440734863,8.26540756225586,-0.09733566641807556,-0.23248711228370667,-0.061250898987054825
-0.6032904386520386,5.266602516174316,8.301300048828125,-0.08561810106039047,-0.2505960762500763,-0.043141938745975494
-0.4956133961677551,5.19242525100708,8.356334686279297,-0.03874785080552101,-0.2580527067184448,-0.00585878174751997
-0.43100717663764954,5.182853698730469,8.33719253540039,0.03368799388408661,-0.3049229383468628,-0.01438064593821764
-0.40707895159721375,5.115854740142822,8.090432167053223,0.04966649040579796,-0.3336842358112335,-0.025032976642251015
-0.2946162819862366,5.113461971282959,7.973184108734131,0.0038614696823060513,-0.38588064908981323,-0.056989967823028564
-0.25363919138908386,5.2115678787231445,8.147860527038574,-0.05366111174225807,-0.3485974967479706,-0.1059906855225563
-0.27308088541030884,5.197210788726807,8.246265411376953,-0.07816147059202194,-0.2953358590602875,-0.12516488134860992
-0.2874378263950348,5.089533805847168,8.428119659423828,-0.12077079713344574,-0.20479105412960052,-0.13475197553634644
-0.19381862878799438,5.020142078399658,8.411369323730469,-0.1440727710723877,-0.15059731900691986,-0.1294258087873459
-0.12681959569454193,4.993820667266846,8.442476272583008,-0.16111649572849274,-0.12077079713344574,-0.1166430190205574
-0.13639089465141296,5.017749309539795,8.46161937713623,-0.16324695944786072,-0.10479229688644409,-0.11025162041187286
-0.10289137065410614,5.07517671585083,8.540582656860352,-0.15046416223049164,-0.05153064802289009,-0.09320788830518723
-0.22013968229293823,5.082355499267578,8.485547065734863,-0.10798799991607666,-0.012117025442421436,-0.08042509108781815
-0.2153540402650833,5.056034088134766,8.47597599029541,-0.08029194176197052,0.011318100616335869,-0.06551183015108109
-0.2682952284812927,5.044070243835449,8.444869041442871,-0.01744319126009941,0.0454055592417717,-0.036750540137290955
-0.3329014480113983,5.079962253570557,8.432905197143555,0.03581846132874489,0.010252867825329304,0.0047935484908521175
-0.20578274130821228,5.008177757263184,8.552546501159668,0.0667102187871933,-0.05898727849125862,0.026098208501935005
-0.2273181527853012,5.034498691558838,8.442476272583008,0.05179695412516594,-0.08348763734102249,0.022902509197592735
-0.14835500717163086,5.0225348472595215,8.327621459960938,0.014513799920678139,-0.07603100687265396,0.018641578033566475
-0.09092725813388824,5.017749309539795,8.263014793395996,-0.03235645219683647,-0.005725627299398184,-0.00585878174751997
-0.16510476171970367,5.000999450683594,8.552546501159668,-0.0611177459359169,0.007057168986648321,-0.030359141528606415
-0.24646073579788208,5.008177757263184,8.60758113861084,-0.04300878196954727,-0.03235645219683647,-0.039946239441633224
-0.17706887423992157,5.0225348472595215,8.509475708007812,-0.012117025442421436,-0.04300878196954727,-0.028228675946593285
-0.12442677468061447,4.986642360687256,8.327621459960938,0.0027962366584688425,-0.02489982172846794,-0.027163442224264145
-0.10049854964017868,4.962714195251465,8.320442199707031,0.000665770610794425,-0.004660394508391619,-0.025032976642251015
-0.11964113265275955,5.000999450683594,8.377870559692383,-0.004660394508391619,0.011318100616335869,-0.025032976642251015
-0.22971096634864807,5.039284706115723,8.538188934326172,0.000665770610794425,0.01983996480703354,-0.021837277337908745
-0.23688943684101105,4.9986066818237305,8.545368194580078,0.02516612969338894,0.03155753016471863,-0.020772043615579605
-0.24646073579788208,5.008177757263184,8.480761528015137,0.04966649040579796,0.03794892504811287,-0.019706811755895615
-0.33768710494041443,5.053641319274902,8.521439552307129,0.06351451575756073,0.02090519852936268,-0.015445878729224205
-0.27308088541030884,5.039284706115723,8.562117576599121,0.07097115367650986,-0.05259587988257408,-0.00585878174751997
-0.14356936514377594,5.0464630126953125,8.47597599029541,0.08481918275356293,-0.11757509410381317,-0.016511112451553345
-0.11006984114646912,5.084748268127441,8.377870559692383,0.09440627694129944,-0.09413997083902359,-0.035685304552316666
-0.1459621787071228,5.051248550415039,8.547760963439941,0.11038476973772049,-0.02596505545079708,-0.051663801074028015
-0.21296121180057526,5.048855781555176,8.6243314743042,0.14340700209140778,-0.0238345880061388,-0.051663801074028015
-0.19381862878799438,5.084748268127441,8.516654014587402,0.17003782093524933,-0.10479229688644409,-0.044207170605659485
-0.16271193325519562,5.190032482147217,8.263014793395996,0.16897258162498474,-0.17922545969486237,-0.038881003856658936
-0.09810572862625122,5.278566837310791,8.193622589111328,0.14766792953014374,-0.2069215178489685,-0.043141938745975494
0.02392822690308094,5.2354960441589355,8.186444282531738,0.12316756695508957,-0.3059881925582886,-0.0740336924791336
0.04785645380616188,5.249852657318115,7.903792381286621,0.07949301600456238,-0.32196667790412903,-0.0740336924791336
0.263509601354599,5.2977094650268555,8.056933403015137,-0.039813082665205,-0.07816147059202194,-0.036750540137290955
0.016749758273363113,5.201996326446533,7.788936614990234,-0.16963836550712585,0.11251524090766907,-0.021837277337908745
0.04307080805301666,5.154139995574951,7.820043563842773,-0.24420467019081116,-0.26444411277770996,0.0015978495357558131
0.33529427647590637,5.230710506439209,8.715557098388672,-0.16857312619686127,0.010252867825329304,0.042076703161001205
0.3041875660419464,5.254638671875,8.887840270996094,-0.06431344151496887,0.08268871158361435,0.00585878174751997
0.2105683982372284,5.213960647583008,8.77059268951416,-0.02276935614645481,0.22116900980472565,-0.030359141528606415
-0.07896314561367035,5.120640277862549,8.114360809326172,-0.03448691964149475,0.1625811904668808,-0.029293907806277275
-0.12921242415905,5.154139995574951,8.140681266784668,-0.09413997083902359,-0.17283405363559723,0.13155627250671387
0.5267201066017151,5.314459323883057,8.595617294311523,-0.12170287221670151,-0.02489982172846794,0.1166430190205574
0.2994019389152527,5.142175674438477,8.58604621887207,-0.11331415921449661,0.21264714002609253,-0.0005326165119186044
0.10767702013254166,5.115854740142822,8.473583221435547,-0.09733566641807556,0.21797330677509308,-0.033554840832948685
-0.02632104977965355,5.146961688995361,8.353941917419434,-0.05685681104660034,0.07097115367650986,-0.047402869910001755
0.10767702013254166,5.163711071014404,8.387441635131836,-0.01957365684211254,-0.07283531129360199,-0.035685304552316666
0.09092725813388824,5.125426292419434,8.327621459960938,-0.02596505545079708,0.004926702938973904,-0.041011471301317215
0.0526420995593071,5.123033046722412,8.198408126831055,-0.0717700719833374,0.1423417627811432,-0.035685304552316666
-0.040677983313798904,5.015356063842773,8.176573753356934,-0.12077079713344574,0.19134248793125153,-0.034620072692632675
-0.0526420995593071,5.000999450683594,8.294121742248535,-0.18348638713359833,0.1934729516506195,-0.022902509197592735
-0.0933200865983963,4.972285270690918,8.361120223999023,-0.21011722087860107,0.1529940962791443,-0.025032976642251015
-0.26590242981910706,4.878666400909424,8.514261245727539,-0.23035664856433868,-0.004660394508391619,-0.025032976642251015
-0.1052841991186142,4.852344989776611,8.540582656860352,-0.16857312619686127,0.04753602296113968,-0.016511112451553345
-0.17706887423992157,4.802095890045166,8.629117012023926,-0.13448566198349,0.06138405203819275,-0.006924014538526535
-0.22971096634864807,4.823631286621094,8.612366676330566,-0.11650986224412918,0.07416684925556183,0.012250179424881935
-0.007178467698395252,4.852344989776611,8.789734840393066,-0.12383333593606949,0.12636326253414154,-0.0037283156998455524
-0.32572299242019653,4.811667442321777,8.6243314743042,-0.0717700719833374,0.14447222650051117,-0.041011471301317215
-0.3616153299808502,4.826024055480957,8.612366676330566,-0.004660394508391619,0.11784140020608902,-0.010119713842868805
-0.33768710494041443,4.849952220916748,8.47597599029541,0.05073172226548195,0.07097115367650986,0.020772043615579605
-0.2922234535217285,4.830809593200684,8.361120223999023,0.03794892504811287,0.01770949922502041,0.042076703161001205
-0.32572299242019653,4.864309310913086,8.207980155944824,-0.02809552103281021,-0.0014646954368799925,0.053794268518686295
-0.21774685382843018,4.895416259765625,8.224729537963867,-0.12170287221670151,0.0667102187871933,0.059120431542396545
-0.17706887423992157,4.837988376617432,8.37547779083252,-0.21118244528770447,0.13808083534240723,0.052729032933712006
-0.18903298676013947,4.7590250968933105,8.569295883178711,-0.27829211950302124,0.11677616834640503,0.034620072692632675
-0.20817556977272034,4.682454586029053,8.713164329528809,-0.30811864137649536,0.0560578890144825,0.029293907806277275
-0.17228323221206665,4.567599296569824,8.79212760925293,-0.2942706346511841,-0.011051792651414871,0.029293907806277275
-0.15074782073497772,4.543671131134033,8.866305351257324,-0.27509641647338867,-0.012117025442421436,0.027163442224264145
-0.1052841991186142,4.55563497543335,9.038588523864746,-0.20053011178970337,0.0038614696823060513,0.015445878729224205
-0.14835500717163086,4.483850479125977,9.131908416748047,-0.10053136944770813,-0.01637795753777027,0.025032976642251015
-0.059820566326379776,4.529314041137695,8.971589088439941,0.02303566411137581,0.03262276202440262,0.036750540137290955
-0.2922234535217285,4.543671131134033,8.78494930267334,0.05286218971014023,0.06351451575756073,0.039946239441633224
-0.385543555021286,4.5771708488464355,8.727521896362305,0.05499265342950821,0.08268871158361435,0.061250898987054825
-0.4381856322288513,4.562813758850098,8.657830238342285,0.05286218971014023,0.06351451575756073,0.08788172155618668
-0.368793785572052,4.641777038574219,8.550153732299805,0.02303566411137581,0.05925358831882477,0.12516488134860992
-0.30658039450645447,4.651348114013672,8.547760963439941,-0.0185084231197834,0.04434032365679741,0.14007814228534698
-0.15553347766399384,4.591527462005615,8.609973907470703,-0.04940018057823181,0.03901416063308716,0.11131685227155685
-0.24167509377002716,4.658526420593262,8.691329956054688,-0.05579157918691635,0.05818835273385048,0.08362079411745071
-0.18424734473228455,4.495814800262451,8.801698684692383,0.000665770610794425,0.02410089783370495,0.10066451877355576
0.019142581149935722,4.500600337982178,7.963613033294678,-0.04194355010986328,0.183885857462883,0.08149032294750214
-0.39032918214797974,4.656133651733398,9.131908416748047,-0.03768261894583702,0.3330184817314148,0.06870753318071365
0.09092725813388824,4.409373760223389,9.01705265045166,0.04007939249277115,-0.2292914092540741,0.11131685227155685
0.11724831163883209,4.361517429351807,8.540582656860352,0.02729659713804722,-0.08881380409002304,0.019706811755895615
-0.26111677289009094,4.670490741729736,8.665008544921875,0.03581846132874489,0.1412765234708786,0.031424373388290405
-0.31854450702667236,4.608277320861816,8.609973907470703,0.04220985993742943,0.13808083534240723,0.0633813664317131
-0.15553347766399384,4.567599296569824,8.595617294311523,-0.06324820965528488,0.07416684925556183,0.041011471301317215
-0.24885354936122894,4.47906494140625,8.928518295288086,-0.09733566641807556,0.098667211830616,0.037815771996974945
-0.20099709928035736,4.414159774780273,8.9883394241333,-0.04726971685886383,0.14447222650051117,0.049533337354660034
-0.20578274130821228,4.4599223136901855,8.832805633544922,0.009187635034322739,0.20092958211898804,0.061250898987054825
-0.2874378263950348,4.531706809997559,8.76102066040039,0.04007939249277115,0.23288656771183014,0.08042509108781815
-0.4262215197086334,4.481457710266113,8.966803550720215,0.05818835273385048,0.18921200931072235,0.0953383520245552
-0.18903298676013947,4.3447675704956055,8.772985458374023,0.08162347972393036,0.19027724862098694,0.056989967823028564
-0.4094717800617218,4.469493389129639,8.519046783447266,0.11571093648672104,0.1732335239648819,-0.015445878729224205
-0.8261220455169678,4.651348114013672,9.220742225646973,0.2477998286485672,-0.0717700719833374,0.0026630824431777
-0.6320042610168457,4.871487617492676,9.057730674743652,0.2808220684528351,-0.3443365693092346,0.020772043615579605
-0.39990049600601196,4.517350196838379,8.768199920654297,0.25312599539756775,-0.39227205514907837,-0.006924014538526535
-0.01196411345154047,4.5221357345581055,8.418548583984375,0.24034319818019867,-0.28574874997138977,-0.052729032933712006
-0.064606212079525,4.725525856018066,8.35154914855957,0.2041252851486206,-0.12183602899312973,-0.10172975063323975
-0.3616153299808502,4.826024055480957,8.487939834594727,0.14660269021987915,-0.2846835255622864,-0.061250898987054825
-0.3975076675415039,4.866702079772949,8.605188369750977,0.22329947352409363,-0.3464670479297638,-0.044207170605659485
-0.10767702013254166,4.974678039550781,8.768199920654297,0.2691044807434082,-0.410381019115448,-0.046337638050317764
-0.05503492057323456,4.95074987411499,8.720342636108398,0.3106485903263092,-0.5009258389472961,-0.137947678565979
0.05742774158716202,5.044070243835449,8.50708293914795,0.31810522079467773,-0.5776225924491882,-0.16777420043945312
0.12442677468061447,4.974678039550781,8.253443717956543,0.24353890120983124,-0.4604469835758209,-0.15499140322208405
0.27786654233932495,5.091926574707031,7.103991508483887,0.0667102187871933,-0.14953207969665527,-0.09959928691387177
0.2802593410015106,5.252245903015137,6.845566272735596,-0.21650861203670502,-0.516904354095459,-0.056989967823028564
1.1467602252960205,5.127819061279297,8.054539680480957,-0.4007939398288727,0.1402112990617752,0.029293907806277275
0.3807578980922699,4.960321426391602,9.96281623840332,-0.3880111277103424,0.7472609877586365,-0.10918638855218887
-0.10767702013254166,4.857131004333496,8.914161682128906,0.22010377049446106,0.3873453438282013,0.013315413147211075
-0.48843491077423096,4.682454586029053,8.35154914855957,0.481085866689682,0.18814678490161896,0.15073047578334808
0.1866401731967926,4.8762736320495605,8.282156944274902,0.5576494932174683,0.26484355330467224,0.20718781650066376
0.3520440459251404,4.806881427764893,7.5804619789123535,0.5576494932174683,1.0656324625015259,-0.08042509108781815
-0.5099703073501587,4.895416259765625,7.645068168640137,0.3990629315376282,1.1476554870605469,-0.1294258087873459
-0.9361918568611145,5.566004753112793,8.253443717956543,0.3617797791957855,1.0135692358016968,-0.10386022180318832
-1.103689432144165,5.668895721435547,8.092824935913086,0.4374113082885742,1.1689600944519043,0.023967742919921875
-1.355234980583191,5.5396833419799805,7.772187232971191,0.5363448262214661,1.4150289297103882,0.1688394397497177
-1.3336994647979736,5.450850009918213,7.590033531188965,0.6023892760276794,1.5577701330184937,0.2348838746547699
-2.1308085918426514,5.903392791748047,7.83200740814209,0.7675004005432129,1.1284812688827515,0.041011471301317215
-2.3871397972106934,5.977570056915283,7.348358154296875,0.758978545665741,0.9816122055053711,0.025032976642251015
-2.5378875732421875,6.276971817016602,7.357929706573486,0.6865426898002625,0.8175663352012634,0.020772043615579605
-2.614457845687866,6.38464879989624,7.135097980499268,0.5896064639091492,0.5342143774032593,0.00585878174751997
-2.461317300796509,6.468397617340088,6.634998321533203,0.4533897936344147,0.5161054134368896,0.00905448105186224
-2.446960210800171,6.422934055328369,6.503093719482422,0.27549588680267334,0.6428681015968323,-0.026098208501935005
-2.6072793006896973,6.449255466461182,6.704390048980713,0.20092958211898804,0.6737598776817322,-0.054859500378370285
-2.705385208129883,6.50698184967041,6.840780735015869,0.14340700209140778,0.6162372827529907,-0.07935985922813416
-2.612065076828003,6.406184196472168,6.895815849304199,0.07203638553619385,0.3873453438282013,-0.09746882319450378
-2.5761725902557373,6.38464879989624,6.79531717300415,0.03155753016471863,0.29360485076904297,-0.0964035913348198
-2.8274190425872803,6.4564337730407715,5.44008207321167,0.004926702938973904,0.289343923330307,-0.09853405505418777
-3.5315070152282715,6.8156561851501465,6.553342819213867,-0.23142187297344208,0.04647079110145569,-0.07083799690008163
-3.553042411804199,6.715157508850098,7.412964344024658,-0.30066201090812683,-0.19946488738059998,-0.050598569214344025
-2.8226335048675537,6.489933013916016,7.652246952056885,-0.29640108346939087,-0.28681400418281555,-0.018641578033566475
-2.7747769355773926,6.341578006744385,7.226324558258057,-0.21011722087860107,-0.23461757600307465,-0.034620072692632675
-2.7508487701416016,6.044867992401123,7.013063907623291,-0.19200825691223145,-0.23461757600307465,-0.036750540137290955
-2.9186453819274902,6.427719593048096,7.288537979125977,-0.18455162644386292,-0.29640108346939087,-0.033554840832948685
-2.9521448612213135,6.4325056076049805,7.226324558258057,-0.1749645173549652,-0.43594661355018616,0.01118494663387537
-2.8298118114471436,6.391827583312988,7.3052873611450195,-0.18029068410396576,-0.5211652517318726,0.031424373388290405
-2.190629243850708,5.960820198059082,6.831209659576416,-0.20479105412960052,-0.6745588183403015,0.029293907806277275
-1.970489501953125,5.953641891479492,6.637391090393066,-0.30066201090812683,-0.6660369634628296,-0.030359141528606415
-2.080559253692627,6.116652965545654,6.668497562408447,-0.4220985770225525,-0.6457974910736084,-0.07083799690008163
-2.2791635990142822,6.150152206420898,7.034599304199219,-0.5158390998840332,-0.6340799331665039,-0.059120431542396545
-2.3799612522125244,6.183651924133301,7.637889862060547,-0.563774585723877,-0.6383408904075623,-0.006924014538526535
-2.4110679626464844,6.1812591552734375,7.910970687866211,-0.5669702887535095,-0.6532541513442993,0.017576344311237335
-2.0374884605407715,5.817250728607178,7.810472011566162,-0.5584484338760376,-0.7256900072097778,0.050598569214344025
-1.3624134063720703,5.333601474761963,7.3052873611450195,-0.6149057745933533,-0.7607095241546631,0.006924014538526535
-1.4270195960998535,5.383851051330566,7.642675399780273,-0.7224943041801453,-0.7448641657829285,-0.08894696086645126
-1.8532410860061646,5.623432159423828,8.123931884765625,-0.7745575904846191,-0.6553846001625061,-0.11983871459960938
-1.908276081085205,5.419743061065674,8.116753578186035,-0.7777532339096069,-0.5797531008720398,-0.061250898987054825
-1.5634105205535889,5.264209747314453,8.418548583984375,-0.7607095241546631,-0.4402075409889221,-0.0037283156998455524
-1.4533406496047974,5.132604598999023,8.559724807739258,-0.7362091541290283,-0.3997286856174469,0.00585878174751997
-1.2975081205368042,4.881059169769287,8.725129127502441,-0.6585803031921387,-0.41677242517471313,0.016511112451553345
-0.9840483069419861,4.625027179718018,8.933303833007812,-0.5477960705757141,-0.5243609547615051,0.0005326165119186044
-0.9936196208000183,4.5939202308654785,8.789734840393066,-0.4870778024196625,-0.5573831796646118,-0.01118494663387537
-1.1228320598602295,4.763810634613037,8.688937187194824,-0.37309786677360535,-0.5446003675460815,-0.010119713842868805
-1.596909999847412,4.926522731781006,9.00987434387207,-0.21970431506633759,-0.6532541513442993,0.1486000120639801
-0.4405784606933594,4.632205486297607,8.310871124267578,-0.11118369549512863,-0.5083824396133423,0.2764279842376709
-0.035892341285943985,4.491028785705566,8.011468887329102,-0.07070484012365341,-0.14953207969665527,0.24234052002429962
-0.20817556977272034,4.406980991363525,8.061718940734863,-0.09946613013744354,0.04327509179711342,0.15499140322208405
-0.3735794425010681,4.404588222503662,8.36590576171875,-0.1430075317621231,0.06351451575756073,0.0953383520245552
-0.5386841893196106,4.450351238250732,8.552546501159668,-0.1643121987581253,0.05392742156982422,0.059120431542396545
-0.8069794178009033,4.4359941482543945,8.847162246704102,-0.16857312619686127,0.07097115367650986,0.053794268518686295
-0.9122636318206787,4.325624942779541,9.328418731689453,-0.1653774231672287,-0.10266183316707611,0.044207170605659485
-0.8715856671333313,4.323232173919678,9.292527198791504,-0.15152940154075623,-0.22183477878570557,0.026098208501935005
-0.45972105860710144,4.462315082550049,8.914161682128906,-0.10905323177576065,-0.21970431506633759,-0.013315413147211075
-0.5769693851470947,4.500600337982178,8.772985458374023,-0.06963960826396942,-0.0824224054813385,-0.035685304552316666
-0.7301099896430969,4.462315082550049,8.935696601867676,-0.04726971685886383,-0.05366111174225807,-0.028228675946593285
-0.7085745930671692,4.445565223693848,9.21834945678711,-0.0014646954368799925,-0.1664426624774933,0.0026630824431777
-0.4381856322288513,4.428815841674805,9.213264465332031,0.04647079110145569,-0.2505960762500763,-0.0026630824431777
-0.30658039450645447,4.414159774780273,8.866305351257324,0.07523208111524582,-0.18455162644386292,-0.052729032933712006
-0.5434698462486267,4.526921272277832,8.669795036315918,0.06457975506782532,-0.10053136944770813,-0.08149032294750214
-0.6032904386520386,4.562813758850098,8.483154296875,0.01770949922502041,-0.08987903594970703,-0.06977276504039764
-0.4094717800617218,4.502993106842041,8.361120223999023,-0.03874785080552101,-0.06431344151496887,-0.049533337354660034
-0.4046861231327057,4.42402982711792,8.495118141174316,-0.06963960826396942,-0.07709623873233795,-0.056989967823028564
-0.49322056770324707,4.371088981628418,8.69372272491455,-0.0717700719833374,-0.11757509410381317,-0.06764229387044907
-0.5650052428245544,4.476672172546387,8.79930591583252,-0.05792204663157463,-0.11544463038444519,-0.06764229387044907
-0.5147559642791748,4.48624324798584,8.808876991271973,-0.04620448127388954,-0.11224892735481262,-0.07722939550876617
-0.5602195858955383,4.445565223693848,8.945268630981445,-0.03342168778181076,-0.12077079713344574,-0.08042509108781815
-0.44775694608688354,4.474279403686523,9.031410217285156,-0.039813082665205,-0.11331415921449661,-0.08362079411745071
-0.5267201066017151,4.3758745193481445,9.242277145385742,-0.039813082665205,-0.11650986224412918,-0.09001219272613525
-0.6008976101875305,4.36391019821167,9.445667266845703,-0.03129122033715248,-0.1346188187599182,-0.07722939550876617
-0.646361231803894,4.457529544830322,9.505488395690918,-0.005725627299398184,-0.1557903289794922,-0.06657706201076508
-0.6176473498344421,4.4599223136901855,9.378668785095215,0.03049229457974434,-0.2090519815683365,-0.060185667127370834
-0.524327278137207,4.440779685974121,9.12712287902832,0.0560578890144825,-0.24420467019081116,-0.048468101769685745
-0.39990049600601196,4.42402982711792,9.036195755004883,0.0560578890144825,-0.2410089671611786,-0.043141938745975494
-0.26590242981910706,4.414159774780273,8.772985458374023,0.03049229457974434,-0.21650861203670502,-0.053794268518686295
-0.25363919138908386,4.3758745193481445,8.732307434082031,-0.02063889056444168,-0.17389929294586182,-0.07190322875976562
-0.3041875660419464,4.35673189163208,8.820841789245605,-0.04087831825017929,-0.14101022481918335,-0.0846860259771347
-0.3496512174606323,4.36391019821167,8.959625244140625,-0.05153064802289009,-0.10585752874612808,-0.0953383520245552
-0.3209373354911804,4.292125701904297,9.038588523864746,-0.05792204663157463,-0.08774857223033905,-0.11131685227155685
-0.3329014480113983,4.227519512176514,8.763413429260254,-0.05259587988257408,-0.08455286920070648,-0.11344731599092484
-0.30658039450645447,4.194019794464111,8.727521896362305,-0.05366111174225807,-0.09200949966907501,-0.1070559173822403
-0.20338992774486542,4.146163463592529,8.782556533813477,-0.03874785080552101,-0.13781452178955078,-0.10386022180318832
-0.16031911969184875,4.17726993560791,8.684151649475098,-0.0014646954368799925,-0.16963836550712585,-0.10918638855218887
-0.20338992774486542,4.22512674331665,8.645866394042969,0.015579032711684704,-0.1557903289794922,-0.10918638855218887
-0.23688943684101105,4.361517429351807,8.581260681152344,0.03155753016471863,-0.07709623873233795,-0.09001219272613525
-0.1459621787071228,4.361517429351807,8.648259162902832,0.02729659713804722,-0.012117025442421436,-0.06551183015108109
-0.064606212079525,4.3208394050598145,8.665008544921875,0.02410089783370495,0.08481918275356293,-0.06551183015108109
-0.12203395366668701,4.380660057067871,8.653044700622559,0.02516612969338894,0.09653674066066742,-0.06551183015108109
-0.16749759018421173,4.419244289398193,8.62193775177002,0.03049229457974434,0.09760197252035141,-0.061250898987054825
-0.2560320198535919,4.4599223136901855,8.480761528015137,0.04220985993742943,0.07629731297492981,-0.037815771996974945
-0.2560320198535919,4.455136775970459,8.609973907470703,0.04434032365679741,0.03049229457974434,-0.0047935484908521175
-0.14835500717163086,4.431208610534668,8.598010063171387,0.04647079110145569,-0.004660394508391619,0.0005326165119186044
-0.062213387340307236,4.414159774780273,8.583653450012207,0.04007939249277115,-0.009986559860408306,-0.0026630824431777
0.031106693670153618,4.452744007110596,8.701200485229492,0.02729659713804722,0.01770949922502041,-0.030359141528606415
-0.1698904037475586,4.4359941482543945,8.645866394042969,0.04007939249277115,-0.0014646954368799925,-0.060185667127370834
-0.1866401731967926,4.421637058258057,8.574081420898438,0.04220985993742943,-0.01957365684211254,-0.059120431542396545
-0.15553347766399384,4.450351238250732,8.5764741897583,0.05712312087416649,-0.08135717362165451,-0.0644465982913971
-0.13160525262355804,4.467100620269775,8.447261810302734,0.05392742156982422,-0.12716218829154968,-0.062316130846738815
-0.04785645380616188,4.3998026847839355,8.45444107055664,0.04114462435245514,-0.1250317245721817,-0.0644465982913971
0.03349951654672623,4.440779685974121,8.602795600891113,-0.01744319126009941,-0.06750914454460144,-0.0964035913348198
0.02632104977965355,4.42402982711792,8.547760963439941,-0.05259587988257408,-0.01744319126009941,-0.11557777971029282
-0.08853443711996078,4.3998026847839355,8.437690734863281,-0.06644391268491745,0.03155753016471863,-0.1177082508802414
-0.09810572862625122,4.402195453643799,8.428119659423828,-0.06750914454460144,0.04966649040579796,-0.10918638855218887
-0.16510476171970367,4.371088981628418,8.552546501159668,-0.06218297779560089,0.05392742156982422,-0.08255556225776672
-0.20099709928035736,4.3208394050598145,8.835198402404785,-0.03235645219683647,-0.01637795753777027,-0.056989967823028564
-0.13160525262355804,4.318446636199951,8.866305351257324,-0.014247491955757141,-0.01637795753777027,-0.051663801074028015
-0.009571290574967861,4.347160339355469,8.844769477844238,0.008122402243316174,0.015579032711684704,-0.058055199682712555
-0.09571290761232376,4.409373760223389,8.854341506958008,0.010252867825329304,0.02516612969338894,-0.062316130846738815
-0.1579262912273407,4.426422595977783,8.60040283203125,-0.013182258233428001,0.05286218971014023,-0.048468101769685745
0.004785645287483931,4.280161380767822,8.286943435668945,-0.06431344151496887,0.11251524090766907,-0.032489608973264694
0.0933200865983963,4.205984115600586,8.24147891998291,-0.07070484012365341,0.16045072674751282,-0.032489608973264694
-0.2826521694660187,4.404588222503662,9.242277145385742,0.02197043038904667,0.09760197252035141,0.017576344311237335
-0.4549354016780853,4.646562576293945,9.395418167114258,0.11677616834640503,-0.00359516148455441,0.060185667127370834
-0.5099703073501587,4.684847831726074,9.32602596282959,0.12849372625350952,-0.01744319126009941,0.07190322875976562
-0.16510476171970367,4.455136775970459,8.926125526428223,0.05286218971014023,-0.06537867337465286,0.06551183015108109
0.18903298676013947,4.2107696533203125,8.602795600891113,-0.07283531129360199,-0.03129122033715248,-0.012250179424881935
-0.2392822653055191,4.464707851409912,8.952446937561035,-0.1664426624774933,0.0773625448346138,-0.06977276504039764
-0.4142574071884155,4.488636016845703,9.103194236755371,-0.1866820901632309,0.004926702938973904,-0.08042509108781815
-0.12921242415905,4.514957427978516,9.091230392456055,-0.14833369851112366,-0.05685681104660034,-0.048468101769685745
-0.08853443711996078,4.404588222503662,8.844769477844238,-0.07390054315328598,-0.004660394508391619,-0.036750540137290955
-0.12681959569454193,4.284946918487549,9.007481575012207,0.02729659713804722,0.02729659713804722,-0.0005326165119186044
-0.2560320198535919,4.263411521911621,8.787342071533203,0.12636326253414154,0.05499265342950821,0.038881003856658936
-0.2153540402650833,4.404588222503662,8.741878509521484,0.15938548743724823,0.09014534205198288,0.10386022180318832
-0.17946170270442963,4.3998026847839355,8.602795600891113,0.13488513231277466,0.07310161739587784,0.11344731599092484
-0.23210379481315613,4.387838363647461,8.574081420898438,0.11358047276735306,0.06138405203819275,0.1059906855225563
-0.2754737138748169,4.342374801635742,8.533403396606445,0.06244928762316704,0.02197043038904667,0.0964035913348198
-0.07417750358581543,4.380660057067871,8.528617858886719,-0.007856093347072601,0.03901416063308716,0.09427312016487122
-0.17228323221206665,4.383052825927734,8.701200485229492,-0.07070484012365341,0.06031882017850876,0.06551183015108109
-0.35922250151634216,4.433601379394531,8.88544750213623,-0.09840089827775955,0.04647079110145569,0.032489608973264694
-0.24885354936122894,4.392624378204346,8.564510345458984,-0.12702903151512146,-0.1250317245721817,0.043141938745975494
-0.04546362906694412,4.380660057067871,8.392227172851562,-0.19307348132133484,-0.13781452178955078,0.029293907806277275
-0.031106693670153618,4.332803726196289,8.435297966003418,-0.23035664856433868,-0.1367492824792862,0.01438064593821764
-0.16271193325519562,4.272983074188232,8.631509780883789,-0.28681400418281555,-0.1664426624774933,-0.013315413147211075
-0.06939185410737991,4.251447677612305,8.526225090026855,-0.3240971565246582,-0.19307348132133484,-0.01438064593821764
0.07657032459974289,4.23230504989624,8.511868476867676,-0.3688369393348694,-0.17176882922649384,-0.037815771996974945
-0.0023928226437419653,4.1078782081604,8.80648422241211,-0.4018591642379761,-0.13035789132118225,-0.030359141528606415
0.1986042857170105,3.753441333770752,8.973981857299805,-0.41357672214508057,-0.16750788688659668,-0.0037283156998455524
-0.03349951654672623,3.8443686962127686,9.275776863098145,-0.4199681282043457,-0.29640108346939087,0.012250179424881935
0.26111677289009094,3.739084482192993,9.203693389892578,-0.41677242517471313,-0.2719007432460785,0.019706811755895615
0.05742774158716202,3.6960136890411377,9.519845008850098,-0.41357672214508057,-0.26657456159591675,-0.012250179424881935
0.038285162299871445,3.667299747467041,9.69212818145752,-0.3805544972419739,-0.1877473145723343,-0.010119713842868805
0.2105683982372284,3.516551971435547,9.833603858947754,-0.29640108346939087,-0.10266183316707611,-0.00905448105186224
0.2922234535217285,3.439981698989868,9.778569221496582,-0.15046416223049164,-0.1143793985247612,-0.032489608973264694
0.24646073579788208,3.5428731441497803,9.672985076904297,0.000665770610794425,-0.10585752874612808,-0.039946239441633224
0.17706887423992157,3.6529428958892822,9.45763111114502,0.1306242048740387,-0.02063889056444168,-0.027163442224264145
-0.04307080805301666,3.7558343410491943,9.02662467956543,0.2062557488679886,0.09547150880098343,0.017576344311237335
-0.007178467698395252,3.76779842376709,8.897412300109863,0.21264714002609253,0.14553746581077576,0.046337638050317764
0.20578274130821228,3.731905937194824,8.768199920654297,0.17855969071388245,0.13701559603214264,0.059120431542396545
0.15314064919948578,3.73669171333313,8.739485740661621,0.11145000159740448,0.09334104508161545,0.023967742919921875
0.11964113265275955,3.7175490856170654,8.739485740661621,0.07097115367650986,0.08268871158361435,0.012250179424881935
-0.02632104977965355,3.722334623336792,8.811270713806152,-0.02276935614645481,0.03901416063308716,-0.0079892473295331
0.04546362906694412,3.7103705406188965,9.0481595993042,-0.13128997385501862,0.02623136341571808,-0.034620072692632675
0.04307080805301666,3.67447829246521,9.206086158752441,-0.12915951013565063,0.02623136341571808,-0.048468101769685745
0.02392822690308094,3.691227912902832,9.29731273651123,-0.06431344151496887,0.01664426550269127,-0.044207170605659485
0.031106693670153618,3.6768710613250732,9.270991325378418,-0.01957365684211254,0.011318100616335869,-0.034620072692632675
0.08853443711996078,3.6553356647491455,9.21834945678711,0.05179695412516594,0.05073172226548195,-0.01438064593821764
0.08614161610603333,3.6457643508911133,9.182157516479492,0.08268871158361435,0.08694964647293091,-0.013315413147211075
-0.031106693670153618,3.6457643508911133,9.074481010437012,0.10186290740966797,0.12529803812503815,-0.017576344311237335
0.004785645287483931,3.61226487159729,9.079266548156738,0.09653674066066742,0.11251524090766907,-0.023967742919921875
0.11964113265275955,3.578765392303467,8.782556533813477,0.09334104508161545,0.14766792953014374,-0.055924732238054276
-0.5123631358146667,3.6409788131713867,10.317253112792969,0.20306004583835602,0.05073172226548195,-0.044207170605659485
-0.44775694608688354,3.8659040927886963,9.855138778686523,0.2989310026168823,-0.3134448230266571,-0.00905448105186224
0.20578274130821228,3.715156316757202,8.911768913269043,0.2467346042394638,-0.279357373714447,-0.045272402465343475
0.13878370821475983,4.088735580444336,8.423334121704102,0.1529940962791443,0.000665770610794425,-0.13581721484661102
-0.4094717800617218,4.110270977020264,8.684151649475098,0.05818835273385048,0.24034319818019867,-0.12516488134860992
-0.2994019389152527,3.9810585975646973,9.01705265045166,0.004926702938973904,0.20199480652809143,-0.07296846061944962
-0.3640081584453583,4.036093711853027,8.978767395019531,0.011318100616335869,0.1412765234708786,-0.07190322875976562
-0.5051847100257874,4.1078782081604,8.91655445098877,0.0347532257437706,0.14447222650051117,-0.036750540137290955
-0.31854450702667236,4.055236339569092,8.971589088439941,0.06457975506782532,0.10825430601835251,0.0037283156998455524
-0.29700911045074463,3.9451663494110107,8.959625244140625,0.08162347972393036,0.06884068250656128,0.006924014538526535
-0.6343970894813538,4.119842529296875,9.378668785095215,0.11571093648672104,0.000665770610794425,0.013315413147211075
-0.5482555031776428,4.129413604736328,9.330811500549316,0.12423279881477356,-0.1653774231672287,0.07083799690008163
-0.3233301639556885,4.024129390716553,9.186943054199219,0.11677616834640503,-0.1536598652601242,0.0857512578368187
-0.04546362906694412,3.9595232009887695,8.820841789245605,0.08055824786424637,-0.03768261894583702,0.053794268518686295
-0.15553347766399384,4.038486480712891,8.746664047241211,0.03901416063308716,0.13488513231277466,0.00585878174751997
-0.1818545162677765,4.009772777557373,8.772985458374023,0.02090519852936268,0.18175537884235382,-0.0047935484908521175
-0.22492532432079315,3.9667017459869385,8.674580574035645,0.008122402243316174,0.21051667630672455,-0.010119713842868805
-0.2682952284812927,3.947559118270874,8.645866394042969,0.010252867825329304,0.22862564027309418,0.0005326165119186044
-0.16271193325519562,3.9332022666931152,8.346763610839844,0.0347532257437706,0.32769230008125305,-0.0026630824431777
-0.610468864440918,4.067200183868408,9.30449104309082,0.13914605975151062,0.3095833361148834,0.018641578033566475
-0.6726822853088379,4.057629108428955,9.359525680541992,0.20092958211898804,-0.07390054315328598,0.061250898987054825
-0.24646073579788208,4.0217366218566895,8.954839706420898,0.1508636325597763,-0.22183477878570557,0.0644465982913971
-0.29700911045074463,4.194019794464111,8.744271278381348,0.07097115367650986,-0.1547250896692276,0.021837277337908745
-0.3329014480113983,4.191627025604248,8.688937187194824,-0.02489982172846794,0.04753602296113968,-0.0005326165119186044
-0.3041875660419464,4.062414646148682,9.060123443603516,-0.10159660130739212,-0.04300878196954727,-0.021837277337908745
-0.4860421121120453,4.0695929527282715,9.424132347106934,-0.011051792651414871,0.012383334338665009,0.0079892473295331
-0.5291129350662231,4.083950042724609,9.366703987121582,0.09014534205198288,-0.12183602899312973,0.06764229387044907
-0.19621145725250244,4.009772777557373,8.854341506958008,0.12742850184440613,-0.09094426780939102,0.08149032294750214
-0.18424734473228455,4.148556232452393,8.452047348022461,0.09014534205198288,0.02942706272006035,0.039946239441633224
-0.17228323221206665,4.127020835876465,8.394619941711426,0.04647079110145569,0.098667211830616,0.027163442224264145
-0.20817556977272034,4.0456647872924805,8.533403396606445,-0.0504654161632061,0.10292813926935196,0.006924014538526535
-0.28504499793052673,3.954737663269043,8.653044700622559,-0.11650986224412918,0.05925358831882477,-0.00905448105186224
-0.24646073579788208,3.8682968616485596,8.813663482666016,-0.11864032596349716,0.0347532257437706,-0.016511112451553345
-0.15314064919948578,3.978665828704834,8.87826919555664,0.03901416063308716,-0.23248711228370667,0.0644465982913971
0.07657032459974289,3.8515472412109375,8.665008544921875,-0.012117025442421436,-0.15059731900691986,0.051663801074028015
0.016749758273363113,3.9810585975646973,8.660223007202148,-0.07283531129360199,0.06990591436624527,-0.023967742919921875
-0.1866401731967926,4.050450325012207,8.710771560668945,-0.09840089827775955,0.13808083534240723,-0.042076703161001205
-0.34247273206710815,4.050450325012207,8.918947219848633,-0.12383333593606949,0.14340700209140778,-0.022902509197592735
-0.2105683982372284,3.9571304321289062,8.959625244140625,-0.12383333593606949,0.014513799920678139,-0.017576344311237335
-0.3568296730518341,4.040879249572754,9.0481595993042,-0.10692276805639267,-0.03768261894583702,-0.019706811755895615
-0.05503492057323456,3.8347973823547363,9.163015365600586,-0.06431344151496887,0.008122402243316174,-0.0026630824431777
-0.16271193325519562,3.899702787399292,9.617950439453125,-0.005725627299398184,0.04966649040579796,-0.00585878174751997
-0.5506483316421509,4.127020835876465,9.792925834655762,0.09440627694129944,-0.15259462594985962,0.023967742919921875
-0.3735794425010681,4.112663745880127,9.464810371398926,0.10186290740966797,-0.21970431506633759,0.047402869910001755
0.1052841991186142,3.9044883251190186,8.887840270996094,0.07203638553619385,-0.11757509410381317,0.026098208501935005
-0.11724831163883209,4.040879249572754,8.672187805175781,0.01877473294734955,0.09014534205198288,-0.026098208501935005
-0.3496512174606323,4.088735580444336,8.79930591583252,-0.03235645219683647,0.1625811904668808,-0.013315413147211075
-0.24646073579788208,3.9499518871307373,8.911768913269043,-0.06644391268491745,0.0560578890144825,-0.0005326165119186044
-0.19621145725250244,3.846761465072632,9.00269603729248,-0.07070484012365341,0.02729659713804722,-0.01118494663387537
-0.3113660514354706,3.8347973823547363,9.711270332336426,0.04860125854611397,0.04327509179711342,-0.0005326165119186044
-0.4262215197086334,3.971487283706665,9.620343208312988,0.16684211790561676,-0.18029068410396576,0.032489608973264694
-0.2512463629245758,3.894618034362793,9.316454887390137,0.17536398768424988,-0.2601831555366516,0.047402869910001755
0.09571290761232376,3.801297903060913,8.720342636108398,0.12849372625350952,-0.20372581481933594,0.018641578033566475
-0.09092725813388824,4.098307132720947,8.665008544921875,0.06351451575756073,0.0027962366584688425,-0.032489608973264694
-0.14835500717163086,4.091128349304199,8.669795036315918,-0.004660394508391619,0.05073172226548195,-0.047402869910001755
-0.05024927482008934,3.9930226802825928,8.653044700622559,-0.06431344151496887,-0.03448691964149475,-0.037815771996974945
0.0,4.012165546417236,8.641080856323242,-0.07816147059202194,-0.05579157918691635,-0.043141938745975494
-0.06939185410737991,4.024129390716553,8.746664047241211,-0.07070484012365341,0.000665770610794425,-0.039946239441633224
-0.2560320198535919,4.016951084136963,9.452845573425293,0.12423279881477356,0.08694964647293091,-0.0005326165119186044
-0.2922234535217285,4.2107696533203125,9.290133476257324,0.2041252851486206,-0.08348763734102249,0.049533337354660034
0.016749758273363113,4.019343852996826,8.868698120117188,0.11784140020608902,-0.1962691843509674,0.050598569214344025
0.10289137065410614,4.000201225280762,8.756235122680664,-0.008921326138079166,-0.04833494871854782,-0.028228675946593285
-0.02871387079358101,4.103092670440674,8.9883394241333,-0.0824224054813385,0.0880148783326149,-0.09746882319450378
-0.2105683982372284,4.117449760437012,9.177371978759766,-0.09733566641807556,0.03049229457974434,-0.1070559173822403
-0.19381862878799438,4.0935211181640625,9.129515647888184,-0.07070484012365341,-0.07496577501296997,-0.07935985922813416
-0.12203395366668701,3.9978084564208984,8.99551773071289,-0.015312724746763706,-0.07496577501296997,-0.055924732238054276
-0.2153540402650833,4.0217366218566895,8.914161682128906,0.04114462435245514,-0.007856093347072601,-0.029293907806277275
-0.2273181527853012,4.016951084136963,8.92373275756836,0.05818835273385048,0.015579032711684704,-0.012250179424881935
-0.11006984114646912,4.000201225280762,8.772985458374023,0.06564498692750931,-0.03129122033715248,0.0015978495357558131
-0.09092725813388824,4.012165546417236,8.559724807739258,0.02836182899773121,-0.06218297779560089,-0.020772043615579605
-0.16510476171970367,3.995415687561035,8.720342636108398,-0.02489982172846794,-0.13781452178955078,-0.041011471301317215
-0.14117653667926788,4.0767717361450195,8.92373275756836,-0.08135717362165451,-0.16750788688659668,-0.046337638050317764
0.031106693670153618,3.9738802909851074,9.174979209899902,-0.10479229688644409,-0.03235645219683647,-0.0740336924791336
-0.2560320198535919,3.971487283706665,9.179764747619629,-0.08561810106039047,0.07416684925556183,-0.09427312016487122
-0.2994019389152527,3.995415687561035,9.237491607666016,-0.05579157918691635,0.11358047276735306,-0.039946239441633224
-0.25363919138908386,4.0217366218566895,9.13430118560791,0.008122402243316174,0.10186290740966797,0.028228675946593285
-0.22492532432079315,4.057629108428955,9.062516212463379,0.04860125854611397,0.02090519852936268,0.033554840832948685
-0.21296121180057526,4.0695929527282715,9.00987434387207,0.0667102187871933,-0.014247491955757141,0.038881003856658936
-0.16031911969184875,4.0217366218566895,9.103194236755371,0.09227581322193146,-0.05259587988257408,0.049533337354660034
-0.11724831163883209,4.0456647872924805,8.87826919555664,0.08588441461324692,-0.02703028731048107,0.041011471301317215
-0.1459621787071228,4.000201225280762,8.851948738098145,0.04647079110145569,0.10292813926935196,0.022902509197592735
-0.17706887423992157,3.930809497833252,9.000303268432617,-0.02916075475513935,0.13595037162303925,-0.006924014538526535
-0.17946170270442963,3.9499518871307373,9.076873779296875,-0.04087831825017929,0.09653674066066742,-0.018641578033566475
-0.23449662327766418,3.954737663269043,9.131908416748047,-0.02809552103281021,-0.0014646954368799925,-0.037815771996974945
-0.28983065485954285,3.988237142562866,9.074481010437012,0.02410089783370495,-0.07070484012365341,-0.027163442224264145
-0.3161516785621643,4.026522159576416,8.962018013000488,0.08268871158361435,-0.01744319126009941,0.0015978495357558131
-0.3400799036026001,4.036093711853027,8.89262580871582,0.10292813926935196,0.05818835273385048,0.021837277337908745
-0.30179476737976074,4.071985721588135,8.775378227233887,0.07842778414487839,0.05286218971014023,0.028228675946593285
-0.26590242981910706,4.0528435707092285,8.633902549743652,0.02623136341571808,0.012383334338665009,0.028228675946593285
-0.2153540402650833,4.064807415008545,8.737092971801758,-0.02170412242412567,-0.01637795753777027,0.029293907806277275
-0.22971096634864807,4.081557273864746,8.782556533813477,-0.03555215150117874,-0.02170412242412567,0.026098208501935005
-0.3041875660419464,4.136591911315918,8.813663482666016,-0.03661738336086273,-0.02276935614645481,0.031424373388290405
-0.20099709928035736,4.129413604736328,8.811270713806152,-0.03129122033715248,0.01770949922502041,0.051663801074028015
0.009571290574967861,3.9571304321289062,8.533403396606445,-0.03129122033715248,0.1306242048740387,0.049533337354660034
-0.19142581522464752,4.033700942993164,9.486345291137695,0.08908011019229889,0.33727940917015076,0.0079892473295331
0.07178468257188797,3.794119358062744,8.89262580871582,0.15832026302814484,-0.4849473237991333,0.08788172155618668
0.368793785572052,3.971487283706665,8.478368759155273,0.09227581322193146,-0.3762935698032379,0.036750540137290955
0.19381862878799438,4.299304008483887,8.270193099975586,-0.02916075475513935,0.09227581322193146,-0.0750989317893982
-0.24885354936122894,4.167698860168457,8.928518295288086,-0.11970555782318115,0.24460414052009583,-0.09001219272613525
-0.22971096634864807,4.134199142456055,8.571688652038574,-0.08455286920070648,-0.05898727849125862,-0.034620072692632675
-0.16271193325519562,4.081557273864746,8.609973907470703,-0.04513924941420555,0.04327509179711342,0.0015978495357558131
-0.20099709928035736,4.079164505004883,8.756235122680664,-0.0238345880061388,0.08588441461324692,0.013315413147211075
-0.18903298676013947,3.9834516048431396,8.854341506958008,0.02090519852936268,0.05818835273385048,0.022902509197592735
-0.1698904037475586,4.043272018432617,8.696115493774414,0.0347532257437706,0.04753602296113968,0.016511112451553345
-0.18903298676013947,4.095914363861084,8.751449584960938,0.02623136341571808,0.0560578890144825,0.01118494663387537
-0.3113660514354706,4.057629108428955,8.89501953125,0.0027962366584688425,0.008122402243316174,0.006924014538526535
-0.2754737138748169,4.129413604736328,8.868698120117188,-0.03768261894583702,-0.011051792651414871,-0.0005326165119186044
-0.2560320198535919,4.196412563323975,8.997910499572754,-0.08455286920070648,0.005991935729980469,-0.018641578033566475
-0.2706880569458008,4.179663181304932,9.093623161315918,-0.10159660130739212,0.0017310036346316338,-0.022902509197592735
-0.2994019389152527,4.117449760437012,9.074481010437012,-0.10905323177576065,-0.03342168778181076,-0.019706811755895615
-0.16749759018421173,4.124628067016602,8.93091106414795,-0.12077079713344574,-0.02703028731048107,-0.016511112451553345
-0.1986042857170105,4.0767717361450195,9.019445419311523,-0.13661614060401917,-0.04513924941420555,-0.034620072692632675
-0.32572299242019653,4.060021877288818,9.170193672180176,-0.132355198264122,-0.08987903594970703,-0.036750540137290955
-0.2754737138748169,4.074378967285156,9.14865779876709,-0.1227681040763855,-0.0824224054813385,-0.022902509197592735
-0.1698904037475586,4.012165546417236,9.091230392456055,-0.09946613013744354,-0.014247491955757141,-0.010119713842868805
-0.31375887989997864,3.9762730598449707,9.143872261047363,-0.07390054315328598,0.0347532257437706,0.0015978495357558131
-0.3329014480113983,3.909274101257324,9.235098838806152,-0.03768261894583702,0.010252867825329304,0.019706811755895615
-0.1986042857170105,3.9571304321289062,9.256634712219238,0.000665770610794425,-0.02596505545079708,0.030359141528606415
-0.16031911969184875,3.947559118270874,9.005088806152344,0.03794892504811287,-0.08668334037065506,-0.0015978495357558131
-0.1339980661869049,3.9571304321289062,8.92373275756836,0.03794892504811287,-0.0930747389793396,-0.00585878174751997
-0.11485548317432404,3.988237142562866,8.883054733276367,0.03368799388408661,-0.08881380409002304,-0.0079892473295331
-0.12681959569454193,3.978665828704834,8.981161117553711,0.01664426550269127,-0.06218297779560089,-0.0037283156998455524
-0.12681959569454193,3.9690945148468018,9.098408699035645,0.005991935729980469,-0.01744319126009941,-0.0026630824431777
-0.1579262912273407,4.009772777557373,9.060123443603516,0.005991935729980469,-0.01957365684211254,-0.018641578033566475
-0.15074782073497772,3.9978084564208984,8.88544750213623,-0.0003994623839389533,-0.06005251035094261,-0.019706811755895615
-0.11724831163883209,3.9930226802825928,8.890233039855957,-0.004660394508391619,-0.07922670245170593,-0.016511112451553345
-0.17946170270442963,4.0145583152771,8.87109088897705,-0.008921326138079166,-0.09520520269870758,-0.0026630824431777
-0.21774685382843018,3.9930226802825928,8.839983940124512,-0.015312724746763706,-0.09840089827775955,0.012250179424881935
-0.1866401731967926,3.9834516048431396,8.842376708984375,-0.06005251035094261,-0.05153064802289009,0.045272402465343475
-0.007178467698395252,3.8587255477905273,8.789734840393066,-0.12596380710601807,0.02729659713804722,0.028228675946593285
-0.3161516785621643,3.698406457901001,9.232706069946289,-0.13128997385501862,-0.08987903594970703,0.020772043615579605
-0.08135596662759781,3.899702787399292,9.67777156829834,0.09973244369029999,-0.30918389558792114,0.11344731599092484
0.31854450702667236,3.9930226802825928,9.562915802001953,0.21797330677509308,-0.3336842358112335,0.11344731599092484
0.3089732229709625,4.079164505004883,9.105587005615234,0.3990629315376282,-0.13781452178955078,0.020772043615579605
0.19621145725250244,4.117449760437012,8.399405479431152,0.31810522079467773,0.2264951765537262,-0.016511112451553345
-0.004785645287483931,3.839582920074463,8.420941352844238,0.20306004583835602,0.29573532938957214,-0.026098208501935005
-0.21296121180057526,4.062414646148682,8.854341506958008,0.02623136341571808,0.13488513231277466,0.0015978495357558131
-0.10289137065410614,4.0935211181640625,8.904590606689453,-0.04513924941420555,-0.05472634732723236,0.033554840832948685
0.2105683982372284,4.129413604736328,9.163015365600586,-0.05366111174225807,-0.0185084231197834,0.015445878729224205
0.1052841991186142,4.129413604736328,9.081659317016602,-0.014247491955757141,0.02836182899773121,-0.07296846061944962
-0.17946170270442963,4.167698860168457,9.021839141845703,0.0347532257437706,-0.04300878196954727,-0.10812114924192429
-0.09571290761232376,4.17009162902832,8.978767395019531,0.05712312087416649,-0.0930747389793396,-0.09853405505418777
0.04546362906694412,4.141377925872803,8.780163764953613,0.08375394344329834,-0.11650986224412918,-0.06870753318071365
0.1052841991186142,4.155734539031982,8.701200485229492,0.0773625448346138,-0.08987903594970703,-0.052729032933712006
0.01196411345154047,4.208376884460449,8.629117012023926,0.03794892504811287,-0.03448691964149475,-0.034620072692632675
0.08374879509210587,4.1868414878845215,8.660223007202148,-0.02063889056444168,0.03049229457974434,-0.019706811755895615
0.07178468257188797,4.1078782081604,8.863912582397461,-0.07283531129360199,0.09014534205198288,-0.027163442224264145
-0.06699903309345245,4.033700942993164,9.04098129272461,-0.08561810106039047,0.10079767554998398,-0.027163442224264145
-0.12681959569454193,4.0528435707092285,9.170193672180176,-0.06644391268491745,0.05499265342950821,-0.01118494663387537
-0.05024927482008934,4.050450325012207,9.110373497009277,-0.03555215150117874,0.0038614696823060513,0.00585878174751997
0.031106693670153618,4.031308174133301,8.978767395019531,-0.007856093347072601,0.02516612969338894,0.006924014538526535
-0.016749758273363113,4.0456647872924805,8.950054168701172,0.014513799920678139,0.05179695412516594,-0.0037283156998455524
-0.17706887423992157,4.0695929527282715,9.196515083312988,0.04860125854611397,0.05286218971014023,0.0047935484908521175
-0.19381862878799438,4.074378967285156,9.400203704833984,0.08588441461324692,0.04434032365679741,0.0079892473295331
-0.2922234535217285,4.079164505004883,9.337990760803223,0.18069015443325043,-0.05259587988257408,0.020772043615579605
-0.2874378263950348,4.079164505004883,9.15822982788086,0.2147776037454605,-0.08881380409002304,0.034620072692632675
-0.11485548317432404,4.184448719024658,8.897412300109863,0.23075610399246216,-0.08348763734102249,0.039946239441633224
-0.15314064919948578,4.244269371032715,8.665008544921875,0.19879911839962006,-0.0185084231197834,0.026098208501935005
-0.16749759018421173,4.241876125335693,8.629117012023926,0.17003782093524933,0.02303566411137581,0.028228675946593285
-0.009571290574967861,4.23948335647583,8.650651931762695,0.11251524090766907,0.0773625448346138,0.034620072692632675
-0.1698904037475586,4.289732933044434,8.681758880615234,0.04327509179711342,0.04434032365679741,0.027163442224264145
-0.17228323221206665,4.323232173919678,8.595617294311523,0.007057168986648321,0.0347532257437706,0.031424373388290405
-0.016749758273363113,4.253840446472168,8.808876991271973,-0.08135717362165451,0.20092958211898804,0.025032976642251015
-0.064606212079525,4.237090587615967,8.93091106414795,-0.07709623873233795,0.183885857462883,0.01118494663387537
-0.16510476171970367,4.222733974456787,8.962018013000488,-0.04087831825017929,0.11038476973772049,0.00585878174751997
-0.13878370821475983,4.220340728759766,8.957232475280762,-0.011051792651414871,0.10505861043930054,0.021837277337908745
-0.08374879509210587,4.182055950164795,8.820841789245605,-0.006790860556066036,0.1412765234708786,0.038881003856658936
-0.06699903309345245,4.141377925872803,8.78494930267334,-0.014247491955757141,0.1625811904668808,0.038881003856658936
-0.08614161610603333,4.160520553588867,8.7538423538208,-0.02596505545079708,0.21797330677509308,0.022902509197592735
-0.2105683982372284,4.205984115600586,8.825627326965332,-0.0185084231197834,0.29786577820777893,0.010119713842868805
-0.44775694608688354,4.244269371032715,9.055337905883789,0.02836182899773121,0.32769230008125305,0.035685304552316666
-0.5865406394004822,4.284946918487549,9.115159034729004,0.10505861043930054,0.34899696707725525,0.08362079411745071
-0.4812564551830292,4.28734016418457,9.036195755004883,0.18069015443325043,0.3958672285079956,0.10279498994350433
-0.35443684458732605,4.261018753051758,8.854341506958008,0.24566936492919922,0.4512593448162079,0.08788172155618668
-0.3616153299808502,4.23230504989624,8.686544418334961,0.270169734954834,0.5043878555297852,0.07616416364908218
-0.5602195858955383,4.3208394050598145,8.696115493774414,0.31810522079467773,0.6503247618675232,0.0846860259771347
-0.8691928386688232,4.579563617706299,8.758627891540527,0.3532578945159912,0.6982602477073669,0.14007814228534698
-0.8883354067802429,4.72791862487793,8.650651931762695,0.39267152547836304,0.735543429851532,0.20612259209156036
-0.7516453862190247,4.613062858581543,8.46879768371582,0.4097152650356293,0.7536523938179016,0.2135792225599289
-0.8500502705574036,4.445565223693848,8.308478355407715,0.4193023443222046,0.7941312193870544,0.17310036718845367
-1.4246268272399902,4.799703121185303,8.708378791809082,0.38308441638946533,0.8218272924423218,0.1070559173822403
-1.072582721710205,4.7590250968933105,8.46161937713623,0.35006219148635864,1.0561785697937012,0.08681648969650269
-1.8508483171463013,4.677669048309326,8.399405479431152,0.32556185126304626,0.8165011405944824,0.06764229387044907
-1.7237296104431152,4.699204444885254,8.45444107055664,0.3138442933559418,0.773891806602478,0.09214265644550323
-1.7380865812301636,4.861916542053223,8.547760963439941,0.3021267056465149,0.6130415797233582,0.09959928691387177
-1.8963119983673096,4.928915500640869,8.432905197143555,0.29467007517814636,0.5224968194961548,0.09959928691387177
-1.9106688499450684,4.993820667266846,8.1526460647583,0.2595174014568329,0.40332385897636414,0.10918638855218887
-1.9537396430969238,5.1876397132873535,8.303692817687988,0.12316756695508957,0.11251524090766907,-0.0005326165119186044
-1.8580267429351807,5.230710506439209,8.135895729064941,0.08055824786424637,-0.0014646954368799925,-0.053794268518686295
-1.8604196310043335,5.223531723022461,7.999505043029785,0.05925358831882477,-0.011051792651414871,-0.062316130846738815
-2.0159530639648438,5.209175109863281,8.03539752960205,0.01664426550269127,-0.02276935614645481,-0.039946239441633224
-1.8580267429351807,5.13739013671875,8.22712230682373,-0.005725627299398184,-0.01957365684211254,-0.00905448105186224
-1.776371717453003,5.0703911781311035,8.303692817687988,-0.005725627299398184,0.008122402243316174,-0.0037283156998455524
-1.807478427886963,5.039284706115723,8.296514511108398,0.0017310036346316338,0.05179695412516594,-0.0037283156998455524
-1.8221344947814941,5.056034088134766,8.291728973388672,0.009187635034322739,0.10079767554998398,-0.0026630824431777
-1.776371717453003,5.06082010269165,8.3300142288208,0.03262276202440262,0.17536398768424988,-0.01438064593821764
-1.7955143451690674,5.027320384979248,8.33719253540039,0.05499265342950821,0.20306004583835602,-0.027163442224264145
-1.8987047672271729,4.979464054107666,8.279764175415039,0.1199718713760376,0.2371474951505661,-0.053794268518686295
-1.8915263414382935,4.8762736320495605,8.270193099975586,0.2041252851486206,0.23288656771183014,-0.0750989317893982
-1.8436698913574219,4.854738235473633,7.099205493927002,0.27656111121177673,0.2808220684528351,-0.09320788830518723
-2.1260228157043457,5.154139995574951,6.299703598022461,0.26484355330467224,0.3458012640476227,-0.08788172155618668
-2.5043880939483643,5.249852657318115,7.302894592285156,0.12423279881477356,0.13808083534240723,-0.0015978495357558131
-2.5139594078063965,5.230710506439209,7.846364498138428,0.0454055592417717,-0.06005251035094261,0.021837277337908745
-2.535494804382324,5.44845724105835,8.550153732299805,-0.1037270650267601,-0.33901041746139526,0.0037283156998455524
-1.8508483171463013,5.182853698730469,8.119146347045898,-0.2921401560306549,-0.3986634612083435,-0.055924732238054276
-1.8867406845092773,5.149354457855225,8.306085586547852,-0.3038577139377594,-0.471099317073822,-0.09214265644550323
-2.20737886428833,5.19960355758667,8.3898344039917,-0.38375020027160645,-0.7267552018165588,-0.10172975063323975
-1.7931214570999146,5.041677474975586,8.119146347045898,-0.4423380196094513,-0.8342106342315674,-0.11557777971029282
-1.438983678817749,4.837988376617432,8.76102066040039,-0.39440253376960754,-0.8970593810081482,-0.10812114924192429
-1.0390832424163818,4.749454021453857,9.160622596740723,-0.15046416223049164,-0.8161016702651978,-0.07616416364908218
-0.8117650747299194,4.814060211181641,8.954839706420898,0.01664426550269127,-0.6926677823066711,-0.10386022180318832
-1.0151549577713013,4.7973103523254395,8.502297401428223,0.04220985993742943,-0.4423380196094513,-0.10172975063323975
-1.1754741668701172,4.656133651733398,8.289336204528809,-0.0611177459359169,-0.283618301153183,-0.0633813664317131
-1.1515458822250366,4.488636016845703,8.502297401428223,-0.15259462594985962,-0.17922545969486237,-0.021837277337908745
-1.0941181182861328,4.79013204574585,8.703593254089355,-0.12383333593606949,-0.1367492824792862,-0.0005326165119186044
-1.0821540355682373,4.792524814605713,8.729914665222168,-0.02809552103281021,-0.08987903594970703,0.018641578033566475
-0.9888339638710022,4.730311393737793,8.511868476867676,0.06351451575756073,-0.12396649271249771,0.01118494663387537
-0.9984052777290344,4.804488658905029,8.413763046264648,0.12849372625350952,-0.16111649572849274,-0.00905448105186224
-1.0031908750534058,4.814060211181641,8.392227172851562,0.15938548743724823,-0.1452711522579193,-0.013315413147211075
-0.97926265001297,4.806881427764893,8.308478355407715,0.14340700209140778,-0.11118369549512863,-0.0015978495357558131
-0.9864411354064941,4.802095890045166,8.310871124267578,0.12316756695508957,-0.09627043455839157,0.0005326165119186044
-0.9625129103660583,4.826024055480957,8.171788215637207,0.0773625448346138,-0.05685681104660034,-0.0005326165119186044
-0.8620143532752991,4.885844707489014,8.229515075683594,0.01770949922502041,0.0038614696823060513,-0.020772043615579605
-1.0510473251342773,4.833202838897705,8.253443717956543,-0.0185084231197834,0.01664426550269127,-0.042076703161001205
-1.079761266708374,4.787738800048828,8.35872745513916,-0.02596505545079708,-0.011051792651414871,-0.027163442224264145
-1.043868899345398,4.806881427764893,8.416155815124512,-0.02063889056444168,-0.03448691964149475,-0.0079892473295331
-0.9912267923355103,4.794917583465576,8.456833839416504,-0.02703028731048107,-0.02703028731048107,-0.0026630824431777
-1.0295119285583496,4.799703121185303,8.437690734863281,-0.03129122033715248,-0.03022598661482334,-0.0015978495357558131
-1.0271191596984863,4.802095890045166,8.528617858886719,-0.03342168778181076,-0.012117025442421436,0.0026630824431777
-0.9672985672950745,4.823631286621094,8.547760963439941,-0.012117025442421436,0.02303566411137581,0.0015978495357558131
-1.0031908750534058,4.787738800048828,8.487939834594727,0.02090519852936268,0.0027962366584688425,0.00585878174751997
-1.0055837631225586,4.8212385177612305,8.425726890563965,0.04114462435245514,-0.05153064802289009,0.027163442224264145
-0.8668000102043152,4.799703121185303,8.413763046264648,0.03688369318842888,-0.05153064802289009,0.043141938745975494
-0.8668000102043152,4.830809593200684,8.581260681152344,0.015579032711684704,-0.00359516148455441,0.029293907806277275
-0.9481559991836548,4.88345193862915,8.655437469482422,-0.0025299284607172012,0.04753602296113968,0.006924014538526535
-0.9074779748916626,4.89063024520874,8.6243314743042,-0.008921326138079166,0.05179695412516594,-0.0015978495357558131
-0.981655478477478,4.826024055480957,8.487939834594727,-0.01637795753777027,0.0454055592417717,-0.025032976642251015
-1.0055837631225586,4.835595607757568,8.452047348022461,-0.0238345880061388,0.03581846132874489,-0.031424373388290405
-1.1635099649429321,4.873880386352539,8.46879768371582,-0.03129122033715248,-0.0003994623839389533,-0.015445878729224205
-1.0342975854873657,4.857131004333496,8.528617858886719,-0.03555215150117874,-0.007856093347072601,-0.0005326165119186044
-0.890728235244751,4.849952220916748,8.688937187194824,-0.03129122033715248,-0.007856093347072601,-0.0005326165119186044
-1.0223335027694702,4.866702079772949,8.720342636108398,-0.0003994623839389533,-0.0025299284607172012,-0.013315413147211075
-1.0414760112762451,4.864309310913086,8.5764741897583,0.03794892504811287,-0.007856093347072601,-0.006924014538526535
-1.0462616682052612,4.780560493469238,8.37547779083252,0.06031882017850876,-0.02809552103281021,-0.0015978495357558131
-0.9744769930839539,4.780560493469238,8.322834968566895,0.05392742156982422,-0.02809552103281021,0.006924014538526535
-0.8668000102043152,4.780560493469238,8.440083503723145,0.03155753016471863,-0.04300878196954727,0.00585878174751997
-0.9649057388305664,4.814060211181641,8.46879768371582,0.02410089783370495,-0.04940018057823181,0.0005326165119186044
-1.0223335027694702,4.806881427764893,8.483154296875,0.02090519852936268,-0.04407401755452156,0.01438064593821764
-0.9266205430030823,4.804488658905029,8.495118141174316,0.02303566411137581,-0.03235645219683647,0.016511112451553345
-0.9337990283966064,4.787738800048828,8.298907279968262,0.013448567129671574,-0.012117025442421436,0.0047935484908521175
-0.9744769930839539,4.806881427764893,8.301300048828125,-0.01637795753777027,-0.03022598661482334,0.0005326165119186044
-0.97926265001297,4.835595607757568,8.341978073120117,-0.02916075475513935,-0.0504654161632061,-0.0037283156998455524
-0.9912267923355103,4.826024055480957,8.45444107055664,-0.03235645219683647,-0.07603100687265396,-0.012250179424881935
-0.9433703422546387,4.82841682434082,8.533403396606445,-0.011051792651414871,-0.07070484012365341,-0.018641578033566475
-0.9457631707191467,4.837988376617432,8.511868476867676,0.0017310036346316338,-0.07603100687265396,-0.022902509197592735
-0.9625129103660583,4.82841682434082,8.36590576171875,0.007057168986648321,-0.1143793985247612,-0.023967742919921875
-0.9409775137901306,4.818845748901367,8.373085021972656,-0.004660394508391619,-0.13248835504055023,-0.025032976642251015
-0.9577272534370422,4.8451666831970215,8.392227172851562,-0.02809552103281021,-0.14420592784881592,-0.026098208501935005
-0.9864411354064941,4.840381145477295,8.399405479431152,-0.03768261894583702,-0.1356840580701828,-0.018641578033566475
-0.8859425783157349,4.849952220916748,8.47597599029541,-0.05153064802289009,-0.08135717362165451,0.0037283156998455524
-0.8452646136283875,4.785346031188965,8.569295883178711,-0.04194355010986328,-0.07816147059202194,0.0047935484908521175
-0.9194421172142029,4.773382186889648,8.696115493774414,-0.02809552103281021,-0.1037270650267601,0.0037283156998455524
-0.7468597888946533,4.859523773193359,8.868698120117188,0.03368799388408661,-0.15059731900691986,0.023967742919921875
-0.7902296781539917,4.857131004333496,8.698807716369629,0.06777545064687729,-0.1877473145723343,0.0026630824431777
-0.7133602499961853,4.816452980041504,8.641080856323242,0.07310161739587784,-0.22396524250507355,0.0005326165119186044
-0.5817549824714661,4.873880386352539,8.641080856323242,0.07523208111524582,-0.20053011178970337,-0.0015978495357558131
-0.5745765566825867,4.88345193862915,8.430512428283691,0.06031882017850876,-0.18029068410396576,-0.031424373388290405
-0.5745765566825867,4.916951656341553,8.425726890563965,0.03155753016471863,-0.17283405363559723,-0.047402869910001755
-0.5817549824714661,4.9435715675354,8.562117576599121,0.03049229457974434,-0.10479229688644409,-0.06977276504039764
-0.7731808423995972,4.861916542053223,8.420941352844238,0.01983996480703354,-0.08135717362165451,-0.029293907806277275
-0.7878368496894836,4.854738235473633,8.349156379699707,0.007057168986648321,-0.07816147059202194,-0.010119713842868805
-1.1228320598602295,4.830809593200684,8.037790298461914,-0.06963960826396942,-0.05153064802289009,0.028228675946593285
-0.6343970894813538,4.778167724609375,8.090432167053223,-0.21331290900707245,-0.004660394508391619,0.062316130846738815
-0.5889334678649902,4.648955345153809,8.21994400024414,-0.2846835255622864,-0.04407401755452156,0.039946239441633224
-0.5721837282180786,4.538885593414307,8.966803550720215,-0.11757509410381317,-0.19520394504070282,0.1496652364730835
0.35443684458732605,4.895416259765625,8.997910499572754,0.12636326253414154,-0.15166255831718445,0.22955772280693054
0.20817556977272034,4.948357105255127,8.566903114318848,0.25206077098846436,0.09653674066066742,0.1272953450679779
-0.08135596662759781,4.847559452056885,8.229515075683594,0.2254299372434616,0.2382127344608307,0.08042509108781815
-0.35443684458732605,4.706383228302002,8.083253860473633,0.06244928762316704,0.48308318853378296,0.023967742919921875
-0.8668000102043152,4.7111687660217285,8.851948738098145,-0.04833494871854782,0.6045197248458862,0.025032976642251015
-0.9577272534370422,4.830809593200684,8.99551773071289,-0.008921326138079166,0.5800193548202515,0.07083799690008163
-0.4381856322288513,4.826024055480957,8.581260681152344,0.07310161739587784,0.6236939430236816,0.022902509197592735
-1.6136597394943237,5.146961688995361,9.04098129272461,0.18708154559135437,0.3841496706008911,-0.061250898987054825
-2.0614166259765625,5.3312087059021,9.242277145385742,0.23288656771183014,0.0038614696823060513,-0.032489608973264694
-1.434198021888733,5.302495002746582,9.088837623596191,0.24247366189956665,-0.5137086510658264,0.062316130846738815
-0.9864411354064941,5.319244861602783,8.653044700622559,0.20199480652809143,-0.5424699187278748,0.052729032933712006
-0.42382872104644775,4.885844707489014,8.07368278503418,0.07097115367650986,-0.3592498302459717,-0.06657706201076508
-0.43579283356666565,4.9531426429748535,7.994719505310059,-0.04833494871854782,-0.13887976109981537,-0.15073047578334808
-0.7902296781539917,5.13739013671875,8.15982437133789,-0.1430075317621231,-0.06644391268491745,-0.16777420043945312
-0.7420741319656372,4.830809593200684,8.49990463256836,-0.1334204375743866,-0.11650986224412918,0.0026630824431777
-0.5961119532585144,4.718347072601318,8.49990463256836,-0.07709623873233795,0.02729659713804722,0.018641578033566475
-0.8309076428413391,4.718347072601318,8.660223007202148,0.05179695412516594,0.07097115367650986,0.01118494663387537
-0.7229315638542175,4.785346031188965,8.5764741897583,0.10399337112903595,-0.04833494871854782,0.028228675946593285
-0.6032904386520386,4.811667442321777,8.267800331115723,0.11251524090766907,-0.07922670245170593,0.017576344311237335
-0.5937191247940063,4.818845748901367,8.155038833618164,0.06564498692750931,-0.04407401755452156,0.0037283156998455524
-0.6056832075119019,4.816452980041504,8.123931884765625,0.03049229457974434,-0.02170412242412567,-0.0015978495357558131
-0.5937191247940063,4.854738235473633,8.253443717956543,-0.04620448127388954,0.05286218971014023,-0.013315413147211075
-0.7229315638542175,4.852344989776611,8.478368759155273,-0.09520520269870758,0.03901416063308716,-0.017576344311237335
-0.7396813035011292,4.88345193862915,8.768199920654297,-0.03342168778181076,-0.007856093347072601,0.018641578033566475
-0.7516453862190247,4.888237476348877,8.641080856323242,0.02197043038904667,-0.01744319126009941,0.032489608973264694
-0.5913262963294983,4.916951656341553,8.538188934326172,0.03262276202440262,0.008122402243316174,0.045272402465343475
-0.6415755748748779,4.9531426429748535,8.430512428283691,0.02090519852936268,0.010252867825329304,0.029293907806277275
-0.6702894568443298,4.960321426391602,8.45444107055664,0.012383334338665009,0.011318100616335869,0.020772043615579605
-0.7061817646026611,4.928915500640869,8.59322452545166,0.0027962366584688425,0.01877473294734955,-0.0015978495357558131
-0.7636095285415649,4.866702079772949,8.62193775177002,0.010252867825329304,-0.013182258233428001,-0.013315413147211075
-0.7612167000770569,4.878666400909424,8.62193775177002,0.012383334338665009,-0.01744319126009941,-0.010119713842868805
-0.7301099896430969,4.878666400909424,8.619544982910156,0.011318100616335869,-0.04726971685886383,-0.0026630824431777
-0.6056832075119019,4.8690948486328125,8.531010627746582,0.005991935729980469,-0.0185084231197834,0.0026630824431777
-0.5410770177841187,4.8690948486328125,8.464012145996094,0.0027962366584688425,0.01877473294734955,-0.0037283156998455524
-0.6320042610168457,4.854738235473633,8.318049430847168,0.0017310036346316338,0.03581846132874489,-0.012250179424881935
-0.6822535395622253,4.818845748901367,8.332406997680664,-0.007856093347072601,0.03581846132874489,-0.016511112451553345
-0.766002357006073,4.854738235473633,8.444869041442871,-0.007856093347072601,-0.01637795753777027,-0.023967742919921875
-0.768395185470581,4.835595607757568,8.442476272583008,0.005991935729980469,-0.04087831825017929,-0.017576344311237335
-0.6080760359764099,4.818845748901367,8.334799766540527,0.01664426550269127,-0.03661738336086273,-0.012250179424881935
-0.610468864440918,4.823631286621094,8.408976554870605,0.004926702938973904,-0.013182258233428001,-0.021837277337908745
-0.6415755748748779,4.835595607757568,8.480761528015137,-0.008921326138079166,-0.009986559860408306,-0.027163442224264145
-0.7133602499961853,4.88345193862915,8.574081420898438,-0.03235645219683647,0.008122402243316174,-0.034620072692632675
-0.766002357006073,4.826024055480957,8.643473625183105,-0.03661738336086273,0.008122402243316174,-0.032489608973264694
-0.6846463680267334,4.854738235473633,8.705986022949219,-0.02063889056444168,0.009187635034322739,-0.029293907806277275
-0.7420741319656372,4.878666400909424,8.734700202941895,-0.011051792651414871,0.0017310036346316338,-0.028228675946593285
-0.6846463680267334,4.835595607757568,8.60040283203125,0.015579032711684704,-0.02063889056444168,-0.021837277337908745
-0.6152545213699341,4.833202838897705,8.519046783447266,0.03901416063308716,-0.03235645219683647,-0.015445878729224205
-0.7420741319656372,4.859523773193359,8.37547779083252,0.06031882017850876,-0.03129122033715248,-0.016511112451553345
-0.7588238716125488,4.88345193862915,8.24147891998291,0.05712312087416649,-0.03129122033715248,-0.0005326165119186044
-0.6511468887329102,4.89063024520874,8.1526460647583,0.04114462435245514,-0.02276935614645481,0.0037283156998455524
-0.5889334678649902,4.878666400909424,8.09521770477295,0.01770949922502041,-0.011051792651414871,0.0037283156998455524
-0.5458626747131348,4.864309310913086,8.107182502746582,-0.04620448127388954,-0.007856093347072601,-0.010119713842868805
-0.6678966283798218,4.904987335205078,8.306085586547852,-0.0930747389793396,-0.011051792651414871,-0.019706811755895615
-0.6487540602684021,4.6633124351501465,8.61475944519043,-0.05685681104660034,-0.1143793985247612,0.025032976642251015
-0.7037889361381531,4.833202838897705,8.696115493774414,-0.01637795753777027,-0.03342168778181076,0.01118494663387537
-0.7636095285415649,4.854738235473633,8.698807716369629,-0.005725627299398184,-0.02916075475513935,-0.0005326165119186044
-0.8117650747299194,4.916951656341553,8.655437469482422,-0.012117025442421436,-0.06324820965528488,0.0037283156998455524
-0.7468597888946533,4.948357105255127,8.696115493774414,-0.01637795753777027,-0.06857437640428543,0.006924014538526535
-0.6631109714508057,4.806881427764893,8.87109088897705,-0.006790860556066036,-0.1143793985247612,-0.013315413147211075
-0.8428717851638794,4.957928657531738,8.667402267456055,0.005991935729980469,-0.17922545969486237,-0.027163442224264145
-0.6990033388137817,4.979464054107666,8.542975425720215,-0.00359516148455441,-0.14207544922828674,0.012250179424881935
-0.4262215197086334,4.881059169769287,8.559724807739258,-0.007856093347072601,-0.04087831825017929,0.018641578033566475
-0.5889334678649902,4.833202838897705,8.528617858886719,0.012383334338665009,0.02836182899773121,0.0026630824431777
-0.5482555031776428,4.816452980041504,8.554939270019531,0.05392742156982422,0.0880148783326149,0.031424373388290405
-0.4740779995918274,4.818845748901367,8.571688652038574,0.08268871158361435,0.12529803812503815,0.032489608973264694
-0.8333004713058472,4.816452980041504,8.609973907470703,0.14660269021987915,0.1402112990617752,0.01438064593821764
-1.2711870670318604,4.809274196624756,8.535796165466309,0.19879911839962006,0.11784140020608902,0.053794268518686295
-1.072582721710205,4.8212385177612305,8.289336204528809,0.21371237933635712,0.12849372625350952,0.07829462736845016
-0.5099703073501587,4.782953262329102,6.967600345611572,0.2062557488679886,0.2467346042394638,0.06657706201076508
-0.6511468887329102,4.8690948486328125,8.06650447845459,0.1849510818719864,0.32662707567214966,0.037815771996974945
-0.8141579031944275,4.955535888671875,8.58604621887207,0.1295589655637741,-0.18135592341423035,-0.0026630824431777
-0.7878368496894836,5.163711071014404,8.954839706420898,0.04647079110145569,-0.6553846001625061,0.022902509197592735
-0.5697908997535706,4.972285270690918,9.33320426940918,-0.02063889056444168,-0.6575151085853577,0.00905448105186224
-0.016749758273363113,4.8930230140686035,9.021839141845703,-0.04940018057823181,-0.6596455574035645,-0.09959928691387177
0.0023928226437419653,4.924129962921143,8.629117012023926,-0.0717700719833374,-0.578687846660614,-0.15499140322208405
0.04307080805301666,4.989035129547119,8.583653450012207,-0.11970555782318115,-0.37416309118270874,-0.20718781650066376
-0.11964113265275955,5.0464630126953125,8.77777099609375,-0.09413997083902359,-0.1877473145723343,-0.20718781650066376
-0.3281157910823822,5.101497650146484,8.617152214050293,-0.005725627299398184,-0.07496577501296997,-0.15392617881298065
-0.37836506962776184,5.048855781555176,8.487939834594727,0.08481918275356293,-0.11650986224412918,-0.06657706201076508
-0.4668995141983032,4.895416259765625,7.906185150146484,0.11890663951635361,-0.2069215178489685,-0.015445878729224205
0.035892341285943985,5.039284706115723,8.322834968566895,0.1945381760597229,-0.3358147144317627,0.08042509108781815
0.5650052428245544,5.2283172607421875,8.184051513671875,0.20092958211898804,-0.15166255831718445,0.07935985922813416
0.49322056770324707,5.19242525100708,8.140681266784668,0.16684211790561676,-0.01637795753777027,0.035685304552316666
-0.040677983313798904,5.063212871551514,8.016255378723145,0.011318100616335869,0.2371474951505661,-0.017576344311237335
-0.2584248483181,4.9531426429748535,7.9157562255859375,-0.1866820901632309,0.205190509557724,-0.01438064593821764
-0.22013968229293823,4.847559452056885,8.497511863708496,-0.27829211950302124,0.10292813926935196,0.012250179424881935
-0.031106693670153618,4.996213912963867,9.122337341308594,-0.2505960762500763,0.1732335239648819,-0.023967742919921875
-0.3089732229709625,4.885844707489014,9.021839141845703,-0.14620323479175568,0.17855969071388245,-0.07616416364908218
-0.5147559642791748,4.852344989776611,8.772985458374023,-0.02276935614645481,0.10825430601835251,-0.051663801074028015
-0.4334000051021576,4.912165641784668,8.45444107055664,0.06990591436624527,0.005991935729980469,0.0005326165119186044
-0.3640081584453583,4.962714195251465,8.325227737426758,0.08375394344329834,-0.05366111174225807,0.030359141528606415
-0.24406790733337402,4.902594566345215,8.315656661987305,-0.04833494871854782,0.09440627694129944,-0.0079892473295331
-0.3568296730518341,4.818845748901367,8.47597599029541,-0.09733566641807556,0.09334104508161545,-0.022902509197592735
-0.37836506962776184,4.864309310913086,8.617152214050293,-0.11011846363544464,0.06884068250656128,-0.018641578033566475
-0.34725838899612427,4.826024055480957,8.684151649475098,-0.10053136944770813,0.06244928762316704,0.0015978495357558131
-0.3233301639556885,4.778167724609375,8.581260681152344,-0.05685681104660034,0.12103710323572159,0.0047935484908521175
-0.43100717663764954,4.730311393737793,8.442476272583008,-0.03235645219683647,0.1945381760597229,0.016511112451553345
-0.643968403339386,4.782953262329102,8.430512428283691,-0.05366111174225807,0.2371474951505661,0.048468101769685745
-0.5554339289665222,4.7973103523254395,8.59322452545166,-0.09946613013744354,0.17749445140361786,0.046337638050317764
-0.490827739238739,4.833202838897705,8.844769477844238,-0.11544463038444519,0.10186290740966797,0.023967742919921875
-0.5554339289665222,4.811667442321777,8.899805068969727,-0.0824224054813385,0.03901416063308716,0.012250179424881935
-0.524327278137207,4.7973103523254395,8.550153732299805,-0.009986559860408306,0.02623136341571808,-0.023967742919921875
-0.5650052428245544,4.773382186889648,8.59322452545166,0.000665770610794425,0.03262276202440262,-0.01438064593821764
-0.6559324860572815,4.768596649169922,8.590831756591797,0.01877473294734955,0.04647079110145569,0.0047935484908521175
-0.5434698462486267,4.737489700317383,8.511868476867676,0.02410089783370495,0.014513799920678139,0.019706811755895615
-0.5315057039260864,4.723132610321045,8.514261245727539,0.01664426550269127,-0.01637795753777027,0.018641578033566475
-0.5267201066017151,4.751846790313721,8.464012145996094,-0.005725627299398184,-0.04407401755452156,0.012250179424881935
-0.3807578980922699,4.694418907165527,8.478368759155273,-0.02809552103281021,-0.039813082665205,-0.0037283156998455524
-0.5578267574310303,4.684847831726074,8.583653450012207,-0.03235645219683647,-0.01744319126009941,-0.022902509197592735
-0.5530411601066589,4.715954303741455,8.60758113861084,-0.03022598661482334,0.015579032711684704,-0.021837277337908745
-0.5003990530967712,4.677669048309326,8.583653450012207,-0.02596505545079708,0.04753602296113968,-0.027163442224264145
-0.7396813035011292,4.701597213745117,8.557332038879395,-0.0185084231197834,-0.007856093347072601,-0.037815771996974945
-0.675075113773346,4.744668006896973,8.464012145996094,-0.02596505545079708,-0.02809552103281021,-0.028228675946593285
-0.5530411601066589,4.770989418029785,8.346763610839844,-0.04513924941420555,-0.03342168778181076,-0.023967742919921875
-0.579362154006958,4.751846790313721,8.353941917419434,-0.08987903594970703,-0.014247491955757141,-0.039946239441633224
-0.6152545213699341,4.701597213745117,8.523832321166992,-0.10905323177576065,-0.0014646954368799925,-0.042076703161001205
-0.6559324860572815,4.773382186889648,8.789734840393066,-0.09200949966907501,-0.02276935614645481,-0.034620072692632675
-0.5865406394004822,4.699204444885254,8.940483093261719,-0.0504654161632061,-0.0611177459359169,-0.019706811755895615
-0.5578267574310303,4.692026138305664,8.823234558105469,-0.00359516148455441,-0.10585752874612808,-0.029293907806277275
-0.5697908997535706,4.732704162597656,8.77059268951416,0.02623136341571808,-0.12929265201091766,-0.032489608973264694
-0.5697908997535706,4.692026138305664,8.686544418334961,0.03901416063308716,-0.1463363915681839,-0.0079892473295331
-0.5362913608551025,4.723132610321045,8.756235122680664,0.03262276202440262,-0.14207544922828674,-0.0047935484908521175
-0.5147559642791748,4.696811676025391,8.708378791809082,0.01664426550269127,-0.18348638713359833,-0.025032976642251015
-0.38315072655677795,4.692026138305664,8.471190452575684,-0.005725627299398184,-0.17176882922649384,-0.029293907806277275
-0.4046861231327057,4.720739841461182,8.495118141174316,-0.03129122033715248,-0.1260969638824463,-0.027163442224264145
-0.38315072655677795,4.6872406005859375,8.447261810302734,-0.0238345880061388,-0.08668334037065506,-0.021837277337908745
-0.3975076675415039,4.742275238037109,8.449654579162598,-0.02703028731048107,-0.05898727849125862,-0.026098208501935005
-0.48364928364753723,4.818845748901367,8.650651931762695,-0.03768261894583702,-0.06218297779560089,-0.020772043615579605
-0.4142574071884155,4.744668006896973,8.698807716369629,-0.04300878196954727,-0.008921326138079166,-0.006924014538526535
-0.45972105860710144,4.720739841461182,8.744271278381348,-0.04620448127388954,0.011318100616335869,-0.0047935484908521175
-0.48843491077423096,4.706383228302002,8.88544750213623,-0.05259587988257408,-0.03342168778181076,-0.0047935484908521175
-0.4668995141983032,4.7350969314575195,8.868698120117188,-0.04087831825017929,-0.14420592784881592,-0.022902509197592735
-0.37118661403656006,4.7039899826049805,8.7538423538208,0.0038614696823060513,-0.18881255388259888,-0.016511112451553345
-0.2994019389152527,4.682454586029053,8.617152214050293,0.02197043038904667,-0.1367492824792862,-0.018641578033566475
-0.2994019389152527,4.627419948577881,8.542975425720215,0.01877473294734955,-0.11118369549512863,-0.016511112451553345
-0.3209373354911804,4.605884552001953,8.566903114318848,-0.004660394508391619,-0.08348763734102249,-0.006924014538526535
-0.30179476737976074,4.668097972869873,8.49990463256836,-0.03022598661482334,-0.08774857223033905,-0.0026630824431777
-0.24646073579788208,4.644169807434082,8.540582656860352,-0.04620448127388954,-0.08774857223033905,0.0005326165119186044
-0.15314064919948578,4.608277320861816,8.47597599029541,-0.04940018057823181,-0.08348763734102249,-0.0015978495357558131
-0.11485548317432404,4.581956386566162,8.60040283203125,-0.05685681104660034,-0.05792204663157463,0.0015978495357558131
-0.09092725813388824,4.632205486297607,8.61475944519043,-0.08135717362165451,0.01877473294734955,0.0005326165119186044
-0.0933200865983963,4.572384834289551,8.660223007202148,-0.11970555782318115,0.11038476973772049,-0.00585878174751997
-0.1986042857170105,4.584349155426025,8.830412864685059,-0.14620323479175568,0.1529940962791443,-0.0047935484908521175
-0.5913262963294983,4.608277320861816,9.31166934967041,-0.05579157918691635,0.5224968194961548,-0.036750540137290955
-1.3384851217269897,4.888237476348877,10.029815673828125,0.10399337112903595,-0.1547250896692276,0.045272402465343475
-0.34725838899612427,4.572384834289551,9.371489524841309,0.17855969071388245,-0.6276885867118835,0.14540430903434753
0.08614161610603333,4.397409915924072,9.064909934997559,0.18069015443325043,-0.671363115310669,0.1177082508802414
0.40229329466819763,4.172484397888184,8.116753578186035,0.13488513231277466,-0.4615122079849243,-0.029293907806277275
0.1986042857170105,4.560420989990234,8.004290580749512,0.08694964647293091,-0.2069215178489685,-0.0750989317893982
-0.2105683982372284,4.785346031188965,8.401798248291016,-0.0238345880061388,0.10505861043930054,-0.062316130846738815
-0.3161516785621643,4.699204444885254,8.401798248291016,-0.06324820965528488,0.11145000159740448,-0.031424373388290405
-0.1746760457754135,4.6178483963012695,8.320442199707031,-0.10692276805639267,0.04753602296113968,0.013315413147211075
-0.2682952284812927,4.660919189453125,8.511868476867676,-0.06005251035094261,0.0347532257437706,0.043141938745975494
-0.3113660514354706,4.6633124351501465,8.734700202941895,0.0027962366584688425,0.11677616834640503,0.09959928691387177
-0.15074782073497772,4.483850479125977,8.861519813537598,0.06457975506782532,0.1519288569688797,0.08255556225776672
-0.19142581522464752,4.493422031402588,8.816056251525879,0.0667102187871933,0.1295589655637741,0.0633813664317131
-0.28983065485954285,4.524528503417969,8.801698684692383,0.04753602296113968,0.0347532257437706,0.059120431542396545
-0.1052841991186142,4.54127836227417,8.676973342895508,-0.0025299284607172012,-0.007856093347072601,0.07083799690008163
-0.24885354936122894,4.481457710266113,8.859127044677734,-0.07816147059202194,0.14553746581077576,-0.032489608973264694
-0.3927220106124878,4.553242206573486,8.847162246704102,-0.04726971685886383,0.05499265342950821,-0.029293907806277275
