accX,accY,accZ,gyroX,gyroY,gyroZ
1.596909999847412,5.392524719238281,7.528119087219238,-0.12862688302993774,0.018242115154862404,-0.031024912372231483
1.4841482639312744,5.502594947814941,7.801199913024902,-0.11584409326314926,0.029959678649902344,-0.020372580736875534
1.5224334001541138,5.632106304168701,7.856534004211426,-0.06471290439367294,0.013981183059513569,0.001997311832383275
1.8340985774993896,5.67039155960083,7.777271747589111,-0.008255556225776672,-0.014780107885599136,0.008388710208237171
1.872383713722229,5.6823554039001465,7.648059368133545,0.0002663082559593022,-0.020106272771954536,-0.00226362026296556
1.7835501432418823,5.691926956176758,7.607381343841553,-0.026364516466856003,0.010785484686493874,-0.017176883295178413
1.6639090776443481,5.6656060218811035,7.81555700302124,-0.05086487531661987,0.027829213067889214,-0.017176883295178413
1.6136597394943237,5.555535793304443,7.805985450744629,-0.04660394415259361,0.021437814459204674,-0.0011983871227130294
1.6088740825653076,5.519344329833984,7.777271747589111,-0.018907885998487473,0.009720250964164734,0.017975807189941406
1.7596219778060913,5.55314302444458,7.671987533569336,0.013049104250967503,-0.014780107885599136,0.013714875094592571
1.6998014450073242,5.598606586456299,7.621738433837891,0.017310036346316338,-0.025432437658309937,-0.0001331541279796511
1.596909999847412,5.562714576721191,7.729415416717529,-0.00719032296910882,0.006524552125483751,-0.0011983871227130294
1.4793626070022583,5.509773254394531,7.9642109870910645,0.009853405877947807,0.07137060910463333,0.028628136962652206
1.5418751239776611,5.481059551239014,7.727022647857666,0.020505735650658607,0.021437814459204674,0.03928046673536301
1.6686947345733643,5.5360941886901855,7.334300518035889,-0.025299284607172012,-0.09893351793289185,0.040345702320337296
1.714158296585083,5.504987716674805,7.727022647857666,-0.06577813625335693,0.026763979345560074,0.037150003015995026
2.516651153564453,5.6153564453125,5.899205207824707,-0.12862688302993774,-0.13728190958499908,0.024367205798625946
1.651944875717163,5.945865154266357,8.421838760375977,-0.2669740319252014,0.11291470378637314,-0.04913387447595596
1.5152549743652344,5.392524719238281,8.618049621582031,-0.09773512929677963,0.1800243854522705,-0.008655018173158169
1.7476578950881958,5.509773254394531,8.457730293273926,0.08548495173454285,0.1597849577665329,0.0712374597787857
2.0303099155426025,5.524130344390869,7.401299476623535,0.08868064731359482,-0.10958584398031235,0.011584409512579441
1.9010975360870361,5.481059551239014,7.302894592285156,-0.016777420416474342,-0.07656362652778625,-0.07576470077037811
1.4889339208602905,5.579464435577393,7.741379261016846,-0.11797455698251724,0.0555252730846405,-0.06830807030200958
1.409970760345459,5.562714576721191,8.04796028137207,-0.09773512929677963,0.07243584841489792,-0.013981183059513569
1.7644076347351074,5.406881809234619,7.827520847320557,-0.0007989247678779066,-0.004127778112888336,0.0030625448562204838
1.836491346359253,5.3709893226623535,7.432406425476074,0.03861469775438309,-0.044606633484363556,-0.031024912372231483
1.714158296585083,5.428417205810547,7.269395351409912,0.013049104250967503,-0.045671865344047546,-0.053394805639982224
1.5634105205535889,5.471487998962402,7.379764080047607,-0.0902784988284111,-0.021171506494283676,-0.0555252730846405
1.561017632484436,5.481059551239014,7.5137619972229,-0.1435401439666748,-0.006258244160562754,-0.040612008422613144
1.7117655277252197,5.466702461242676,7.866105556488037,-0.18188853561878204,0.020372580736875534,-0.013981183059513569
1.8628123998641968,5.514558792114258,8.031209945678711,-0.14140968024730682,0.015046416781842709,-0.020372580736875534
1.8867406845092773,5.60099983215332,7.909176349639893,-0.09773512929677963,-0.011584409512579441,-0.05659050494432449
2.1454646587371826,5.67039155960083,7.638488292694092,-0.2500634491443634,0.14274121820926666,-0.21317975223064423
2.095215320587158,5.629713535308838,7.621738433837891,-0.33940985798835754,0.28015628457069397,-0.2685718834400177
2.670090913772583,5.641677379608154,7.695915699005127,-0.3841496706008911,0.23861220479011536,-0.32822492718696594
2.6748766899108887,5.723033428192139,7.844570159912109,-0.3979976773262024,0.18322007358074188,-0.4070521593093872
2.5525436401367188,5.785246849060059,7.980960845947266,-0.396932452917099,0.11930610239505768,-0.4922707974910736
2.241177558898926,5.584249973297119,8.225327491760254,-0.3628450036048889,0.03209014609456062,-0.6497921347618103
2.241177558898926,5.385346412658691,8.249256134033203,-0.34899696707725525,-0.015845341607928276,-0.7328802943229675
1.6734803915023804,5.651248931884766,7.928318500518799,-0.3756277859210968,0.0011983871227130294,-0.8692301511764526
1.5801602602005005,5.203192710876465,7.93789005279541,-0.44380271434783936,0.08202294260263443,-0.9374050498008728
0.794417142868042,4.867898464202881,7.779664516448975,-0.5023905038833618,0.11078423261642456,-0.9246222376823425
0.4612165689468384,4.546961307525635,7.798807144165039,-0.5790873169898987,0.1374150663614273,-0.8298165202140808
0.3798605799674988,4.482056140899658,8.014460563659668,-0.7090457081794739,0.07989247888326645,-0.7669677734375
0.3032902777194977,4.417449474334717,8.26839828491211,-0.7346113324165344,0.05232957378029823,-0.7499240636825562
-1.0980064868927002,3.749253988265991,8.977571487426758,-0.547130286693573,0.07882724702358246,-0.5592473149299622
-1.2921242713928223,3.406482219696045,9.183652877807617,-0.3884105980396271,0.1608501821756363,-0.2557890713214874
-0.5231308341026306,3.296412229537964,9.28893756866455,-0.2989310026168823,0.14274121820926666,0.044606633484363556
0.44446679949760437,3.7755749225616455,9.075676918029785,-0.1765623688697815,-0.0009320789249613881,0.09041165560483932
0.11156535893678665,4.295415878295898,8.522336959838867,-0.05086487531661987,-0.035019535571336746,-0.20039696991443634
-0.02961117960512638,4.479662895202637,8.778668403625488,-0.04553871229290962,0.0001331541279796511,-0.08002562820911407
0.5572285652160645,4.477270126342773,8.618049621582031,-0.03275591507554054,-0.020106272771954536,0.060585130006074905
0.7465606927871704,4.487140655517578,8.04796028137207,0.05352795869112015,-0.255522757768631,0.0829550251364708
1.2999008893966675,4.5445685386657715,8.759525299072266,0.17922545969486237,0.0001331541279796511,0.001997311832383275
0.6768696904182434,4.668995380401611,8.390731811523438,0.03328853100538254,0.14700216054916382,-0.03528584539890289
0.4612165689468384,4.630710124969482,8.596514701843262,-0.12117026001214981,0.11078423261642456,0.040345702320337296
0.667298436164856,4.211368083953857,8.560622215270996,-0.13501828908920288,0.020372580736875534,0.035019535571336746
0.5739783048629761,4.206582069396973,8.663812637329102,-0.10625699162483215,0.019307348877191544,0.009453942999243736
0.2961117923259735,4.185046672821045,8.85763168334961,-0.0007989247678779066,0.10013190656900406,-0.005459319334477186
0.3032902777194977,4.1659040451049805,8.941679000854492,0.10252867639064789,0.03954677656292915,0.030758604407310486
0.35832518339157104,4.3193440437316895,8.584549903869629,0.1536598652601242,-0.001997311832383275,0.028628136962652206
0.5213362574577332,4.35045051574707,8.294719696044922,0.15259462594985962,-0.017975807189941406,0.010519175790250301
0.483051061630249,4.324129581451416,8.256434440612793,0.13768136501312256,-0.013714875094592571,0.006258244160562754
0.3367897868156433,4.441378116607666,8.486444473266602,0.09613727778196335,-0.024367205798625946,0.023301972076296806
0.5285146832466125,4.424628257751465,8.567800521850586,0.08122401684522629,0.019307348877191544,0.09453943371772766
0.516550600528717,4.427021026611328,8.630014419555664,0.1536598652601242,-0.058454662561416626,0.10625699162483215
0.5787639617919922,4.441378116607666,8.177471160888672,0.279357373714447,0.08628387749195099,0.12010502070188522
0.6170491576194763,4.750650405883789,8.285148620605469,0.23461757600307465,-0.09999874979257584,0.033954303711652756
0.514157772064209,4.5684967041015625,8.34018325805664,-0.05512581020593643,0.013981183059513569,-0.004394086077809334
0.6577271223068237,4.472484588623047,8.512765884399414,-0.13821399211883545,0.0033288532868027687,0.012649642303586006
0.7103692293167114,4.712066173553467,8.70209789276123,-0.19467133283615112,-0.006258244160562754,-0.017176883295178413
0.4588237404823303,4.417449474334717,9.245866775512695,-0.07962616533041,0.13102366030216217,-0.050199106335639954
0.3320041298866272,4.525425910949707,9.207581520080566,0.09720251709222794,-0.06910699605941772,-0.04913387447595596
0.724726140499115,4.585246562957764,8.402695655822754,0.197334423661232,-0.04993279650807381,-0.011850717477500439
0.6505486369132996,4.506283283233643,8.093423843383789,0.1227681040763855,-0.024367205798625946,-0.054460037499666214
0.372682124376297,4.424628257751465,8.14636516571045,0.04500609636306763,-0.019041040912270546,-0.04913387447595596
0.38703906536102295,4.436592102050781,8.127222061157227,0.011983871459960938,-0.022236740216612816,-0.008655018173158169
0.4301098585128784,4.479662895202637,8.132007598876953,-0.00399462366476655,-0.023301972076296806,-0.005459319334477186
0.43968117237091064,4.515854358673096,8.134400367736816,-0.025299284607172012,-0.037150003015995026,-0.007589785382151604
0.6433702111244202,4.561318397521973,8.625227928161621,-0.021038351580500603,-0.027562905102968216,0.014780107885599136
0.7441678643226624,4.606781959533691,8.675776481628418,-0.0007989247678779066,-0.027562905102968216,0.016910573467612267
0.6864410042762756,4.578067779541016,8.663812637329102,0.016244804486632347,-0.033954303711652756,-0.011850717477500439
0.5117649435997009,4.5445685386657715,8.606085777282715,0.0077229393646121025,-0.04993279650807381,-0.029959678649902344
0.5093721151351929,4.578067779541016,8.601300239562988,-0.0018641578499227762,-0.048867564648389816,-0.019307348877191544
0.5811567902565002,4.5684967041015625,8.685347557067871,0.027962366119027138,-0.014780107885599136,-0.0033288532868027687
0.6457630395889282,4.494318962097168,8.690134048461914,0.09187635034322739,-0.029693370684981346,0.005193010903894901
0.5787639617919922,4.496711730957031,8.515158653259277,0.14726845920085907,-0.059519894421100616,-0.018242115154862404
0.516550600528717,4.5684967041015625,8.325826644897461,0.14726845920085907,-0.08615072071552277,-0.016111649572849274
0.5667998790740967,4.623531341552734,8.275577545166016,0.13128997385501862,-0.09893351793289185,-0.004394086077809334
0.6649056077003479,4.716851711273193,8.225327491760254,0.07589785009622574,-0.061650361865758896,0.011584409512579441
0.6481558084487915,4.700101852416992,8.321041107177734,0.027962366119027138,-0.037150003015995026,0.004127778112888336
0.5883352756500244,4.657031059265137,8.51755142211914,0.04181039705872536,-0.048867564648389816,0.009453942999243736
0.638584554195404,4.659423828125,8.659027099609375,0.09400681406259537,-0.06910699605941772,0.015845341607928276
0.6337988972663879,4.642673969268799,8.512765884399414,0.1430075317621231,-0.07975932210683823,0.008388710208237171
0.5237290859222412,4.601995944976807,8.349754333496094,0.15685556828975677,-0.11171631515026093,0.005193010903894901
1.4171491861343384,4.96839714050293,8.009675025939941,0.08868064731359482,-0.09467258304357529,-0.010785484686493874
1.0316057205200195,5.136193752288818,8.321041107177734,-0.07003907114267349,0.04913387447595596,-0.03209014609456062
0.8327022790908813,5.085944652557373,8.714061737060547,-0.12756165862083435,0.04274247586727142,0.008388710208237171
0.8685946464538574,4.958825588226318,8.802596092224121,-0.09560466557741165,0.021437814459204674,0.005193010903894901
0.9379864931106567,4.719244480133057,8.543871879577637,-0.024234050884842873,0.016111649572849274,-0.00226362026296556
0.8590233325958252,4.668995380401611,8.51755142211914,-0.014646953903138638,0.053394805639982224,0.006258244160562754
0.5739783048629761,4.731208801269531,8.469695091247559,-0.009320789016783237,0.09800143539905548,0.023301972076296806
0.6290132403373718,4.798506736755371,8.565407752990723,0.011983871459960938,0.0745663121342659,0.033954303711652756
0.9044869542121887,4.671388149261475,8.36411190032959,0.07376738637685776,0.043807707726955414,-0.0033288532868027687
0.41575294733047485,4.716851711273193,8.167900085449219,0.08761541545391083,0.009720250964164734,-0.007589785382151604
0.724726140499115,4.72163724899292,7.959425449371338,0.0695064514875412,-0.052063263952732086,0.025432437658309937
0.8422735929489136,4.824827671051025,8.014460563659668,0.04394086077809334,0.031024912372231483,0.023301972076296806
0.8183453679084778,4.90618371963501,8.019246101379395,0.005592473316937685,0.06511236727237701,0.013714875094592571
0.7369893789291382,4.8367919921875,8.282755851745605,0.03435376659035683,-0.061650361865758896,0.013714875094592571
0.7657032608985901,4.963611602783203,8.804988861083984,0.1014634445309639,0.058720968663692474,0.035019535571336746
0.6816553473472595,4.894219398498535,8.622835159301758,0.12170287221670151,0.18854624032974243,0.05312849581241608
0.7295117974281311,4.9037909507751465,8.43140983581543,0.06418029218912125,0.20878566801548004,0.06804175674915314
0.9667003750801086,4.760221481323242,8.474480628967285,0.04394086077809334,0.22050324082374573,0.08721595257520676
0.8087740540504456,4.870291233062744,8.43140983581543,0.0908111184835434,0.1491326242685318,0.04993279650807381
0.5955137610435486,4.954040050506592,8.433802604675293,0.14939893782138824,0.2556559145450592,0.057389430701732635
0.483051061630249,4.989932537078857,8.34736156463623,0.15259462594985962,0.27376487851142883,0.06378082931041718
0.4420739710330963,4.865505695343018,8.112865447998047,0.1430075317621231,0.21837277710437775,0.07017222791910172
0.389431893825531,4.860720157623291,8.158329010009766,0.1451379954814911,0.1704372763633728,0.07762885838747025
0.2745763957500458,5.016253471374512,8.163114547729492,0.14620323479175568,0.16724158823490143,0.07017222791910172
0.4325026869773865,5.062016487121582,8.182256698608398,0.17283405363559723,0.0958709716796875,0.06378082931041718
0.5907281041145325,5.040481090545654,8.277970314025879,0.1664426624774933,0.11291470378637314,0.11051792651414871
0.516550600528717,4.884648323059082,8.05513858795166,0.20372581481933594,0.060851436108350754,0.10412652790546417
0.4085744619369507,5.234299659729004,7.921140193939209,0.2825530469417572,0.0958709716796875,0.10732222348451614
0.5021936297416687,5.411667346954346,7.504190921783447,0.05991935729980469,-0.08934641629457474,0.005193010903894901
0.4468596279621124,5.212764263153076,7.904390335083008,-0.21171505749225616,-0.037150003015995026,0.0009320789249613881
0.5787639617919922,5.217549800872803,8.34736156463623,-0.21064983308315277,0.00226362026296556,-0.009720250964164734
0.4492524564266205,4.980361461639404,8.551051139831543,-0.10732222348451614,-0.045671865344047546,-0.08215609937906265
0.32961133122444153,5.2992048263549805,8.318648338317871,-0.13714875280857086,-0.08402025699615479,-0.08854749798774719
0.4588237404823303,5.243870735168457,8.04796028137207,-0.25752007961273193,-0.13302096724510193,-0.09174319356679916
0.5524429082870483,5.059623718261719,8.153543472290039,-0.3532578945159912,-0.1351514458656311,-0.1087869256734848
0.4468596279621124,4.997110843658447,8.225327491760254,-0.40332385897636414,-0.13728190958499908,-0.15352670848369598
0.28175488114356995,4.939683437347412,8.586943626403809,-0.4299546778202057,-0.28002312779426575,-0.16417904198169708
0.5333003401756287,4.688137531280518,8.507980346679688,-0.3564535975456238,-0.28961023688316345,-0.09706936031579971
0.6840481758117676,4.585246562957764,8.608478546142578,-0.2276935577392578,-0.26830556988716125,-0.066177599132061
0.8997012972831726,4.668995380401611,8.397910118103027,-0.09134373068809509,-0.2938711643218994,-0.054460037499666214
1.00259268283844,4.7096734046936035,7.9259257316589355,-0.07962616533041,-0.2768274247646332,-0.0768299326300621
0.885344386100769,4.685744762420654,7.873283863067627,-0.14886631071567535,-0.2864145338535309,-0.10346075892448425
0.43968117237091064,4.688137531280518,8.225327491760254,-0.2818872928619385,-0.2651098668575287,-0.08428656309843063
0.355932354927063,4.707280158996582,8.503194808959961,-0.30638766288757324,-0.23315288126468658,-0.04274247586727142
0.6744768619537354,4.772185802459717,8.368897438049316,-0.2605826258659363,-0.13728190958499908,0.07443315535783768
0.2913261651992798,4.9277191162109375,8.675776481628418,0.05246272683143616,0.1278279572725296,-0.14500483870506287
0.07806584239006042,4.824827671051025,8.53190803527832,-0.0476691760122776,-0.016910573467612267,-0.066177599132061
0.23629122972488403,4.5828537940979,8.574978828430176,-0.14886631071567535,-0.16391272842884064,0.019041040912270546
0.7127620577812195,4.59721040725708,8.44576644897461,-0.2712349593639374,-0.34180665016174316,0.07549838721752167
1.2014961242675781,4.455734729766846,8.84805965423584,-0.17123620212078094,-0.05632419511675835,0.009453942999243736
0.9595218896865845,4.295415878295898,9.346364974975586,0.03967992961406708,0.054460037499666214,-0.06830807030200958
0.8685946464538574,4.446163654327393,9.068498611450195,0.21650861203670502,0.00226362026296556,-0.06830807030200958
0.8279166221618652,4.542175769805908,8.467302322387695,0.2708354890346527,-0.07869409024715424,-0.044872939586639404
0.8350951075553894,4.554139614105225,8.256434440612793,0.26550933718681335,-0.06910699605941772,-0.03954677656292915
0.7537391185760498,4.606781959533691,7.911569118499756,0.2090519815683365,-0.009453942999243736,-0.037416309118270874
0.8159525394439697,4.606781959533691,7.954639911651611,0.1334204375743866,-0.028628136962652206,-0.015046416781842709
0.8781659007072449,4.628317356109619,7.906783103942871,0.06631075590848923,-0.07762885838747025,-0.016111649572849274
0.8207381963729858,4.673780918121338,8.361719131469727,0.07057169079780579,0.031024912372231483,-0.015046416781842709
1.0962119102478027,4.683351993560791,7.9713897705078125,0.1653774231672287,0.08947957307100296,-0.031024912372231483
0.9882357716560364,4.7626142501831055,8.630014419555664,-0.012516488321125507,0.21091613173484802,0.022236740216612816
0.7417750358581543,4.731208801269531,8.960822105407715,0.0375494658946991,0.1810896098613739,0.041410934180021286
0.849452018737793,4.724030017852783,8.690134048461914,0.13555090129375458,0.044872939586639404,0.009453942999243736
0.8805587291717529,4.870291233062744,8.57019329071045,0.1877473145723343,0.1821548491716385,0.041410934180021286
0.9355936646461487,4.956432819366455,8.601300239562988,0.18348638713359833,0.1928071826696396,0.058454662561416626
0.7680960893630981,4.9037909507751465,8.421838760375977,0.16857312619686127,0.15126308798789978,0.06910699605941772
0.636191725730896,4.858327388763428,8.395517349243164,0.17709499597549438,0.1608501821756363,0.0712374597787857
0.5380859971046448,4.745565414428711,8.54865837097168,0.21224768459796906,0.14487169682979584,0.07549838721752167
0.7319046258926392,4.712066173553467,8.33300495147705,0.3166405260562897,0.18854624032974243,0.07656362652778625
0.6433702111244202,5.200799942016602,7.933104515075684,0.1653774231672287,0.20985090732574463,0.060585130006074905
0.49262237548828125,5.102694511413574,7.978568077087402,0.12170287221670151,0.15339355170726776,0.06697652488946915
0.3846462368965149,5.270191669464111,8.024031639099121,0.14726845920085907,0.15552401542663574,0.08188978582620621
0.42771705985069275,5.234299659729004,8.210970878601074,0.26657456159591675,0.2588516175746918,0.052063263952732086
0.32243284583091736,5.217549800872803,8.26121997833252,0.24313943088054657,0.22050324082374573,0.12010502070188522
0.46839502453804016,5.265406131744385,8.14636516571045,0.2612484097480774,0.1906767040491104,0.13821399211883545
0.5189434289932251,5.3709893226623535,8.151150703430176,0.28787922859191895,0.20772044360637665,0.1339530497789383
0.45643091201782227,5.519344329833984,8.112865447998047,0.32835808396339417,0.2641777992248535,0.15632294118404388
0.42771705985069275,5.495416164398193,8.148757934570312,0.31983622908592224,0.3110480308532715,0.14886631071567535
0.30568310618400574,5.42363166809082,8.04796028137207,0.3537905216217041,0.39839714765548706,0.18188853561878204
0.2602194547653198,5.6823554039001465,7.662416458129883,0.38042134046554565,0.3493964374065399,0.21064983308315277
0.2386840581893921,5.651248931884766,7.439584732055664,0.37083426117897034,0.3430050313472748,0.20425842702388763
-0.043968115001916885,5.584249973297119,7.10429048538208,0.3038577139377594,0.27056917548179626,0.1446053832769394
-0.21655045449733734,5.7134623527526855,6.910172462463379,0.2633788585662842,0.05978620424866676,0.1222354918718338
0.4660021960735321,6.077470302581787,6.639484405517578,0.015179570764303207,-0.19586972892284393,0.021171506494283676
0.669691264629364,5.612963676452637,7.331907749176025,-0.33621418476104736,-0.033954303711652756,-0.057655736804008484
0.5213362574577332,5.442774295806885,7.600203037261963,-0.3841496706008911,-0.040345702320337296,-0.09600412845611572
-0.046360939741134644,5.74696159362793,7.717451095581055,-0.3617797791957855,-0.09573781490325928,-0.11198262125253677
0.11635100096464157,5.8692946434021,7.997710704803467,-0.4704335331916809,-0.2725664973258972,-0.053394805639982224
0.10438688844442368,5.840580940246582,8.040781021118164,0.6744256615638733,-0.12130340933799744,0.021171506494283676
0.4588237404823303,5.481059551239014,6.783353328704834,0.3527252972126007,-0.15112993121147156,-0.015046416781842709
0.49980083107948303,5.476273536682129,6.615556240081787,0.09933298081159592,-0.07656362652778625,-0.048068638890981674
0.09002995491027832,5.550451278686523,7.283751964569092,-0.2287587970495224,0.03528584539890289,-0.07150376588106155
0.20997019112110138,5.586642742156982,8.002495765686035,-0.2170412242412567,-0.1031944528222084,-0.06298190355300903
0.3846462368965149,5.624927997589111,8.256434440612793,-0.17017097771167755,-0.3077192008495331,-0.047003407031297684
0.5285146832466125,5.433202743530273,8.194221496582031,-0.07962616533041,-0.255522757768631,-0.050199106335639954
0.48783671855926514,5.620141983032227,8.040781021118164,0.03967992961406708,-0.15219517052173615,-0.07256899774074554
0.47108694911003113,5.629713535308838,7.858926773071289,0.05246272683143616,-0.1362166702747345,-0.047003407031297684
0.5237290859222412,5.397310733795166,7.789236068725586,0.0077229393646121025,-0.08934641629457474,0.005193010903894901
0.41096729040145874,5.399703502655029,7.796414375305176,0.027962366119027138,-0.061650361865758896,0.004127778112888336
0.29371899366378784,5.469095230102539,7.703094482421875,0.11744193732738495,-0.07336792349815369,0.016910573467612267
0.5069792866706848,5.476273536682129,7.789236068725586,0.19413872063159943,-0.10852061212062836,0.021171506494283676
0.6840481758117676,5.639284610748291,7.650452136993408,0.12170287221670151,0.0001331541279796511,0.03928046673536301
0.6242275834083557,5.86211633682251,7.909176349639893,-0.0061250897124409676,0.05232957378029823,0.043541401624679565
0.7369893789291382,5.770890235900879,8.273183822631836,-0.03382114693522453,0.037416309118270874,0.054193731397390366
0.7489534616470337,5.6823554039001465,8.199007034301758,0.07163692265748978,0.061916667968034744,0.058454662561416626
0.5380859971046448,5.586642742156982,8.227720260620117,0.14194230735301971,0.11291470378637314,0.0712374597787857
0.42293140292167664,5.646463394165039,8.019246101379395,0.16963836550712585,0.13528458774089813,0.09666989743709564
0.4660021960735321,5.629713535308838,8.002495765686035,0.20479105412960052,0.18322007358074188,0.10945269465446472
0.5644070506095886,5.636891841888428,7.829914093017578,0.30811864137649536,0.14274121820926666,0.11690932512283325
0.4085744619369507,5.7517476081848145,7.259823799133301,0.38255181908607483,0.07350108027458191,0.1222354918718338
0.3678964674472809,5.7134623527526855,6.931707859039307,0.36124715209007263,0.048068638890981674,0.1435401439666748
0.4540380835533142,5.86211633682251,6.397510528564453,0.21544337272644043,0.044872939586639404,0.1552577167749405
0.5021936297416687,6.075077533721924,6.596413612365723,-0.13821399211883545,0.09800143539905548,0.028628136962652206
0.3487538993358612,5.828616619110107,7.784450054168701,-0.3671059310436249,0.29293906688690186,-0.08002562820911407
0.15702898800373077,5.938686847686768,8.51755142211914,-0.20532366633415222,0.19493764638900757,-0.05978620424866676
0.4782654345035553,5.589035511016846,8.225327491760254,-0.009320789016783237,0.026763979345560074,0.004127778112888336
0.3080759048461914,5.48584508895874,7.918747425079346,0.07163692265748978,0.034220609813928604,0.020106272771954536
0.19292132556438446,5.557928562164307,7.8684983253479,0.07057169079780579,-0.0009320789249613881,0.025432437658309937
-0.1543370634317398,5.577071189880371,7.621738433837891,0.03861469775438309,-0.09680305421352386,0.052063263952732086
0.40378883481025696,5.816353797912598,7.590631484985352,-0.029560215771198273,-0.2001306563615799,0.10412652790546417
0.3607180118560791,5.711069583892822,7.918747425079346,-0.08282186836004257,-0.10745538026094437,0.08615072071552277
0.47587260603904724,5.778068542480469,7.748558044433594,0.020505735650658607,-0.09041165560483932,0.08508548885583878
0.5069792866706848,5.782854080200195,7.671987533569336,0.0002663082559593022,-0.08082455396652222,0.08615072071552277
0.35832518339157104,5.756533145904541,8.019246101379395,-0.03275591507554054,-0.055258963257074356,0.0829550251364708
0.5404788255691528,5.591428279876709,7.561618804931641,0.19413872063159943,-0.17349982261657715,0.13075734674930573
0.24107688665390015,5.653641700744629,7.398906707763672,0.15046416223049164,-0.1575213372707367,0.164844810962677
0.7151548862457275,5.60817813873291,7.238288402557373,0.08122401684522629,-0.15326039493083954,0.2383458912372589
1.196710467338562,5.816353797912598,7.310372352600098,0.021570969372987747,-0.052063263952732086,0.22236739099025726
1.074676513671875,6.1950178146362305,6.2898335456848145,-0.06364767253398895,-0.07443315535783768,0.17762760818004608
1.7333009243011475,6.137589931488037,8.467302322387695,-0.0370168462395668,0.1480673849582672,-0.06511236727237701
1.2613166570663452,6.178267955780029,7.707880020141602,-0.00719032296910882,0.14061075448989868,-0.008655018173158169
1.4554343223571777,5.933900833129883,7.286144733428955,-0.12862688302993774,-0.059519894421100616,-0.05659050494432449
1.0579266548156738,5.900401592254639,7.53769063949585,-0.17869283258914948,0.026763979345560074,-0.12476541846990585
0.7680960893630981,5.926722526550293,7.710272789001465,-0.2818872928619385,0.12250179797410965,-0.1300915777683258
0.8973084688186646,5.876473426818848,7.834699630737305,-0.33621418476104736,0.11504516750574112,-0.13222205638885498
0.9044869542121887,5.6584272384643555,7.767700672149658,-0.32556185126304626,0.10545806586742401,-0.14926578104496002
0.4902295470237732,5.255835056304932,7.607381343841553,-0.29360485076904297,-0.07336792349815369,-0.19933173060417175
0.47587260603904724,5.229514122009277,7.487441062927246,-0.3447360396385193,-0.052063263952732086,-0.15672241151332855
0.4468596279621124,5.287240505218506,7.581060409545898,-0.39160630106925964,-0.025432437658309937,-0.14500483870506287
0.4181457459926605,5.277370452880859,8.031209945678711,-0.44486793875694275,-0.019041040912270546,-0.10452599078416824
0.46360939741134644,5.255835056304932,8.297112464904785,-0.3852148950099945,0.020372580736875534,-0.06298190355300903
0.5548357367515564,5.2390851974487305,8.543871879577637,-0.08814803510904312,-0.023301972076296806,-0.036351077258586884
0.4660021960735321,5.251049518585205,8.627620697021484,-0.05619104206562042,-0.010519175790250301,-0.009720250964164734
0.5691927075386047,5.2151570320129395,8.711668968200684,0.04607132822275162,0.0001331541279796511,0.04993279650807381
0.7657032608985901,5.191228866577148,8.37129020690918,0.15152940154075623,-0.043541401624679565,0.048867564648389816
0.8255237936973572,5.1529436111450195,8.016853332519531,0.18029068410396576,-0.050998032093048096,0.040345702320337296
0.7295117974281311,5.258227825164795,7.595417499542236,0.10892007499933243,-0.040345702320337296,0.010519175790250301
0.7342974543571472,5.255835056304932,7.856534004211426,-0.0007989247678779066,0.0011983871227130294,0.021171506494283676
0.7369893789291382,5.227120876312256,8.045567512512207,-0.025299284607172012,0.013981183059513569,0.020106272771954536
0.6505486369132996,5.219942569732666,8.095816612243652,-0.011451254598796368,-0.001997311832383275,0.013714875094592571
0.667298436164856,5.193621635437012,8.043173789978027,0.014114337973296642,-0.026497671380639076,0.017975807189941406
0.6744768619537354,5.14576530456543,7.851748466491699,0.05459319427609444,-0.09147688746452332,0.043541401624679565
0.7800601720809937,5.162514686584473,7.710272789001465,0.06098458915948868,-0.10852061212062836,0.044606633484363556
0.8327022790908813,5.227120876312256,7.63609504699707,0.025831900537014008,-0.04993279650807381,0.017975807189941406
0.8925228714942932,5.3303117752075195,7.5978102684021,-0.05725627392530441,-0.07336792349815369,0.007323476951569319
1.0292128324508667,5.469095230102539,8.356932640075684,-0.1339530497789383,0.019307348877191544,-0.012915950268507004
0.9068797826766968,5.296812057495117,8.649456024169922,-0.08921326696872711,0.05659050494432449,-0.019307348877191544
0.9284151792526245,5.315954685211182,8.285148620605469,0.0034620072692632675,-0.057389430701732635,-0.013981183059513569
1.1033903360366821,5.311169147491455,8.04796028137207,0.03541899845004082,-0.045671865344047546,-0.0555252730846405
1.0268200635910034,5.428417205810547,7.887640953063965,-0.011451254598796368,0.008655018173158169,-0.0874822586774826
0.9308080077171326,5.473880767822266,7.765307903289795,-0.09240896254777908,-0.024367205798625946,-0.10133028775453568
1.074676513671875,5.397310733795166,7.724629878997803,-0.14034445583820343,-0.035019535571336746,-0.12476541846990585
1.2903295755386353,5.47866678237915,7.621738433837891,-0.19041040539741516,-0.042476166039705276,-0.2046578973531723
1.2759727239608765,5.656034469604492,7.581060409545898,-0.24154159426689148,-0.052063263952732086,-0.26431095600128174
1.3286148309707642,5.699105262756348,7.801199913024902,-0.34686651825904846,-0.13728190958499908,-0.39213889837265015
1.409970760345459,5.813961029052734,8.13679313659668,-0.3884105980396271,-0.251261830329895,-0.5272903442382812
1.6256239414215088,5.584249973297119,8.412266731262207,-0.38201919198036194,-0.2011958807706833,-0.6082480549812317
1.3645070791244507,5.404489040374756,8.788239479064941,-0.29786577820777893,0.22050324082374573,-0.7829462885856628
0.5596213936805725,5.4882378578186035,8.668598175048828,-0.2191716879606247,0.45272403955459595,-0.8021204471588135
0.5333003401756287,5.289633750915527,8.160721778869629,-0.25645485520362854,0.09906667470932007,-0.7680330276489258
0.4492524564266205,5.033302307128906,7.849355697631836,-0.3660407066345215,-0.061650361865758896,-0.8447297811508179
-0.09451649338006973,4.654638290405273,7.923532962799072,-0.5780220627784729,-0.009453942999243736,-0.9629706740379333
-0.6550351977348328,3.9864425659179688,8.050353050231934,-0.761242151260376,-0.010519175790250301,-0.8468602299690247
-1.3088740110397339,3.148057222366333,8.821739196777344,-0.8942631483078003,0.17682868242263794,-0.5230293869972229
-1.2586246728897095,3.119044303894043,9.42054271697998,-0.9123721122741699,0.22582940757274628,-0.15352670848369598
-1.1338988542556763,3.303590774536133,9.447162628173828,-0.7601768970489502,-0.029693370684981346,-0.0981345921754837
-0.4776672124862671,3.5096726417541504,9.547661781311035,-0.45658549666404724,-0.22889193892478943,0.037150003015995026
0.07806584239006042,3.5742788314819336,9.367900848388672,-0.29680055379867554,-0.35352420806884766,0.059519894421100616
0.4734797775745392,3.6053855419158936,9.14267635345459,-0.15206201374530792,-0.4025249183177948,0.029693370684981346
0.7561319470405579,3.6870405673980713,8.603693008422852,0.05565842613577843,-0.29919731616973877,-0.11091738939285278
0.483051061630249,4.027120590209961,8.450551986694336,0.1014634445309639,-0.1585865616798401,-0.14926578104496002
0.2602194547653198,4.290630340576172,8.519944190979004,0.05778888985514641,-0.17456506192684174,-0.11091738939285278
0.1618146300315857,4.307379722595215,8.342576026916504,0.030092833563685417,-0.23528334498405457,-0.08641702681779861
0.5428716540336609,4.108476638793945,8.244470596313477,0.2090519815683365,-0.34287187457084656,-0.08854749798774719
0.41096729040145874,4.1419758796691895,7.786843299865723,0.12596380710601807,-0.025432437658309937,-0.172700896859169
-0.24047867953777313,4.1036906242370605,7.904390335083008,-0.41504141688346863,0.028894444927573204,-0.0778951644897461
-0.25244277715682983,3.811467409133911,8.316255569458008,-0.6142399907112122,0.015046416781842709,0.050998032093048096
0.4061816334724426,3.638885021209717,9.535696983337402,-0.6248922944068909,0.0011983871227130294,0.20532366633415222
0.516550600528717,3.6675989627838135,9.81356430053711,-0.265908807516098,-0.11810771375894547,0.09347419440746307
0.21714866161346436,3.583850145339966,9.116354942321777,0.06524552404880524,-0.041410934180021286,0.013714875094592571
0.21714866161346436,3.9696927070617676,8.881559371948242,0.13768136501312256,0.04593817517161369,0.023301972076296806
0.45643091201782227,4.039084434509277,8.81934642791748,0.07483261823654175,-0.008388710208237171,0.045671865344047546
0.4085744619369507,3.6460635662078857,8.944071769714355,0.03328853100538254,-0.044606633484363556,0.027562905102968216
0.17617157101631165,3.583850145339966,9.030213356018066,0.111050546169281,-0.11810771375894547,0.021171506494283676
0.3678964674472809,3.7755749225616455,8.175078392028809,0.1643121987581253,-0.038215234875679016,0.07762885838747025
0.4612165689468384,3.8210387229919434,9.47348403930664,0.34220612049102783,0.299330472946167,0.011584409512579441
0.20997019112110138,4.309772491455078,8.956035614013672,0.32835808396339417,0.07243584841489792,-0.044872939586639404
0.2913261651992798,4.153940200805664,8.862417221069336,0.1866820901632309,-0.11171631515026093,0.020106272771954536
0.3966103494167328,4.07258415222168,8.975178718566895,0.10892007499933243,-0.26724034547805786,0.004127778112888336
0.3320041298866272,4.118047714233398,8.55583667755127,0.023701434955000877,-0.31091487407684326,-0.0033288532868027687
0.4061816334724426,3.75643253326416,8.560622215270996,0.06524552404880524,-0.1777607649564743,0.007323476951569319
0.3080759048461914,3.842574119567871,9.03978443145752,0.24526990950107574,-0.010519175790250301,-0.050199106335639954
0.2913261651992798,4.261916160583496,8.769096374511719,0.26550933718681335,-0.0712374597787857,-0.017176883295178413
0.5524429082870483,4.151547431945801,8.812167167663574,0.25485700368881226,-0.11065108329057693,0.025432437658309937
0.5117649435997009,4.151547431945801,8.567800521850586,0.3134448230266571,-0.10852061212062836,0.006258244160562754
0.41096729040145874,4.1659040451049805,8.591729164123535,0.29853156208992004,-0.10852061212062836,0.0030625448562204838
0.5979065299034119,4.24995231628418,8.388339042663574,0.25698745250701904,-0.09147688746452332,0.017975807189941406
0.4325026869773865,4.3911285400390625,8.292326927185059,0.21224768459796906,-0.057389430701732635,-0.010785484686493874
0.35832518339157104,4.472484588623047,8.105387687683105,0.15152940154075623,-0.15326039493083954,-0.011850717477500439
0.5859424471855164,4.455734729766846,8.225327491760254,0.08655018359422684,-0.26830556988716125,0.0009320789249613881
0.7537391185760498,4.4150567054748535,8.337790489196777,0.07376738637685776,-0.1788259893655777,-0.008655018173158169
0.638584554195404,4.470091819763184,8.419445991516113,0.07696308940649033,-0.027562905102968216,-0.015046416781842709
0.516550600528717,4.484747886657715,8.54865837097168,0.03861469775438309,-0.004127778112888336,-0.013981183059513569
0.6194419860839844,4.379164695739746,8.757132530212402,-0.0007989247678779066,-0.008388710208237171,0.011584409512579441
0.6194419860839844,4.491926193237305,9.03260612487793,0.03541899845004082,0.03848154470324516,0.015845341607928276
0.6337988972663879,4.575675010681152,8.814560890197754,0.12809427082538605,-0.10212921351194382,-0.007589785382151604
0.9188438653945923,4.379164695739746,8.64197826385498,0.3750951886177063,-0.09893351793289185,-0.053394805639982224
0.6601199507713318,4.735994338989258,8.256434440612793,0.28681400418281555,-0.0009320789249613881,0.008388710208237171
0.5380859971046448,4.90618371963501,7.985746383666992,-0.016777420416474342,-0.05632419511675835,0.020106272771954536
0.7441678643226624,4.52781867980957,8.349754333496094,-0.1754971444606781,-0.005193010903894901,0.030758604407310486
0.7920243144035339,4.501497745513916,8.529515266418457,-0.1744319051504135,0.008655018173158169,0.027562905102968216
0.7441678643226624,4.537389755249023,8.74756145477295,-0.10412652790546417,0.033155377954244614,0.020106272771954536
0.5811567902565002,4.450949192047119,8.647063255310059,-0.012516488321125507,0.06298190355300903,0.024367205798625946
0.5189434289932251,4.515854358673096,8.366504669189453,0.023701434955000877,0.026763979345560074,0.040345702320337296
0.5428716540336609,4.4605207443237305,8.24686336517334,0.00452724052593112,0.020372580736875534,0.028628136962652206
0.47587260603904724,4.448556423187256,8.210970878601074,-0.0061250897124409676,0.009720250964164734,0.017975807189941406
0.667298436164856,4.462913513183594,8.266005516052246,-0.014646953903138638,0.020372580736875534,0.016910573467612267
0.5859424471855164,4.5684967041015625,8.553443908691406,-0.023168819025158882,0.043807707726955414,0.021171506494283676
0.7319046258926392,4.546961307525635,8.37129020690918,-0.00399462366476655,-0.03608476743102074,0.031823836266994476
0.5787639617919922,4.549354076385498,8.620442390441895,-0.04021254554390907,0.03954677656292915,0.016910573467612267
0.6337988972663879,4.539782524108887,8.608478546142578,-0.04021254554390907,0.020372580736875534,0.022236740216612816
0.6337988972663879,4.417449474334717,8.639585494995117,-0.029560215771198273,0.022503048181533813,0.009453942999243736
0.5620142221450806,4.386343002319336,8.644669532775879,-0.027429750189185143,0.027829213067889214,0.005193010903894901
0.5763711333274841,4.419842720031738,8.766703605651855,-0.014646953903138638,0.034220609813928604,0.016910573467612267
0.6074778437614441,4.477270126342773,8.721240043640137,0.03648423030972481,0.010785484686493874,0.021171506494283676
0.6505486369132996,4.503890514373779,8.541479110717773,0.09507204592227936,0.009720250964164734,0.014780107885599136
0.5548357367515564,4.566103935241699,8.383553504943848,0.08974587917327881,0.009720250964164734,0.012649642303586006
0.6170491576194763,4.513461589813232,8.22293472290039,0.0588541254401207,0.03848154470324516,0.037150003015995026
0.667298436164856,4.523033142089844,8.251648902893066,0.0002663082559593022,0.07030537724494934,0.043541401624679565
0.6098706722259521,4.506283283233643,8.436195373535156,-0.03595161437988281,0.060851436108350754,0.043541401624679565
0.6409773826599121,4.508676052093506,8.632407188415527,-0.03169068321585655,0.067242830991745,0.041410934180021286
0.5691927075386047,4.530211448669434,8.735597610473633,0.017310036346316338,0.07137060910463333,0.043541401624679565
0.6146563291549683,4.422235488891602,8.7236328125,0.10039821267127991,0.040612008422613144,0.057389430701732635
0.6912266612052917,4.556532382965088,8.527122497558594,0.15792079269886017,0.08841434121131897,0.044606633484363556
0.6074778437614441,4.580460548400879,8.42423152923584,0.16324695944786072,0.09800143539905548,0.041410934180021286
0.5333003401756287,4.6163530349731445,8.366504669189453,0.14833369851112366,0.10758853703737259,0.061650361865758896
0.5931209325790405,4.6402812004089355,8.321041107177734,0.10785484313964844,0.09267527610063553,0.09666989743709564
0.5189434289932251,4.647459983825684,8.546265602111816,0.08974587917327881,0.09054480493068695,0.09041165560483932
0.39900317788124084,4.680959224700928,8.620442390441895,0.10998530685901642,0.08734910935163498,0.06484606117010117
0.42771705985069275,4.695316314697266,8.591729164123535,0.1451379954814911,0.10013190656900406,0.0723026916384697
0.4660021960735321,4.7024946212768555,8.42423152923584,0.1856168508529663,0.1384802907705307,0.08188978582620621
0.5524429082870483,4.676173686981201,8.34736156463623,0.16963836550712585,0.11930610239505768,0.09134373068809509
0.6888338327407837,4.683351993560791,8.172685623168945,0.12915951013565063,0.11078423261642456,0.06591129302978516
0.5715855360031128,4.738387107849121,8.199007034301758,0.08761541545391083,0.10545806586742401,0.03928046673536301
0.43968117237091064,4.747958183288574,8.203792572021484,0.05246272683143616,0.10545806586742401,0.031823836266994476
0.3655036687850952,4.757828712463379,8.258827209472656,0.025831900537014008,0.11291470378637314,0.055258963257074356
0.4205385744571686,4.8176493644714355,8.282755851745605,0.03648423030972481,0.12569749355316162,0.06910699605941772
0.41575294733047485,4.78893518447876,8.35453987121582,0.03541899845004082,0.13102366030216217,0.0723026916384697
0.41575294733047485,4.765007019042969,8.4529447555542,0.03967992961406708,0.12995843589305878,0.10945269465446472
0.3080759048461914,4.827220439910889,8.34018325805664,0.06418029218912125,0.1906767040491104,0.09666989743709564
0.2721835672855377,4.853541851043701,8.359326362609863,0.05459319427609444,0.18748101592063904,0.09347419440746307
0.29850462079048157,4.8559346199035645,8.405088424682617,0.04926702752709389,0.1704372763633728,0.11690932512283325
0.5045864582061768,4.753043174743652,8.443373680114746,0.16005125641822815,0.18641577661037445,0.11690932512283325
0.4782654345035553,4.753043174743652,8.258827209472656,0.16218173503875732,0.17789392173290253,0.07443315535783768
0.1498505175113678,4.901398181915283,8.467302322387695,0.12915951013565063,0.1810896098613739,0.0829550251364708
0.14506487548351288,4.863112926483154,8.591729164123535,0.2069215178489685,0.16724158823490143,0.1531272530555725
0.3487538993358612,4.832006454467773,8.323433876037598,0.3326190114021301,0.2769605815410614,0.19467133283615112
0.42771705985069275,5.023731231689453,8.016853332519531,0.35059481859207153,0.30359140038490295,0.19360610842704773
0.12113664299249649,5.174479007720947,7.805985450744629,0.21331290900707245,0.2769605815410614,0.15206201374530792
-0.2476571500301361,5.234299659729004,7.873283863067627,0.10039821267127991,0.22689463198184967,0.16377957165241241
-0.010468599386513233,5.1529436111450195,7.839784145355225,0.03541899845004082,0.1267627328634262,0.15099677443504333
0.09242277592420578,5.174479007720947,7.820342540740967,-0.002929390873759985,0.09800143539905548,0.11903978884220123
0.1737787425518036,5.200799942016602,8.071887969970703,-0.08601756393909454,0.06298190355300903,0.044606633484363556
0.1618146300315857,5.1218366622924805,8.3931245803833,-0.08814803510904312,0.044872939586639404,0.010519175790250301
0.00867398176342249,5.054837703704834,8.551051139831543,-0.013581721112132072,0.031024912372231483,0.026497671380639076
-0.020039889961481094,5.057230472564697,8.443373680114746,0.09187635034322739,-0.005193010903894901,0.04673709720373154
0.10438688844442368,5.062016487121582,8.285148620605469,0.132355198264122,0.004394086077809334,0.052063263952732086
0.24586252868175507,5.0356950759887695,8.05513858795166,0.13448566198349,0.021437814459204674,0.03928046673536301
0.20757736265659332,5.117051124572754,8.012067794799805,0.05565842613577843,0.07243584841489792,0.020106272771954536
0.06370890140533447,5.229514122009277,8.187042236328125,0.005592473316937685,0.057655736804008484,0.020106272771954536
0.09242277592420578,5.1529436111450195,8.277970314025879,0.05033225938677788,0.050199106335639954,0.031823836266994476
0.0852443054318428,5.1290154457092285,8.2157564163208,0.0801587849855423,0.04913387447595596,0.030758604407310486
0.032602209597826004,5.207978248596191,8.155936241149902,0.09400681406259537,0.03954677656292915,0.033954303711652756
0.15463615953922272,5.102694511413574,8.102994918823242,0.09613727778196335,0.048068638890981674,0.042476166039705276
0.15702898800373077,5.193621635437012,7.890033721923828,0.06524552404880524,0.054460037499666214,0.021171506494283676
0.011066804639995098,5.24626350402832,7.870891094207764,0.00133154122158885,0.022503048181533813,0.019041040912270546
-0.005682953633368015,5.251049518585205,7.966603755950928,-0.03808208182454109,0.015046416781842709,0.022236740216612816
-0.015254244208335876,5.2390851974487305,8.117650985717773,-0.05512581020593643,0.021437814459204674,0.020106272771954536
0.15942180156707764,5.181657314300537,8.359326362609863,-0.03808208182454109,0.007589785382151604,0.020106272771954536
0.15942180156707764,5.138586521148682,8.440980911254883,0.017310036346316338,-0.008388710208237171,-0.0011983871227130294
0.0445663221180439,5.200799942016602,8.14636516571045,0.07802832126617432,-0.010519175790250301,-0.010785484686493874
0.00867398176342249,5.231906890869141,7.921140193939209,0.07057169079780579,-0.019041040912270546,-0.0001331541279796511
0.05892325937747955,5.251049518585205,7.8684983253479,0.04607132822275162,-0.020106272771954536,0.006258244160562754
0.21236300468444824,5.222335338592529,7.918747425079346,-0.010386021807789803,-0.005193010903894901,0.007323476951569319
0.06131608039140701,5.162514686584473,8.043173789978027,-0.04340824484825134,0.006524552125483751,-0.007589785382151604
0.04935196787118912,5.203192710876465,8.112865447998047,-0.022103585302829742,-0.0030625448562204838,-0.004394086077809334
0.1091725304722786,5.229514122009277,8.139185905456543,-0.00399462366476655,-0.010519175790250301,0.005193010903894901
0.1618146300315857,5.169693470001221,8.120043754577637,0.005592473316937685,0.0001331541279796511,0.008388710208237171
0.0852443054318428,5.162514686584473,8.151150703430176,0.021570969372987747,0.018242115154862404,0.006258244160562754
0.08285148441791534,5.203192710876465,8.112865447998047,0.016244804486632347,0.026763979345560074,0.004127778112888336
0.03978067636489868,5.212764263153076,8.13679313659668,0.00452724052593112,0.017176883295178413,0.005193010903894901
0.13549357652664185,5.294419288635254,8.282755851745605,0.006657706573605537,0.00226362026296556,0.005193010903894901
0.02063809521496296,5.282155990600586,8.43140983581543,0.009853405877947807,-0.004127778112888336,0.0009320789249613881
0.06370890140533447,5.186442852020264,8.3931245803833,0.030092833563685417,-0.005193010903894901,0.009453942999243736
0.09481559693813324,5.150550842285156,8.172685623168945,0.1334204375743866,0.061916667968034744,0.030758604407310486
0.08045866340398788,5.186442852020264,7.813164234161377,0.18242116272449493,0.015046416781842709,0.031823836266994476
-0.015254244208335876,5.265406131744385,7.671987533569336,0.15898603200912476,-0.012649642303586006,0.026497671380639076
0.14506487548351288,5.315954685211182,7.650452136993408,0.0077229393646121025,-0.050998032093048096,-0.0033288532868027687
0.15942180156707764,5.325525760650635,7.976175308227539,-0.1552577167749405,0.024633513763546944,-0.03528584539890289
-0.1495514214038849,5.198407173156738,8.210970878601074,-0.1009308323264122,0.015046416781842709,-0.034220609813928604
0.06370890140533447,5.265406131744385,8.079066276550293,-0.07856093347072601,-0.052063263952732086,-0.015046416781842709
0.21236300468444824,5.207978248596191,8.120043754577637,-0.09453943371772766,-0.052063263952732086,-0.004394086077809334
0.2386840581893921,5.200799942016602,8.474480628967285,-0.10838746279478073,-0.027562905102968216,-0.009720250964164734
0.0038883367087692022,5.155336380004883,8.486444473266602,-0.008255556225776672,0.016111649572849274,-0.018242115154862404
-0.046360939741134644,5.217549800872803,8.366504669189453,0.03861469775438309,0.0033288532868027687,-0.013981183059513569
0.054137613624334335,5.164907455444336,8.155936241149902,0.05246272683143616,0.011850717477500439,0.005193010903894901
0.17617157101631165,5.114658355712891,7.954639911651611,0.04926702752709389,0.043807707726955414,0.012649642303586006
0.09242277592420578,5.186442852020264,7.945068359375,0.03861469775438309,0.11504516750574112,0.015845341607928276
-0.0032901312224566936,5.193621635437012,7.99292516708374,0.03861469775438309,0.10758853703737259,0.030758604407310486
0.08045866340398788,5.196014404296875,7.957032680511475,0.06311506032943726,0.057655736804008484,0.030758604407310486
0.13310076296329498,5.157729148864746,7.674380302429199,0.0375494658946991,0.03528584539890289,0.029693370684981346
-0.06550352275371552,5.217549800872803,7.880462169647217,0.011983871459960938,-0.0030625448562204838,0.028628136962652206
-0.05353940650820732,5.351847171783447,7.9642109870910645,-0.05406057462096214,-0.08508548885583878,0.004127778112888336
0.07088737189769745,5.351847171783447,8.24686336517334,-0.17869283258914948,0.024633513763546944,-0.025698747485876083
-0.06550352275371552,5.205585479736328,8.647063255310059,-0.15845340490341187,0.050199106335639954,-0.025698747485876083
-0.041575293987989426,5.2992048263549805,8.546265602111816,-0.03595161437988281,-0.07017222791910172,-0.026763979345560074
0.21236300468444824,5.045266628265381,8.558229446411133,-0.03275591507554054,-0.008388710208237171,-0.0011983871227130294
0.027816563844680786,5.107480049133301,8.572586059570312,0.0482017956674099,0.07989247888326645,0.006258244160562754
-0.0849452018737793,5.227120876312256,8.14636516571045,0.1547250896692276,0.067242830991745,0.017975807189941406
0.04217349737882614,5.1529436111450195,7.837092399597168,0.1557903289794922,0.06511236727237701,0.020106272771954536
0.07806584239006042,5.148158073425293,7.707880020141602,0.1334204375743866,0.07882724702358246,0.024367205798625946
0.08045866340398788,5.1840500831604,7.6528449058532715,0.10892007499933243,0.09374050796031952,0.044606633484363556
0.04217349737882614,5.30638313293457,7.295716285705566,0.12170287221670151,0.07350108027458191,0.06484606117010117
-0.08255238085985184,5.382953643798828,7.535297393798828,0.011983871459960938,-0.06804175674915314,0.026497671380639076
0.13070793449878693,5.248656272888184,8.088638305664062,-0.20425842702388763,0.054460037499666214,0.008388710208237171
-0.05353940650820732,5.2390851974487305,8.781061172485352,-0.14780108630657196,0.051264338195323944,-0.0011983871227130294
-0.1543370634317398,5.265406131744385,8.905488014221191,0.0588541254401207,-0.08082455396652222,-0.031024912372231483
0.12831512093544006,5.318347454071045,8.385946273803711,0.11957240849733353,-0.06591129302978516,-0.008655018173158169
-0.041575293987989426,5.284548759460449,8.071887969970703,0.06631075590848923,-0.001997311832383275,0.006258244160562754
-0.03918246924877167,5.265406131744385,7.945068359375,0.06204982474446297,-0.013714875094592571,0.009453942999243736
0.07806584239006042,5.241477966308594,7.861319541931152,0.06631075590848923,-0.014780107885599136,0.004127778112888336
0.05892325937747955,5.24626350402832,7.7461652755737305,0.04074516147375107,-0.014780107885599136,-0.0001331541279796511
-0.008075776509940624,5.267798900604248,7.7461652755737305,0.03648423030972481,-0.020106272771954536,-0.004394086077809334
0.04695914313197136,5.284548759460449,7.8780694007873535,0.03861469775438309,-0.012649642303586006,0.009453942999243736
0.05174478888511658,5.315954685211182,7.985746383666992,0.03541899845004082,0.016111649572849274,0.029693370684981346
0.11156535893678665,5.3303117752075195,8.26121997833252,0.08974587917327881,0.004394086077809334,0.041410934180021286
0.08285148441791534,5.375775337219238,8.12961483001709,0.1014634445309639,0.015046416781842709,0.05312849581241608
-0.005682953633368015,5.404489040374756,8.007282257080078,0.10998530685901642,0.040612008422613144,0.06910699605941772
-0.017647067084908485,5.459524154663086,7.935497283935547,0.12063764035701752,0.028894444927573204,0.07549838721752167
0.1666002720594406,5.404489040374756,7.842176914215088,0.11531147360801697,0.043807707726955414,0.09773512929677963
0.1785643845796585,5.404489040374756,7.791628837585449,0.10998530685901642,0.061916667968034744,0.10519175976514816
0.23389841616153717,5.335097312927246,7.590631484985352,0.09294158220291138,0.09480573982000351,0.10306129604578018
0.22193430364131927,5.4571309089660645,7.547261714935303,0.06204982474446297,0.12037133425474167,0.08188978582620621
0.05892325937747955,5.5121660232543945,7.554440021514893,0.013049104250967503,0.11930610239505768,0.061650361865758896
-0.07537391036748886,5.473880767822266,7.7940216064453125,-0.07430000603199005,0.08841434121131897,0.05312849581241608
-0.10169496387243271,5.402096271514893,8.141578674316406,-0.07003907114267349,0.06404713541269302,0.08508548885583878
0.10199406743049622,5.320740222930908,8.177471160888672,0.0023967742454260588,0.13315412402153015,0.11051792651414871
-0.2069791555404663,5.3709893226623535,8.071887969970703,0.05139749497175217,0.1491326242685318,0.11584409326314926
0.027816563844680786,5.526523113250732,8.064709663391113,0.04074516147375107,0.06924014538526535,0.12543119490146637
-0.03200400248169899,5.4571309089660645,8.151150703430176,0.0695064514875412,0.04593817517161369,0.08934641629457474
-0.041575293987989426,5.524130344390869,8.088638305664062,0.10252867639064789,0.022503048181533813,0.06271559745073318
0.11156535893678665,5.584249973297119,8.12961483001709,0.10892007499933243,0.0033288532868027687,0.05312849581241608
-0.005682953633368015,5.4164533615112305,7.957032680511475,0.20479105412960052,0.047003407031297684,0.07762885838747025
0.03978067636489868,5.593821048736572,7.7007012367248535,0.18455162644386292,0.10332760214805603,0.10199606418609619
-0.07058826833963394,5.5962138175964355,7.724629878997803,0.13555090129375458,0.07030537724494934,0.09347419440746307
0.0445663221180439,5.560321807861328,7.573882102966309,0.10678961127996445,0.060851436108350754,0.0723026916384697
0.03738785535097122,5.641677379608154,7.5687971115112305,0.05352795869112015,0.026763979345560074,0.048867564648389816
0.0445663221180439,5.632106304168701,7.6600236892700195,-0.0007989247678779066,0.029959678649902344,0.045671865344047546
0.01824527233839035,5.5962138175964355,7.863712310791016,0.005592473316937685,0.023568280041217804,0.06697652488946915
0.08285148441791534,5.620141983032227,8.088638305664062,0.03967992961406708,0.08415340632200241,0.09347419440746307
0.08285148441791534,5.526523113250732,8.098209381103516,0.09400681406259537,0.1065233051776886,0.10838746279478073
0.09960123896598816,5.538486957550049,7.834699630737305,0.11957240849733353,0.1278279572725296,0.10412652790546417
0.1091725304722786,5.524130344390869,7.3414788246154785,0.11744193732738495,0.191741943359375,0.1115831583738327
-0.3002992272377014,5.778068542480469,6.893423080444336,0.009853405877947807,0.15445879101753235,0.12117026001214981
-0.09930214285850525,5.9937214851379395,7.463512897491455,-0.2181064635515213,-0.13941237330436707,0.06591129302978516
