accX,accY,accZ,gyroX,gyroY,gyroZ
-0.42412781715393066,1.8867406845092773,9.37059211730957,-0.05978667363524437,-0.06589514762163162,0.10407309979200363
-0.26590242981910706,1.817348837852478,9.542876243591309,-0.09704835712909698,-0.0426829531788826,0.07047650218009949
-0.15583257377147675,1.755135416984558,9.85394287109375,0.03092414326965809,0.13629528880119324,-0.03886515647172928
-0.42412781715393066,1.8819550275802612,9.724730491638184,0.007941014133393764,0.020845163613557816,-0.07368344813585281
-0.6897311210632324,2.0135602951049805,9.719944953918457,-0.023746687918901443,-0.06772769242525101,-0.05291464552283287
-0.7878368496894836,2.0614166259765625,9.674481391906738,0.007330167107284069,0.0025197449140250683,-0.0022143214009702206
-0.6634100675582886,2.0542383193969727,9.61944580078125,0.022906772792339325,0.05993938818573952,0.04115583375096321
-0.47916272282600403,1.9872392416000366,9.76062297821045,-0.007559234742075205,0.014125842601060867,0.05215108394622803
-0.36191442608833313,1.836491346359253,9.882657051086426,-0.023059483617544174,-0.019470756873488426,0.02710634656250477
-0.3568296730518341,1.7359927892684937,9.777372360229492,-0.001985253533348441,0.004963133949786425,-0.02176143415272236
-0.46719861030578613,1.7742780447006226,9.645767211914062,0.007941014133393764,0.011071606539189816,-0.06085565686225891
-0.6011967062950134,1.8628123998641968,9.650552749633789,-0.0007635590736754239,-0.012140588834881783,-0.0620773509144783
-0.6514459848403931,1.9657038450241089,9.772586822509766,0.0023670331574976444,-0.00786465872079134,-0.023593975231051445
-0.615553617477417,2.0135602951049805,9.774979591369629,0.015423892997205257,0.004963133949786425,0.026495499536395073
-0.5006981492042542,2.001596212387085,9.72233772277832,0.015423892997205257,-0.012140588834881783,0.05276193097233772
-0.41216370463371277,1.9441684484481812,9.705587387084961,0.012904148548841476,-0.02680092304944992,0.038101598620414734
-0.4097708761692047,1.8699909448623657,9.688838005065918,0.011071606539189816,-0.008475505746901035,-0.0034360159188508987
-0.49351966381073,1.836491346359253,9.657731056213379,0.0005344913806766272,0.018401773646473885,-0.04130854457616806
-0.6083751320838928,1.8819550275802612,9.652945518493652,-0.016874656081199646,0.0361163429915905,-0.049860406666994095
-0.6705885529518127,1.9417755603790283,9.741479873657227,-0.021837789565324783,0.049554985016584396,-0.027259059250354767
-0.7016952633857727,1.9609181880950928,9.810872077941895,-0.013744063675403595,0.044668205082416534,0.0051158457063138485
-0.6059823632240295,1.934597134590149,9.748658180236816,-0.001374406274408102,0.007406522985547781,0.025273805484175682
-0.6873382925987244,2.1670000553131104,9.686445236206055,0.0558161698281765,-0.03962871432304382,0.016721943393349648
-0.44805604219436646,1.872383713722229,10.467103958129883,0.1178935244679451,-0.1483595222234726,-0.007711946498602629
-0.5629115104675293,1.6666009426116943,10.306485176086426,0.11170869320631027,-0.2253262847661972,-0.015042114071547985
-0.40259242057800293,1.8340985774993896,9.016156196594238,-7.635590736754239e-05,-0.2253262847661972,0.007559234742075205
-0.39062830805778503,1.970489501953125,8.458329200744629,-0.09827005118131638,-0.0231358390301466,0.03199312463402748
-0.39062830805778503,2.035095691680908,9.250652313232422,-0.10880716890096664,0.2749576270580292,0.02405211143195629
-0.5461617708206177,1.7168502807617188,9.693623542785645,0.09055810421705246,-0.12453648447990417,-0.010766183026134968
-0.5174478888511658,1.695314884185791,9.621838569641113,0.07566870748996735,-0.0561215914785862,-0.013209572061896324
-0.529412031173706,1.7599210739135742,9.550054550170898,0.0029778804164379835,-0.017027366906404495,-0.015042114071547985
-0.5581258535385132,1.9106688499450684,9.557232856750488,-0.03367295488715172,0.03978142887353897,-0.018707197159528732
-0.5748756527900696,2.0760726928710938,9.660123825073242,-0.023746687918901443,0.07826480269432068,-0.019318044185638428
-0.5629115104675293,2.1909282207489014,9.882657051086426,-0.009391776286065578,0.037948887795209885,-0.008322793990373611
-0.5389832854270935,2.1670000553131104,9.952347755432129,0.005497625097632408,-0.036574479192495346,0.012446013279259205
-0.5222335457801819,2.0063817501068115,9.808479309082031,0.028480753302574158,-0.07078192383050919,0.025273805484175682
-0.6921239495277405,1.9369899034500122,10.715956687927246,0.0787992998957634,-0.3676536977291107,0.012446013279259205
-0.4456632137298584,1.7048860788345337,10.409377098083496,0.26579490303993225,-0.7604284882545471,-0.018707197159528732
-0.28983065485954285,1.8388842344284058,8.65932559967041,0.33474430441856384,-0.3175642192363739,0.024662958458065987
-0.14865410327911377,2.018345832824707,7.730611801147461,0.026571854948997498,0.17111359536647797,0.058870404958724976
-0.08883354067802429,2.1909282207489014,8.28126049041748,-0.33001023530960083,0.3995704650878906,0.04604261368513107
-0.13908281922340393,2.133500576019287,9.923633575439453,-0.3939964771270752,0.6964422464370728,-0.0016034740256145597
-0.373878538608551,2.0880367755889893,10.95284652709961,-0.22807510197162628,0.8015079498291016,-0.04497363045811653
-0.6729813814163208,1.9441684484481812,10.754241943359375,-0.12186402827501297,0.378190815448761,-0.05719057470560074
-0.9604191780090332,1.7455641031265259,10.347163200378418,-0.05665608495473862,-0.1605764776468277,-0.043141089379787445
-1.0920244455337524,1.6235301494598389,10.093523979187012,0.09620844572782516,-0.3334462344646454,-0.01382041908800602
-0.9652048349380493,1.6115660667419434,9.74387264251709,0.21791976690292358,-0.26075541973114014,0.015500249341130257
-0.7543373107910156,1.7694923877716064,9.4088773727417,0.1626380831003189,-0.24548424780368805,0.03871244564652443
-0.4815555512905121,1.9465612173080444,9.31047248840332,0.03901786729693413,-0.21860696375370026,0.04909684881567955
-0.2682952284812927,2.092822551727295,9.413662910461426,-0.001985253533348441,-0.05978667363524437,0.03504735976457596
-0.20847466588020325,2.171785593032837,9.562018394470215,0.0023670331574976444,0.08315158635377884,0.00022906772210262716
-0.2682952284812927,2.1693928241729736,9.731908798217773,-0.02680092304944992,0.07398887723684311,-0.02970244735479355
-0.3978067636489868,2.071287155151367,9.820443153381348,-0.05413633957505226,0.027564482763409615,-0.03458922728896141
-0.5509474277496338,1.908276081085205,9.72233772277832,-0.041766680777072906,0.05566345527768135,-0.021150587126612663
-0.6275177597999573,1.7575281858444214,9.61944580078125,-0.02993151545524597,0.09720107167959213,-0.005879404954612255
-0.6586244106292725,1.7024933099746704,9.712766647338867,-0.03924693539738655,0.09048175066709518,0.0051158457063138485
-0.6586244106292725,1.7312071323394775,9.937990188598633,-0.0361163429915905,0.058717694133520126,0.006948387715965509
-0.584446907043457,1.7934205532073975,10.019346237182617,-0.00259610079228878,0.011682453565299511,0.002061609411612153
-0.5509474277496338,1.8987047672271729,9.933204650878906,0.036574479192495346,-0.06589514762163162,-0.005879404954612255
-0.48873403668403625,1.9920248985290527,9.825228691101074,0.06574243307113647,-0.1459161341190338,-0.011987877078354359
-0.4504488706588745,2.0542383193969727,9.693623542785645,0.08002099394798279,-0.17157171666622162,-0.008933641016483307
-0.40259242057800293,2.092822551727295,9.550054550170898,0.07009471952915192,-0.13125580549240112,0.0032833039294928312
-0.38344982266426086,2.068894386291504,9.425627708435059,0.027259059250354767,-0.04879142343997955,0.015500249341130257
-0.3978067636489868,2.008774518966675,9.413662910461426,-0.027411770075559616,0.05566345527768135,0.015500249341130257
-0.46480581164360046,1.9130617380142212,9.51176929473877,-0.07154548168182373,0.1540098637342453,0.0014507622690871358
-0.527019202709198,1.8652052879333496,9.717552185058594,-0.09139802306890488,0.20348849892616272,-0.01748550310730934
-0.649053156375885,1.8628123998641968,9.909276962280273,-0.082082599401474,0.17661121487617493,-0.028480753302574158
-0.735194742679596,1.8795621395111084,10.040882110595703,-0.04359922185540199,0.09109259396791458,-0.021150587126612663
-0.7543373107910156,1.9058831930160522,10.05284595489502,0.011071606539189816,-0.015805672854185104,0.002061609411612153
-0.7016952633857727,1.9010975360870361,9.923633575439453,0.0552053228020668,-0.11109784245491028,0.026495499536395073
-0.5772684812545776,1.8843477964401245,9.739087104797363,0.07070557028055191,-0.1587439328432083,0.03626905754208565
-0.48394837975502014,1.8771693706512451,9.554840087890625,0.05703786388039589,-0.13858596980571747,0.023441264405846596
-0.4001995921134949,1.8867406845092773,9.49501895904541,0.026571854948997498,-0.07078192383050919,-0.00038177953683771193
-0.40259242057800293,1.9513468742370605,9.516554832458496,-0.0051158457063138485,0.009849912486970425,-0.019318044185638428
-0.43609192967414856,1.963310956954956,9.660123825073242,-0.02557922899723053,0.06726955622434616,-0.02176143415272236
-0.4863412082195282,1.9752750396728516,9.76062297821045,-0.03306210786104202,0.08192989230155945,-0.011377030052244663
-0.5485545992851257,1.994417667388916,9.813264846801758,-0.030542362481355667,0.061771929264068604,0.0008399150101467967
-0.5964110493659973,1.9728822708129883,9.798908233642578,-0.020005248486995697,0.031229566782712936,0.010613471269607544
-0.6107679605484009,1.934597134590149,9.791728973388672,-0.006948387715965509,0.004352286923676729,0.012446013279259205
-0.6011967062950134,1.8963119983673096,9.774979591369629,0.0011453386396169662,-0.012751436792314053,0.008170082233846188
-0.5509474277496338,1.8699909448623657,9.76062297821045,0.006108472589403391,-0.02557922899723053,-0.00038177953683771193
-0.5102694034576416,1.8819550275802612,9.74387264251709,0.008551862090826035,-0.035352785140275955,-0.007711946498602629
-0.46480581164360046,1.9010975360870361,9.734301567077637,0.011071606539189816,-0.03901786729693413,-0.011377030052244663
-0.4815555512905121,1.9250258207321167,9.698409080505371,0.012904148548841476,-0.03474193811416626,-0.007711946498602629
-0.4863412082195282,1.9489539861679077,9.6433744430542,0.008551862090826035,-0.017027366906404495,-0.0022143214009702206
-0.529412031173706,1.9848463535308838,9.640981674194336,-0.001374406274408102,0.00862821750342846,0.0014507622690871358
-0.5653043389320374,1.9872392416000366,9.657731056213379,-0.015652960166335106,0.03245126083493233,0.002061609411612153
-0.582054078578949,1.9609181880950928,9.72233772277832,-0.026190076023340225,0.04772244393825531,-0.0016034740256145597
-0.5916253924369812,1.8891334533691406,9.774979591369629,-0.02680092304944992,0.048333290964365005,-0.004046862944960594
-0.5653043389320374,1.8508483171463013,9.822835922241211,-0.018783552572131157,0.0293970238417387,-0.005879404954612255
-0.5629115104675293,1.8388842344284058,9.832406997680664,-0.00259610079228878,-0.0005344913806766272,-0.005268557462841272
-0.5629115104675293,1.8795621395111084,9.803693771362305,0.01725643500685692,-0.027411770075559616,0.0008399150101467967
-0.5676971673965454,1.9561325311660767,9.765408515930176,0.03161134570837021,-0.04756972938776016,0.010002624243497849
-0.5557330846786499,1.9992033243179321,9.724730491638184,0.030313294380903244,-0.0561215914785862,0.017332790419459343
-0.5126622319221497,2.0063817501068115,9.652945518493652,0.014813045971095562,-0.044515494257211685,0.015500249341130257
-0.6323033571243286,2.219642162322998,8.700003623962402,-0.03802524134516716,0.0293970238417387,0.0008399150101467967
-0.3496512174606323,1.8843477964401245,9.784550666809082,-0.12308572232723236,0.21204034984111786,-0.012598725035786629
-0.47676992416381836,1.4916257858276367,10.57956600189209,-0.08956547826528549,0.32077115774154663,-0.039476003497838974
-0.7328019142150879,1.7048860788345337,10.282557487487793,-0.03924693539738655,0.1149156391620636,-0.03336753323674202
-0.8093722462654114,1.8652052879333496,9.686445236206055,0.0005344913806766272,-0.17890189588069916,-0.0009926267666742206
-0.7830511927604675,1.9465612173080444,9.810872077941895,0.08933641016483307,-0.2558686435222626,0.03321481868624687
-0.6681957244873047,2.0231316089630127,9.909276962280273,0.1719534993171692,-0.18012358248233795,0.04543176665902138
-0.48394837975502014,2.0207388401031494,9.602696418762207,0.12720894813537598,-0.17890189588069916,0.03504735976457596
-0.31375887989997864,1.994417667388916,9.300901412963867,0.011682453565299511,-0.19234053790569305,0.008780929259955883
-0.23001007735729218,1.9417755603790283,9.300901412963867,-0.038636088371276855,-0.054899897426366806,-0.01626380905508995
-0.4815555512905121,2.0207388401031494,9.1716890335083,-0.07215633243322372,0.15950748324394226,-0.02053973823785782
-0.1941177397966385,1.786242127418518,10.435697555541992,-0.08712209016084671,0.2688491642475128,-0.0028251686599105597
-0.34247273206710815,1.9178473949432373,10.227521896362305,-0.03306210786104202,0.17600037157535553,0.002672456670552492
-0.5198407173156738,1.9130617380142212,9.588339805603027,-0.018096350133419037,-0.030466007068753242,-0.004046862944960594
-0.6825526356697083,1.9609181880950928,9.562018394470215,0.006108472589403391,-0.11415208131074905,-0.019928891211748123
-0.8069794178009033,2.011167526245117,9.8300142288208,0.057648710906505585,-0.02802261710166931,-0.01626380905508995
-0.7926225066184998,1.9465612173080444,9.810872077941895,0.04772244393825531,0.03061871975660324,0.006337540224194527
-0.4815555512905121,1.7910277843475342,9.734301567077637,-0.038636088371276855,0.012904148548841476,0.004504998680204153
-0.5078766345977783,1.9728822708129883,9.818050384521484,0.02351761981844902,-0.07444700598716736,-0.008322793990373611
-0.5485545992851257,2.0279171466827393,9.691230773925781,0.03405473381280899,-0.10010259598493576,0.011835165321826935
-0.527019202709198,2.0231316089630127,9.607481956481934,0.04650074616074562,-0.05673243850469589,0.02283041551709175
-0.47676992416381836,1.9968105554580688,9.562018394470215,0.02351761981844902,-0.013362283818423748,0.020997874438762665
-0.44805604219436646,1.9250258207321167,9.640981674194336,-0.023059483617544174,0.02023431472480297,0.009391776286065578
-0.4504488706588745,1.8604196310043335,9.717552185058594,-0.051082100719213486,0.06543701142072678,-0.0034360159188508987
-0.4983053207397461,1.8580267429351807,9.75105094909668,-0.04856235533952713,0.09536852687597275,-0.015042114071547985
-0.5629115104675293,1.8795621395111084,9.851550102233887,-0.030542362481355667,0.06910209357738495,-0.021150587126612663
-0.5700899958610535,1.9010975360870361,9.93559741973877,-0.0051158457063138485,7.635590736754239e-05,-0.018096350133419037
-0.5581258535385132,1.9298114776611328,9.86829948425293,0.02351761981844902,-0.06345175951719284,-0.008322793990373611
-0.5365904569625854,1.9298114776611328,9.710372924804688,0.042759306728839874,-0.09338327497243881,0.004504998680204153
-0.5006981492042542,1.939382791519165,9.595518112182617,0.04153761267662048,-0.08360971510410309,0.0130568603053689
-0.47198426723480225,1.970489501953125,9.59791088104248,0.024128466844558716,-0.04023956134915352,0.016111096367239952
-0.44327038526535034,1.9800606966018677,9.633803367614746,-0.0007635590736754239,0.012904148548841476,0.014278554357588291
-0.43609192967414856,1.9752750396728516,9.662516593933105,-0.02435753494501114,0.05077667906880379,0.009391776286065578
-0.45284169912338257,1.934597134590149,9.686445236206055,-0.0361163429915905,0.07093463838100433,-0.00038177953683771193
-0.6107679605484009,1.848455548286438,9.84676456451416,-0.006948387715965509,0.02023431472480297,-0.015042114071547985
-0.6227321028709412,1.8915263414382935,9.818050384521484,0.006719320081174374,-0.011529741808772087,0.0014507622690871358
-0.7758727669715881,1.963310956954956,9.640981674194336,-0.0032069480512291193,-0.07383616268634796,0.019776180386543274
-0.41934216022491455,1.8317056894302368,10.103095054626465,0.022219568490982056,-0.0683385357260704,0.027717193588614464
-0.5246263742446899,2.0039889812469482,9.789336204528809,0.07070557028055191,0.028786176815629005,0.008780929259955883
-0.5054838061332703,2.025524377822876,9.284152030944824,0.008551862090826035,-0.023746687918901443,-0.010766183026134968
-0.5150550603866577,2.0736799240112305,9.461520195007324,-0.05726693198084831,-0.06284090876579285,-0.022372281178832054
-0.5174478888511658,1.9968105554580688,9.85394287109375,-0.020005248486995697,0.048333290964365005,-0.013209572061896324
-0.5030909776687622,1.9369899034500122,9.885348320007324,0.013591351918876171,0.11002886295318604,0.007559234742075205
-0.4743770956993103,1.836491346359253,9.724730491638184,-0.026190076023340225,0.013514995574951172,0.01916533336043358
-0.47198426723480225,1.841277003288269,9.71515941619873,-0.04611896723508835,-0.03474193811416626,0.01794363744556904
-0.5198407173156738,1.848455548286438,9.75105094909668,0.02038702741265297,0.04405735805630684,-0.014431266114115715
-0.5413761138916016,1.8652052879333496,9.755837440490723,0.011682453565299511,0.022677704691886902,-0.015042114071547985
-0.5533402562141418,1.9106688499450684,9.774979591369629,-0.007559234742075205,-0.027411770075559616,-0.008322793990373611
-0.5437689423561096,1.9298114776611328,9.779765129089355,-0.004428642801940441,-0.03290939703583717,-0.0034360159188508987
-0.5102694034576416,1.9609181880950928,9.74387264251709,0.02038702741265297,-0.012751436792314053,-0.0016034740256145597
-0.5078766345977783,1.9776679277420044,9.696016311645508,0.025961007922887802,-0.014583977870643139,-0.004657710436731577
-0.5222335457801819,1.9680966138839722,9.698409080505371,0.004886778071522713,-0.02924431301653385,-0.005268557462841272
-0.5318048596382141,1.9752750396728516,9.700801849365234,-0.0038177953101694584,-0.021914144977927208,-0.0034360159188508987
-0.5629115104675293,1.8819550275802612,9.652945518493652,-0.02557922899723053,0.06421531736850739,0.00022906772210262716
-0.5916253924369812,1.8556339740753174,9.74387264251709,-0.03245126083493233,0.05688514932990074,-0.009544488042593002
-0.6035895347595215,1.8532410860061646,9.810872077941895,-0.02244863659143448,0.043446511030197144,-0.016874656081199646
-0.646660327911377,1.8747764825820923,9.8300142288208,-0.0032069480512291193,0.015958385542035103,-0.011987877078354359
-0.6418746709823608,1.9058831930160522,9.841979026794434,0.012904148548841476,-0.02680092304944992,0.0038941511884331703
-0.6035895347595215,1.9178473949432373,9.820443153381348,0.022906772792339325,-0.0555107444524765,0.02283041551709175
-0.527019202709198,1.9058831930160522,9.74387264251709,0.026571854948997498,-0.05734328553080559,0.031382277607917786
-0.47676992416381836,1.8819550275802612,9.62901782989502,0.01794363744556904,-0.0426829531788826,0.019776180386543274
-0.44327038526535034,1.8819550275802612,9.624231338500977,-7.635590736754239e-05,-0.013362283818423748,-0.0034360159188508987
-0.4695914387702942,1.8843477964401245,9.664909362792969,-0.011911521665751934,0.01901262067258358,-0.02176143415272236
-0.5102694034576416,1.9058831930160522,9.731908798217773,-0.015652960166335106,0.036727190017700195,-0.02298312820494175
-0.5509474277496338,1.92741858959198,9.774979591369629,-0.013133215717971325,0.03306210786104202,-0.007711946498602629
-0.584446907043457,1.934597134590149,9.779765129089355,-0.008170082233846188,0.0165692325681448,0.009391776286065578
-0.584446907043457,1.9250258207321167,9.75344467163086,-0.001985253533348441,0.0025197449140250683,0.015500249341130257
-0.5868397355079651,1.9202401638031006,9.731908798217773,0.0011453386396169662,-0.006642963737249374,0.01122431829571724
-0.5700899958610535,1.8915263414382935,9.734301567077637,0.0005344913806766272,-0.012140588834881783,0.00022906772210262716
-0.5413761138916016,1.8867406845092773,9.75344467163086,0.0011453386396169662,-0.0164165198802948,-0.008322793990373611
-0.5174478888511658,1.8843477964401245,9.772586822509766,0.006108472589403391,-0.019470756873488426,-0.009544488042593002
-0.5102694034576416,1.872383713722229,9.75344467163086,0.011682453565299511,-0.023746687918901443,-0.005879404954612255
-0.4911268353462219,1.8795621395111084,9.739087104797363,0.014202198944985867,-0.024968381971120834,-0.0028251686599105597
-0.47916272282600403,1.9226330518722534,9.717552185058594,0.012904148548841476,-0.021303297951817513,-0.0034360159188508987
-0.49351966381073,1.963310956954956,9.72233772277832,0.009239064529538155,-0.012140588834881783,-0.004657710436731577
-0.5222335457801819,1.963310956954956,9.684052467346191,0.0017561858985573053,-0.0023670331574976444,-0.005268557462841272
-0.5198407173156738,1.963310956954956,9.664909362792969,-0.004428642801940441,0.011682453565299511,-0.005879404954612255
-0.5533402562141418,1.9154545068740845,9.686445236206055,-0.008780929259955883,0.026342788711190224,-0.010155336000025272
-0.5868397355079651,1.903490424156189,9.72951602935791,-0.008780929259955883,0.03733803704380989,-0.013209572061896324
-0.6203392744064331,1.9058831930160522,9.75105094909668,-0.007559234742075205,0.03489464893937111,-0.011377030052244663
-0.6634100675582886,1.934597134590149,9.796515464782715,-0.006337540224194527,0.018401773646473885,-0.0034360159188508987
-0.6801598072052002,1.970489501953125,9.791728973388672,-0.001985253533348441,-0.004199574701488018,0.009391776286065578
-0.6251249313354492,1.9920248985290527,9.765408515930176,0.006719320081174374,-0.023746687918901443,0.02160872146487236
-0.5724828243255615,1.9369899034500122,9.72951602935791,0.011071606539189816,-0.03352024406194687,0.019776180386543274
-0.5509474277496338,1.8939191102981567,9.693623542785645,0.009849912486970425,-0.03474193811416626,0.007559234742075205
-0.5030909776687622,1.8891334533691406,9.662516593933105,0.0035887276753783226,-0.023746687918901443,-0.0016034740256145597
-0.5246263742446899,1.8771693706512451,9.674481391906738,-0.001985253533348441,-0.008475505746901035,0.00022906772210262716
-0.5318048596382141,1.9130617380142212,9.712766647338867,-0.007559234742075205,0.004963133949786425,0.011835165321826935
-0.5126622319221497,1.934597134590149,9.755837440490723,-0.011300674639642239,0.014736690558493137,0.025273805484175682
-0.48873403668403625,1.9298114776611328,9.758230209350586,-0.011911521665751934,0.01779092662036419,0.030160583555698395
-0.49351966381073,1.8987047672271729,9.741479873657227,-0.010689826682209969,0.014736690558493137,0.018554486334323883
-0.48873403668403625,1.8652052879333496,9.746265411376953,-0.009391776286065578,0.007406522985547781,-0.0028251686599105597
-0.5150550603866577,1.8795621395111084,9.758230209350586,-0.006337540224194527,-0.0023670331574976444,-0.018707197159528732
-0.6969096064567566,1.9657038450241089,10.983953475952148,0.04092676565051079,-0.4073587656021118,0.002672456670552492
-0.3978067636489868,1.812563180923462,10.103095054626465,0.25212720036506653,-0.6981220841407776,-0.007101099472492933
-0.3281157910823822,1.9848463535308838,8.494221687316895,0.3303920030593872,-0.19172967970371246,0.02283041551709175
-0.20368902385234833,2.085644006729126,7.989036560058594,0.025350160896778107,0.1680593490600586,0.03077143058180809
-0.1055833026766777,2.092822551727295,8.757431983947754,-0.30641624331474304,0.31649523973464966,0.014889402315020561
-0.18933209776878357,2.126322031021118,10.103095054626465,-0.3324536085128784,0.5925981998443604,-0.015042114071547985
-0.37866419553756714,2.0207388401031494,10.605887413024902,-0.1877591758966446,0.664678156375885,-0.041919391602277756
-0.6323033571243286,1.8747764825820923,10.474282264709473,-0.11315945535898209,0.2755684554576874,-0.053525492548942566
-0.9170492887496948,1.7455641031265259,10.36630630493164,-0.0361163429915905,-0.15080291032791138,-0.043141089379787445
-1.0106685161590576,1.6307085752487183,10.14616584777832,0.11422843486070633,-0.2650313675403595,-0.012598725035786629
-0.9170492887496948,1.6522440910339355,9.674481391906738,0.18997350335121155,-0.23387815058231354,0.020997874438762665
-0.7016952633857727,1.781456470489502,9.365806579589844,0.1172826737165451,-0.2405974566936493,0.04787515476346016
-0.4576273262500763,1.9154545068740845,9.38734245300293,0.02160872146487236,-0.1740151196718216,0.05459447205066681
-0.246759831905365,2.0398812294006348,9.516554832458496,0.0029778804164379835,-0.0011453386396169662,0.03199312463402748
-0.17736798524856567,2.116750717163086,9.62901782989502,-0.001374406274408102,0.09292513877153397,-0.011377030052244663
-0.2802593410015106,2.1311075687408447,9.748658180236816,-0.031153209507465363,0.0489441379904747,-0.04130854457616806
-0.4695914387702942,2.078465461730957,9.794121742248535,-0.04107947647571564,0.012904148548841476,-0.0358109213411808
-0.5796613097190857,1.9369899034500122,9.674481391906738,-0.02435753494501114,0.05444176122546196,-0.005879404954612255
-0.649053156375885,1.781456470489502,9.602696418762207,-0.026190076023340225,0.09597937762737274,0.02160872146487236
-0.6418746709823608,1.7001005411148071,9.739087104797363,-0.046729814261198044,0.09659022092819214,0.02832804247736931
-0.6107679605484009,1.7359927892684937,9.933204650878906,-0.0429883748292923,0.08131904155015945,0.011835165321826935
-0.5748756527900696,1.8293129205703735,10.012167930603027,-0.008780929259955883,0.03184041380882263,-0.010155336000025272
-0.5653043389320374,1.908276081085205,9.957133293151855,0.029091600328683853,-0.06223006546497345,-0.02298312820494175
-0.5413761138916016,1.9752750396728516,9.865906715393066,0.060779303312301636,-0.14530529081821442,-0.018707197159528732
-0.39541393518447876,1.9441684484481812,9.530911445617676,0.06887302547693253,-0.12636902928352356,0.014278554357588291
-0.33529427647590637,1.939382791519165,9.418449401855469,0.028480753302574158,-0.050013117492198944,0.01794363744556904
-0.3233301639556885,1.9298114776611328,9.475876808166504,-0.020616095513105392,0.04650074616074562,0.008170082233846188
-0.40259242057800293,1.9537396430969238,9.61226749420166,-0.05543438717722893,0.1295759677886963,-0.008933641016483307
-0.529412031173706,1.963310956954956,9.75105094909668,-0.07154548168182373,0.16378341615200043,-0.02176143415272236
-0.6394818425178528,1.934597134590149,9.873085021972656,-0.06719319522380829,0.139960378408432,-0.02542651630938053
-0.7232306599617004,1.8891334533691406,9.930811882019043,-0.041766680777072906,0.07826480269432068,-0.019318044185638428
-0.7519445419311523,1.872383713722229,9.930811882019043,-0.004428642801940441,0.005573981441557407,-0.008933641016483307
-0.6945167779922485,1.8867406845092773,9.882657051086426,0.03092414326965809,-0.06223006546497345,0.0014507622690871358
-0.617946445941925,1.9130617380142212,9.794121742248535,0.051463883370161057,-0.11048699915409088,0.009391776286065578
-0.5461617708206177,1.9465612173080444,9.684052467346191,0.051463883370161057,-0.12270393967628479,0.011835165321826935
-0.4815555512905121,1.934597134590149,9.59073257446289,0.033443886786699295,-0.09277242422103882,0.010613471269607544
-0.45284169912338257,1.92741858959198,9.540482521057129,0.005497625097632408,-0.03290939703583717,0.0051158457063138485
-0.4456632137298584,1.9130617380142212,9.588339805603027,-0.021226942539215088,0.03367295488715172,-0.0022143214009702206
-0.48394837975502014,1.8939191102981567,9.681659698486328,-0.037414394319057465,0.07765395939350128,-0.0064902519807219505
-0.5318048596382141,1.908276081085205,9.801301002502441,-0.039857782423496246,0.08131904155015945,-0.004657710436731577
-0.5653043389320374,1.8987047672271729,9.86112117767334,-0.026190076023340225,0.05016583204269409,0.002061609411612153
-0.5653043389320374,1.9058831930160522,9.86112117767334,-0.0051158457063138485,0.0025197449140250683,0.007559234742075205
-0.5509474277496338,1.8987047672271729,9.818050384521484,0.015423892997205257,-0.03596363216638565,0.008780929259955883
-0.5318048596382141,1.903490424156189,9.74387264251709,0.026571854948997498,-0.054899897426366806,0.005726693198084831
-0.5126622319221497,1.9202401638031006,9.691230773925781,0.022906772792339325,-0.050013117492198944,0.002061609411612153
-0.4863412082195282,1.9513468742370605,9.652945518493652,0.012293301522731781,-0.02680092304944992,0.002672456670552492
-0.4815555512905121,1.963310956954956,9.657731056213379,0.0011453386396169662,0.0037414394319057465,0.0051158457063138485
-0.4815555512905121,1.9609181880950928,9.696016311645508,-0.010078979656100273,0.024510245770215988,-0.00038177953683771193
-0.48873403668403625,1.9561325311660767,9.71515941619873,-0.019394399598240852,0.02695363573729992,-0.011987877078354359
-0.527019202709198,1.934597134590149,9.72951602935791,-0.020616095513105392,0.024510245770215988,-0.016874656081199646
-0.5653043389320374,1.9226330518722534,9.734301567077637,-0.011911521665751934,0.02145601063966751,-0.007711946498602629
-0.5700899958610535,1.8891334533691406,9.74387264251709,-0.0051158457063138485,0.017180079594254494,0.0051158457063138485
-0.5605186820030212,1.8604196310043335,9.765408515930176,-0.001374406274408102,0.007406522985547781,0.014278554357588291
-0.5413761138916016,1.867598056793213,9.777372360229492,0.0017561858985573053,-0.0029778804164379835,0.015500249341130257
-0.527019202709198,1.8795621395111084,9.770194053649902,0.004275931045413017,-0.012751436792314053,0.009391776286065578
-0.5318048596382141,1.932204246520996,9.72233772277832,0.004886778071522713,-0.013362283818423748,-0.018096350133419037
-0.5246263742446899,1.932204246520996,9.72233772277832,0.0035887276753783226,-0.004810422193259001,-0.008933641016483307
-0.5533402562141418,1.92741858959198,9.688838005065918,-0.001985253533348441,0.0067956759594380856,0.0014507622690871358
-0.5461617708206177,1.9130617380142212,9.700801849365234,-0.010689826682209969,0.018401773646473885,0.006948387715965509
-0.5629115104675293,1.9058831930160522,9.71515941619873,-0.01748550310730934,0.030007870867848396,0.006948387715965509
-0.5676971673965454,1.8915263414382935,9.739087104797363,-0.015652960166335106,0.03367295488715172,0.00022906772210262716
-0.5605186820030212,1.8891334533691406,9.796515464782715,-0.008170082233846188,0.022677704691886902,-0.0064902519807219505
-0.5629115104675293,1.8867406845092773,9.806086540222168,0.0011453386396169662,-0.0023670331574976444,-0.011377030052244663
-0.5676971673965454,1.9058831930160522,9.801301002502441,0.011682453565299511,-0.02924431301653385,-0.008933641016483307
-0.5557330846786499,1.908276081085205,9.763015747070312,0.01794363744556904,-0.044515494257211685,-0.0009926267666742206
-0.5198407173156738,1.9202401638031006,9.724730491638184,0.01794363744556904,-0.04390464723110199,0.006948387715965509
-0.49351966381073,1.9202401638031006,9.684052467346191,0.012904148548841476,-0.02924431301653385,0.008780929259955883
-0.46719861030578613,1.9178473949432373,9.657731056213379,0.0023670331574976444,-0.004810422193259001,0.004504998680204153
-0.47676992416381836,1.9154545068740845,9.660123825073242,-0.008170082233846188,0.02023431472480297,-0.0034360159188508987
-0.5078766345977783,1.9298114776611328,9.705587387084961,-0.014431266114115715,0.0361163429915905,-0.009544488042593002
-0.5341976284980774,1.9298114776611328,9.75105094909668,-0.01252236869186163,0.035505495965480804,-0.009544488042593002
-0.5413761138916016,1.9178473949432373,9.46630573272705,-0.0051158457063138485,0.023288551717996597,-0.0016034740256145597
-0.5341976284980774,1.8819550275802612,9.93559741973877,-0.09765920788049698,0.3213820159435272,0.02405211143195629
-0.46480581164360046,1.8963119983673096,10.794919967651367,-0.09269607067108154,0.15950748324394226,0.013667707331478596
-0.5988038778305054,1.8532410860061646,9.877870559692383,-0.04543176665902138,-0.0011453386396169662,0.0032833039294928312
-0.7208378314971924,1.8532410860061646,9.51894760131836,0.12911784648895264,-0.276637464761734,-0.03825430944561958
-0.6442674994468689,1.9106688499450684,9.396913528442383,-0.0032069480512291193,0.00862821750342846,0.027717193588614464
-0.44805604219436646,1.92741858959198,9.49501895904541,-0.07963921129703522,0.09659022092819214,0.041766680777072906
-0.3448655605316162,1.9465612173080444,9.765408515930176,-0.08399149775505066,0.1417929232120514,0.02832804247736931
-0.3329014480113983,1.9250258207321167,9.995418548583984,-0.04046862944960594,0.1149156391620636,0.00022906772210262716
-0.4576273262500763,1.8987047672271729,9.995418548583984,0.0029778804164379835,0.019623467698693275,-0.02420482225716114
-0.6227321028709412,1.8891334533691406,9.83719253540039,0.027259059250354767,-0.0683385357260704,-0.032756682485342026
-0.7495517134666443,1.9417755603790283,8.752646446228027,0.032222192734479904,-0.06772769242525101,-0.022372281178832054
-0.6945167779922485,2.078465461730957,8.980263710021973,-0.09452861547470093,0.3128301501274109,0.024662958458065987
-0.41216370463371277,1.7312071323394775,10.610672950744629,-0.19272230565547943,0.46004435420036316,0.03687990456819534
-0.6083751320838928,1.5804593563079834,10.890633583068848,-0.13866232335567474,0.19921256601810455,-0.0016034740256145597
-0.6873382925987244,1.5852450132369995,10.543673515319824,-0.07345438003540039,-0.004810422193259001,-0.02298312820494175
-0.7758727669715881,1.6450655460357666,10.167701721191406,0.0023670331574976444,-0.1862320601940155,-0.039476003497838974
-0.92691969871521,1.817348837852478,9.851550102233887,0.15584240853786469,-0.37437301874160767,-0.04802786558866501
-0.9388837814331055,1.963310956954956,9.774979591369629,0.2459423840045929,-0.37925979495048523,-0.018096350133419037
-0.7495517134666443,2.068894386291504,9.502198219299316,0.20364120602607727,-0.32428354024887085,0.0295497365295887
-0.4384847581386566,2.1047866344451904,9.162117958068848,0.07322531193494797,-0.23448899388313293,0.06131379306316376
-0.16301104426383972,2.059023857116699,9.078369140625,-0.03489464893937111,-0.052456509321928024,0.05276193097233772
-0.08404789865016937,2.001596212387085,9.382556915283203,-0.0814717561006546,0.1662268042564392,0.010613471269607544
-0.19172491133213043,1.92741858959198,9.739087104797363,-0.10323318839073181,0.2749576270580292,-0.030313294380903244
-0.45523449778556824,1.8699909448623657,9.933204650878906,-0.1119377613067627,0.24197186529636383,-0.04802786558866501
-0.7304090857505798,1.8221344947814941,9.981060981750488,-0.08460234850645065,0.1546207070350647,-0.041919391602277756
-0.8883354067802429,1.7790635824203491,9.945169448852539,-0.029320668429136276,0.07215633243322372,-0.02176143415272236
-0.9074779748916626,1.7599210739135742,9.949954986572266,0.014202198944985867,-0.00786465872079134,0.0051158457063138485
-0.7758727669715881,1.7718851566314697,9.937990188598633,0.03718532621860504,-0.08055548369884491,0.028938889503479004
-0.5988038778305054,1.810170292854309,9.880263328552246,0.05268557742238045,-0.12453648447990417,0.03504735976457596
-0.46719861030578613,1.8891334533691406,9.746265411376953,0.06452073901891708,-0.13797512650489807,0.020997874438762665
-0.4049852192401886,2.018345832824707,9.614660263061523,0.06261184066534042,-0.13186664879322052,-0.0009926267666742206
-0.3810569941997528,2.068894386291504,9.530911445617676,0.04092676565051079,-0.09643751382827759,-0.01748550310730934
-0.4145565330982208,2.042274236679077,9.47348403930664,0.006719320081174374,-0.02435753494501114,-0.022372281178832054
-0.49591249227523804,1.9872392416000366,9.48066234588623,-0.02993151545524597,0.06665870547294617,-0.01626380905508995
-0.5509474277496338,1.9058831930160522,9.59791088104248,-0.05474718660116196,0.13812783360481262,-0.00038177953683771193
-0.5940182209014893,1.8436698913574219,9.808479309082031,-0.06284090876579285,0.1540098637342453,0.013667707331478596
-0.6011967062950134,1.7886348962783813,9.969097137451172,-0.04978405311703682,0.11613733321428299,0.02038702741265297
-0.6083751320838928,1.786242127418518,9.993025779724121,-0.035505495965480804,0.08254073560237885,0.017332790419459343
-0.6203392744064331,1.8149559497833252,9.969097137451172,-0.0007635590736754239,0.006184828467667103,0.004504998680204153
-0.6394818425178528,1.8580267429351807,9.87547779083252,0.034665580838918686,-0.06223006546497345,-0.01382041908800602
-0.6442674994468689,1.8699909448623657,9.820443153381348,0.04772244393825531,-0.08727480471134186,-0.02176143415272236
-0.6251249313354492,1.908276081085205,9.724730491638184,0.0558161698281765,-0.11354123055934906,-0.026037365198135376
-0.5724828243255615,1.9489539861679077,9.609874725341797,0.04459185153245926,-0.10376767814159393,-0.015042114071547985
-0.4983053207397461,1.963310956954956,9.554840087890625,0.025961007922887802,-0.06100837141275406,0.0038941511884331703
-0.4624129831790924,1.9680966138839722,9.550054550170898,0.0035887276753783226,-0.0017561858985573053,0.014889402315020561
-0.47916272282600403,1.9992033243179321,9.61226749420166,-0.018096350133419037,0.0489441379904747,0.0130568603053689
-0.5030909776687622,1.9968105554580688,9.676874160766602,-0.035505495965480804,0.0745997205376625,0.002061609411612153
-0.5868397355079651,1.95852530002594,9.7366943359375,-0.04421006888151169,0.07704310864210129,-0.009544488042593002
-0.6514459848403931,1.8987047672271729,9.801301002502441,-0.039857782423496246,0.0623827762901783,-0.013209572061896324
-0.6658028960227966,1.8532410860061646,9.834799766540527,-0.026190076023340225,0.03978142887353897,-0.005268557462841272
-0.6658028960227966,1.8005990982055664,9.86112117767334,-0.006337540224194527,0.015347537584602833,0.005726693198084831
-0.6107679605484009,1.8029918670654297,9.863513946533203,0.013591351918876171,-0.017027366906404495,0.0038941511884331703
-0.5796613097190857,1.8604196310043335,9.813264846801758,0.020997874438762665,-0.05978667363524437,-0.008322793990373611
-0.5653043389320374,1.9489539861679077,9.741479873657227,0.026571854948997498,-0.08910734206438065,-0.011987877078354359
-0.5318048596382141,1.9992033243179321,9.640981674194336,0.02970244735479355,-0.0817771777510643,0.002672456670552492
-0.48873403668403625,1.963310956954956,9.595518112182617,0.022906772792339325,-0.043293800204992294,0.017332790419459343
-0.44805604219436646,1.867598056793213,9.602696418762207,0.004275931045413017,0.01046075951308012,0.013667707331478596
-0.4863412082195282,1.8436698913574219,9.6433744430542,-0.013744063675403595,0.05566345527768135,-0.0034360159188508987
-0.5509474277496338,1.8891334533691406,9.712766647338867,-0.02870982140302658,0.07032378762960434,-0.01748550310730934
-0.6083751320838928,1.963310956954956,9.806086540222168,-0.03306210786104202,0.057496000081300735,-0.019318044185638428
-0.649053156375885,2.0207388401031494,9.832406997680664,-0.015652960166335106,0.031229566782712936,-0.005879404954612255
-0.6418746709823608,1.9968105554580688,9.83719253540039,0.007330167107284069,-0.0023670331574976444,0.008780929259955883
-0.6251249313354492,1.8987047672271729,9.784550666809082,0.02038702741265297,-0.03596363216638565,0.010002624243497849
-0.584446907043457,1.8317056894302368,9.693623542785645,0.016645587980747223,-0.04634803533554077,-0.0034360159188508987
-0.582054078578949,1.8197416067123413,9.631410598754883,0.005497625097632408,-0.028633465990424156,-0.01382041908800602
-0.5940182209014893,1.8556339740753174,9.657731056213379,-0.005726693198084831,0.0019088976550847292,-0.010766183026134968
-0.5940182209014893,1.8795621395111084,9.741479873657227,-0.010689826682209969,0.023288551717996597,0.006337540224194527
-0.5724828243255615,1.8987047672271729,9.801301002502441,-0.009391776286065578,0.024510245770215988,0.02160872146487236
-0.5389832854270935,1.9010975360870361,9.815657615661621,-0.0007635590736754239,0.005573981441557407,0.024662958458065987
-0.5102694034576416,1.8963119983673096,9.796515464782715,0.009849912486970425,-0.019470756873488426,0.010613471269607544
-0.5222335457801819,1.9178473949432373,9.75344467163086,0.016034740954637527,-0.035352785140275955,-0.007711946498602629
-0.5509474277496338,1.934597134590149,9.696016311645508,0.013591351918876171,-0.04023956134915352,-0.014431266114115715
-0.5724828243255615,1.9298114776611328,9.657731056213379,0.006719320081174374,-0.024968381971120834,-0.004657710436731577
-0.5581258535385132,1.9058831930160522,9.657731056213379,-0.0007635590736754239,0.00129805039614439,0.006948387715965509
-0.5318048596382141,1.9154545068740845,9.688838005065918,-0.008780929259955883,0.02145601063966751,0.010613471269607544
-0.5533402562141418,1.9465612173080444,9.746265411376953,-0.01252236869186163,0.024510245770215988,0.006337540224194527
-0.5653043389320374,1.9848463535308838,9.765408515930176,-0.009391776286065578,0.014736690558493137,-0.00038177953683771193
-0.5964110493659973,1.9968105554580688,9.772586822509766,-0.00259610079228878,-0.0017561858985573053,-0.0016034740256145597
-0.5940182209014893,1.9537396430969238,9.746265411376953,-7.635590736754239e-05,-0.01885990984737873,0.0032833039294928312
-0.5724828243255615,1.8628123998641968,9.712766647338867,-0.001985253533348441,-0.021914144977927208,0.007559234742075205
-0.6729813814163208,1.817348837852478,11.132607460021973,0.014202198944985867,-0.17584764957427979,0.008170082233846188
-0.30658039450645447,2.068894386291504,7.821538925170898,0.10674555599689484,0.13568444550037384,0.022219568490982056
-0.16301104426383972,2.1765713691711426,8.338687896728516,-0.2933593988418579,0.31588438153266907,0.026495499536395073
-0.11515458673238754,2.155035972595215,9.882657051086426,-0.3939964771270752,0.586489737033844,0.010002624243497849
-0.22522443532943726,2.018345832824707,10.778170585632324,-0.2244100123643875,0.7526401877403259,-0.01626380905508995
-0.4743770956993103,1.8652052879333496,10.627422332763672,-0.1044548824429512,0.3928511440753937,-0.04008685052394867
-0.8404789566993713,1.7599210739135742,10.359127044677734,-0.04107947647571564,-0.13980767130851746,-0.051082100719213486
-1.0513464212417603,1.7336000204086304,10.167701721191406,0.09865183383226395,-0.329781174659729,-0.0358109213411808
-1.0202397108078003,1.8077775239944458,9.712766647338867,0.21051323413848877,-0.25831204652786255,0.006337540224194527
-0.8141579031944275,1.8628123998641968,9.334700584411621,0.14461809396743774,-0.22349373996257782,0.05215108394622803
-0.5222335457801819,1.9058831930160522,9.255437850952148,0.009239064529538155,-0.16668494045734406,0.06681142002344131
-0.2826521694660187,1.8963119983673096,9.447162628173828,-0.0361163429915905,0.01779092662036419,0.031382277607917786
-0.20129621028900146,1.9441684484481812,9.648159980773926,-0.02435753494501114,0.1533990204334259,-0.02970244735479355
-0.32572299242019653,2.0135602951049805,9.863513946533203,-0.034283801913261414,0.09903360903263092,-0.06879667192697525
-0.5102694034576416,2.011167526245117,9.976275444030762,-0.03306210786104202,-0.0029778804164379835,-0.05169294774532318
-0.6586244106292725,1.92741858959198,9.820443153381348,0.005497625097632408,-0.015194825828075409,-0.00038177953683771193
-0.6873382925987244,1.8221344947814941,9.617053031921387,0.024128466844558716,0.00862821750342846,0.04359922185540199
-0.6275177597999573,1.7766708135604858,9.631410598754883,0.0029778804164379835,0.013514995574951172,0.05154023692011833
-0.5365904569625854,1.7910277843475342,9.794121742248535,-0.015652960166335106,0.019623467698693275,0.025884652510285378
-0.4815555512905121,1.8508483171463013,9.865906715393066,-0.008780929259955883,0.02145601063966751,-0.012598725035786629
-0.48394837975502014,1.939382791519165,9.827621459960938,0.01046075951308012,-0.01763821393251419,-0.04130854457616806
-0.5198407173156738,2.032702922821045,9.810872077941895,0.0328330397605896,-0.07689040154218674,-0.043141089379787445
-0.5318048596382141,2.0614166259765625,9.75344467163086,0.05268557742238045,-0.1080436110496521,-0.019928891211748123
-0.4863412082195282,2.0446670055389404,9.62901782989502,0.05390727147459984,-0.09277242422103882,0.01122431829571724
-0.4217349886894226,1.9968105554580688,9.48784065246582,0.025350160896778107,-0.04390464723110199,0.030160583555698395
-0.4456632137298584,1.939382791519165,9.454340934753418,-0.01626380905508995,0.03367295488715172,0.025273805484175682
-0.48873403668403625,1.8939191102981567,9.583553314208984,-0.05169294774532318,0.11796987801790237,0.002672456670552492
-0.5796613097190857,1.872383713722229,9.76062297821045,-0.06910209357738495,0.15889663994312286,-0.018096350133419037
-0.6562315821647644,1.8508483171463013,9.923633575439453,-0.0653606578707695,0.1265217363834381,-0.028480753302574158
-0.6993024349212646,1.872383713722229,10.016953468322754,-0.034283801913261414,0.047111593186855316,-0.019318044185638428
-0.6825526356697083,1.903490424156189,9.988240242004395,0.015423892997205257,-0.04512634128332138,-0.00038177953683771193
-0.615553617477417,1.939382791519165,9.885348320007324,0.059557609260082245,-0.12453648447990417,0.015500249341130257
-0.5054838061332703,1.9561325311660767,9.7366943359375,0.0781884491443634,-0.16729579865932465,0.02283041551709175
-0.4001995921134949,1.9728822708129883,9.569196701049805,0.06948387622833252,-0.14958122372627258,0.020997874438762665
-0.3520440459251404,1.9609181880950928,9.454340934753418,-0.006948387715965509,0.022066857665777206,0.0038941511884331703
-0.4145565330982208,1.95852530002594,9.569196701049805,-0.044820915907621384,0.10697462409734726,-0.0064902519807219505
-0.46719861030578613,1.9130617380142212,9.530911445617676,-0.06284090876579285,0.14851224422454834,-0.015652960166335106
-0.7519445419311523,1.9609181880950928,9.075976371765137,-0.06406260281801224,0.3494809865951538,-0.027259059250354767
-0.4169493317604065,1.8317056894302368,10.759027481079102,-0.10819631814956665,0.3788016438484192,-0.02664821222424507
-0.6634100675582886,1.9824535846710205,10.9002046585083,-0.09078717231750488,0.04650074616074562,-0.009544488042593002
-0.8261220455169678,1.9800606966018677,9.954740524291992,-0.001374406274408102,-0.2772482931613922,0.002672456670552492
-0.8213363885879517,1.8388842344284058,9.353842735290527,0.11231953650712967,-0.32672691345214844,0.004504998680204153
-0.6203392744064331,1.781456470489502,9.664909362792969,0.11109784245491028,-0.08605311065912247,0.022219568490982056
-0.4265206456184387,1.848455548286438,9.573982238769531,0.004275931045413017,-0.04390464723110199,0.030160583555698395
-0.2682952284812927,1.95852530002594,9.475876808166504,-0.06039752438664436,-0.006032116711139679,0.016721943393349648
-0.26111677289009094,2.0614166259765625,9.631410598754883,-0.049173206090927124,0.05932854115962982,-0.010155336000025272
-0.33768710494041443,2.0904297828674316,9.877870559692383,-0.01626380905508995,0.08315158635377884,-0.026037365198135376
-0.4863412082195282,2.035095691680908,9.892526626586914,-0.0032069480512291193,0.04283566400408745,-0.01748550310730934
-0.5748756527900696,1.9298114776611328,9.76062297821045,-0.0032069480512291193,-0.0023670331574976444,0.002061609411612153
-0.6083751320838928,1.848455548286438,9.614660263061523,-0.001985253533348441,-0.004810422193259001,0.012446013279259205
-0.5892325639724731,1.836491346359253,9.648159980773926,-0.006948387715965509,0.01901262067258358,0.009391776286065578
-0.5413761138916016,1.9106688499450684,9.796515464782715,-0.018096350133419037,0.035505495965480804,0.0014507622690871358
-0.5365904569625854,1.9298114776611328,9.851550102233887,-0.01748550310730934,0.034283801913261414,-0.007101099472492933
-0.5557330846786499,1.9609181880950928,9.827621459960938,-0.0007635590736754239,0.01046075951308012,-0.019318044185638428
-0.5964110493659973,1.9489539861679077,9.779765129089355,0.016645587980747223,-0.030466007068753242,-0.02664821222424507
-0.6059823632240295,1.9513468742370605,9.724730491638184,0.02351761981844902,-0.06650599837303162,-0.019318044185638428
-0.5509474277496338,1.9369899034500122,9.679266929626465,0.02038702741265297,-0.06711684167385101,0.002672456670552492
-0.5078766345977783,1.9106688499450684,9.624231338500977,0.013591351918876171,-0.030466007068753242,0.02405211143195629
-0.47676992416381836,1.8987047672271729,9.638588905334473,0.0029778804164379835,0.015958385542035103,0.02710634656250477
-0.4743770956993103,1.9154545068740845,9.691230773925781,-0.009391776286065578,0.040392275899648666,0.01122431829571724
-0.5174478888511658,1.9417755603790283,9.782157897949219,-0.021226942539215088,0.03855973482131958,-0.008322793990373611
-0.5581258535385132,1.9489539861679077,9.763015747070312,-0.02244863659143448,0.025121092796325684,-0.018096350133419037
-0.5796613097190857,1.939382791519165,9.75344467163086,-0.011300674639642239,0.017180079594254494,-0.015042114071547985
-0.5772684812545776,1.9202401638031006,9.786943435668945,0.007330167107284069,0.004352286923676729,-0.005268557462841272
-0.5724828243255615,1.9202401638031006,9.806086540222168,0.018554486334323883,-0.020692450925707817,0.004504998680204153
-0.5461617708206177,1.9561325311660767,9.770194053649902,0.018554486334323883,-0.04695888236165047,0.011835165321826935
-0.527019202709198,1.9872392416000366,9.681659698486328,0.01046075951308012,-0.04695888236165047,0.014889402315020561
-0.5461617708206177,2.0039889812469482,9.624231338500977,-7.635590736754239e-05,-0.01763821393251419,0.011835165321826935
-0.5341976284980774,1.9728822708129883,9.624231338500977,-0.013133215717971325,0.017180079594254494,0.002672456670552492
-0.5246263742446899,1.9441684484481812,9.703194618225098,-0.023746687918901443,0.039170581847429276,-0.007101099472492933
-0.5246263742446899,1.9130617380142212,9.75344467163086,-0.023746687918901443,0.036727190017700195,-0.011377030052244663
-0.5341976284980774,1.8843477964401245,9.810872077941895,-0.01626380905508995,0.015958385542035103,-0.0064902519807219505
-0.5365904569625854,1.8867406845092773,9.818050384521484,-0.00259610079228878,-0.008475505746901035,0.006337540224194527
-0.527019202709198,1.8963119983673096,9.798908233642578,0.012293301522731781,-0.02924431301653385,0.022219568490982056
-0.4983053207397461,1.9058831930160522,9.741479873657227,0.01916533336043358,-0.03779617324471474,0.02710634656250477
-0.46002015471458435,1.903490424156189,9.698409080505371,0.016034740954637527,-0.03229855000972748,0.016111096367239952
-0.4336991012096405,1.9106688499450684,9.672088623046875,0.005497625097632408,-0.015194825828075409,-0.008322793990373611
-0.47916272282600403,1.9154545068740845,9.660123825073242,-0.006948387715965509,0.006184828467667103,-0.023593975231051445
-0.4983053207397461,1.9178473949432373,9.712766647338867,-0.011300674639642239,0.023899398744106293,-0.02420482225716114
-0.5533402562141418,1.9178473949432373,9.765408515930176,-0.010078979656100273,0.026342788711190224,-0.013209572061896324
-0.5581258535385132,1.9513468742370605,9.767801284790039,-0.004428642801940441,0.013514995574951172,0.0008399150101467967
-0.5868397355079651,1.9824535846710205,9.758230209350586,0.0017561858985573053,-0.0035887276753783226,0.008780929259955883
-0.5700899958610535,1.9920248985290527,9.72233772277832,0.005497625097632408,-0.015194825828075409,0.011835165321826935
-0.5629115104675293,1.963310956954956,9.712766647338867,0.0035887276753783226,-0.01885990984737873,0.008170082233846188
-0.5341976284980774,1.9178473949432373,9.700801849365234,-0.00259610079228878,-0.015194825828075409,0.0008399150101467967
-0.5006981492042542,1.8915263414382935,9.717552185058594,-0.006337540224194527,-0.006642963737249374,-0.004657710436731577
-0.47676992416381836,1.8915263414382935,9.755837440490723,-0.0038177953101694584,-0.0035887276753783226,-0.005268557462841272
-0.4743770956993103,1.934597134590149,9.770194053649902,0.0023670331574976444,-0.00908635277301073,-0.0016034740256145597
-0.46480581164360046,1.9561325311660767,9.748658180236816,0.008551862090826035,-0.01763821393251419,0.0038941511884331703
-0.4743770956993103,1.9680966138839722,9.696016311645508,0.01046075951308012,-0.019470756873488426,0.006337540224194527
-0.4911268353462219,1.963310956954956,9.664909362792969,0.004275931045413017,-0.006642963737249374,0.002061609411612153
-0.5198407173156738,1.9465612173080444,9.655338287353516,-0.005726693198084831,0.015347537584602833,-0.0009926267666742206
-0.5485545992851257,1.9130617380142212,9.676874160766602,-0.018096350133419037,0.039170581847429276,-0.0022143214009702206
-0.6083751320838928,2.0374884605407715,8.779266357421875,-0.051082100719213486,0.24013933539390564,0.007559234742075205
-0.5198407173156738,1.7527425289154053,10.356734275817871,-0.14110571146011353,0.38002336025238037,0.017332790419459343
-0.6394818425178528,1.7120646238327026,10.613065719604492,-0.11377029865980148,0.07704310864210129,-0.011987877078354359
-0.7208378314971924,1.7910277843475342,10.160523414611816,0.02351761981844902,-0.1477486789226532,-0.02970244735479355
-0.7950153350830078,1.9226330518722534,9.806086540222168,0.14461809396743774,-0.24853847920894623,-0.021150587126612663
-0.7567301392555237,2.001596212387085,9.664909362792969,0.16821207106113434,-0.28702184557914734,0.0038941511884331703
-0.5892325639724731,2.0159530639648438,9.51176929473877,0.1178935244679451,-0.24243000149726868,0.028938889503479004
-0.388235479593277,2.0135602951049805,9.312865257263184,0.04092676565051079,-0.11659546941518784,0.03382566571235657
-0.23958136141300201,2.011167526245117,9.272188186645508,-0.03802524134516716,0.024510245770215988,0.016721943393349648
-0.23718854784965515,1.9800606966018677,9.51176929473877,-0.08521319180727005,0.13812783360481262,-0.0064902519807219505
-0.30179476737976074,1.939382791519165,9.818050384521484,-0.0877329409122467,0.193104088306427,-0.016874656081199646
-0.3690928816795349,1.9130617380142212,9.92124080657959,-0.07650861889123917,0.19066070020198822,-0.01626380905508995
-0.5246263742446899,1.848455548286438,9.973882675170898,-0.04611896723508835,0.12407834827899933,-0.008322793990373611
-0.6370890140533447,1.8317056894302368,9.902098655700684,-0.013744063675403595,0.0293970238417387,-0.004657710436731577
-0.6873382925987244,1.8843477964401245,9.739087104797363,0.02473931387066841,-0.04512634128332138,-0.0016034740256145597
-0.6394818425178528,1.8987047672271729,9.71515941619873,0.016034740954637527,-0.03168770298361778,-0.00038177953683771193
-0.5868397355079651,1.9226330518722534,9.717552185058594,0.008551862090826035,-0.023746687918901443,-0.005268557462841272
-0.5318048596382141,1.9680966138839722,9.724730491638184,0.007330167107284069,-0.029855160042643547,-0.011987877078354359
-0.5102694034576416,2.0039889812469482,9.719944953918457,0.011682453565299511,-0.03962871432304382,-0.011987877078354359
-0.5030909776687622,2.0159530639648438,9.696016311645508,0.014813045971095562,-0.0420721061527729,-0.004046862944960594
-0.5126622319221497,2.008774518966675,9.664909362792969,0.013591351918876171,-0.02435753494501114,0.008170082233846188
-0.5341976284980774,1.9537396430969238,9.650552749633789,0.0035887276753783226,0.004352286923676729,0.018554486334323883
-0.5389832854270935,1.9010975360870361,9.686445236206055,-0.016874656081199646,0.028786176815629005,0.022219568490982056
-0.529412031173706,1.8604196310043335,9.72233772277832,-0.034283801913261414,0.04650074616074562,0.016721943393349648
-0.5246263742446899,1.848455548286438,9.763015747070312,-0.036727190017700195,0.056274302303791046,0.004504998680204153
-0.5246263742446899,1.8747764825820923,9.85394287109375,-0.021226942539215088,0.03733803704380989,-0.007711946498602629
-0.5246263742446899,1.9154545068740845,9.880263328552246,0.004275931045413017,-0.010308047756552696,-0.011377030052244663
-0.5341976284980774,1.9561325311660767,9.86829948425293,0.027259059250354767,-0.06467345356941223,-0.005268557462841272
-0.5054838061332703,1.9657038450241089,9.72951602935791,0.03779617324471474,-0.09338327497243881,0.006337540224194527
-0.47916272282600403,1.932204246520996,9.60508918762207,0.02970244735479355,-0.07322531193494797,0.016111096367239952
-0.4624129831790924,1.9106688499450684,9.51894760131836,0.007941014133393764,-0.013362283818423748,0.017332790419459343
-0.43609192967414856,1.9010975360870361,9.583553314208984,-0.019394399598240852,0.05138752609491348,0.007559234742075205
-0.47676992416381836,1.9369899034500122,9.7366943359375,-0.03802524134516716,0.08681666851043701,-0.005268557462841272
-0.5102694034576416,1.9776679277420044,9.841979026794434,-0.036727190017700195,0.07887565344572067,-0.010766183026134968
-0.6011967062950134,1.8556339740753174,9.652945518493652,0.012293301522731781,-0.011529741808772087,-0.009544488042593002
-0.5964110493659973,1.8628123998641968,9.700801849365234,-0.001985253533348441,0.015347537584602833,0.002061609411612153
-0.5700899958610535,1.8843477964401245,9.748658180236816,-0.011911521665751934,0.03245126083493233,0.011835165321826935
-0.5509474277496338,1.9106688499450684,9.779765129089355,-0.014431266114115715,0.0293970238417387,0.010613471269607544
-0.5533402562141418,1.9178473949432373,9.796515464782715,-0.006948387715965509,0.012293301522731781,-0.0016034740256145597
-0.5581258535385132,1.908276081085205,9.794121742248535,0.004275931045413017,-0.010918894782662392,-0.015652960166335106
-0.5724828243255615,1.9226330518722534,9.75344467163086,0.012904148548841476,-0.03229855000972748,-0.019318044185638428
-0.582054078578949,1.9369899034500122,9.703194618225098,0.015423892997205257,-0.04023956134915352,-0.007101099472492933
-0.5772684812545776,1.9489539861679077,9.672088623046875,0.013591351918876171,-0.03168770298361778,0.012446013279259205
-0.5318048596382141,1.95852530002594,9.669695854187012,0.004275931045413017,-0.012751436792314053,0.02283041551709175
-0.5150550603866577,1.9561325311660767,9.679266929626465,-0.008780929259955883,0.0067956759594380856,0.017332790419459343
-0.5102694034576416,1.9489539861679077,9.705587387084961,-0.018096350133419037,0.022066857665777206,0.0014507622690871358
-0.527019202709198,1.9417755603790283,9.731908798217773,-0.020005248486995697,0.02695363573729992,-0.009544488042593002
-0.5389832854270935,1.9154545068740845,9.767801284790039,-0.015652960166335106,0.018401773646473885,-0.010155336000025272
-0.5748756527900696,1.8652052879333496,9.782157897949219,-0.008170082233846188,0.0025197449140250683,-0.0028251686599105597
-0.5485545992851257,1.8580267429351807,9.763015747070312,0.0005344913806766272,-0.010308047756552696,0.006948387715965509
-0.5413761138916016,1.8699909448623657,9.76062297821045,0.007941014133393764,-0.01885990984737873,0.01122431829571724
-0.5222335457801819,1.9178473949432373,9.74387264251709,0.012293301522731781,-0.023746687918901443,0.010613471269607544
-0.49591249227523804,1.9537396430969238,9.727123260498047,0.013591351918876171,-0.026190076023340225,0.006948387715965509
-0.47916272282600403,1.9609181880950928,9.707980155944824,0.012293301522731781,-0.026190076023340225,0.0014507622690871358
-0.4695914387702942,1.9561325311660767,9.688838005065918,0.009239064529538155,-0.019470756873488426,-0.004046862944960594
-0.46480581164360046,1.9250258207321167,9.693623542785645,0.0029778804164379835,-0.00786465872079134,-0.0064902519807219505
-0.47916272282600403,1.903490424156189,9.684052467346191,-0.001985253533348441,0.009239064529538155,-0.005268557462841272
-0.5126622319221497,1.8963119983673096,9.696016311645508,-0.008780929259955883,0.025731941685080528,-0.0034360159188508987
-0.5557330846786499,1.9226330518722534,9.731908798217773,-0.015042114071547985,0.034283801913261414,-0.00038177953683771193
-0.5724828243255615,1.970489501953125,9.75105094909668,-0.015652960166335106,0.03489464893937111,0.0051158457063138485
-0.5916253924369812,1.9800606966018677,9.791728973388672,-0.008170082233846188,0.023899398744106293,0.008170082233846188
-0.5772684812545776,1.95852530002594,9.789336204528809,-0.0007635590736754239,-0.0005344913806766272,0.002672456670552492
-0.5581258535385132,1.9154545068740845,9.748658180236816,0.0035887276753783226,-0.021914144977927208,-0.010766183026134968
-0.5533402562141418,1.903490424156189,9.698409080505371,0.006108472589403391,-0.02802261710166931,-0.015652960166335106
-0.5748756527900696,1.8915263414382935,9.688838005065918,0.006719320081174374,-0.02557922899723053,-0.01382041908800602
-0.5796613097190857,1.8867406845092773,9.696016311645508,0.005497625097632408,-0.01885990984737873,-0.008933641016483307
-0.47676992416381836,1.8915263414382935,10.057631492614746,0.11980241537094116,-0.3047364354133606,0.008780929259955883
-0.45523449778556824,1.9441684484481812,9.281759262084961,0.1247655525803566,-0.14469444751739502,0.03504735976457596
-0.33768710494041443,1.9872392416000366,8.891729354858398,-0.007559234742075205,0.03306210786104202,0.031382277607917786
-0.2754737138748169,2.0039889812469482,9.236295700073242,-0.13117945194244385,0.1656159609556198,0.0051158457063138485
-0.3233301639556885,1.9752750396728516,9.89970588684082,-0.13744063675403595,0.29022881388664246,-0.023593975231051445
-0.45284169912338257,1.9824535846710205,10.191629409790039,-0.08025006204843521,0.2755684554576874,-0.033978380262851715
-0.529412031173706,1.9537396430969238,10.17009449005127,-0.05726693198084831,0.19066070020198822,-0.031534988433122635
-0.7232306599617004,1.8699909448623657,9.973882675170898,0.004886778071522713,-0.0958266630768776,-0.0028251686599105597
-0.48394837975502014,1.9250258207321167,9.569196701049805,0.012904148548841476,-0.07139277458190918,0.018554486334323883
-0.4169493317604065,1.9657038450241089,9.631410598754883,-0.009391776286065578,-0.007253811229020357,-0.00038177953683771193
-0.39062830805778503,1.9824535846710205,9.664909362792969,-0.010689826682209969,0.024510245770215988,-0.010155336000025272
-0.4384847581386566,1.9561325311660767,9.710372924804688,-0.016874656081199646,0.045889899134635925,-0.026037365198135376
-0.5054838061332703,1.9465612173080444,9.767801284790039,-0.026190076023340225,0.026342788711190224,-0.02542651630938053
-0.5629115104675293,1.9202401638031006,9.772586822509766,-0.019394399598240852,0.018401773646473885,-0.011987877078354359
-0.5892325639724731,1.9130617380142212,9.748658180236816,-0.00259610079228878,0.01779092662036419,0.0051158457063138485
-0.5485545992851257,1.9154545068740845,9.75105094909668,0.006108472589403391,-0.0005344913806766272,0.015500249341130257
-0.5174478888511658,1.9202401638031006,9.782157897949219,0.008551862090826035,-0.02435753494501114,0.015500249341130257
-0.46719861030578613,1.9202401638031006,9.784550666809082,0.012904148548841476,-0.031076854094862938,0.005726693198084831
-0.47198426723480225,1.9058831930160522,9.72951602935791,0.013591351918876171,-0.02680092304944992,-0.007101099472492933
-0.49351966381073,1.9202401638031006,9.674481391906738,0.006719320081174374,-0.019470756873488426,-0.015652960166335106
-0.49351966381073,1.9130617380142212,9.684052467346191,-7.635590736754239e-05,-0.0035887276753783226,-0.014431266114115715
-0.5222335457801819,1.9298114776611328,9.696016311645508,-0.004428642801940441,0.014125842601060867,-0.004657710436731577
-0.5126622319221497,1.934597134590149,9.705587387084961,-0.0051158457063138485,0.025731941685080528,0.007559234742075205
-0.5150550603866577,1.9513468742370605,9.7366943359375,-0.0038177953101694584,0.024510245770215988,0.01122431829571724
-0.5318048596382141,1.963310956954956,9.74387264251709,-0.0032069480512291193,0.01901262067258358,0.004504998680204153
-0.5772684812545776,1.963310956954956,9.72951602935791,-0.004428642801940441,0.0165692325681448,-0.007101099472492933
-0.6251249313354492,1.934597134590149,9.717552185058594,-0.010078979656100273,0.014736690558493137,-0.012598725035786629
-0.6538388133049011,1.8915263414382935,9.724730491638184,-0.015652960166335106,0.013514995574951172,-0.007711946498602629
-0.6323033571243286,1.8580267429351807,9.770194053649902,-0.015652960166335106,0.015347537584602833,0.004504998680204153
-0.5461617708206177,1.841277003288269,9.806086540222168,-0.0051158457063138485,0.004352286923676729,0.014278554357588291
-0.4576273262500763,1.8652052879333496,9.8300142288208,0.011682453565299511,-0.026190076023340225,0.017332790419459343
-0.41934216022491455,1.9130617380142212,9.791728973388672,0.029091600328683853,-0.05673243850469589,0.0130568603053689
-0.4217349886894226,1.9369899034500122,9.717552185058594,0.03718532621860504,-0.0689493864774704,0.0014507622690871358
-0.4408775866031647,1.9657038450241089,9.62901782989502,0.027259059250354767,-0.05428905040025711,-0.010766183026134968
-0.48873403668403625,1.9728822708129883,9.581160545349121,0.0035887276753783226,-0.00908635277301073,-0.016874656081199646
-0.5413761138916016,1.9609181880950928,9.60508918762207,-0.021226942539215088,0.047111593186855316,-0.013209572061896324
-0.5748756527900696,1.9561325311660767,9.703194618225098,-0.038636088371276855,0.08192989230155945,-0.0034360159188508987
-0.5581258535385132,1.932204246520996,9.803693771362305,-0.03924693539738655,0.07826480269432068,0.005726693198084831
-0.529412031173706,1.92741858959198,9.86112117767334,-0.021837789565324783,0.04283566400408745,0.006948387715965509
-0.5389832854270935,1.9130617380142212,9.856335639953613,0.0029778804164379835,-0.008475505746901035,0.00022906772210262716
-0.5653043389320374,1.9106688499450684,9.782157897949219,0.022906772792339325,-0.05184566229581833,-0.0064902519807219505
-0.5724828243255615,1.903490424156189,9.707980155944824,0.030313294380903244,-0.06711684167385101,-0.007101099472492933
-0.5485545992851257,1.8963119983673096,9.562018394470215,0.027869906276464462,-0.061619218438863754,-0.005268557462841272
-0.8189435601234436,2.140678882598877,7.840681552886963,-0.0659715011715889,0.31954947113990784,0.012446013279259205
-0.35443684458732605,1.6713865995407104,10.18445110321045,-0.26602399349212646,0.7373690009117126,0.030160583555698395
-0.3568296730518341,1.6259230375289917,11.240283966064453,-0.2945810854434967,0.6683432459831238,0.007559234742075205
-0.6131607890129089,1.8436698913574219,11.510673522949219,-0.16164545714855194,0.1405712217092514,-0.035200074315071106
-0.8213363885879517,1.9106688499450684,10.524531364440918,0.09681928902864456,-0.4391228258609772,-0.04375193640589714
-0.9723833203315735,1.8604196310043335,9.712766647338867,0.3092414140701294,-0.6859050989151001,-0.032756682485342026
-0.9508479237556458,1.8293129205703735,9.358628273010254,0.36521029472351074,-0.6064949631690979,-0.0028251686599105597
-0.7112665176391602,1.841277003288269,8.982656478881836,0.23036576807498932,-0.3554367423057556,0.039323292672634125
-0.5222335457801819,1.8891334533691406,8.827122688293457,0.1178935244679451,-0.21555273234844208,0.05337277799844742
-0.18454644083976746,1.9561325311660767,8.83669376373291,-0.09643751382827759,0.0623827762901783,0.05337277799844742
-0.01704886183142662,2.042274236679077,9.368199348449707,-0.19142426550388336,0.30305659770965576,0.0130568603053689
-0.04097708687186241,2.0880367755889893,9.688838005065918,-0.18959172070026398,0.3763582706451416,-0.011987877078354359
-0.24915266036987305,2.119143486022949,10.220343589782715,-0.1280488520860672,0.3635304868221283,-0.04802786558866501
-0.5557330846786499,2.095215320587158,10.316056251525879,-0.053525492548942566,0.15950748324394226,-0.05230379477143288
-0.8093722462654114,1.994417667388916,10.02413272857666,0.012904148548841476,-0.06406260281801224,-0.033978380262851715
-0.9122636318206787,1.9058831930160522,9.717552185058594,0.06390989571809769,-0.15813308954238892,-0.0028251686599105597
-0.8404789566993713,1.8197416067123413,9.557232856750488,0.06635328382253647,-0.13064496219158173,0.030160583555698395
-0.649053156375885,1.755135416984558,9.540482521057129,0.02038702741265297,-0.04879142343997955,0.05337277799844742
-0.43130627274513245,1.726421594619751,9.640981674194336,-0.02557922899723053,0.039170581847429276,0.04787515476346016
-0.34725838899612427,1.7766708135604858,9.75344467163086,-0.036727190017700195,0.08376242965459824,0.010613471269607544
-0.37148571014404297,1.8963119983673096,9.86829948425293,-0.01748550310730934,0.05016583204269409,-0.031534988433122635
-0.48873403668403625,2.035095691680908,9.892526626586914,0.008551862090826035,-0.028633465990424156,-0.04619532451033592
-0.582054078578949,2.0736799240112305,9.74387264251709,0.02970244735479355,-0.0817771777510643,-0.023593975231051445
-0.9074779748916626,2.233999013900757,8.920442581176758,-0.027411770075559616,-0.015805672854185104,0.03382566571235657
-0.263509601354599,1.6307085752487183,10.127023696899414,-0.07406523078680038,0.18638476729393005,0.07353074103593826
-0.43609192967414856,1.719243049621582,10.2418794631958,-0.004428642801940441,0.2205922156572342,0.031382277607917786
