accX,accY,accZ,gyroX,gyroY,gyroZ
1.037886381149292,4.719603538513184,9.364412307739258,-0.41915827989578247,0.5095489025115967,-0.020210912451148033
1.6308056116104126,5.641131401062012,10.092957496643066,-0.663713812828064,0.9268047213554382,-0.42561599612236023
1.5833525657653809,4.976711750030518,9.880793571472168,-0.8472352027893066,1.253495454788208,-0.7352897524833679
1.0827728509902954,5.025362014770508,9.805931091308594,-0.8336041569709778,1.2499698400497437,-0.8809374570846558
0.5352764129638672,4.34847354888916,9.434992790222168,-0.5712288022041321,0.9505237340927124,-0.8985652923583984
-1.084535002708435,3.5661728382110596,9.687313079833984,0.30970868468284607,-0.5431464910507202,-0.8079128861427307
-2.0372166633605957,3.4259493350982666,9.945466041564941,0.5841442346572876,-0.5737071633338928,-0.6880262494087219
-1.7698321342468262,2.5986855030059814,9.301156997680664,0.3951948881149292,-0.3886150121688843,-0.6117728352546692
-1.9200060367584229,1.680250644683838,9.450191497802734,0.030002210289239883,-0.19947367906570435,-0.5130918622016907
-2.033060312271118,1.595658779144287,9.735016822814941,-0.12489575892686844,-0.08890707045793533,-0.29890507459640503
-1.2717807292938232,2.292783260345459,9.560287475585938,-0.0846833735704422,-0.20668189227581024,-0.025708699598908424
-0.025254039093852043,3.6440610885620117,9.806697845458984,-0.029932396486401558,-0.43301618099212646,-0.1149124801158905
0.00472136540338397,3.217634677886963,10.107362747192383,-0.04836307466030121,-0.6084741353988647,-0.29246482253074646
-0.3264637589454651,2.522818088531494,10.285155296325684,-0.05309291556477547,-0.6189635396003723,-0.24029693007469177
-0.2810409665107727,2.3270490169525146,10.276823043823242,0.030421089380979538,-0.46071454882621765,-0.2191784530878067
-0.3082103729248047,2.2112271785736084,9.976351737976074,0.15505504608154297,-0.3430968225002289,-0.19289378821849823
-0.222258523106575,2.002692222595215,9.39066219329834,0.270805299282074,-0.387114018201828,-0.17264796793460846
0.16265247762203217,1.8037915229797363,9.10295581817627,0.33601078391075134,-0.4660552740097046,-0.1955990493297577
0.4499758183956146,1.909682273864746,8.927309036254883,0.3714933395385742,-0.4703487753868103,-0.22572343051433563
0.6092860102653503,2.1475987434387207,8.936196327209473,0.40828487277030945,-0.4149869382381439,-0.2437003254890442
0.7396358847618103,2.3460590839385986,8.694514274597168,0.4816236197948456,-0.3701494336128235,-0.2623927891254425
0.7490020394325256,2.4988760948181152,8.465944290161133,0.49666833877563477,-0.3444058299064636,-0.26424285769462585
0.7816302180290222,2.4419515132904053,8.638213157653809,-0.08777260780334473,-0.05354670062661171,-0.26453953981399536
0.6497671604156494,2.156035900115967,9.205523490905762,-0.2617993950843811,0.06696828454732895,-0.2387435883283615
0.48240289092063904,2.2804579734802246,9.545212745666504,-0.16470672190189362,-0.08731882274150848,-0.18760544061660767
0.513106107711792,2.4632887840270996,9.445747375488281,-0.07759733498096466,0.02209586836397648,-0.09934414178133011
0.40045416355133057,2.7940523624420166,9.149356842041016,-0.10353293269872665,0.06326818466186523,-0.06058037653565407
0.5308902859687805,3.1091485023498535,9.004534721374512,-0.14964452385902405,-0.04672246426343918,-0.03207915276288986
0.5549376010894775,3.199831247329712,9.248513221740723,-0.11116001754999161,-0.12226031720638275,-0.040020398795604706
1.618528127670288,3.9251115322113037,7.9438557624816895,-0.0031066860537976027,-0.4041309952735901,-0.12491321563720703
1.5630688667297363,3.672973394393921,8.261940002441406,-0.017086774110794067,-0.6949377655982971,-0.2589544951915741
1.8017898797988892,3.5187294483184814,9.226276397705078,0.005235987715423107,-0.4895648658275604,-0.29510027170181274
0.991007924079895,3.666748523712158,8.837103843688965,0.0391651876270771,-0.08155923336744308,-0.2045176774263382
1.0084185600280762,3.790710687637329,8.98744010925293,0.0524296909570694,-0.21165607869625092,-0.14065608382225037
0.7053605318069458,3.5718231201171875,9.110589981079102,0.13027137517929077,-0.32073915004730225,-0.09911724925041199
0.6272233724594116,3.539740800857544,8.888559341430664,0.20863665640354156,-0.40566688776016235,0.011833332479000092
1.7618833780288696,3.968839168548584,8.666521072387695,0.21507692337036133,-0.4386361539363861,0.05654866620898247
1.9116933345794678,4.2736496925354,9.007025718688965,0.23019146919250488,-0.3850370943546295,-0.05167919769883156
0.6402382254600525,4.19371223449707,8.926273345947266,0.4311661422252655,-0.582503616809845,-0.07820820063352585
0.9151021838188171,4.110489845275879,8.788003921508789,0.42067670822143555,-0.5790478587150574,-0.0037350046914070845
1.5145623683929443,4.343493461608887,8.668562889099121,0.27382469177246094,-0.38090065121650696,0.06051056459546089
2.43337082862854,4.695450782775879,8.62281322479248,0.1290147304534912,-0.22893483936786652,0.06161012127995491
2.542191982269287,4.561193466186523,8.795856475830078,0.05763076990842819,-0.1566781997680664,0.03274237737059593
2.0901572704315186,4.371189594268799,9.206290245056152,0.08712683618068695,-0.14351841807365417,0.011798425577580929
1.7950670719146729,4.314695835113525,9.54312515258789,0.19312068819999695,-0.14479251205921173,0.03885103017091751
1.8561574220657349,4.4167561531066895,9.459989547729492,0.29218557476997375,-0.08190830051898956,0.06918485462665558
2.0647594928741455,4.533363342285156,9.154220581054688,0.29300588369369507,0.054681167006492615,0.09162978827953339
1.9118179082870483,4.680778980255127,9.154411315917969,0.24389231204986572,0.12774065136909485,0.08428195118904114
1.632127285003662,4.710495948791504,9.077777862548828,0.2203478217124939,0.11505210399627686,0.10129890590906143
1.359925627708435,4.736410617828369,8.999699592590332,0.14454816281795502,0.060266219079494476,0.16023868322372437
1.521859884262085,4.7227253913879395,9.049345016479492,0.06813765317201614,0.17261306941509247,0.18584266304969788
2.055192232131958,4.42141056060791,8.736883163452148,-0.18298031389713287,0.5378406643867493,0.12545426189899445
1.190617322921753,3.68393874168396,9.617250442504883,-0.4531049132347107,0.5240002274513245,0.09107127785682678
0.781122624874115,3.193328619003296,10.400824546813965,-0.3896971046924591,0.22046999633312225,0.1460491567850113
1.058103084564209,2.9865174293518066,10.417142868041992,-0.14507175981998444,-0.04614650458097458,0.19081684947013855
1.292820930480957,2.8108787536621094,9.853155136108398,0.10267771780490875,-0.07031931728124619,0.15158183872699738
1.347581148147583,2.8352901935577393,9.187528610229492,0.29335492849349976,0.05832890421152115,0.08920377492904663
1.346269130706787,2.930598497390747,8.69946575164795,0.3356093466281891,0.09997245669364929,0.06417575478553772
1.2028756141662598,3.1477718353271484,7.8603363037109375,0.35442399978637695,0.026720991358160973,0.03586651757359505
1.1184561252593994,3.2795870304107666,7.706820011138916,0.32850587368011475,-0.04991641640663147,0.03082251362502575
0.9155905842781067,3.5115180015563965,7.808496952056885,0.31126201152801514,-0.07391469180583954,0.03850196301937103
0.6508684754371643,3.650209426879883,7.869090557098389,0.23914501070976257,-0.050335295498371124,0.08848819136619568
0.5351136326789856,3.6712303161621094,8.131800651550293,0.09714502841234207,-0.07152359187602997,0.13124875724315643
0.6793211698532104,3.57633376121521,8.682821273803711,-0.0495324432849884,-0.016545720398426056,0.12824679911136627
1.380027413368225,3.7925877571105957,9.205609321594238,0.20381954312324524,-0.08337438106536865,-0.07463027536869049
1.5456295013427734,3.9000489711761475,8.195831298828125,0.1077391728758812,0.06342526525259018,-0.15084880590438843
1.2452912330627441,3.590162754058838,10.167360305786133,-0.35353389382362366,-0.2491282969713211,-0.12520991265773773
1.6120734214782715,3.5386970043182373,10.154556274414062,-0.19600047171115875,-0.2065073549747467,-0.1932777613401413
1.561594009399414,3.5851829051971436,9.496601104736328,-0.017610372975468636,-0.11330677568912506,-0.2485872507095337
1.5654438734054565,3.8671815395355225,8.539140701293945,0.07880161702632904,-0.05820672959089279,-0.3020990490913391
1.329816222190857,4.139593601226807,7.933752059936523,0.022305307909846306,-0.10393435508012772,-0.3551046848297119
1.1600576639175415,4.415664196014404,7.844726085662842,-0.047455500811338425,-0.2045176774263382,-0.38927823305130005
0.9846680760383606,4.5053510665893555,7.936779499053955,-0.06524040549993515,-0.3110525906085968,-0.42788490653038025
0.6343485116958618,4.477827548980713,7.849121570587158,-0.0431968979537487,-0.4470660984516144,-0.47075021266937256
0.5765141844749451,4.461671352386475,8.048175811767578,-0.047682393342256546,-0.5712637305259705,-0.45287802815437317
0.739233672618866,4.496885299682617,8.529831886291504,0.05146975815296173,-0.7302806377410889,-0.46413540840148926
1.0802829265594482,4.373018741607666,8.742886543273926,0.04433136433362961,-0.7265980243682861,-0.44172537326812744
1.3276805877685547,4.316256999969482,8.564480781555176,-0.04096287861466408,-0.7107155323028564,-0.39156460762023926
1.7990509271621704,4.36100959777832,8.590702056884766,-0.10384708642959595,-0.7138745784759521,-0.3402519226074219
2.1751418113708496,4.660447597503662,8.8922758102417,-0.12597785890102386,-0.6869615912437439,-0.3511602580547333
2.313593626022339,4.7114057540893555,8.923246383666992,-0.07581710070371628,-0.685984194278717,-0.3851592540740967
2.3245208263397217,4.782408237457275,8.728753089904785,-0.03986331820487976,-0.7274706959724426,-0.38385024666786194
2.441175937652588,4.727917194366455,8.828704833984375,0.08672541379928589,-0.293791264295578,-0.3707428276538849
2.316016435623169,4.747730731964111,7.792666435241699,0.020559977740049362,0.11941542476415634,-0.48493972420692444
1.2664752006530762,4.896563529968262,7.57036018371582,-0.21183061599731445,-0.003036872949451208,-0.422334760427475
1.3838101625442505,4.830569744110107,8.071840286254883,-0.3142988979816437,-0.41289255023002625,-0.30913272500038147
1.7485237121582031,4.7992730140686035,9.120193481445312,-0.15538665652275085,-0.4824788272380829,-0.30454251170158386
1.4854297637939453,4.817114353179932,8.865201950073242,-0.07855726778507233,-0.13941690325737,-0.33477160334587097
0.9814311265945435,4.673328399658203,8.402862548828125,-0.129608154296875,0.10133381932973862,-0.3117332458496094
1.1756296157836914,4.663904666900635,8.27389144897461,-0.17961183190345764,0.19198621809482574,-0.26822221279144287
1.6273866891860962,4.897703170776367,8.374533653259277,-0.11121238023042679,0.057560957968235016,-0.28208011388778687
1.5585964918136597,4.814605236053467,8.356165885925293,0.017243852838873863,-0.28677505254745483,-0.3084695041179657
1.4445750713348389,4.964338779449463,8.316948890686035,0.04672246426343918,-0.5299168825149536,-0.27344071865081787
2.054234504699707,4.9411821365356445,9.175854682922363,-0.14339624345302582,-0.33536502718925476,-0.23609068989753723
1.9820924997329712,4.806168079376221,9.31967830657959,-0.10417870432138443,-0.3182782530784607,-0.21984167397022247
2.0305511951446533,4.590622901916504,9.336296081542969,-0.03527310490608215,-0.4181983470916748,-0.18448130786418915
2.2875638008117676,4.501855373382568,9.301722526550293,0.07799876481294632,-0.235619455575943,-0.16001178324222565
2.284470558166504,4.0827460289001465,8.655987739562988,-0.0302465558052063,0.09327039122581482,-0.16718508303165436
1.449775218963623,4.0192131996154785,9.312429428100586,-0.16873842477798462,0.20388935506343842,-0.07548549026250839
1.3858788013458252,4.0849103927612305,9.578414916992188,-0.056740652769804,-0.07265805453062057,0.04392993822693825
1.857191801071167,4.044984340667725,9.514558792114258,0.09285151958465576,-0.2688156068325043,0.11623892933130264
2.051074266433716,3.998086929321289,8.908709526062012,0.13058553636074066,-0.30028390884399414,0.09173450618982315
2.796168804168701,3.265326976776123,8.33027172088623,0.021450096741318703,-0.26803022623062134,-0.1607099175453186
2.8554110527038574,3.2732949256896973,8.286447525024414,0.040421824902296066,-0.3715282380580902,-0.15692254900932312
2.8409788608551025,3.1173558235168457,8.93877124786377,0.12852604687213898,-0.14871950447559357,-0.09864600747823715
2.8232808113098145,3.3732192516326904,8.570783615112305,0.12538444995880127,-0.10180505365133286,-0.10245082527399063
2.8124783039093018,3.4173779487609863,7.953299522399902,0.08314748853445053,-0.09341002255678177,-0.0999550074338913
3.057347536087036,3.470529317855835,8.854743957519531,-0.1849350929260254,0.09889035671949387,-0.08665559440851212
2.6102352142333984,3.3952746391296387,8.844115257263184,-0.09604547172784805,0.05902703478932381,-0.06391395628452301
2.5098607540130615,4.015142917633057,8.778014183044434,0.09018116444349289,-0.08789478242397308,0.006719517521560192
2.592374563217163,4.1245293617248535,8.286571502685547,0.1425933986902237,-0.15189599990844727,-0.0030194194987416267
2.6705498695373535,4.183474540710449,8.147401809692383,0.1682148277759552,-0.06181956082582474,-0.004607669077813625
2.9923689365386963,4.0819315910339355,7.486840724945068,0.028623400256037712,0.3505144715309143,-0.07244861871004105
2.668079137802124,4.01892614364624,7.60911750793457,-0.13493140041828156,0.4173780381679535,-0.08834856748580933
2.1598763465881348,3.9695096015930176,8.28128433227539,-0.2151641845703125,0.29996973276138306,-0.02413790300488472
2.7146224975585938,4.082487106323242,8.629066467285156,-0.09285151958465576,0.0959232971072197,0.03413863852620125
2.734743356704712,4.198663234710693,7.879087448120117,-0.04132939502596855,0.010733774863183498,0.015882495790719986
1.3329094648361206,3.7183101177215576,8.867827415466309,-0.7039610743522644,1.394326090812683,0.1318770796060562
0.88503098487854,3.6458327770233154,8.674280166625977,-0.5951049327850342,1.1002730131149292,0.3361329734325409
0.9979128241539001,3.7948286533355713,8.982202529907227,-0.33288663625717163,0.6958976984024048,0.3589095175266266
1.0387961864471436,3.8179376125335693,9.096328735351562,-0.08628907799720764,0.4314104914665222,0.3196395933628082
1.0474631786346436,3.9379732608795166,8.932393074035645,0.03925245627760887,0.2045002281665802,0.28214994072914124
1.2027702331542969,4.031711101531982,9.002130508422852,0.1459967941045761,0.08845328539609909,0.24617868661880493
1.395311951637268,4.039324760437012,9.18448257446289,0.2209586799144745,0.11079350113868713,0.22848105430603027
1.5811115503311157,4.133895397186279,9.203819274902344,0.18774506449699402,0.22931881248950958,0.25048965215682983
1.589979648590088,4.100884437561035,9.280892372131348,0.17041394114494324,0.27352800965309143,0.2569124698638916
1.4577144384384155,3.9405014514923096,9.376392364501953,0.1817062348127365,0.2657961845397949,0.28619909286499023
1.624283790588379,4.012748718261719,9.2167387008667,0.18226473033428192,0.1518261879682541,0.331176221370697
1.423477292060852,3.705247163772583,9.890552520751953,0.020001472905278206,0.39388591051101685,0.28180086612701416
0.8639045357704163,3.62520432472229,10.259949684143066,-0.011397000402212143,0.48555058240890503,0.2819928526878357
0.8126686215400696,3.7356345653533936,10.009228706359863,0.07773696631193161,0.37887606024742126,0.31201252341270447
1.139534592628479,3.5014145374298096,9.56481647491455,0.1385442316532135,0.24066345393657684,0.3312285840511322
1.2304950952529907,3.531562328338623,9.445403099060059,0.040997784584760666,0.2926742732524872,0.3147352337837219
0.9986214637756348,3.2191476821899414,9.423903465270996,0.05576327070593834,0.3928212523460388,0.2655867636203766
1.2044461965560913,3.254601001739502,9.124924659729004,0.09843657165765762,0.3445628881454468,0.250542014837265
1.0034960508346558,3.390869379043579,8.8692626953125,0.16543975472450256,0.2082526832818985,0.1987755447626114
0.7278851866722107,3.4050240516662598,8.828840255737305,0.23542746901512146,0.055344391614198685,0.1575334221124649
0.4188416302204132,3.207674741744995,8.983810424804688,0.24808110296726227,-0.014678219333291054,0.14018484950065613
-0.025531765073537827,3.069701671600342,9.021074295043945,0.20628046989440918,-0.03698352724313736,0.17205455899238586
-0.2299008071422577,2.9107649326324463,9.07105541229248,0.19942131638526917,-0.10348057001829147,0.23610813915729523
-0.06607996672391891,2.764364242553711,9.39560317993164,0.3117332458496094,-0.1471487134695053,0.3122917711734772
0.20024144649505615,2.906867265701294,9.443659782409668,0.48832565546035767,-0.22820179164409637,0.3497116267681122
0.4541800320148468,3.2546679973602295,9.277234077453613,0.6029589176177979,-0.25595253705978394,0.31867966055870056
0.3764355182647705,3.457045078277588,8.833090782165527,0.5985606908798218,-0.2986432909965515,0.2739643454551697
0.25535595417022705,3.553560256958008,8.523990631103516,0.49670323729515076,-0.31550318002700806,0.23547981679439545
0.2840193510055542,3.552506685256958,8.544407844543457,0.29305824637413025,-0.3494149148464203,0.20635028183460236
0.7268508672714233,3.4750688076019287,8.881673812866211,0.10360274463891983,-0.28150415420532227,0.20032888650894165
1.0993311405181885,3.454507350921631,9.461980819702148,0.09775589406490326,-0.12908455729484558,0.17142623662948608
1.0029022693634033,3.568844795227051,9.255188941955566,0.2226865589618683,-0.025586526840925217,0.1477246731519699
0.7789295315742493,3.7364485263824463,8.577486038208008,0.2905798554420471,0.006859143730252981,0.15863297879695892
0.9430856108665466,4.261343479156494,7.907578468322754,0.1330638974905014,-0.1929985135793686,0.16441000998020172
1.1544169187545776,4.328879356384277,8.354671478271484,0.032131511718034744,-0.25591763854026794,0.10480701923370361
1.1252363920211792,4.263239860534668,8.709742546081543,-0.0033859387040138245,-0.1800481677055359,0.050736721605062485
1.1452902555465698,4.247437953948975,8.773561477661133,-0.0022689281031489372,-0.030927233397960663,0.03082251362502575
1.0051528215408325,4.567111968994141,8.216469764709473,-0.03689625859260559,-0.18647097051143646,0.049235738813877106
1.530957818031311,4.701206207275391,8.034289360046387,-0.08435176312923431,0.0930260494351387,0.00502654816955328
1.4644852876663208,4.679850101470947,7.893702030181885,-0.341665655374527,0.14105750620365143,-0.08765043318271637
0.5053967833518982,4.64651346206665,8.98361873626709,-0.3605850338935852,-0.023195425048470497,-0.03794345632195473
1.2011231184005737,4.4069108963012695,9.33680248260498,-0.20542524755001068,-0.09897761791944504,-0.013037609867751598
1.4101272821426392,4.548408508300781,8.936692237854004,-0.14206980168819427,-0.099675752222538,-0.07126179337501526
1.1092718839645386,4.557937145233154,8.630110740661621,-0.22818434238433838,0.0017802357906475663,-0.04363323003053665
1.046974778175354,4.64406156539917,8.490663528442383,-0.3467620015144348,0.06668902933597565,-0.018709929659962654
1.1083908081054688,4.759854793548584,8.80419921875,-0.38643336296081543,0.10847221314907074,-0.06524040549993515
1.0223720073699951,4.58074951171875,9.228363990783691,-0.2036450207233429,0.07686430215835571,-0.0809309184551239
1.1978286504745483,4.782216548919678,8.752991676330566,-0.0142593402415514,-0.22799235582351685,-0.13327334821224213
1.1238478422164917,4.610073566436768,8.72982406616211,0.06592108309268951,-0.2836858034133911,-0.1566781997680664
1.1745474338531494,4.470338344573975,8.681039810180664,0.0803549587726593,-0.33890804648399353,-0.15746361017227173
1.3507989645004272,4.466794967651367,8.752406120300293,0.09805259853601456,-0.3844611346721649,-0.14898130297660828
1.4270687103271484,4.596043586730957,8.823580741882324,0.1301666498184204,-0.43155011534690857,-0.15390312671661377
1.5416072607040405,4.66526460647583,8.722488403320312,0.11812388151884079,-0.40685370564460754,-0.15039502084255219
1.640612244606018,4.606807708740234,8.744218826293945,0.06380923837423325,-0.36473891139030457,-0.16809265315532684
1.5825002193450928,4.5143818855285645,8.960893630981445,-0.02750638872385025,-0.21385519206523895,-0.19889771938323975
1.2882241010665894,4.421688079833984,9.183975219726562,-0.09623745828866959,-0.1946740299463272,-0.18617427349090576
1.2656995058059692,4.209954738616943,9.28812313079834,-0.04110250249505043,-0.2843141257762909,-0.12088150531053543
1.5517778396606445,4.142131805419922,9.222963333129883,-0.045465826988220215,-0.20811305940151215,0.031695179641246796
1.62391996383667,4.185772895812988,9.057465553283691,-0.10693632066249847,-0.11273081600666046,0.08000589162111282
1.6938018798828125,4.182219982147217,9.046318054199219,-0.19751891493797302,-0.055344391614198685,0.10787880420684814
1.703618049621582,3.9882609844207764,9.238850593566895,-0.2580469250679016,-0.04841543361544609,0.10351547598838806
1.7150431871414185,3.6068456172943115,9.479132652282715,-0.20685642957687378,-0.10634291172027588,0.06621779501438141
1.9586389064788818,3.443800449371338,9.263386726379395,-0.09344492852687836,-0.09232791513204575,0.03635520860552788
2.1222968101501465,3.412532091140747,8.865900993347168,0.005759586580097675,-0.15819664299488068,-0.01029744278639555
2.184479236602783,3.3351993560791016,8.806458473205566,0.034836772829294205,-0.17498670518398285,-0.021135937422513962
2.308422088623047,3.264101266860962,8.794400215148926,0.07293730974197388,-0.17233380675315857,-0.02151990868151188
2.292898178100586,3.202378749847412,8.590873718261719,0.12374384701251984,-0.14046409726142883,-0.027890361845493317
2.385007858276367,3.1002707481384277,8.490509986877441,0.12491321563720703,-0.09169960021972656,-0.035726889967918396
2.4299709796905518,3.0677096843719482,8.464412689208984,0.11199777573347092,-0.04995132237672806,-0.04658283665776253
2.4161324501037598,3.0367956161499023,8.58841323852539,0.10529571026563644,-0.031782444566488266,-0.06213372200727463
2.4210166931152344,2.8787593841552734,8.467142105102539,0.11644836515188217,-0.09902998059988022,-0.07623597979545593
2.519073486328125,2.82503342628479,8.543526649475098,0.11976449191570282,-0.1451590359210968,-0.07723081856966019
2.680711030960083,3.0076630115509033,8.671137809753418,0.14385004341602325,-0.1140398159623146,-0.06635741889476776
2.7901737689971924,3.1180837154388428,8.614806175231934,0.16170474886894226,-0.11309733241796494,-0.06239552050828934
2.766068935394287,3.347275733947754,8.492664337158203,0.16262978315353394,-0.14280283451080322,-0.05944591388106346
2.787013530731201,3.854827404022217,8.325855255126953,0.0711396187543869,0.07897614687681198,0.0009773843921720982
2.709977626800537,3.978214979171753,8.039911270141602,0.007853982038795948,0.08491026610136032,0.010489428415894508
2.885683298110962,3.89518404006958,8.189702033996582,-0.1344776153564453,0.3601137697696686,-0.01944296807050705
2.069777727127075,4.018877983093262,8.942813873291016,-0.22504276037216187,0.37112680077552795,-0.02989749051630497
2.107548713684082,3.8626229763031006,9.092287063598633,-0.04846779257059097,0.30051079392433167,0.047769661992788315
2.3957626819610596,4.047972202301025,8.271966934204102,0.08002334833145142,0.2561270594596863,0.043737951666116714
2.478266716003418,4.07021951675415,7.977039337158203,-6.981316983001307e-05,0.26911231875419617,0.04344124346971512
2.7162888050079346,4.104916095733643,7.758842468261719,-0.15542156994342804,0.311593621969223,0.02954842336475849
2.7283267974853516,4.140283107757568,7.712701320648193,-0.3453482985496521,0.4545011818408966,0.007941247895359993
2.6520283222198486,4.083014011383057,7.9029436111450195,-0.5363222360610962,0.6813416481018066,-0.01342158205807209
2.1800355911254883,4.0511040687561035,8.45128345489502,-0.6215640902519226,0.831195592880249,-0.04286528751254082
1.9142982959747314,3.743880033493042,8.90992546081543,-0.5887519121170044,0.816726803779602,-0.007888888008892536
1.7274930477142334,3.7653608322143555,9.245726585388184,-0.4893379509449005,0.6960547566413879,0.0483979806303978
1.6846942901611328,3.7614917755126953,8.975708961486816,-0.2914525270462036,0.47134360671043396,0.07408922910690308
1.563202977180481,3.856196880340576,8.841489791870117,-0.2139773666858673,0.3189240097999573,0.09206611663103104
1.075628638267517,3.950155019760132,9.014313697814941,-0.23884831368923187,0.25501006841659546,0.11931070685386658
0.7137593626976013,3.907691240310669,9.183582305908203,-0.18135716021060944,0.1380031853914261,0.1710771769285202
0.5986557602882385,3.9988818168640137,9.371404647827148,-0.0037000980228185654,0.040596358478069305,0.1915324330329895
1.6007823944091797,4.018542766571045,9.527554512023926,-0.050998520106077194,0.46071454882621765,0.17407913506031036
1.7295520305633545,4.247897624969482,9.234225273132324,-0.0006108652451075613,0.5257979035377502,0.1633279174566269
1.124489426612854,4.24804162979126,9.643892288208008,-0.1981646865606308,0.581683337688446,0.06391395628452301
0.8196788430213928,4.406825065612793,10.066085815429688,-0.24062854051589966,0.9885894060134888,0.017383478581905365
0.5630683302879333,4.159771919250488,9.843156814575195,-0.3203377425670624,1.3899627923965454,0.03317870944738388
0.3726048171520233,4.1740031242370605,9.583367347717285,-0.36917203664779663,1.5310202836990356,0.0501258559525013
0.19627664983272552,4.084680080413818,9.32785701751709,-0.47457247972488403,1.6166985034942627,0.04672246426343918
-0.09315359592437744,3.5264577865600586,9.733023643493652,-0.6543413996696472,1.4875092506408691,-0.018291050568223
-0.7940226197242737,2.790374994277954,10.598517417907715,-0.7503868341445923,1.2479453086853027,-0.05829399824142456
-1.5951032638549805,2.2429358959198,10.672536849975586,-0.6339210271835327,0.9784141182899475,-0.003455751808360219
-1.809824824333191,1.8708003759384155,10.266950607299805,-0.35149186849594116,0.8866272568702698,0.1206720620393753
-1.7068837881088257,1.6764295101165771,9.581336975097656,-0.08655087649822235,0.8149116635322571,0.23249530792236328
-1.1866428852081299,2.3041701316833496,8.57146167755127,0.10189232230186462,0.590392529964447,0.257436066865921
-0.986458957195282,2.5048232078552246,8.485587120056152,0.10937978327274323,0.5295154452323914,0.16182692348957062
-1.3093409538269043,2.453089475631714,8.766111373901367,0.13931217789649963,0.45519933104515076,0.10206685215234756
-1.7754249572753906,2.379711866378784,8.64373779296875,0.17706365883350372,0.3473205268383026,0.10615092515945435
-2.2625491619110107,2.133779525756836,8.720142364501953,0.23122121393680573,0.2696708142757416,0.20350539684295654
-2.2855143547058105,2.3331494331359863,8.430424690246582,0.22657863795757294,0.2330014556646347,0.29801496863365173
-2.278197765350342,2.6693527698516846,8.372063636779785,0.11871729791164398,0.1990548074245453,0.30635765194892883
-2.237898588180542,2.8027098178863525,8.639208793640137,-0.011501720175147057,0.11890928447246552,0.2703689634799957
-1.8921470642089844,2.5086252689361572,8.99654769897461,0.07347836345434189,0.027698375284671783,0.25305527448654175
-2.1274492740631104,2.956082344055176,9.282215118408203,0.07618362456560135,0.10149089246988297,0.15433946251869202
-2.6075921058654785,2.6983513832092285,9.209259033203125,0.06209881603717804,0.0912981703877449,0.16613788902759552
-2.583085060119629,2.4962520599365234,9.204585075378418,-0.09770353138446808,-0.029024824500083923,0.22432716190814972
-2.1049821376800537,2.647728443145752,9.401627540588379,-0.27783897519111633,-0.12316788733005524,0.2848900854587555
-1.6610779762268066,2.7962262630462646,9.513619422912598,-0.33227577805519104,-0.1400103121995926,0.2851867973804474
-1.1454051733016968,2.982581377029419,9.725266456604004,-0.3265685439109802,-0.08229227364063263,0.18860027194023132
-1.112575888633728,3.2978882789611816,7.936854839324951,0.04288274049758911,-0.009791296906769276,0.02281145378947258
-1.2019562721252441,3.620272159576416,7.829546928405762,-0.0023911010939627886,-0.10250318795442581,-0.01918116770684719
-1.3157670497894287,3.7020103931427,8.127500534057617,-0.04255112633109093,-0.15330971777439117,-0.0616450272500515
-1.3956184387207031,3.7521448135375977,7.887706756591797,-0.043423790484666824,-0.25101324915885925,-0.11166616529226303
-1.5390886068344116,3.706463575363159,7.992084503173828,-0.07531096041202545,-0.3787887990474701,-0.15571828186511993
-1.519025206565857,3.48535418510437,8.480368614196777,-0.14004522562026978,-0.4297873377799988,-0.14901621639728546
-1.2267698049545288,3.480154037475586,9.041922569274902,-0.23890066146850586,-0.364581823348999,-0.12664109468460083
-1.0517727136611938,3.42130446434021,9.504166603088379,-0.4035026729106903,-0.1967335194349289,-0.17585937678813934
-1.135933756828308,3.2261099815368652,10.128240585327148,-0.40653952956199646,-0.1523323357105255,-0.19837412238121033
-1.248518705368042,3.1324009895324707,10.723381042480469,-0.17533577978610992,-0.1414414793252945,-0.21619392931461334
-1.268562912940979,3.527559280395508,9.863822937011719,0.05895722284913063,-0.3393618166446686,-0.25391051173210144
-1.2718286514282227,3.6209521293640137,9.965864181518555,0.2134537696838379,-0.27199211716651917,-0.2676113247871399
-1.3874590396881104,3.660734176635742,9.848443031311035,0.2666513919830322,-0.2776644229888916,-0.2753256857395172
-1.5621399879455566,3.6417434215545654,9.393486976623535,0.2653074860572815,-0.29225537180900574,-0.23568926751613617
-1.4641116857528687,3.3377182483673096,9.757329940795898,0.19631463289260864,-0.2810852825641632,-0.21875956654548645
-1.3836665153503418,3.1386163234710693,10.018172264099121,0.19137534499168396,-0.22979004681110382,-0.24605651199817657
-1.3630285263061523,3.0691077709198,9.963987350463867,0.2532123625278473,-0.22111576795578003,-0.24317672848701477
-1.2805626392364502,3.071052074432373,9.883925437927246,0.3029891550540924,-0.23921482264995575,-0.22108085453510284
-1.1574528217315674,3.0228805541992188,9.615391731262207,0.4139746427536011,-0.25993189215660095,-0.16538739204406738
-1.017842173576355,3.128244638442993,9.468923568725586,0.40540507435798645,-0.20415116846561432,-0.09674359858036041
-0.87236088514328,3.218601942062378,9.260197639465332,0.29742154479026794,-0.08299040794372559,-0.04096287861466408
-0.7818121910095215,3.1752188205718994,9.269381523132324,0.12248720973730087,0.09206611663103104,-0.022078415378928185
-0.8399625420570374,2.955498218536377,9.430827140808105,-0.06647959351539612,0.09819222241640091,-0.04384266957640648
-1.1806191205978394,2.583085060119629,9.736817359924316,-0.1324704885482788,-0.07883652299642563,-0.06058037653565407
-1.2201426029205322,2.2159581184387207,10.046567916870117,-0.0889943391084671,-0.25361379981040955,-0.06644468754529953
-0.9458054304122925,2.0452418327331543,9.941405296325684,0.06658431142568588,-0.2661277949810028,-0.05380849912762642
-0.46909111738204956,2.1001362800598145,9.631298065185547,0.15227997303009033,-0.25764551758766174,-0.03644247353076935
-0.23130860924720764,2.2946410179138184,9.003904342651367,0.24146629869937897,-0.12171926349401474,-0.05085889250040054
-0.35585495829582214,2.5282673835754395,8.485328674316406,0.24473007023334503,-0.16048301756381989,-0.07581710070371628
-0.333780437707901,2.824410915374756,8.011516571044922,0.20013689994812012,-0.2626895010471344,-0.07471754401922226
0.00023942015832290053,2.951667547225952,7.902809143066406,0.12456414848566055,-0.4277452826499939,-0.10471975803375244
0.5961179137229919,3.0067341327667236,8.385049819946289,0.07483971863985062,-0.4707152843475342,-0.18071138858795166
1.089400053024292,2.9103243350982666,8.70600700378418,0.009110618382692337,-0.4032408595085144,-0.2791654169559479
1.1653153896331787,2.6957848072052,8.881454467773438,-0.17126916348934174,-0.3223099410533905,-0.3321012556552887
0.8034844994544983,2.509333848953247,9.748854637145996,-0.35213762521743774,-0.19289378821849823,-0.3315427303314209
0.38438427448272705,2.2546579837799072,10.292088508605957,-0.3637964427471161,-0.03125884756445885,-0.2399129569530487
0.055679552257061005,2.4199440479278564,10.175749778747559,-0.04305727407336235,-0.026511551812291145,0.09356710314750671
0.09078812599182129,2.684235095977783,9.63196849822998,0.09393361955881119,0.013229595497250557,0.15086625516414642
0.8113949298858643,3.1083920001983643,9.424747467041016,0.02174680307507515,-0.06415830552577972,-0.09143780171871185
0.8211057782173157,3.136394500732422,9.394608497619629,0.05208062380552292,-0.011170106939971447,-0.07534586638212204
0.7979874014854431,3.233675718307495,8.959524154663086,0.09094911068677902,0.0270700566470623,-0.03824016451835632
0.5875370502471924,3.3243393898010254,8.747676849365234,0.06984807550907135,-0.02143264375627041,-0.0080634206533432
0.45314574241638184,3.3504841327667236,8.772891998291016,0.012566370889544487,-0.06464699655771255,0.03424336016178131
0.5185840725898743,3.3409550189971924,9.000274658203125,-0.05489060655236244,-0.019373154267668724,0.053354714065790176
0.4096287488937378,3.3664391040802,9.3828763961792,-0.0728849470615387,0.050073496997356415,0.04452335089445114
0.09435069561004639,3.750162363052368,8.68343448638916,0.11978194862604141,0.17844246327877045,0.04939281940460205
0.027332205325365067,3.8674018383026123,8.565535545349121,0.03790855035185814,0.17622590065002441,0.027698375284671783
0.009768342599272728,3.856177806854248,8.801583290100098,-0.03391174599528313,0.17126916348934174,0.012810716405510902
-0.03073197230696678,3.719918966293335,9.277032852172852,-0.03986331820487976,0.20514599978923798,0.024207716807723045
-0.02490927278995514,3.5997395515441895,9.441218376159668,0.03476695716381073,0.19479620456695557,0.0449422262609005
0.1275056004524231,3.7054004669189453,9.400468826293945,0.10510372370481491,0.14397220313549042,0.07644542306661606
0.28765854239463806,3.7368316650390625,9.217916488647461,0.1330813616514206,0.11938051879405975,0.09203121066093445
0.3023206293582916,3.7879526615142822,9.119293212890625,0.12580333650112152,0.14055135846138,0.09012880176305771
0.32793858647346497,3.8806560039520264,9.046921730041504,0.07030186057090759,0.200468510389328,0.08573057502508163
0.29076141119003296,3.9921109676361084,9.280261039733887,0.0463733971118927,0.23312363028526306,0.09578366577625275
0.2530096471309662,3.9975504875183105,9.364843368530273,0.051626838743686676,0.2500184178352356,0.09998991340398788
0.22828233242034912,4.033463478088379,9.34096908569336,0.07264060527086258,0.25335198640823364,0.10349802672863007
0.25210943818092346,4.012892723083496,9.135661125183105,0.04944517835974693,0.19343483448028564,0.08977973461151123
0.20818062126636505,3.975926160812378,9.120558738708496,0.019146261736750603,0.17362534999847412,0.0769166573882103
-0.0258286464959383,3.8313066959381104,9.346418380737305,-0.05398303270339966,0.20036379992961884,0.058660514652729034
-0.2607477009296417,3.8570492267608643,9.550393104553223,-0.07438593357801437,0.25684264302253723,0.08143706619739532
-0.2606998383998871,4.0057291984558105,9.521846771240234,-0.09557422995567322,0.2387435883283615,0.09173450618982315
-0.6803650856018066,2.545677900314331,9.79681396484375,0.08319984376430511,0.1497492492198944,0.08475318551063538
-0.34554076194763184,2.8427505493164062,9.195764541625977,0.16296139359474182,0.12107349187135696,0.09571385383605957
-0.3936642110347748,3.0076630115509033,8.864532470703125,0.15905185043811798,0.09873327612876892,0.07915068417787552
-0.7085016965866089,2.8385653495788574,8.828571319580078,0.11927580088376999,0.08770279586315155,0.0757647454738617
-1.0358178615570068,2.649059534072876,8.89787769317627,0.08677776902914047,0.1036900132894516,0.0858178362250328
-1.3055006265640259,2.6078314781188965,9.00318431854248,0.07826056331396103,0.08080874383449554,0.10819295793771744
-1.4008185863494873,2.6467995643615723,9.00536823272705,0.08559094369411469,0.05249950289726257,0.14672982692718506
-1.398912787437439,2.6232213973999023,9.093474388122559,0.04668755829334259,0.046303585171699524,0.18505725264549255
-1.4185644388198853,2.6712586879730225,9.29603385925293,0.008883725851774216,0.039706241339445114,0.19795523583889008
-1.3816649913787842,2.555417537689209,9.59725284576416,0.006370451766997576,0.0406138114631176,0.1673596203327179
-1.4399398565292358,2.430459499359131,9.558008193969727,0.04054399952292442,0.051399946212768555,0.1077042669057846
-1.5587785243988037,2.433495283126831,9.556168556213379,0.10421361029148102,0.09225810319185257,0.08253662288188934
-1.412444829940796,2.5704243183135986,9.237213134765625,0.12548917531967163,0.1607273668050766,0.06876597553491592
-1.2405890226364136,2.6550354957580566,9.078486442565918,0.039304815232753754,0.19231782853603363,0.05023057386279106
-1.4640159606933594,2.6369926929473877,9.360533714294434,0.004782202187925577,0.11093312501907349,0.016266468912363052
-1.688094139099121,2.6269850730895996,9.45378303527832,0.0812276229262352,0.04590215906500816,0.022689281031489372
-1.5554457902908325,2.7737784385681152,9.273374557495117,0.1828756034374237,0.022479841485619545,0.07847000658512115
-1.1798242330551147,3.0021564960479736,8.923055648803711,0.25595253705978394,0.07380997389554977,0.09466665983200073
-1.0266145467758179,3.2426395416259766,8.291800498962402,0.28125980496406555,0.13295918703079224,0.10126399993896484
-1.1599524021148682,3.502285957336426,7.842379570007324,0.17610372602939606,0.07426375895738602,0.09363691508769989
-1.0836539268493652,3.626027822494507,7.9083638191223145,-0.012950343079864979,0.004956734832376242,0.07297221571207047
-1.0276583433151245,3.4013559818267822,8.520236015319824,-0.20519836246967316,-0.014852751977741718,0.014224433340132236
-1.0946385860443115,3.24507212638855,9.288104057312012,-0.2837381660938263,0.021816615015268326,-0.024748768657445908
-1.108898401260376,3.0670106410980225,9.710365295410156,-0.26143285632133484,0.02050761878490448,-0.04986405745148659
-1.0858087539672852,2.9881839752197266,9.909582138061523,-0.17748253047466278,0.013299409300088882,-0.05234242230653763
-1.1237232685089111,3.0568974018096924,9.82210636138916,-0.07122688740491867,-0.007173303049057722,-0.038693949580192566
-1.1093772649765015,3.214742422103882,9.647636413574219,0.015865042805671692,-0.052866023033857346,-0.03490658476948738
-1.089218020439148,3.330775022506714,9.5255708694458,0.04660028964281082,-0.04417428374290466,-0.03131120651960373
-1.034093976020813,3.585374355316162,9.073957443237305,0.0711221694946289,-0.006003932561725378,-0.025586526840925217
-1.082064151763916,3.6771583557128906,8.778800010681152,0.03680899366736412,0.03265510872006416,-0.018535396084189415
-1.1138304471969604,3.754357099533081,8.714653968811035,0.011885692365467548,0.03132865950465202,-0.018622662872076035
-1.2478004693984985,3.7787396907806396,8.78797435760498,-0.018448129296302795,0.005602506920695305,-0.02258456125855446
-1.3034895658493042,3.7498369216918945,8.891586303710938,0.00019198621157556772,-0.06443755328655243,-0.02860594540834427
-1.1968134641647339,3.7729551792144775,8.841202735900879,0.00020943951676599681,-0.12021827697753906,-0.03056071512401104
-0.9963805079460144,3.8362770080566406,8.902254104614258,-0.035901423543691635,-0.11267845332622528,-0.02755874954164028
-0.8990226984024048,3.8260395526885986,9.125020980834961,-0.07637561112642288,-0.0792030394077301,-0.045064400881528854
-0.9407296776771545,3.766012191772461,9.333489418029785,-0.06359979510307312,-0.0309621412307024,-0.058485984802246094
-0.9666923880577087,3.830923557281494,9.26380729675293,0.01219985168427229,-0.06065019220113754,-0.09407324343919754
-0.9477590918540955,3.864950180053711,9.036598205566406,0.06058037653565407,-0.11911872029304504,-0.14126694202423096
-0.820837676525116,4.007213592529297,8.814742088317871,0.056984998285770416,-0.17353808879852295,-0.17669713497161865
-0.7515398859977722,4.002109050750732,8.739228248596191,0.04162610322237015,-0.1708328276872635,-0.18762288987636566
-0.8011094331741333,3.9911437034606934,8.722326278686523,0.015132004395127296,-0.10911798477172852,-0.17535322904586792
-0.8492424488067627,4.05474328994751,8.755806922912598,0.019216075539588928,-0.05518731102347374,-0.16451473534107208
-0.9101988077163696,4.094333648681641,8.77774715423584,0.022043507546186447,-0.10119418799877167,-0.17259560525417328
-0.9308464527130127,4.072383880615234,8.823716163635254,0.05585053563117981,-0.20062559843063354,-0.2059139460325241
-0.8833454847335815,4.027430057525635,8.865594863891602,0.05276130139827728,-0.2667735815048218,-0.2180090695619583
-0.8595375418663025,4.034401893615723,9.014466285705566,0.032759830355644226,-0.19175931811332703,-0.20748473703861237
-0.9741048812866211,3.9544262886047363,9.247536659240723,0.01771509274840355,-0.13199925422668457,-0.19217820465564728
-1.103918433189392,4.026673793792725,9.421575546264648,0.053040556609630585,-0.17805849015712738,-0.1489289402961731
-0.6516824960708618,3.9171149730682373,8.967206001281738,0.09428268671035767,-0.14358823001384735,-0.09829694032669067
-0.7412352561950684,3.7650351524353027,9.16557788848877,0.03853686898946762,-0.1324704885482788,-0.09971065819263458
-0.9294577836990356,3.682147979736328,9.425674438476562,0.034487705677747726,-0.14133676886558533,-0.0858178362250328
-0.7338132262229919,3.6829428672790527,9.388382911682129,0.051050879061222076,-0.13934709131717682,-0.06405358016490936
-0.49948790669441223,3.664660692214966,9.347834587097168,-0.00830776710063219,-0.11854276061058044,-0.07606144994497299
-0.48659753799438477,3.5230484008789062,9.534631729125977,-0.055571284145116806,-0.0901462584733963,-0.10941468924283981
-0.006598419509828091,3.190436363220215,8.653247833251953,0.12175416946411133,-0.05656611919403076,-0.1832072138786316
-0.2494470775127411,3.0648748874664307,8.600729942321777,0.02042035199701786,-0.21368065476417542,-0.15591026842594147
-0.19492632150650024,3.089343786239624,8.7887601852417,-0.005462880712002516,-0.22252948582172394,-0.10349802672863007
0.04903324693441391,2.9372353553771973,9.024818420410156,-0.002460914198309183,-0.1713738739490509,-0.07005751878023148
-0.003227383829653263,2.781008720397949,8.951355934143066,0.05555383116006851,-0.030316369608044624,-0.08079128712415695
-0.09034758806228638,2.886181354522705,8.536229133605957,0.02134537696838379,-0.10316640883684158,-0.0717155784368515
-0.07854896783828735,2.8075270652770996,8.931214332580566,0.0032114058267325163,-0.1604481190443039,-0.06232570856809616
0.009548076428472996,2.8396475315093994,8.971370697021484,0.044226642698049545,-0.1140747219324112,-0.0596204474568367
0.06163632497191429,2.9883084297180176,8.700058937072754,0.042498767375946045,-0.04281292483210564,-0.05000368133187294
0.17452771961688995,3.0786750316619873,8.5188570022583,-0.04255112633109093,-0.029827676713466644,-0.03087487444281578
0.24366268515586853,3.0962390899658203,8.91085433959961,-0.1402546614408493,-0.10494665056467056,-0.04056145250797272
0.31722214818000793,3.033271551132202,9.315657615661621,-0.14983651041984558,-0.12995721399784088,-0.04022983834147453
0.45998358726501465,2.9671053886413574,9.524152755737305,-0.16409584879875183,-0.13552480936050415,-0.054908059537410736
0.4709490239620209,2.8896193504333496,9.914782524108887,-0.15255923569202423,-0.053965579718351364,-0.04623377323150635
0.30095115303993225,2.922879695892334,9.918018341064453,-0.09801769256591797,0.06848672032356262,-0.017872171476483345
0.11738291382789612,3.109943389892578,9.625341415405273,-0.05164429172873497,0.07358308136463165,0.022689281031489372
0.17225801944732666,3.2868173122406006,9.354692459106445,-0.02419026382267475,0.029827676713466644,0.053930673748254776
0.1448013186454773,3.4288032054901123,9.03834056854248,-0.016196655109524727,-0.00013962633966002613,0.05792747810482979
0.1714344173669815,3.552736520767212,8.839498519897461,-0.06037093698978424,-0.009477137587964535,0.05728170648217201
0.2928491532802582,3.715733766555786,8.886855125427246,-0.1123293936252594,-0.03481931984424591,0.039357174187898636
0.24629630148410797,3.6524598598480225,9.04190444946289,-0.13409364223480225,-0.0645073652267456,0.028937559574842453
0.1247762143611908,3.4967410564422607,9.333900451660156,-0.14533357322216034,-0.09185668081045151,0.04619886353611946
0.0423007532954216,3.327901840209961,9.586029052734375,-0.1270425170660019,-0.11651817709207535,0.07255333662033081
0.006866570096462965,3.2974860668182373,9.50715446472168,-0.05712462589144707,-0.08470083028078079,0.1218414381146431
0.3099629282951355,3.4657504558563232,9.209997177124023,0.006108652334660292,-0.06195918843150139,0.14823080599308014
0.6084911227226257,3.5656845569610596,8.851383209228516,-0.007679448463022709,-0.0512777715921402,0.13072516024112701
0.8448562622070312,3.6551222801208496,8.905271530151367,-0.06209881603717804,-0.10880382359027863,0.07473500072956085
0.7975468635559082,3.6080234050750732,9.220673561096191,-0.024905849248170853,-0.13723523914813995,0.017296213656663895
0.7907664775848389,3.455991744995117,9.252603530883789,0.07946483790874481,-0.09670869261026382,0.030368728563189507
0.8122855424880981,3.489692449569702,9.309929847717285,0.1451590359210968,-0.06543239206075668,0.08822639286518097
0.8399242162704468,3.3717827796936035,9.318596839904785,0.258605420589447,-0.042097341269254684,0.07080800831317902
0.7817834615707397,3.6217854022979736,8.846835136413574,0.3936764597892761,0.030176742002367973,-0.05262167751789093
0.5968074202537537,4.013534069061279,8.339110374450684,0.13941690325737,0.129608154296875,-0.030805060639977455
0.536693811416626,4.131127834320068,8.205436706542969,-0.11773990839719772,0.32477086782455444,-0.014974924735724926
0.5071972608566284,4.205549240112305,8.353991508483887,-0.23137830197811127,0.3116285502910614,-0.04668755829334259
0.17447026073932648,4.168889045715332,8.582581520080566,-0.20470966398715973,0.05771803855895996,-0.09985028952360153
-0.21380220353603363,4.029594421386719,8.982067108154297,-0.09843657165765762,-0.24008749425411224,-0.11191051453351974
-0.2100672423839569,3.9430010318756104,8.803709983825684,-0.05869542434811592,-0.3847403824329376,-0.07356562465429306
-0.1583237648010254,4.155022144317627,8.555651664733887,-0.08599237352609634,-0.5478762984275818,-0.010070549324154854
-0.043287165462970734,4.089047431945801,9.089078903198242,0.01589994877576828,-0.6809751391410828,0.04387757554650307
0.10032662749290466,3.9917566776275635,9.338793754577637,0.12983503937721252,-0.742428183555603,0.05951572582125664
0.47690579295158386,4.252781867980957,9.569145202636719,0.4582536518573761,-0.9220050573348999,0.07536331564188004
0.8565782904624939,4.373162269592285,9.60854434967041,0.6757042407989502,-0.862471878528595,0.10819295793771744
1.1935861110687256,4.560149669647217,9.09443187713623,0.7083767652511597,-0.7900058031082153,0.09920451790094376
1.1076630353927612,4.623777866363525,9.036895751953125,0.6922150254249573,-0.7572634816169739,0.0817861258983612
1.2378597259521484,4.450016498565674,8.709013938903809,0.636521577835083,-0.731048583984375,0.06197664141654968
1.415413737297058,4.534397602081299,8.303044319152832,0.4856553077697754,-0.786881685256958,0.09211847931146622
1.4566227197647095,4.558961868286133,8.343964576721191,0.3659955561161041,-0.6435203552246094,0.12594296038150787
1.6235463619232178,4.516364574432373,8.69743537902832,0.3049613833427429,-0.4853236973285675,0.10468484461307526
2.1382806301116943,4.609642505645752,8.978878021240234,0.27836257219314575,-0.33105406165122986,0.12491321563720703
2.385716438293457,4.801992893218994,8.857665061950684,0.2477145791053772,-0.09288642555475235,0.1054353415966034
1.9715484380722046,4.753371238708496,8.41418170928955,0.19085174798965454,0.0956265926361084,0.04328416660428047
1.621573567390442,4.9185709953308105,8.102505683898926,0.08906415104866028,0.12913690507411957,0.05780530348420143
1.6083097457885742,4.969002723693848,8.204392433166504,0.050736721605062485,0.1918640434741974,0.07567747682332993
2.1503665447235107,5.009119987487793,7.874509811401367,-0.1077217236161232,0.47169268131256104,0.07471754401922226
1.5639212131500244,4.535345554351807,8.875919342041016,-0.3952298164367676,0.5322730541229248,0.033772122114896774
1.3004728555679321,4.325010299682617,10.133803367614746,-0.3844436705112457,0.41926300525665283,0.07721336930990219
1.5701078176498413,4.317253112792969,10.48342514038086,-0.15976743400096893,0.1647765338420868,0.08429940044879913
1.4857265949249268,3.971118450164795,10.097603797912598,0.020647244527935982,0.16781340539455414,0.016580628231167793
1.305222988128662,4.040722846984863,9.02536392211914,-0.017610372975468636,0.5927661657333374,-0.02241002768278122
0.47490423917770386,3.8286921977996826,8.059735298156738,-0.4896521270275116,0.902771532535553,-0.034749504178762436
0.06147351861000061,3.6570472717285156,8.603650093078613,-0.46273913979530334,0.7910355925559998,0.05281366407871246
-0.10734642297029495,3.4932262897491455,8.72502613067627,-0.36330774426460266,0.7630404829978943,0.13201670348644257
-0.5645431876182556,3.220181941986084,8.618925094604492,-0.3752457797527313,0.7854854464530945,0.18584266304969788
-0.6442413330078125,2.943718671798706,8.676241874694824,-0.5228308439254761,0.8786860108375549,0.2730218470096588
-0.4591408371925354,2.860553741455078,8.973525047302246,-0.6538003087043762,0.9193521738052368,0.3004235327243805
-0.23006361722946167,2.8174965381622314,9.441505432128906,-0.666523814201355,0.7933394312858582,0.2540850341320038
-0.2748734951019287,2.847567558288574,9.797887802124023,-0.4122118651866913,0.5423610806465149,0.16236798465251923
-0.6040570735931396,2.8434112071990967,9.72481632232666,-0.2064899057149887,0.5226388573646545,0.1345125287771225
-0.7633097767829895,2.8217484951019287,9.545873641967773,-0.11274827271699905,0.6068160533905029,0.12719959020614624
-0.8639715909957886,2.7828187942504883,9.36483383178711,-0.08604472875595093,0.5775294303894043,0.12166690081357956
-1.0599130392074585,2.8679757118225098,9.287040710449219,-0.004520402755588293,0.35362115502357483,0.10908307880163193
-1.096630573272705,2.966224193572998,9.318615913391113,0.07960446923971176,0.11224212497472763,0.09234537184238434
-0.941323459148407,3.2037386894226074,9.633586883544922,-0.16137313842773438,-0.009162978269159794,-0.08269369602203369
-0.893573522567749,3.2883975505828857,9.643240928649902,0.013997540809214115,-0.041835542768239975,-0.047507863491773605
-0.7493659257888794,3.4956398010253906,9.11510944366455,0.16547466814517975,-0.12828169763088226,-0.047054074704647064
-0.7251366376876831,3.5709228515625,8.767365455627441,0.19259707629680634,-0.15767304599285126,-0.07384487986564636
-0.709564745426178,3.627368688583374,8.606934547424316,0.16111133992671967,-0.15048228204250336,-0.08038986474275589
-0.6662871241569519,3.761941909790039,8.584171295166016,0.07969173043966293,-0.13786356151103973,-0.09461429715156555
-0.6888022422790527,3.8803112506866455,8.634027481079102,0.021711895242333412,-0.11903145164251328,-0.13357004523277283
-0.9170845746994019,3.901437759399414,8.592483520507812,-0.010349802672863007,-0.13816025853157043,-0.19350464642047882
-1.0438718795776367,3.7289116382598877,8.499223709106445,-0.0460941456258297,-0.1745678335428238,-0.21326178312301636
-1.0322743654251099,3.683239698410034,8.366193771362305,-0.08229227364063263,-0.21188296377658844,-0.22071433067321777
-0.8091922402381897,3.765906810760498,8.635339736938477,-0.041922807693481445,-0.3030589818954468,-0.21376793086528778
-0.6423068046569824,3.566718816757202,9.184685707092285,-0.11398745328187943,-0.2191609889268875,-0.25705209374427795
-0.9804255366325378,3.4868385791778564,9.447874069213867,-0.2076767235994339,-0.13112658262252808,-0.24811600148677826
-0.9266517758369446,3.51821231842041,9.60352611541748,-0.25509732961654663,-0.13573426008224487,-0.20408134162425995
-0.7242172360420227,3.628671169281006,9.689027786254883,-0.14610150456428528,-0.15393804013729095,-0.14276793599128723
-0.6430634260177612,3.7758378982543945,9.587905883789062,-0.04420918971300125,-0.17905332148075104,-0.13402383029460907
-0.5662765502929688,3.9852826595306396,9.056680679321289,0.09145525097846985,-0.23020893335342407,-0.14824827015399933
-0.43306317925453186,4.083148002624512,8.696928024291992,0.12623965740203857,-0.2796890139579773,-0.17245598137378693
-0.375621497631073,4.293952465057373,8.585214614868164,0.11051424592733383,-0.29138273000717163,-0.2123018503189087
-0.38034287095069885,4.282719135284424,8.644331932067871,0.054855696856975555,-0.2850646376609802,-0.24904103577136993
-0.3996497094631195,4.24637508392334,8.684067726135254,0.01745329238474369,-0.3205122649669647,-0.28120744228363037
-0.5388677716255188,4.156209468841553,8.949506759643555,0.022776545956730843,-0.392838716506958,-0.3032858669757843
-0.4811866283416748,4.0811944007873535,9.355093955993652,0.0792030394077301,-0.4620060920715332,-0.3277902901172638
-0.4991239905357361,3.9801206588745117,9.509366989135742,0.10848966240882874,-0.45841073989868164,-0.3255388140678406
-0.6241492033004761,3.929746627807617,9.631595611572266,0.17242108285427094,-0.3923500180244446,-0.295606404542923
-0.6012223362922668,3.9787800312042236,9.540281295776367,0.20816542208194733,-0.36164966225624084,-0.24448572099208832
-0.40632474422454834,4.100108623504639,9.244817733764648,0.2116909772157669,-0.3972543776035309,-0.21099285781383514
-0.3198844790458679,4.092236518859863,9.180508613586426,0.20268508791923523,-0.4455127418041229,-0.2139773666858673
-0.3424665927886963,3.9125659465789795,9.231266021728516,0.16886059939861298,-0.571525514125824,-0.24473007023334503
-0.38115689158439636,3.802250623703003,9.511110305786133,0.1641831248998642,-0.6080029010772705,-0.2485348880290985
-0.15287455916404724,3.8066272735595703,9.405630111694336,0.1897871047258377,-0.529864490032196,-0.2263866513967514
0.36141911149024963,3.9677953720092773,9.450881958007812,0.26113617420196533,-0.3879692256450653,-0.19264943897724152
0.40497440099716187,3.9100279808044434,9.394638061523438,0.18699458241462708,-0.19751891493797302,-0.22471113502979279
-0.16320793330669403,3.76853084564209,9.164726257324219,0.059498272836208344,-0.15313519537448883,-0.19577358663082123
-0.2459898442029953,3.872180461883545,9.260838508605957,-0.006300638429820538,-0.24691173434257507,-0.10932742059230804
-0.24447672069072723,3.7806262969970703,9.512029647827148,-0.08114035427570343,-0.3015928864479065,-0.025272367522120476
-0.13623006641864777,3.5781726837158203,9.78991985321045,-0.11171852797269821,-0.16666148602962494,0.013247049413621426
0.06557239592075348,3.572129726409912,9.914791107177734,-0.22315779328346252,0.05211552977561951,0.016580628231167793
0.2385295182466507,3.3957440853118896,9.79971694946289,-0.32421237230300903,0.11901400238275528,-0.011100294068455696
0.14504073560237885,3.1187922954559326,10.017138481140137,-0.26940903067588806,-0.05757841095328331,-0.12674580514431
0.1674313098192215,2.6968765258789062,10.353342056274414,-0.007278022821992636,-0.149225652217865,-0.15577062964439392
0.28038015961647034,2.492449998855591,9.791068077087402,0.2857103943824768,-0.119834303855896,-0.08574802428483963
0.2619543969631195,2.744367837905884,8.658775329589844,0.38632863759994507,-0.1059763953089714,-0.018483037129044533
0.5350561738014221,3.0169525146484375,8.148636817932129,0.2595653533935547,-0.07101744413375854,0.018535396084189415
0.8246875405311584,2.917468786239624,8.729814529418945,-0.07967428117990494,-0.03145083412528038,0.005515240598469973
0.8227721452713013,2.9049232006073,8.975948333740234,0.024591689929366112,-0.12803734838962555,0.010663961991667747
0.8820813298225403,2.835136890411377,8.887152671813965,0.18451620638370514,-0.21722367405891418,0.021729348227381706
1.0204757452011108,2.893612861633301,9.12421703338623,0.3115761876106262,-0.18394024670124054,0.034522611647844315
1.3037960529327393,3.032802104949951,9.112380027770996,0.2335599660873413,-0.05602506920695305,0.01333431527018547
1.4681243896484375,3.0194809436798096,8.84229564666748,0.018622662872076035,-0.002321287989616394,0.008587019518017769
1.4808040857315063,3.027381658554077,9.055780410766602,-0.09700539708137512,-0.02768092229962349,0.014346606098115444
1.4269824028015137,2.988471269607544,9.2174654006958,-0.08422958850860596,-0.10836749523878098,0.03331833705306053
1.3679605722427368,3.03047513961792,9.348822593688965,-0.03481931984424591,-0.13842205703258514,0.04703662171959877
1.3999567031860352,3.077554702758789,9.163615226745605,0.0342782661318779,-0.04452335089445114,0.09087929129600525
1.3993916511535645,3.290715217590332,8.86703109741211,0.07094763219356537,-0.04890412464737892,0.10712830722332001
1.4700589179992676,3.559699058532715,8.487597465515137,0.07476990669965744,-0.14816099405288696,0.11784463375806808
1.5902670621871948,3.726526975631714,8.518597602844238,0.060126591473817825,-0.23396138846874237,0.09452702850103378
1.6509552001953125,3.730175733566284,8.929213523864746,0.017592918127775192,-0.18209019303321838,0.07117452472448349
1.4268771409988403,3.750133752822876,8.959582328796387,-0.04150392860174179,-0.2099805623292923,0.056932639330625534
1.367807388305664,3.710303783416748,9.248666763305664,0.04000294581055641,-0.4159817695617676,0.08080874383449554
1.4195796251296997,3.6968770027160645,9.200045585632324,0.17873917520046234,-0.5275606513023376,0.06688101589679718
1.4419797658920288,3.8281943798065186,9.04370403289795,0.31585222482681274,-0.5922600030899048,0.018395770341157913
1.4101752042770386,3.7006983757019043,8.72610855102539,0.3839549720287323,-0.5969375371932983,-0.025132741779088974
1.4914822578430176,3.6736629009246826,8.647608757019043,0.34426620602607727,-0.6199758648872375,-0.014503685757517815
1.7737107276916504,3.8666069507598877,8.963948249816895,0.23767893016338348,-0.5307022929191589,0.04248131439089775
2.000412940979004,3.9999446868896484,8.884098052978516,0.21504200994968414,-0.5012934803962708,0.06075491011142731
2.2387988567352295,4.000701427459717,8.780956268310547,0.2295806109905243,-0.5071403384208679,0.10072295367717743
2.3409640789031982,4.012298583984375,8.758199691772461,0.24530602991580963,-0.4317944645881653,0.1120501384139061
2.2727389335632324,4.101133346557617,8.547242164611816,0.20149825513362885,-0.3021514117717743,0.10239847004413605
2.274108409881592,4.213507652282715,8.346780776977539,0.1007927656173706,-0.20926497876644135,0.1059763953089714
2.412541151046753,4.362925052642822,8.430520057678223,0.019547687843441963,-0.21807889640331268,0.11559315770864487
2.5534350872039795,4.476831436157227,8.664750099182129,0.03237585723400116,-0.20355774462223053,0.09656906872987747
2.4791862964630127,4.488524436950684,8.609874725341797,0.1203928142786026,-0.20409880578517914,0.07857472449541092
2.776546001434326,4.6404032707214355,8.355984687805176,-0.04509930685162544,0.1509011685848236,0.10372491925954819
2.737060785293579,4.8170485496521,8.161949157714844,-0.05630432069301605,0.24610887467861176,0.04035201296210289
2.2382049560546875,4.646714210510254,8.143550872802734,-0.10754718631505966,0.17807593941688538,0.05120795965194702
2.5516538619995117,4.575798034667969,8.593708992004395,-0.04797910153865814,0.2197544127702713,0.07871434837579727
2.419637680053711,4.612410068511963,8.729452133178711,-0.06281439960002899,0.3936590254306793,0.07147122919559479
2.184957981109619,4.607660293579102,7.9508466720581055,-0.1745503842830658,0.5249077677726746,0.11641345918178558
2.015132427215576,4.620694160461426,8.056096076965332,-0.2557605504989624,0.5326395630836487,0.11356857419013977
2.0371782779693604,4.54340934753418,8.378920555114746,-0.2742261290550232,0.4871039390563965,0.11995647847652435
1.9888345003128052,4.582674026489258,8.71320915222168,-0.23825488984584808,0.452144980430603,0.10840240120887756
1.9982773065567017,4.525711536407471,8.818170547485352,-0.21533872187137604,0.4582187533378601,0.10363765060901642
1.9220459461212158,4.239221096038818,9.084502220153809,-0.17880898714065552,0.4504345655441284,0.10704104602336884
1.9417071342468262,4.074164867401123,9.418376922607422,-0.10906562209129333,0.4927937090396881,0.14105750620365143
1.8113858699798584,4.032342910766602,9.51303482055664,-0.029042279347777367,0.5750685334205627,0.15678292512893677
1.574704647064209,4.084268569946289,9.166125297546387,0.04513421282172203,0.5984385013580322,0.18273596465587616
1.5512319803237915,4.288494110107422,8.703211784362793,0.09058258682489395,0.4928635358810425,0.19633208215236664
1.5532814264297485,4.543667793273926,8.482215881347656,0.0581892766058445,0.2739294171333313,0.14959217607975006
1.6514148712158203,4.313077449798584,8.659261703491211,-0.04340633749961853,0.06035348400473595,0.08101818710565567
1.6977092027664185,3.7412848472595215,9.381142616271973,-0.17648769915103912,-0.017331119626760483,0.0547335259616375
1.7198220491409302,3.423009157180786,10.064006805419922,-0.16289158165454865,0.06358234584331512,0.0674046128988266
1.6141611337661743,3.292620897293091,10.05090618133545,0.022794000804424286,0.18730872869491577,0.07161086052656174
1.529138207435608,3.3888678550720215,9.574019432067871,0.2569473683834076,0.22010347247123718,0.07744026184082031
1.396623969078064,3.6276943683624268,8.583222389221191,0.38472291827201843,0.05523966997861862,0.0440695621073246
1.3705463409423828,3.6321091651916504,8.156269073486328,0.34142130613327026,-0.037227872759103775,-0.0047996556386351585
1.3545339107513428,3.735069513320923,8.193839073181152,0.16641713678836823,-0.015742870047688484,-0.05085889250040054
1.3215609788894653,3.83909273147583,8.484140396118164,0.029880037531256676,0.05354670062661171,-0.06728244572877884
1.2756402492523193,3.85013484954834,8.808699607849121,-0.01335176918655634,0.1425933986902237,-0.06101670861244202
1.0900416374206543,3.660944938659668,9.076227188110352,-0.0013613568153232336,0.18071138858795166,-0.032882001250982285
0.8934873342514038,3.483400583267212,9.486698150634766,0.049410272389650345,0.1411622315645218,0.008726646192371845
0.7709999680519104,3.4850285053253174,9.319726943969727,0.12044516950845718,0.11587240546941757,0.030717793852090836
0.7530338764190674,3.4699547290802,9.430262565612793,0.015568336471915245,0.2906147837638855,0.02068215236067772
0.5529456734657288,3.385056257247925,9.838300704956055,-0.033859387040138245,0.3125535547733307,0.005969026125967503
0.5267148017883301,3.574265241622925,10.12967586517334,0.10234610736370087,0.20244073867797852,-0.01532399095594883
0.5218114256858826,3.5600149631500244,9.589237213134766,0.23424063622951508,0.13847441971302032,-0.050108402967453
