accX,accY,accZ,gyroX,gyroY,gyroZ
-1.477268934249878,5.685645580291748,8.03539752960205,-0.4573844373226166,0.21664176881313324,0.16444534063339233
-1.1874382495880127,5.359922885894775,8.535796165466309,-0.3604482114315033,-0.06764229387044907,0.10053136944770813
-2.1930220127105713,5.9560346603393555,8.169395446777344,-0.2975994646549225,-0.2444709837436676,0.0824224054813385
-2.262413740158081,5.7526445388793945,8.353941917419434,-0.29227331280708313,-0.46284374594688416,0.19533710181713104
-1.8891334533691406,5.688038349151611,8.255836486816406,-0.2219679355621338,-0.5459319353103638,0.3189041316509247
-1.3695918321609497,5.577968597412109,8.303692817687988,-0.0953383520245552,-0.19440503418445587,0.44140592217445374
-0.7372884750366211,5.434100151062012,8.715557098388672,0.035685304552316666,0.23475073277950287,0.51796954870224
-0.4334000051021576,5.008177757263184,8.715557098388672,0.14327384531497955,0.3828181326389313,0.4764254689216614
-0.07417750358581543,4.89063024520874,8.385048866271973,0.22636201977729797,0.32103461027145386,0.36364391446113586
0.17946170270442963,4.859523773193359,7.968398571014404,0.27216702699661255,0.285881906747818,0.2549901604652405
0.059820566326379776,4.981856822967529,7.630711555480957,0.22955772280693054,0.4105141758918762,0.12396649271249771
-0.4094717800617218,5.139782905578613,7.494320392608643,0.09107742458581924,0.4648410677909851,0.0185084231197834
-0.8069794178009033,5.2354960441589355,7.549355506896973,-0.07083799690008163,0.39666613936424255,0.0003994623839389533
-0.6846463680267334,5.072783946990967,7.8918280601501465,-0.16338011622428894,0.34446972608566284,0.02916075475513935
-0.643968403339386,4.835595607757568,8.653044700622559,-0.18468476831912994,0.1143793985247612,0.009986559860408306
-0.9457631707191467,5.304887771606445,8.447261810302734,-0.19320663809776306,-0.7460625767707825,-0.08908011019229889
-1.6878372430801392,5.896214008331299,8.133502960205078,-0.2315550297498703,-0.37975558638572693,-0.02729659713804722
-2.1643080711364746,6.183651924133301,8.196015357971191,-0.2091851383447647,0.20385897159576416,0.16124965250492096
-2.0446670055389404,5.824429512023926,8.341978073120117,-0.08362079411745071,0.40838369727134705,0.346600204706192
-1.0007981061935425,5.347958564758301,8.598010063171387,0.052729032933712006,0.28801238536834717,0.38388335704803467
-0.38315072655677795,4.941178798675537,7.94207763671875,0.13581721484661102,-0.3307548463344574,0.10159660130739212
-0.5386841893196106,5.113461971282959,7.76261568069458,0.037815771996974945,-0.4788222312927246,-0.0017310036346316338
-0.6583253145217896,5.101497650146484,7.683652400970459,-0.07190322875976562,-0.5235620141029358,-0.03049229457974434
-0.5769693851470947,5.063212871551514,7.688438415527344,-0.1356840580701828,-0.5075835585594177,-0.04220985993742943
-0.43579283356666565,5.146961688995361,7.83200740814209,-0.2304897904396057,-0.348863810300827,-0.09653674066066742
-0.7037889361381531,5.158925533294678,8.133502960205078,-0.2645772397518158,-0.08681648969650269,-0.09760197252035141
-0.45254257321357727,5.1182475090026855,8.452047348022461,-0.26883819699287415,0.1260969638824463,-0.09440627694129944
-1.1922239065170288,5.252245903015137,8.284550666809082,-0.048468101769685745,0.12716218829154968,-0.08268871158361435
-1.1730812788009644,5.271388053894043,8.155038833618164,-0.020772043615579605,0.09840089827775955,-0.04966649040579796
-0.8069794178009033,5.2115678787231445,7.982755661010742,-0.019706811755895615,0.11118369549512863,0.004660394508391619
-0.5482555031776428,5.158925533294678,7.94925594329834,-0.06657706201076508,0.18255430459976196,-0.008122402243316174
-0.6535396575927734,5.233103275299072,8.092824935913086,-0.09001219272613525,0.20279373228549957,-0.03368799388408661
-1.067797064781189,5.3455657958984375,8.420941352844238,-0.0964035913348198,0.19427187740802765,-0.05392742156982422
-1.2305090427398682,5.319244861602783,8.729914665222168,-0.061250898987054825,0.07496577501296997,-0.010252867825329304
-1.0701899528503418,5.264209747314453,8.686544418334961,-0.033554840832948685,-0.08788172155618668,0.005725627299398184
-0.8548358678817749,5.213960647583008,8.318049430847168,-0.08681648969650269,-0.14540430903434753,-0.005991935729980469
-0.6990033388137817,5.249852657318115,8.25105094909668,-0.12822742760181427,-0.1272953450679779,-0.01877473294734955
-0.8979067206382751,5.2283172607421875,8.49990463256836,-0.1900109350681305,0.043141938745975494,-0.04860125854611397
-1.7835501432418823,4.974678039550781,9.67777156829834,0.22849248349666595,-0.7460625767707825,0.14420592784881592
-0.9433703422546387,5.1565327644348145,9.16540813446045,0.3722989559173584,-0.6438001990318298,0.2507292330265045
-0.01196411345154047,5.364708423614502,8.143074989318848,0.4149082601070404,-0.31584158539772034,0.2006632685661316
-0.5362913608551025,5.247459888458252,7.176074981689453,0.23275341093540192,0.06750914454460144,0.11011846363544464
-0.6032904386520386,5.01296329498291,6.855137825012207,-0.07190322875976562,0.350861132144928,0.09627043455839157
-0.41904306411743164,5.125426292419434,7.63310432434082,-0.3199693560600281,0.55751633644104,0.08348763734102249
-0.31375887989997864,5.233103275299072,8.631509780883789,-0.32316505908966064,0.5372769236564636,-0.000665770610794425
-0.9505487680435181,4.881059169769287,8.708378791809082,-0.19746756553649902,0.27736005187034607,-0.1093195378780365
-1.0558329820632935,4.72791862487793,8.873483657836914,-0.06870753318071365,0.20705467462539673,-0.12103710323572159
-1.036690354347229,4.7590250968933105,9.115159034729004,0.00905448105186224,0.13887976109981537,-0.12316756695508957
-1.287936806678772,4.713561534881592,8.978767395019531,0.29453691840171814,-0.15605664253234863,-0.09760197252035141
-1.3408780097961426,5.213960647583008,7.934898853302002,0.10492545366287231,-0.456452339887619,-0.10825430601835251
-0.47647079825401306,4.957928657531738,7.743473052978516,0.0026630824431777,-0.38934266567230225,-0.09760197252035141
-0.0933200865983963,5.015356063842773,7.616354465484619,-0.050598569214344025,-0.2657756507396698,-0.11358047276735306
-0.09571290761232376,5.139782905578613,7.738687515258789,-0.19427187740802765,-0.055924732238054276,-0.16244803369045258
-0.7085745930671692,5.247459888458252,8.128717422485352,-0.3082517981529236,-0.022902509197592735,-0.18375270068645477
-0.9744769930839539,5.178068161010742,8.612366676330566,-0.305056095123291,-0.1166430190205574,-0.14553746581077576
-0.9266205430030823,5.182853698730469,8.950054168701172,-0.1985328048467636,-0.16564373672008514,-0.08375394344329834
-0.8548358678817749,5.168497085571289,8.123931884765625,0.12516488134860992,0.15485824644565582,-0.02729659713804722
-0.8859425783157349,5.142175674438477,8.123931884765625,0.044207170605659485,0.09946613013744354,-0.03155753016471863
-0.9433703422546387,5.144568920135498,8.131110191345215,0.00585878174751997,0.04940018057823181,-0.04434032365679741
-0.9649057388305664,5.087141036987305,8.215158462524414,-0.047402869910001755,-0.016511112451553345,-0.05073172226548195
-0.8237292170524597,5.072783946990967,8.361120223999023,-0.07935985922813416,-0.00585878174751997,-0.05179695412516594
-0.8380861282348633,5.07517671585083,8.452047348022461,-0.0857512578368187,0.038881003856658936,-0.05179695412516594
-0.8237292170524597,5.044070243835449,8.725129127502441,-0.07083799690008163,0.15485824644565582,-0.04220985993742943
-1.0582258701324463,4.9986066818237305,8.859127044677734,-0.010119713842868805,0.21557652950286865,-0.02410089783370495
-0.8213363885879517,4.8762736320495605,8.552546501159668,0.09320788830518723,0.3071865737438202,-0.009187635034322739
-1.170688509941101,4.773382186889648,8.801698684692383,0.3605813682079315,0.34340450167655945,0.0014646954368799925
-1.256830096244812,5.13021183013916,8.473583221435547,0.45112618803977966,-0.16670896112918854,0.03235645219683647
-1.1874382495880127,5.436492919921875,7.719544887542725,0.20079642534255981,-0.4074516296386719,0.02489982172846794
-0.5937191247940063,5.089533805847168,7.635497093200684,-0.06764229387044907,-0.34673336148262024,-0.03581846132874489
-0.6870391964912415,5.163711071014404,8.107182502746582,-0.18148908019065857,-0.07296846061944962,-0.10292813926935196
-1.036690354347229,5.304887771606445,8.397012710571289,-0.16124965250492096,-0.054859500378370285,-0.098667211830616
-1.0342975854873657,5.2737812995910645,8.361120223999023,-0.09853405505418777,-0.14753477275371552,-0.04647079110145569
-0.8476574420928955,5.19960355758667,8.34437084197998,-0.019706811755895615,-0.07296846061944962,-0.011318100616335869
-0.8045865893363953,5.1804609298706055,8.394619941711426,0.042076703161001205,0.04726971685886383,-0.012383334338665009
-0.9888339638710022,5.259424209594727,8.339585304260254,0.0740336924791336,0.019706811755895615,-0.02303566411137581
-0.9194421172142029,5.132604598999023,8.315656661987305,0.053794268518686295,0.0026630824431777,-0.007057168986648321
-0.8835497498512268,5.178068161010742,8.449654579162598,0.020772043615579605,-0.137947678565979,-0.01664426550269127
-0.9433703422546387,5.1565327644348145,8.401798248291016,0.010119713842868805,-0.2338186502456665,-0.04966649040579796
-0.9074779748916626,5.163711071014404,8.196015357971191,-0.017576344311237335,-0.19866596162319183,-0.0560578890144825
-0.7612167000770569,5.13739013671875,8.196015357971191,-0.041011471301317215,-0.1720351278781891,-0.05179695412516594
-1.170688509941101,5.089533805847168,8.698807716369629,0.0857512578368187,-0.4820179343223572,0.01744319126009941
-0.09571290761232376,5.307280540466309,8.79212760925293,0.222101092338562,-0.2742975056171417,0.08881380409002304
-0.4094717800617218,5.259424209594727,8.044968605041504,0.222101092338562,-0.1262301206588745,-0.04647079110145569
-0.6296114325523376,5.103890895843506,7.858328819274902,0.18375270068645477,-0.0015978495357558131,-0.0773625448346138
-0.6176473498344421,5.276174068450928,7.637889862060547,0.07083799690008163,0.19746756553649902,-0.06884068250656128
-0.7926225066184998,4.993820667266846,7.664510250091553,-0.08894696086645126,0.4264926612377167,-0.05073172226548195
-0.8333004713058472,5.233103275299072,8.399405479431152,-0.13355359435081482,0.2869471311569214,-0.02303566411137581
-1.0630114078521729,5.091926574707031,8.801698684692383,-0.06657706201076508,0.1793586164712906,-0.04007939249277115
-1.074975609779358,5.134997367858887,8.77777099609375,0.016511112451553345,0.29120808839797974,-0.0017310036346316338
-0.8739784955978394,4.931308269500732,8.643473625183105,0.1720351278781891,0.45205825567245483,0.03129122033715248
-0.859621524810791,4.928915500640869,8.667402267456055,0.3616466224193573,0.5990604162216187,0.01637795753777027
-1.5897315740585327,5.487041473388672,8.294121742248535,0.5319507122039795,0.19640234112739563,0.04087831825017929
-1.4054841995239258,5.587540149688721,7.5804619789123535,0.34673336148262024,0.0005326165119186044,0.0930747389793396
-1.220937728881836,5.307280540466309,7.637889862060547,0.16564373672008514,-0.1816222369670868,0.07922670245170593
-0.8476574420928955,5.446064472198486,7.549355506896973,0.016511112451553345,-0.2796236574649811,0.02063889056444168
-0.5099703073501587,5.558825969696045,7.834400653839111,-0.10172975063323975,-0.1699046641588211,-0.06138405203819275
-1.074975609779358,5.575575828552246,7.946863174438477,-0.11544463038444519,-0.015445878729224205,-0.10825430601835251
-1.2041879892349243,5.37906551361084,8.23430061340332,-0.01438064593821764,-0.027163442224264145,-0.09440627694129944
-1.3887344598770142,5.3312087059021,8.34437084197998,0.07616416364908218,-0.21038351953029633,-0.07949301600456238
-0.8189435601234436,5.4173502922058105,8.04975414276123,0.23062294721603394,-0.21677492558956146,-0.01664426550269127
-0.6248258352279663,5.805286884307861,7.467999458312988,0.18268746137619019,-0.12409964948892593,-0.06138405203819275
-1.103689432144165,5.479863166809082,7.247859954833984,-0.044207170605659485,-0.137947678565979,-0.13381989300251007
-1.220937728881836,5.506184101104736,7.475177764892578,-0.16231487691402435,-0.1816222369670868,-0.12423279881477356
-1.2616157531738281,5.709573745727539,7.753044605255127,-0.26883819699287415,-0.31477636098861694,-0.07523208111524582
-0.9984052777290344,5.424529075622559,8.006683349609375,-0.30186042189598083,-0.39892977476119995,-0.02623136341571808
-0.6894320249557495,5.542076110839844,8.77777099609375,-0.30931705236434937,-0.18375270068645477,-0.05925358831882477
-0.6583253145217896,5.089533805847168,8.854341506958008,-0.0846860259771347,-0.5320838689804077,-0.02836182899773121
-0.3807578980922699,5.1876397132873535,8.49990463256836,-0.0079892473295331,-0.413843035697937,-0.05073172226548195
-0.3161516785621643,5.314459323883057,8.179265975952148,0.0026630824431777,-0.14327384531497955,-0.06031882017850876
-0.5027918815612793,5.271388053894043,7.901399612426758,-0.026098208501935005,0.06644391268491745,-0.04220985993742943
-0.5602195858955383,5.225924491882324,7.975576877593994,-0.037815771996974945,0.11970555782318115,-0.02090519852936268
-0.6774678826332092,5.20678186416626,8.274978637695312,-0.039946239441633224,0.04620448127388954,0.015312724746763706
-0.7492526173591614,5.161318302154541,8.291728973388672,-0.033554840832948685,-0.006924014538526535,0.03022598661482334
-0.6535396575927734,5.233103275299072,8.186444282531738,-0.023967742919921875,-0.042076703161001205,0.04194355010986328
-0.5745765566825867,5.2977094650268555,8.198408126831055,-0.018641578033566475,0.041011471301317215,0.02809552103281021
-0.46450668573379517,5.197210788726807,8.162217140197754,-0.00585878174751997,0.08668334037065506,0.0003994623839389533
-1.170688509941101,5.463113307952881,8.303692817687988,0.26151469349861145,-0.18588316440582275,0.09200949966907501
-0.29700911045074463,5.182853698730469,7.707581043243408,0.11983871459960938,-0.17842653393745422,0.1037270650267601
-0.2994019389152527,5.161318302154541,7.458428382873535,0.006924014538526535,0.044207170605659485,0.02703028731048107
-0.610468864440918,5.319244861602783,7.786543846130371,-0.048468101769685745,0.2954690158367157,-0.012383334338665009
-1.0223335027694702,5.472684383392334,8.24387264251709,-0.08788172155618668,0.26031631231307983,-0.009187635034322739
-0.8668000102043152,5.283352375030518,8.411369323730469,-0.07190322875976562,-0.018641578033566475,0.01637795753777027
-0.6224330067634583,5.266602516174316,8.571688652038574,0.0047935484908521175,-0.06657706201076508,0.02809552103281021
-0.4860421121120453,5.233103275299072,8.62193775177002,0.059120431542396545,-0.036750540137290955,0.03555215150117874
-0.6918248534202576,5.278566837310791,8.643473625183105,0.17736129462718964,0.05153064802289009,0.03768261894583702
-0.8668000102043152,5.482255935668945,8.554939270019531,0.2679060995578766,0.08668334037065506,0.03768261894583702
-0.8883354067802429,5.577968597412109,8.253443717956543,0.30518925189971924,0.035685304552316666,0.04940018057823181
-0.7277171611785889,5.472684383392334,7.95643424987793,0.2966673970222473,0.027163442224264145,0.06963960826396942
-0.6248258352279663,5.568397521972656,7.76261568069458,0.24873191118240356,0.036750540137290955,0.07496577501296997
-0.5291129350662231,5.453242778778076,7.87986421585083,0.17842653393745422,0.12290126085281372,0.07390054315328598
-0.7707880139350891,5.549254894256592,8.24387264251709,0.15286093950271606,0.018641578033566475,0.03661738336086273
-1.0414760112762451,5.807679653167725,8.121539115905762,0.14646953344345093,-0.09853405505418777,0.03342168778181076
-0.7492526173591614,5.668895721435547,7.836793422698975,0.15392617881298065,0.016511112451553345,0.05472634732723236
-0.7755736112594604,5.527719497680664,7.7099738121032715,0.15179570019245148,0.07603100687265396,0.03235645219683647
-0.7612167000770569,5.537290573120117,7.796115398406982,0.11344731599092484,0.018641578033566475,0.009986559860408306
-0.7492526173591614,5.635396480560303,7.822436332702637,0.054859500378370285,-0.09959928691387177,-0.02410089783370495
-0.7612167000770569,5.649753570556641,7.772187232971191,-0.0005326165119186044,-0.13049104809761047,-0.01983996480703354
-0.6942176818847656,5.606682777404785,7.810472011566162,-0.021837277337908745,-0.12196917831897736,-0.011318100616335869
-0.7854440212249756,5.757430553436279,7.8056864738464355,-0.054859500378370285,-0.13581721484661102,-0.01770949922502041
-0.6942176818847656,5.659324645996094,7.779365539550781,-0.058055199682712555,-0.033554840832948685,-0.011318100616335869
-0.6320042610168457,5.78853702545166,7.918148994445801,-0.025032976642251015,0.08348763734102249,0.03129122033715248
-0.6535396575927734,5.654539108276367,7.94207763671875,-0.027163442224264145,0.1356840580701828,0.04300878196954727
-0.732502818107605,5.6330037117004395,7.89422082901001,-0.037815771996974945,0.16018441319465637,0.02703028731048107
-0.7109674215316772,5.4556355476379395,7.808079242706299,-0.036750540137290955,0.21344606578350067,0.03022598661482334
-0.368793785572052,5.381458282470703,7.865507125854492,-0.061250898987054825,0.23901166021823883,0.00359516148455441
-0.6846463680267334,5.5229339599609375,8.36590576171875,-0.07935985922813416,-0.1070559173822403,-0.06031882017850876
-1.079761266708374,5.731109142303467,8.385048866271973,-0.14207544922828674,-0.2551233172416687,-0.12210233509540558
-0.8404789566993713,5.419743061065674,8.3898344039917,-0.08894696086645126,-0.2231663167476654,-0.16351327300071716
-0.7205387353897095,5.534897804260254,8.078468322753906,0.0047935484908521175,-0.21784014999866486,-0.20079642534255981
-0.8763712644577026,5.764608860015869,7.698009490966797,0.037815771996974945,-0.25192761421203613,-0.06457975506782532
-0.8356932997703552,5.716752529144287,7.645068168640137,0.020772043615579605,-0.15286093950271606,0.005725627299398184
-0.8476574420928955,5.767001628875732,7.674081325531006,0.01118494663387537,-0.0740336924791336,0.03661738336086273
-0.6080760359764099,5.700002670288086,7.767401218414307,0.0026630824431777,0.07283531129360199,0.08561810106039047
-0.41904306411743164,5.577968597412109,7.796115398406982,-0.056989967823028564,0.12822742760181427,0.02170412242412567
-0.48843491077423096,5.482255935668945,8.001897811889648,-0.0750989317893982,0.08987903594970703,-0.014513799920678139
-0.5841478109359741,5.443671703338623,8.37547779083252,-0.0964035913348198,-0.034620072692632675,-0.05818835273385048
-0.6032904386520386,5.628218173980713,8.394619941711426,0.0026630824431777,0.11864032596349716,-0.07416684925556183
-1.2951152324676514,5.561218738555908,9.03380298614502,0.24021004140377045,0.11118369549512863,-0.013448567129671574
-1.2329018115997314,5.874678611755371,8.411369323730469,0.24340574443340302,-0.2987978756427765,0.02489982172846794
-0.7806583642959595,5.623432159423828,7.820043563842773,0.0644465982913971,-0.5043878555297852,-0.01664426550269127
-0.9170492887496948,5.50139856338501,7.714759349822998,-0.052729032933712006,-0.28281936049461365,-0.05286218971014023
-1.0271191596984863,5.685645580291748,7.623532772064209,-0.0857512578368187,-0.3201025128364563,-0.04114462435245514
-0.9314061999320984,5.8459649085998535,7.477570533752441,-0.1250317245721817,-0.3744294047355652,-0.013448567129671574
-0.42382872104644775,5.685645580291748,7.434499740600586,-0.2091851383447647,-0.39786452054977417,0.03661738336086273
-0.263509601354599,5.604289531707764,7.558926582336426,-0.25925108790397644,-0.4074516296386719,0.03022598661482334
0.01196411345154047,5.438885688781738,7.738687515258789,-0.28907760977745056,-0.348863810300827,0.0003994623839389533
-0.0933200865983963,5.307280540466309,8.059326171875,-0.26670771837234497,-0.4149082601070404,-0.06351451575756073
-0.5338985323905945,5.288137912750244,8.428119659423828,-0.028228675946593285,-0.5118444561958313,0.03448691964149475
0.49322056770324707,5.613861083984375,8.21994400024414,0.08255556225776672,-0.06977276504039764,0.1569887101650238
0.5147559642791748,5.458327770233154,7.820043563842773,0.033554840832948685,0.3497959077358246,0.03555215150117874
-0.2273181527853012,5.242674350738525,7.81765079498291,-0.1260969638824463,0.5394073724746704,-0.02836182899773121
-0.4573282301425934,5.38624382019043,8.466404914855957,-0.11864032596349716,0.36470916867256165,0.07816147059202194
0.02871387079358101,5.32403039932251,8.246265411376953,-0.049533337354660034,0.45951488614082336,0.013182258233428001
-0.17706887423992157,5.096712112426758,8.641080856323242,0.058055199682712555,0.6395393013954163,-0.07416684925556183
-1.0247262716293335,5.37906551361084,9.546165466308594,0.3190372884273529,0.5372769236564636,-0.000665770610794425
-1.2185449600219727,5.735895156860352,9.455238342285156,0.3914731442928314,0.13781452178955078,0.05153064802289009
-0.6152545213699341,5.644967555999756,8.835198402404785,0.3605813682079315,-0.052729032933712006,0.01637795753777027
-0.368793785572052,5.391029357910156,8.097610473632812,0.413843035697937,0.10905323177576065,-0.04327509179711342
-1.0510473251342773,6.001797199249268,7.954041481018066,0.46071329712867737,0.27736005187034607,-0.08588441461324692
-1.1563315391540527,6.073582172393799,7.860721588134766,0.46284374594688416,0.3252955377101898,-0.04327509179711342
-0.9409775137901306,5.7981085777282715,7.601997375488281,0.4479304850101471,0.4094489514827728,0.02596505545079708
-0.8189435601234436,6.02811861038208,7.362715244293213,0.4884093403816223,0.520233154296875,0.05792204663157463
-0.8165507316589355,6.03529691696167,7.226324558258057,0.519167959690094,0.6798849701881409,0.07922670245170593
-0.890728235244751,6.083153247833252,7.020242691040039,0.519167959690094,0.8119738698005676,0.08135717362165451
-0.5482555031776428,5.946463584899902,6.730710983276367,0.5021241903305054,1.0260857343673706,0.04513924941420555
-0.6726822853088379,5.958427429199219,6.847959518432617,0.48308318853378296,1.1240870952606201,0.0003994623839389533
-1.477268934249878,6.233901023864746,6.955636501312256,0.4255605936050415,1.1262176036834717,-0.05392742156982422
-1.8221344947814941,6.487540245056152,6.931707859039307,0.34353765845298767,0.9760197401046753,-0.04327509179711342
-1.7524434328079224,6.487540245056152,6.955636501312256,0.24873191118240356,0.8876054286956787,-0.05818835273385048
-1.9513468742370605,6.454041004180908,7.070491790771484,0.16244803369045258,0.8077129125595093,-0.10718907415866852
-2.0829520225524902,6.451648235321045,7.108777046203613,0.13262151181697845,0.74699467420578,-0.11677616834640503
-2.2911276817321777,6.4085774421691895,7.1255269050598145,0.10386022180318832,0.5649729371070862,-0.09973244369029999
-2.588136672973633,6.530910491943359,7.0800628662109375,0.10279498994350433,0.47016721963882446,-0.08162347972393036
-2.676671266555786,6.550053119659424,7.118348121643066,0.1070559173822403,0.2944037914276123,-0.02729659713804722
-2.6503500938415527,6.538088798522949,7.001100063323975,0.10386022180318832,0.21451130509376526,-0.0038614696823060513
-2.5139594078063965,6.530910491943359,6.955636501312256,0.09427312016487122,0.16551057994365692,0.011051792651414871
-2.035095691680908,6.49980354309082,5.926124572753906,0.050598569214344025,0.1356840580701828,-0.0038614696823060513
-2.573779821395874,6.590730667114258,6.225526332855225,-0.0964035913348198,0.2198374718427658,-0.007057168986648321
-2.4349961280822754,6.272186279296875,6.661319255828857,-0.2613815665245056,-0.20718781650066376,-0.02090519852936268
-2.3560330867767334,6.56201696395874,7.575676441192627,-0.36364391446113586,-0.3701684772968292,-0.06138405203819275
-2.3871397972106934,6.4947190284729,7.178467750549316,-0.34553495049476624,-0.4692351520061493,0.014247491955757141
-1.9513468742370605,6.37747049331665,6.723532676696777,-0.35192635655403137,-0.42023444175720215,0.05472634732723236
-1.8939191102981567,6.375077724456787,6.725925445556641,-0.42968836426734924,-0.4351477026939392,0.06324820965528488
-2.2097716331481934,6.444469451904297,6.986742973327637,-0.5585815906524658,-0.5692338943481445,0.01744319126009941
-2.461317300796509,6.379863262176514,7.250252723693848,-0.6896052360534668,-0.7375407218933105,0.03555215150117874
-2.080559253692627,6.3224358558654785,7.527820110321045,-0.7885387539863586,-0.8951951861381531,0.11650986224412918
-1.0199406147003174,5.376672267913818,7.355536937713623,-0.8439308404922485,-0.8121070265769958,-0.0347532257437706
-1.0558329820632935,5.402993679046631,7.681259632110596,-0.8609746098518372,-0.5766905546188354,-0.08908011019229889
-0.9457631707191467,4.996213912963867,8.459226608276367,-0.6565830111503601,-0.650191605091095,0.08987903594970703
-0.6798607110977173,4.909772872924805,8.35154914855957,-0.5308855175971985,-0.6246260404586792,0.09627043455839157
-0.3975076675415039,4.785346031188965,8.339585304260254,-0.43821024894714355,-0.44153907895088196,0.07922670245170593
-0.6248258352279663,4.787738800048828,8.406583786010742,-0.3711005449295044,-0.09427312016487122,0.03022598661482334
-1.1108678579330444,4.730311393737793,8.540582656860352,-0.33275216817855835,0.043141938745975494,0.06857437640428543
-1.7691932916641235,4.981856822967529,8.78494930267334,-0.2954690158367157,0.09840089827775955,0.20172850787639618
-1.134796142578125,4.897809028625488,8.92373275756836,-0.2539249360561371,0.25605538487434387,0.41903603076934814
0.0,4.17009162902832,8.868698120117188,-0.2219679355621338,0.18042384088039398,0.40838369727134705
0.6702894568443298,3.657728433609009,8.918947219848633,-0.23794642090797424,-0.10066451877355576,0.08348763734102249
-0.16031911969184875,4.083950042724609,8.861519813537598,-0.20705467462539673,-0.4585828185081482,-0.20825305581092834
-0.857228696346283,4.6872406005859375,8.983553886413574,-0.23475073277950287,-0.48627886176109314,-0.18268746137619019
-1.1730812788009644,4.859523773193359,8.942875862121582,-0.2304897904396057,-0.4149082601070404,-0.08694964647293091
-0.5003990530967712,4.483850479125977,8.93091106414795,-0.22942456603050232,-0.29453691840171814,0.01637795753777027
0.2826521694660187,4.153341770172119,9.088837623596191,-0.2528596818447113,-0.30518925189971924,-0.02090519852936268
-0.9385846853256226,4.306482315063477,9.294919967651367,0.06977276504039764,-0.12196917831897736,-0.1816222369670868
-0.5506483316421509,4.263411521911621,9.146265029907227,0.20612259209156036,0.039946239441633224,-0.06564498692750931
-0.12203395366668701,4.134199142456055,8.880661964416504,0.23914481699466705,0.14101022481918335,0.015312724746763706
-0.12681959569454193,4.268197536468506,8.832805633544922,0.20612259209156036,0.16018441319465637,0.02170412242412567
-0.2392822653055191,4.289732933044434,8.794520378112793,0.1816222369670868,0.10905323177576065,0.008921326138079166
-0.21296121180057526,4.3519463539123535,8.636295318603516,0.11877348273992538,-0.07083799690008163,-0.0017310036346316338
-0.17706887423992157,4.366302967071533,8.629117012023926,0.0953383520245552,-0.12303441762924194,-0.004926702938973904
-0.12681959569454193,4.4359941482543945,8.547760963439941,0.06551183015108109,-0.10918638855218887,-0.01664426550269127
-0.21296121180057526,4.431208610534668,8.830412864685059,0.039946239441633224,0.022902509197592735,-0.05286218971014023
-0.263509601354599,4.337589263916016,9.04098129272461,0.049533337354660034,-0.044207170605659485,-0.06884068250656128
-0.3568296730518341,4.373481750488281,8.887840270996094,0.062316130846738815,-0.11557777971029282,-0.08588441461324692
-0.22013968229293823,4.428815841674805,8.617152214050293,0.056989967823028564,-0.10918638855218887,-0.09014534205198288
-0.24646073579788208,4.526921272277832,8.449654579162598,0.027163442224264145,-0.025032976642251015,-0.06884068250656128
-0.2560320198535919,4.514957427978516,8.554939270019531,0.017576344311237335,0.05259587988257408,-0.03155753016471863
-0.2946162819862366,4.440779685974121,8.648259162902832,0.010119713842868805,0.016511112451553345,-0.04114462435245514
-0.3807578980922699,4.481457710266113,8.62193775177002,-0.012250179424881935,-0.015445878729224205,-0.05712312087416649
-0.39990049600601196,4.531706809997559,8.535796165466309,-0.08042509108781815,-0.06977276504039764,-0.07416684925556183
-0.26111677289009094,4.54127836227417,8.590831756591797,-0.1250317245721817,-0.11025162041187286,-0.06884068250656128
-0.1986042857170105,4.416552543640137,8.643473625183105,-0.11544463038444519,-0.09853405505418777,-0.05925358831882477
-0.28983065485954285,4.402195453643799,8.906983375549316,-0.06657706201076508,-0.044207170605659485,-0.02303566411137581
-0.26590242981910706,4.361517429351807,8.969196319580078,-0.052729032933712006,0.01118494663387537,-0.007057168986648321
-0.16510476171970367,4.296911239624023,8.969196319580078,-0.049533337354660034,-0.006924014538526535,-0.008122402243316174
-0.17946170270442963,4.3280181884765625,8.897412300109863,-0.035685304552316666,0.010119713842868805,-0.01664426550269127
-0.20578274130821228,4.30169677734375,9.000303268432617,-0.010119713842868805,0.037815771996974945,-0.000665770610794425
-0.17946170270442963,4.371088981628418,8.775378227233887,0.016511112451553345,-0.049533337354660034,0.00359516148455441
-0.34247273206710815,4.390231132507324,8.60040283203125,0.020772043615579605,0.045272402465343475,0.011051792651414871
-0.2994019389152527,4.397409915924072,8.619544982910156,0.017576344311237335,0.0824224054813385,0.02916075475513935
-0.16271193325519562,4.306482315063477,8.78494930267334,-0.0047935484908521175,0.10798799991607666,0.04513924941420555
-0.19381862878799438,4.323232173919678,8.87826919555664,-0.012250179424881935,0.06963960826396942,0.04726971685886383
-0.2512463629245758,4.330410957336426,9.021839141845703,0.031424373388290405,0.00905448105186224,0.07496577501296997
-0.20817556977272034,4.280161380767822,9.469595909118652,0.18588316440582275,0.09094426780939102,0.11650986224412918
-0.2802593410015106,4.411766529083252,9.790533065795898,0.3840165138244629,0.2517944574356079,0.11757509410381317
-0.5697908997535706,4.4359941482543945,9.11276626586914,0.5617772936820984,-0.017576344311237335,0.09627043455839157
-0.13160525262355804,4.782953262329102,8.064111709594727,0.19547025859355927,-0.09320788830518723,0.04513924941420555
-0.16510476171970367,4.648955345153809,8.274978637695312,0.046337638050317764,0.044207170605659485,0.03342168778181076
-0.1866401731967926,4.749454021453857,8.657830238342285,0.029293907806277275,0.22942456603050232,0.07816147059202194
-0.48843491077423096,4.778167724609375,9.031410217285156,0.053794268518686295,0.20598943531513214,0.09520520269870758
-0.4692923426628113,4.739882469177246,8.983553886413574,0.09320788830518723,0.16018441319465637,0.10266183316707611
-0.5338985323905945,4.8212385177612305,8.669795036315918,0.20825305581092834,0.12183602899312973,0.12716218829154968
-0.23688943684101105,4.586741924285889,8.368298530578613,0.30305880308151245,0.15166255831718445,0.21344606578350067
0.014356935396790504,4.723132610321045,8.22712230682373,0.2796236574649811,0.12396649271249771,0.1452711522579193
-0.4046861231327057,4.861916542053223,8.109575271606445,0.1699046641588211,0.0930747389793396,0.0717700719833374
-0.3209373354911804,4.7039899826049805,8.3300142288208,0.08362079411745071,0.11544463038444519,0.07816147059202194
-0.18903298676013947,4.634598255157471,8.571688652038574,0.0633813664317131,0.14314068853855133,0.05259587988257408
-0.31854450702667236,4.689633369445801,8.866305351257324,0.08042509108781815,0.14420592784881592,-0.007057168986648321
-0.48364928364753723,4.6728835105896,8.973981857299805,0.12196917831897736,0.06005251035094261,-0.0347532257437706
-0.4262215197086334,4.66570520401001,8.976374626159668,0.18588316440582275,0.021837277337908745,-0.02516612969338894
-0.5195416212081909,4.9435715675354,8.569295883178711,0.2529928386211395,-0.020772043615579605,0.02063889056444168
-0.5865406394004822,4.837988376617432,8.270193099975586,0.4362129271030426,0.027163442224264145,0.14101022481918335
-0.06939185410737991,5.463113307952881,6.737889289855957,0.24340574443340302,-0.018641578033566475,0.17616291344165802
-0.11006984114646912,5.290530681610107,7.0633134841918945,-0.23688119649887085,0.10798799991607666,0.05153064802289009
-0.3400799036026001,4.981856822967529,7.8056864738464355,-0.454188734292984,0.1367492824792862,-0.0017310036346316338
-0.36640095710754395,5.0703911781311035,8.6243314743042,-0.5266245603561401,0.08881380409002304,-0.009187635034322739
-0.33768710494041443,4.912165641784668,9.29731273651123,-0.5181027054786682,-0.19333979487419128,-0.010252867825329304
-0.34725838899612427,4.761417865753174,9.56052303314209,-0.4105141758918762,-0.24660144746303558,-0.014513799920678139
-0.43100717663764954,4.694418907165527,9.452845573425293,-0.21344606578350067,-0.17523083090782166,-0.03155753016471863
-0.20578274130821228,4.596312999725342,9.1414794921875,0.0037283156998455524,0.026098208501935005,-0.03901416063308716
-0.18903298676013947,4.5699920654296875,9.316454887390137,0.1070559173822403,0.11544463038444519,-0.0347532257437706
-0.3735794425010681,4.598706245422363,8.993124961853027,0.306254506111145,0.07390054315328598,0.01637795753777027
-0.5051847100257874,4.902594566345215,8.459226608276367,0.21570968627929688,-0.036750540137290955,0.02809552103281021
-0.12442677468061447,4.692026138305664,8.528617858886719,0.12196917831897736,-0.028228675946593285,0.04194355010986328
0.3041875660419464,4.402195453643799,8.444869041442871,0.12303441762924194,0.042076703161001205,-0.04860125854611397
0.1579262912273407,4.574777603149414,8.444869041442871,0.16138280928134918,0.1900109350681305,-0.12636326253414154
-0.4549354016780853,4.926522731781006,8.574081420898438,0.17310036718845367,0.28162097930908203,-0.08588441461324692
-0.5267201066017151,4.909772872924805,8.676973342895508,0.19547025859355927,0.33488261699676514,-0.01983996480703354
-0.7229315638542175,5.0703911781311035,8.7538423538208,0.245536208152771,0.44886255264282227,0.04407401755452156
-0.8045865893363953,4.945964336395264,8.866305351257324,0.36697277426719666,0.5106461048126221,0.09627043455839157
-0.4405784606933594,4.809274196624756,8.430512428283691,0.5095808506011963,0.5308855175971985,0.08774857223033905
-0.6774678826332092,5.103890895843506,8.236693382263184,0.5916038155555725,0.5212984085083008,0.05685681104660034
-1.4437693357467651,5.592325687408447,7.369893550872803,0.5372769236564636,0.3828181326389313,0.16018441319465637
-1.4294124841690063,5.649753570556641,6.852745056152344,0.4042559266090393,0.43927547335624695,0.3082517981529236
-1.0055837631225586,5.391029357910156,6.771389007568359,0.25831902027130127,0.5159722566604614,0.36257869005203247
-0.859621524810791,5.300102233886719,7.427321434020996,0.11344731599092484,0.4254274368286133,0.31038227677345276
-0.8715856671333313,5.475077152252197,7.968398571014404,-0.006924014538526535,0.19107617437839508,0.20598943531513214
-0.8141579031944275,5.5085768699646,7.968398571014404,-0.051663801074028015,0.18148908019065857,0.12077079713344574
-1.0031908750534058,5.510969638824463,8.119146347045898,-0.058055199682712555,0.20385897159576416,0.09627043455839157
-0.6367899179458618,5.290530681610107,8.552546501159668,-0.048468101769685745,0.22303315997123718,0.0717700719833374
-0.5985047817230225,5.300102233886719,8.179265975952148,0.0026630824431777,0.31144750118255615,0.03555215150117874
-1.8819550275802612,5.609075546264648,8.578866958618164,0.09001219272613525,0.23581595718860626,0.0717700719833374
-1.5131611824035645,5.78135871887207,8.818449020385742,0.06977276504039764,-0.1805569976568222,0.10692276805639267
-0.8835497498512268,5.621039390563965,8.349156379699707,-0.022902509197592735,-0.2252967804670334,0.015312724746763706
