accX,accY,accZ,gyroX,gyroY,gyroZ
-2.6458635330200195,6.4905314445495605,8.190033912658691,-0.0011453386396169662,-0.0015271181473508477,0.0
-2.956930637359619,6.447460651397705,8.534899711608887,-0.24281178414821625,-0.013133215717971325,-0.21257483959197998
-3.3975090980529785,6.512066841125488,8.654540061950684,-0.2925194799900055,-0.12308572232723236,-0.28160059452056885
-3.536292791366577,6.6128644943237305,8.597112655639648,-0.35528403520584106,-0.24159009754657745,-0.27121618390083313
-3.2395827770233154,6.387639999389648,8.750253677368164,-0.4230117201805115,-0.3387148082256317,-0.27854636311531067
-2.9353952407836914,5.882455348968506,8.757431983947754,-0.5460211038589478,-0.5757235288619995,-0.3939964771270752
-2.9353952407836914,5.561817169189453,8.525327682495117,-0.7217923998832703,-0.8127322793006897,-0.44103172421455383
-2.765504837036133,5.202594757080078,8.235795974731445,-0.8665632009506226,-1.0516499280929565,-0.3506263196468353
-2.470888376235962,4.845765113830566,7.495816230773926,-0.9535325765609741,-1.358295202255249,-0.24494975805282593
-2.0135602951049805,4.455734729766846,6.444768905639648,-1.0808942317962646,-1.5403276681900024,-0.20219044387340546
-1.3815559148788452,3.9864425659179688,5.97098970413208,-1.32194983959198,-1.6429500579833984,-0.25411245226860046
-0.1869392693042755,3.340081214904785,6.372983932495117,-1.6729578971862793,-1.8744611740112305,-0.4691306948661804
0.30149564146995544,2.758326292037964,7.536494255065918,-2.081691026687622,-2.2354719638824463,-0.8863393664360046
0.17198412120342255,2.2148563861846924,8.266902923583984,-2.358175754547119,-2.6850554943084717,-1.3102673292160034
0.31345975399017334,1.7838492393493652,8.314759254455566,-2.530892848968506,-2.747361898422241,-1.5992745161056519
0.5838487148284912,1.4365909099578857,8.918049812316895,-2.611677408218384,-2.5280678272247314,-1.7080053091049194
0.8832506537437439,0.8715856671333313,10.71117115020752,-2.612288236618042,-2.469426393508911,-1.6347036361694336
0.698704183101654,0.4983053207397461,11.426924705505371,-2.547614812850952,-2.515239953994751,-1.345085620880127
-1.664208173751831,2.8013970851898193,11.834003448486328,-2.1394925117492676,-1.711364984512329,-0.6456655263900757
-1.1877373456954956,2.025524377822876,11.891430854797363,-1.3766206502914429,-1.0736404657363892,0.4190412163734436
-0.7184450030326843,1.013061285018921,10.823634147644043,-0.6229878664016724,-0.4340069890022278,1.4636664390563965
-0.06251249462366104,0.20368902385234833,10.351948738098145,0.04978405311703682,0.42789849638938904,2.243718385696411
1.7521443367004395,-1.7856439352035522,10.792527198791504,0.6107708811759949,1.345391035079956,2.608394145965576
4.692325115203857,-5.654539108276367,11.585149765014648,0.7828771471977234,1.7119758129119873,2.179579257965088
4.979464054107666,-3.923630952835083,9.116654396057129,0.6238277554512024,1.554911732673645,0.5809157490730286
1.9486548900604248,-0.5838487148284912,9.593125343322754,0.6989619731903076,2.0711538791656494,-0.9333745837211609
-1.9872392416000366,2.4349961280822754,10.792527198791504,0.634364902973175,2.046109199523926,-1.285833477973938
-3.1654052734375,2.885145902633667,11.278569221496582,0.5933617353439331,2.0051825046539307,-1.0445488691329956
-4.060619831085205,3.1339993476867676,12.358330726623535,0.648643434047699,2.021064519882202,-0.6719319820404053
-4.443770885467529,2.29142689704895,11.711969375610352,1.0481375455856323,1.9880787134170532,0.130721315741539
-3.059821844100952,1.786242127418518,10.864312171936035,1.3606622219085693,1.9624232053756714,0.30847787857055664
-2.6362924575805664,2.0446670055389404,10.584351539611816,1.3947933912277222,1.146865725517273,0.16859383881092072
-3.2802608013153076,2.432603359222412,11.101500511169434,1.4432793855667114,0.9684983491897583,0.4172086715698242
-2.4445674419403076,1.5469598770141602,9.550054550170898,1.6693692207336426,1.4693931341171265,0.5851916670799255
-3.3185458183288574,3.11246395111084,7.450352191925049,1.4985610246658325,2.1548399925231934,0.497229665517807
-3.588934898376465,3.6487553119659424,6.418447494506836,0.9232956171035767,2.7650763988494873,0.6230642199516296
-3.5721850395202637,3.799802303314209,7.34267520904541,0.41445985436439514,3.047287940979004,0.7165238261222839
-3.5865421295166016,3.70139741897583,7.974679470062256,0.13117945194244385,2.9104580879211426,0.6737645268440247
-3.4286158084869385,3.667897939682007,8.09671401977539,0.04543176665902138,2.611142873764038,0.314586341381073
-3.7806596755981445,3.423830032348633,8.475078582763672,-0.06574243307113647,1.9416543245315552,0.0390942245721817
-4.575376033782959,3.7420754432678223,9.621838569641113,0.00259610079228878,1.1755754947662354,-0.07146912813186646
-4.805087089538574,3.6511483192443848,10.055238723754883,0.2653367817401886,0.21226942539215088,-0.17653486132621765
-4.845765113830566,3.08135724067688,9.286544799804688,0.3498627543449402,-0.6404733657836914,-0.2742704153060913
-4.965705394744873,2.679363250732422,8.812766075134277,0.2945810854434967,-0.46454933285713196,-0.1985253542661667
-4.771587371826172,2.604886531829834,9.162117958068848,0.2715979516506195,0.3570402264595032,0.00916270911693573
-4.35045051574707,3.0550363063812256,9.767801284790039,0.3336753249168396,0.882979691028595,0.20646637678146362
-3.7037904262542725,3.4142587184906006,10.004989624023438,0.49524441361427307,0.7895200848579407,0.21929416060447693
-3.660719633102417,3.3257243633270264,9.782157897949219,0.6822400093078613,0.3692571818828583,0.08612946420907974
-4.295415878295898,3.3951163291931152,9.298508644104004,0.8574004769325256,0.040010496973991394,0.013438640162348747
-4.477270126342773,3.5937204360961914,8.422436714172363,0.9562050104141235,-0.030847785994410515,0.05008947476744652
-4.192225456237793,3.5697922706604004,8.166105270385742,0.9239065051078796,-0.12369657307863235,0.03420744836330414
-4.28823709487915,3.588934898376465,8.482256889343262,0.8636616468429565,-0.41507071256637573,-0.04031591862440109
-4.477270126342773,3.550649642944336,8.546863555908203,0.8859575986862183,-0.5494571328163147,-0.0787992998957634
-4.814658164978027,3.7567315101623535,8.231010437011719,0.9239065051078796,-0.6728482842445374,-0.09529217332601547
-4.886742115020752,4.086941242218018,7.337889671325684,0.9083298444747925,-0.8389987349510193,-0.04337015375494957
-4.422235488891602,3.8739798069000244,6.756134510040283,0.8170081973075867,-1.058980107307434,-0.05008947476744652
-4.479662895202637,4.470091819763184,6.349055767059326,0.6176429390907288,-1.1102912425994873,-0.08002099394798279
-4.029513359069824,4.6423749923706055,7.227819919586182,0.4703523814678192,-1.1341142654418945,-0.02748812735080719
-3.6583266258239746,4.790729999542236,7.263712406158447,0.4760027229785919,-1.1396119594573975,-0.047646086663007736
-3.3903305530548096,4.90109920501709,7.081857681274414,0.5083012580871582,-0.8530482053756714,-0.10384403169155121
-3.6272199153900146,5.121238708496094,7.6274213790893555,0.5368583798408508,-0.4199574887752533,-0.1435490995645523
-3.895515203475952,5.102096080780029,7.8454670906066895,0.6287909150123596,-0.19333316385746002,-0.036039989441633224
-4.074976921081543,5.743671417236328,7.263712406158447,0.6735354661941528,-0.3527642786502838,0.09345962852239609
-3.699004650115967,5.674279689788818,6.9475603103637695,0.6468108892440796,-0.5714476108551025,0.18875180184841156
-3.7205400466918945,5.882455348968506,6.662814617156982,0.5735092163085938,-0.5732801556587219,0.2870981991291046
-3.423830032348633,5.84656286239624,6.81595516204834,0.5517477989196777,-0.1450762301683426,0.39766156673431396
-3.0957143306732178,6.071787357330322,6.669992923736572,0.5386909246444702,0.18905723094940186,0.4062134325504303
-3.1004998683929443,6.423532485961914,6.636493682861328,0.40331190824508667,0.13469181954860687,0.3274141252040863
-2.978466033935547,6.492924213409424,7.050451755523682,0.2641150951385498,-0.07482878863811493,0.23823043704032898
-2.8253252506256104,6.370890140533447,7.2589263916015625,0.2573194205760956,-0.17500774562358856,0.1301104724407196
-2.9832515716552734,6.375676155090332,7.292426109313965,0.2870981991291046,-0.0778830274939537,0.08674030750989914
-2.971287488937378,6.375676155090332,7.443173885345459,0.3324536085128784,0.03634541109204292,0.10078980028629303
-2.9353952407836914,6.555137634277344,7.462316513061523,0.3647521734237671,0.05405998229980469,0.09590301662683487
-2.9306094646453857,6.641578197479248,7.426424026489258,0.3784198760986328,0.042453885078430176,0.06719319522380829
-3.1076784133911133,6.73729133605957,7.105785846710205,0.3635304868221283,0.03145863488316536,-0.02870982140302658
-3.4286158084869385,6.775576591491699,7.196712970733643,0.14484715461730957,0.20616094768047333,-0.08674030750989914
-3.598506212234497,6.751648426055908,8.185248374938965,0.0659715011715889,0.2916795611381531,-0.05619794875383377
-3.560220956802368,6.787540435791016,8.611469268798828,0.16966283321380615,0.2654131352901459,0.021990500390529633
-3.7109687328338623,7.1371917724609375,8.415258407592773,0.35795649886131287,0.25502872467041016,0.10017894953489304
-4.2209391593933105,7.057929515838623,8.764909744262695,0.5126535892486572,-0.21715620160102844,0.11606097966432571
-4.077369689941406,6.706184387207031,7.809575080871582,0.4927246570587158,-1.0327136516571045,0.18630841374397278
-3.059821844100952,5.767600059509277,7.867002487182617,0.43866467475891113,-0.7430956959724426,0.2510582208633423
-2.8013970851898193,5.564209938049316,7.59870719909668,0.42934927344322205,0.021685076877474785,0.1960819661617279
-2.8420751094818115,5.6910295486450195,7.766504287719727,0.3728458881378174,0.23792500793933868,0.1948602795600891
-3.416651725769043,5.90159797668457,7.950751304626465,0.44492587447166443,-0.24586601555347443,0.17409147322177887
-3.708575963973999,5.853741645812988,7.071987152099609,0.5536566972732544,-0.8866447806358337,0.13499724864959717
-3.4621152877807617,5.19541597366333,6.104988098144531,0.5331169366836548,-0.9965972900390625,0.11422843486070633
-3.344866991043091,5.0087761878967285,5.398806095123291,0.35917818546295166,-0.4938700199127197,0.16431790590286255
-3.0717861652374268,5.221737384796143,5.6859450340271,0.11002886295318604,0.10842538625001907,0.22051586210727692
-2.633899450302124,5.240880012512207,6.524031162261963,-0.3683409094810486,-0.03451287001371384,-0.012216945178806782
-2.5929224491119385,5.336592674255371,6.787241458892822,-0.37200596928596497,0.2733541429042816,-0.04214845970273018
-2.892324447631836,5.616852283477783,7.062416076660156,-0.30305659770965576,0.6203153729438782,-0.05008947476744652
-3.1268210411071777,5.765207290649414,7.136892795562744,-0.2608317732810974,0.6331431865692139,-0.03420744836330414
-4.139583110809326,6.502495765686035,7.617849826812744,-0.11796987801790237,-0.13652436435222626,0.04153761267662048
-3.1627132892608643,6.2536420822143555,6.112166404724121,-0.06513158977031708,-0.7430956959724426,0.18997350335121155
-2.566601276397705,6.021538257598877,6.250949859619141,0.0050394898280501366,-0.2629697322845459,0.11239589750766754
-2.8396823406219482,6.265605926513672,5.664409637451172,-0.043981000781059265,-0.06994201242923737,-0.061084724962711334
-3.1579277515411377,6.437889099121094,5.997310638427734,-0.2626643180847168,-0.28007346391677856,-0.18753011524677277
-3.6391842365264893,6.560222148895264,6.823133945465088,-0.38009971380233765,-0.6441384553909302,-0.312142938375473
-4.00319242477417,6.399604320526123,6.861418724060059,-0.36582115292549133,-0.9727742671966553,-0.3249707520008087
-3.730410575866699,5.997610092163086,6.971488952636719,-0.3590254783630371,-1.1683217287063599,-0.2241809368133545
-2.9210381507873535,6.351747512817383,6.7657060623168945,-0.3590254783630371,-0.9074136018753052,-0.2870981991291046
-2.837289333343506,6.122036933898926,8.357830047607422,-0.20180866122245789,-1.3039298057556152,-0.9443698525428772
-3.11246395111084,6.122036933898926,7.450352191925049,-0.34841200709342957,-0.9245173335075378,-0.8405258059501648
-2.001596212387085,5.293521881103516,7.8454670906066895,-0.6000047326087952,-0.6490252017974854,-0.6444438695907593
-1.9130617380142212,5.973382472991943,8.182855606079102,-1.0660048723220825,-1.0119448900222778,-0.5528167486190796
-3.3017961978912354,7.311867713928223,7.733004570007324,-1.3275238275527954,-1.3430240154266357,-0.16859383881092072
-3.179762125015259,6.634399890899658,7.795217990875244,-1.2342932224273682,-0.8353336453437805,0.4056025743484497
-2.535494804382324,6.323033809661865,10.974382400512695,-0.8180772066116333,-0.2916795611381531,0.5454866290092468
-0.828514814376831,6.196214199066162,10.71834945678711,-0.12102411687374115,-0.6062659025192261,0.4092676639556885
0.09541380405426025,5.279164791107178,9.337093353271484,0.3554367423057556,-0.4865398406982422,0.005497625097632408
-0.8117650747299194,6.02393102645874,9.21715259552002,0.46600010991096497,-0.15057384967803955,-0.28160059452056885
-0.7232306599617004,5.518746376037598,8.9850492477417,0.2939702570438385,-0.28312769532203674,-0.363454133272171
-0.8404789566993713,5.530710220336914,8.12542724609375,-0.17569494247436523,-0.4584408700466156,-0.4074351191520691
-0.6610172390937805,5.090131759643555,8.185248374938965,-0.6453601121902466,0.09376505762338638,-0.21807247400283813
-0.5509474277496338,4.881956577301025,9.308079719543457,-0.7764632105827332,0.661853015422821,0.07207997888326645
-0.5198407173156738,4.764409065246582,10.318449020385742,-0.43232715129852295,0.7571451663970947,0.27976804971694946
-0.3281157910823822,4.864907741546631,10.079167366027832,0.06284090876579285,0.20127417147159576,0.3042019307613373
0.04755735024809837,4.589733123779297,8.96829891204834,0.4554629921913147,-0.22570806741714478,0.14110571146011353
-0.08165507018566132,4.410271167755127,8.305188179016113,0.5673243999481201,-0.37536564469337463,-0.061084724962711334
-0.5916253924369812,4.510769844055176,7.833503246307373,0.49768781661987305,-0.3643703758716583,-0.2498365342617035
-0.9891330599784851,4.6423749923706055,7.292426109313965,0.3193967640399933,-0.18539214134216309,-0.34879377484321594
-1.1303095817565918,4.558626174926758,7.132106781005859,0.021226942539215088,0.016798298805952072,-0.3133646547794342
-1.2954143285751343,4.482056140899658,7.694719314575195,-0.21799612045288086,0.1957765519618988,-0.24250635504722595
-1.410269856452942,4.568197727203369,8.015357971191406,-0.27388864755630493,0.34604495763778687,-0.20096874237060547
-1.348056435585022,4.582554340362549,7.929215908050537,-0.2011978179216385,0.3026748299598694,-0.13805148005485535
-1.5182459354400635,4.898705959320068,8.231010437011719,-0.10674555599689484,0.10720369219779968,-0.07024743407964706
-1.4967105388641357,5.248058319091797,7.9005022048950195,-0.036574479192495346,-0.18600298464298248,-0.0036650835536420345
-0.7304090857505798,5.480461120605469,7.313961505889893,0.06467345356941223,-0.01252236869186163,-0.02076880633831024
-0.986740231513977,5.609673500061035,7.39771032333374,0.04978405311703682,0.03634541109204292,-0.05864133685827255
-1.3504493236541748,5.664708614349365,7.4001030921936035,-0.0017561858985573053,-0.10964708030223846,-0.017714571207761765
-1.2954143285751343,5.755635738372803,7.761718273162842,0.02802261710166931,-0.09804098308086395,0.07024743407964706
-1.2427722215652466,5.674279689788818,7.864609718322754,0.14858859777450562,0.027182703837752342,0.1575985997915268
-1.1063814163208008,5.913562297821045,7.682755470275879,0.27533939480781555,0.1169772520661354,0.2608317732810974
-0.5988038778305054,6.057430744171143,7.156035423278809,0.29022881388664246,0.2843494117259979,0.25289076566696167
-0.4815555512905121,6.15553617477417,7.172784805297852,0.21631628274917603,0.592216432094574,0.14171656966209412
-0.8835497498512268,6.2297139167785645,7.675576686859131,0.150421142578125,1.0534061193466187,0.09895725548267365
-1.2379865646362305,5.978168487548828,8.3267240524292,0.173404261469841,1.3905937671661377,0.12278030067682266
-1.407876968383789,5.973382472991943,8.616254806518555,0.2026485800743103,1.4150276184082031,0.10201149433851242
-1.7120646238327026,6.062216281890869,7.737790107727051,0.10201149433851242,1.1578609943389893,0.08979454636573792
-2.9449665546417236,6.480959892272949,7.52931547164917,-0.03840702027082443,1.420525312423706,-0.14782503247261047
-4.153940200805664,5.9901323318481445,7.728219032287598,-0.22975492477416992,1.79932701587677,-0.13682979345321655
-4.683053016662598,5.836991786956787,8.338687896728516,-0.40247198939323425,1.9080578088760376,0.0794101431965828
-4.8675994873046875,6.433103561401367,8.870193481445312,-0.5173876285552979,1.6612755060195923,0.1423274129629135
-4.840979099273682,6.282355785369873,9.119047164916992,-0.5609105229377747,1.138313889503479,0.10323318839073181
-4.247260093688965,5.047060966491699,9.186046600341797,-0.6136724352836609,0.7015580534934998,0.07085828483104706
-4.733302116394043,4.687838554382324,8.997013092041016,-0.6013027429580688,0.753480076789856,0.11911521852016449
-4.3193440437316895,4.333701133728027,8.589934349060059,-0.5422796607017517,1.2317734956741333,0.2357870489358902
-3.261118173599243,3.996013879776001,8.623434066772461,-0.49440449476242065,1.3197355270385742,0.20035789906978607
-3.22761869430542,4.324129581451416,8.678468704223633,-0.33596599102020264,0.8915315866470337,0.03665083646774292
-4.12761926651001,4.836193561553955,7.890930652618408,-0.06948387622833252,0.3906368315219879,-0.0916270911693573
-5.185844898223877,4.766801834106445,6.660421848297119,0.030542362481355667,0.2757975459098816,-0.07452336698770523
-5.291129112243652,4.1730828285217285,6.325127601623535,-0.12163496017456055,0.47982051968574524,0.03237490355968475
-4.754837512969971,3.85483717918396,7.244569778442383,-0.305576354265213,0.7223268747329712,0.0647498071193695
-4.733302116394043,3.7181472778320312,8.350651741027832,-0.30870693922042847,0.61970454454422,-0.055587101727724075
-5.116453170776367,3.620041608810425,8.357830047607422,-0.17325155436992645,0.3570402264595032,-0.15149012207984924
-5.121238708496094,3.557828187942505,7.895716667175293,-0.05024218559265137,0.2886253297328949,-0.1850867122411728
-5.0255255699157715,3.6032917499542236,7.3761749267578125,-0.004275931045413017,0.36253786087036133,-0.21685077250003815
-5.542674541473389,4.0797624588012695,7.823931694030762,0.006948387715965509,0.11025793105363846,-0.24250635504722595
-5.600102424621582,4.213760852813721,6.6939215660095215,-0.10674555599689484,-0.483485609292984,-0.129499614238739
-5.157131195068359,4.436592102050781,6.916453838348389,-0.10674555599689484,-0.24464432895183563,-0.038483377546072006
-4.680660247802734,4.620839595794678,6.49980354309082,-0.06016845628619194,0.03634541109204292,-0.046424392610788345
-4.721338272094727,4.852943420410156,6.511767864227295,-0.1023932695388794,0.010078979656100273,-0.1178935244679451
-5.204987525939941,5.020740032196045,6.705885410308838,-0.10987614840269089,-0.07055285573005676,-0.15393351018428802
-5.600102424621582,5.006382942199707,6.894918441772461,-0.060779303312301636,-0.1328592747449875,-0.12033691257238388
-5.655137062072754,5.0015974044799805,6.842276573181152,-0.048333290964365005,-0.24403348565101624,-0.08674030750989914
-5.219344615936279,4.6184468269348145,7.079464912414551,-0.0626882016658783,-0.4987567961215973,-0.04947862774133682
-5.169095039367676,4.72373104095459,7.05763053894043,-0.048333290964365005,-0.5567872524261475,-0.056808795779943466
-4.972883701324463,4.539483547210693,7.239784240722656,0.02367033064365387,-0.434617817401886,-0.07757759839296341
-5.279164791107178,4.6663031578063965,7.368996620178223,0.10384403169155121,-0.29717719554901123,-0.10384403169155121
-5.097310543060303,4.604089736938477,7.421638488769531,0.1274380087852478,-0.3032856583595276,-0.09345962852239609
-4.812265396118164,4.639982223510742,7.586743354797363,0.1268271654844284,-0.13957859575748444,-0.1441599577665329
-5.3940205574035645,4.886742115020752,8.221439361572266,0.19394400715827942,0.1713426560163498,-0.2089097648859024
-5.786742687225342,5.087738990783691,7.6034932136535645,0.24548424780368805,-0.0925433561205864,-0.1557660549879074
-5.408377170562744,4.953741073608398,7.586743354797363,0.22127941250801086,-0.1560714691877365,-0.09407047927379608
-5.18105936050415,5.1188459396362305,7.673183917999268,0.23991025984287262,0.02107422985136509,-0.07696675509214401
-5.597709655761719,5.377270698547363,7.548458099365234,0.2803025245666504,0.1579040139913559,-0.042759306728839874
-5.786742687225342,5.6671013832092285,7.562815189361572,0.2864873707294464,0.07360709458589554,0.00916270911693573
-5.676672458648682,5.96381139755249,7.6636128425598145,0.2709871232509613,-0.36131614446640015,0.07024743407964706
-5.5259246826171875,5.939883232116699,7.682755470275879,0.2579302489757538,-0.8719844818115234,0.06780404597520828
-5.358128070831299,5.712564945220947,7.826324462890625,0.2250208556652069,-1.1341142654418945,0.025655584409832954
-4.9704909324646,5.405984401702881,8.156534194946289,0.11873343586921692,-1.3515759706497192,-0.03176405653357506
-4.5562334060668945,5.583352565765381,8.922835350036621,0.01252236869186163,-1.595304012298584,-0.1710372269153595
-4.12761926651001,5.003990173339844,10.486246109008789,0.00259610079228878,-1.8463622331619263,-0.3946073353290558
-3.840480327606201,4.328915119171143,10.995917320251465,0.12934690713882446,-2.00884747505188,-0.5100574493408203
-3.1100711822509766,4.153940200805664,10.720743179321289,0.3647521734237671,-2.076040744781494,-0.43981003761291504
-2.274677038192749,4.371985912322998,9.016156196594238,0.533727765083313,-2.194545030593872,-0.3274141252040863
-1.3935201168060303,4.59930419921875,8.199604988098145,0.5076904296875,-1.5959148406982422,-0.261442631483078
-1.7407784461975098,2.885145902633667,7.64447021484375,0.4691306948661804,-0.5903838872909546,-0.3023693859577179
-2.861217737197876,5.396413326263428,9.193224906921387,0.6244385838508606,-0.04856235533952713,-0.053143709897994995
-1.8388842344284058,4.505984306335449,7.1799635887146,0.6089383363723755,-0.4474456310272217,0.3646758198738098
-0.6011967062950134,4.048655986785889,6.650850772857666,0.22868594527244568,-0.3820849657058716,0.2742704153060913
-0.48873403668403625,4.146761417388916,6.586244106292725,-0.1465269923210144,-0.20249587297439575,-0.006108472589403391
-1.9250258207321167,4.244867324829102,6.763313293457031,-1.3101146221160889,0.027182703837752342,-0.762948215007782
-2.2555344104766846,4.292723655700684,8.053643226623535,-1.4803119897842407,-0.32283276319503784,-0.6737645268440247
-2.3823540210723877,4.453341960906982,8.075178146362305,-1.3939534425735474,-0.8658760190010071,-0.5015056133270264
-1.5206388235092163,4.230510234832764,7.70668363571167,-1.2106993198394775,-1.1133455038070679,-0.367730051279068
-0.9987043738365173,3.964907169342041,7.395317554473877,-1.3057624101638794,-0.911078691482544,-0.34940463304519653
-0.8763712644577026,3.90987229347229,7.306783199310303,-1.6195087432861328,-0.4492781460285187,-0.2870981991291046
-0.953240692615509,3.3113675117492676,9.351449966430664,-1.5343719720840454,-0.010689826682209969,-0.3115321099758148
-1.1590235233306885,3.3281171321868896,9.6433744430542,-1.26972234249115,0.09071081876754761,-0.40254834294319153
-1.2690932750701904,3.184248685836792,10.172487258911133,-0.9336800575256348,0.21165858209133148,-0.47951510548591614
-1.6402798891067505,3.0693931579589844,10.78295612335205,-0.5453338623046875,0.12308572232723236,-0.4489727318286896
-2.257927179336548,3.2419755458831787,10.759027481079102,-0.10178242623806,-0.1969982385635376,-0.24372805655002594
-2.3488545417785645,3.2491540908813477,10.404590606689453,0.3423798978328705,-0.41079479455947876,0.036039989441633224
-2.102393865585327,3.299403429031372,9.947562217712402,0.6368846297264099,-0.3655920922756195,0.2498365342617035
-1.8269200325012207,3.533900022506714,9.655338287353516,0.6816291809082031,-0.09620844572782516,0.39827242493629456
-1.5541383028030396,3.3879377841949463,9.28893756866455,0.4933355152606964,0.17989452183246613,0.46241137385368347
-1.4847464561462402,3.1866414546966553,9.29611587524414,0.21379654109477997,0.31000497937202454,0.40193748474121094
-1.7670994997024536,3.636791229248047,9.523733139038086,0.08086090534925461,0.2635805904865265,0.2852656841278076
-1.9489539861679077,3.902693748474121,9.870692253112793,0.035505495965480804,0.20188501477241516,0.24433889985084534
-1.8795621395111084,3.8189449310302734,10.363913536071777,0.021837789565324783,-0.006413896102458239,0.18875180184841156
-1.7383856773376465,3.7495529651641846,10.469496726989746,0.05413633957505226,-0.1707318127155304,0.08002099394798279
-1.848455548286438,3.81655216217041,9.902098655700684,0.1119377613067627,-0.04306473210453987,-0.015271181240677834
-2.4278175830841064,3.73250412940979,9.909276962280273,0.13675342500209808,0.20249587297439575,0.020157959312200546
-2.665006160736084,3.871587038040161,10.339984893798828,0.11063970625400543,0.08826743066310883,0.13866232335567474
-2.7224340438842773,4.2209391593933105,10.36630630493164,0.09139802306890488,-0.18661384284496307,0.37078428268432617
-2.626721143722534,4.352843284606934,10.349555969238281,0.11499200016260147,-0.23914669454097748,0.497229665517807
-1.1374880075454712,2.868396043777466,10.349555969238281,0.17157171666622162,-0.38575005531311035,0.42514967918395996
-1.3408780097961426,2.6386852264404297,10.095916748046875,0.1579040139913559,-0.38513919711112976,0.22601348161697388
-1.6235301494598389,2.5929224491119385,9.72951602935791,0.24670593440532684,-0.24036839604377747,0.18019993603229523
-1.9226330518722534,2.815753936767578,9.21715259552002,0.38964420557022095,-0.12430741637945175,0.31031039357185364
-2.018345832824707,2.8731818199157715,8.784051895141602,0.511966347694397,-0.026571854948997498,0.49173203110694885
-1.7886348962783813,2.7774689197540283,8.688039779663086,0.5461738109588623,-0.032069481909275055,0.5564818382263184
-1.4871392250061035,2.7415764331817627,8.439186096191406,0.49707695841789246,-0.09071081876754761,0.46729815006256104
-1.3887344598770142,2.815753936767578,8.305188179016113,0.4094967246055603,-0.08582404255867004,0.3304683566093445
-1.3073785305023193,2.9042885303497314,7.905287742614746,0.3007659316062927,-0.03512371703982353,0.2223484069108963
-1.348056435585022,2.9353952407836914,8.099106788635254,0.20570281147956848,0.14751961827278137,0.14965757727622986
-1.1662019491195679,3.090928554534912,7.855038642883301,0.03733803704380989,0.009468132629990578,0.09590301662683487
-0.9436694383621216,3.0765717029571533,7.9866437911987305,-0.1620272397994995,-0.10964708030223846,0.04214845970273018
-0.9987043738365173,3.145963668823242,8.146963119506836,-0.30435463786125183,-0.11270131915807724,-0.020157959312200546
-1.2738789319992065,3.2802608013153076,8.341080665588379,-0.3173351585865021,-0.04734066128730774,-0.029320668429136276
-1.6498512029647827,3.5458641052246094,8.386544227600098,-0.21921780705451965,-0.006413896102458239,0.03542914241552353
-1.8652052879333496,3.8500516414642334,8.96829891204834,-0.07009471952915192,-0.041232191026210785,0.1301104724407196
-1.805384635925293,4.101297855377197,9.595518112182617,0.1572931706905365,-0.13774605095386505,0.2241809368133545
-1.352842092514038,4.0319061279296875,9.926026344299316,0.5138752460479736,-0.21471281349658966,0.25777754187583923
-1.3145569562911987,4.266402721405029,10.093523979187012,0.9431481957435608,-0.38636088371276855,0.1716480851173401
-1.5254244804382324,4.635196685791016,9.794121742248535,1.449464201927185,-0.3686463236808777,0.09712471067905426
-1.3097712993621826,4.4605207443237305,8.597112655639648,1.936538577079773,0.2721324563026428,0.10323318839073181
-0.9364909529685974,3.9625144004821777,9.042476654052734,2.1110880374908447,0.7198835015296936,0.007941014133393764
-2.109572172164917,5.724529266357422,7.426424026489258,1.7563385963439941,0.10048437118530273,-0.05375456064939499
-2.370389938354492,5.858527183532715,6.401698112487793,1.2096302509307861,-0.305118203163147,0.046424392610788345
-2.001596212387085,5.860919952392578,5.075475692749023,0.5436540842056274,-0.1188097894191742,0.08185353130102158
-2.1933209896087646,5.5737810134887695,6.835097789764404,-0.4869979918003082,1.4449591636657715,0.02504473738372326
-1.7766708135604858,5.456532955169678,8.889336585998535,-0.6876612901687622,1.7742822170257568,-0.046424392610788345
-1.812563180923462,5.482853889465332,9.413662910461426,-0.6280273199081421,1.6104987859725952,-0.11545012891292572
-2.3967108726501465,5.7771711349487305,9.435198783874512,-0.3397074341773987,1.0882244110107422,-0.25472331047058105
-3.1869406700134277,5.975775241851807,9.126225471496582,-0.035352785140275955,0.846939742565155,-0.3023693859577179
-3.653541088104248,6.09332275390625,8.81515884399414,0.23120568692684174,0.768140435218811,-0.21868331730365753
-3.560220956802368,6.07896614074707,8.424829483032227,0.35230615735054016,0.5360184907913208,-0.07330167293548584
-3.153141975402832,6.0263237953186035,8.003393173217773,0.2429644912481308,0.18844637274742126,-0.009773556143045425
-3.1316065788269043,6.169893264770508,8.197212219238281,0.02680092304944992,0.09437590092420578,-0.08612946420907974
-3.361616611480713,6.064609050750732,8.723932266235352,-0.06948387622833252,0.26663482189178467,-0.10078980028629303
-3.067000389099121,5.700600624084473,9.083154678344727,-0.04153761267662048,0.4584408700466156,-0.0024433890357613564
-2.4445674419403076,5.6288161277771,9.248259544372559,0.01748550310730934,0.5280774831771851,0.004886778071522713
-2.4038894176483154,5.322235584259033,9.652945518493652,0.09139802306890488,0.30878329277038574,-0.15149012207984924
-3.213261604309082,5.583352565765381,9.049654960632324,0.07711946964263916,-0.007024743594229221,-0.1447708010673523
-2.978466033935547,5.233701229095459,8.625826835632324,0.04543176665902138,0.03390202298760414,0.02504473738372326
-2.3871397972106934,5.027918815612793,8.503792762756348,0.02557922899723053,0.12675081193447113,0.11606097966432571
-1.8604196310043335,4.872086048126221,8.633005142211914,0.05230379477143288,0.06810946762561798,0.10140064358711243
-1.810170292854309,4.781158924102783,8.582756042480469,0.1808871477842331,-0.14202198386192322,-0.017714571207761765
-2.219642162322998,4.721338272094727,7.919644832611084,0.2790044844150543,-0.4187358021736145,-0.12766708433628082
-2.6554348468780518,4.695017337799072,7.175177574157715,0.20196136832237244,-0.3765873312950134,-0.12400199472904205
-2.3871397972106934,4.525126934051514,7.079464912414551,0.008170082233846188,0.06016845628619194,-0.05864133685827255
-2.8731818199157715,4.73090934753418,7.979465484619141,-0.1626380831003189,0.12491826713085175,-0.06963659077882767
-2.6985056400299072,4.680660247802734,7.926823139190674,-0.277630090713501,-0.2886253297328949,-0.028098974376916885
-2.344068765640259,4.639982223510742,7.914859294891357,-0.21051323413848877,-0.1175880953669548,0.009773556143045425
-2.5713870525360107,4.992026329040527,7.819146156311035,-0.07009471952915192,0.24159009754657745,-0.012827792204916477
-2.9856443405151367,5.322235584259033,7.610671520233154,0.082082599401474,-0.5036435723304749,0.051922015845775604
-2.8420751094818115,5.420341491699219,6.535995006561279,0.024968381971120834,-0.671015739440918,0.09040539711713791
-2.3249263763427734,5.5259246826171875,5.5998029708862305,-0.23410721123218536,-0.6569662094116211,0.10140064358711243
-2.2172493934631348,5.386841773986816,6.104988098144531,-0.6124507188796997,-0.4468347728252411,0.0653606578707695
-2.566601276397705,5.291129112243652,7.380960464477539,-0.757832407951355,-0.2654131352901459,0.11117420345544815
-2.8181469440460205,5.343770980834961,8.582756042480469,-0.6093201637268066,-0.26602399349212646,0.24617144465446472
-2.5522444248199463,5.5331034660339355,8.640183448791504,-0.347801148891449,-0.43583953380584717,0.395218163728714
-1.8628123998641968,5.444568634033203,8.503792762756348,-0.19066070020198822,-0.36192700266838074,0.45447036623954773
-1.9250258207321167,5.5498528480529785,7.914859294891357,-0.14400723576545715,-0.34726667404174805,0.43614494800567627
-1.542174220085144,5.286343574523926,8.360222816467285,-0.09063446521759033,0.016798298805952072,0.4434750974178314
-1.5756736993789673,5.193023204803467,8.546863555908203,-0.018554486334323883,0.2910687327384949,0.4477510452270508
-1.755135416984558,5.5331034660339355,8.432007789611816,0.04359922185540199,0.3045073449611664,0.4856235682964325
-1.5996019840240479,5.700600624084473,8.290831565856934,0.03924693539738655,0.2586938142776489,0.4587462842464447
-1.4294124841690063,5.6192450523376465,8.120641708374023,0.00129805039614439,0.34787750244140625,0.37078428268432617
-1.312164068222046,5.511568069458008,8.432007789611816,-0.02664821222424507,0.504865288734436,0.33291175961494446
-1.3193426132202148,5.6359944343566895,8.611469268798828,0.03367295488715172,0.5628957748413086,0.3017585575580597
-1.3600205183029175,5.815456390380859,8.355437278747559,0.11873343586921692,0.5207473039627075,0.23028941452503204
-2.123929262161255,6.468996047973633,8.956335067749023,0.01626380905508995,0.5121954083442688,0.17225892841815948
-2.1741783618927,6.540780544281006,8.819944381713867,0.04169032722711563,0.42789849638938904,0.16553960740566254
-2.3177478313446045,6.624828815460205,8.920442581176758,0.049173206090927124,0.44011545181274414,0.13499724864959717
-2.7152554988861084,6.543173313140869,8.623434066772461,0.031153209507465363,0.4175141155719757,0.10689827054738998
-3.0311081409454346,6.303891181945801,9.39452075958252,-0.03718532621860504,0.032069481909275055,0.05741964280605316
-2.241177558898926,5.078167915344238,9.554840087890625,-0.22479179501533508,-0.45294323563575745,0.0018325417768210173
-2.0398812294006348,4.185046672821045,9.897313117980957,-0.24838577210903168,-0.28312769532203674,-0.05497625470161438
-2.672184705734253,3.9074792861938477,9.858728408813477,-0.05268557742238045,0.027793550863862038,-0.0787992998957634
-3.213261604309082,3.950550079345703,9.138189315795898,0.14423631131649017,0.024128466844558716,0.05497625470161438
-3.4525439739227295,4.156332969665527,8.156534194946289,0.2734304964542389,-0.09437590092420578,0.19058434665203094
-3.4669008255004883,4.448556423187256,7.450352191925049,0.2268534004688263,-0.29778802394866943,0.26632940769195557
-3.189333438873291,4.333701133728027,7.543672561645508,0.01252236869186163,-0.5250232219696045,0.27854636311531067
-2.384746789932251,3.9840497970581055,8.5731840133667,-0.20364120602607727,-0.6142069101333618,0.2767138183116913
-2.274677038192749,3.9385859966278076,8.137392044067383,-0.28755635023117065,-0.7052231431007385,0.2877090573310852
-1.9250258207321167,3.955335855484009,8.963513374328613,-0.2838149070739746,-0.7180509567260742,0.3133646547794342
-1.4991034269332886,3.8835511207580566,8.903693199157715,-0.31053948402404785,-0.7736380696296692,0.27060532569885254
-1.293021559715271,4.005585193634033,8.839086532592773,-0.32733777165412903,-0.591605544090271,0.16187451779842377
-1.348056435585022,3.9936211109161377,8.764909744262695,-0.2925194799900055,-0.30939415097236633,0.06963659077882767
-1.6354942321777344,4.108476638793945,8.422436714172363,-0.24464432895183563,-0.16462333500385284,0.03420744836330414
-1.9776679277420044,4.386343002319336,7.9627156257629395,-0.20616094768047333,-0.07116370648145676,0.062306419014930725
-2.147857427597046,4.702195644378662,7.666005611419678,-0.1713426560163498,0.09620844572782516,0.1435490995645523
-2.212463617324829,4.886742115020752,7.646862983703613,-0.15836215019226074,0.19394400715827942,0.23945212364196777
-1.9537396430969238,4.956133842468262,7.8382887840271,-0.1310267299413681,0.20555010437965393,0.30664533376693726
-1.5182459354400635,4.934598445892334,7.814360618591309,-0.09743013978004456,0.18050536513328552,0.29565006494522095
-1.2810574769973755,4.90827751159668,8.012965202331543,-0.07200361788272858,0.18783552944660187,0.20280128717422485
-1.3719847202301025,5.047060966491699,8.221439361572266,-0.034665580838918686,0.20005246996879578,0.07452336698770523
-1.6354942321777344,5.212165832519531,8.274081230163574,0.0032069480512291193,0.1695101112127304,-0.014660334214568138
-1.6522440910339355,5.2767720222473145,8.28126049041748,0.023059483617544174,0.12308572232723236,-0.05619794875383377
-1.5517455339431763,5.226522922515869,8.298009872436523,0.0584886260330677,0.1169772520661354,-0.07207997888326645
-1.4943177700042725,5.408377170562744,8.463114738464355,0.11873343586921692,0.11331216990947723,-0.12583453953266144
-1.4895321130752563,5.5331034660339355,8.460721969604492,0.12125317752361298,0.06994201242923737,-0.25350162386894226
-1.8388842344284058,5.56660270690918,8.803194046020508,0.04734066128730774,-0.14690876007080078,-0.34635040163993835
-1.8819550275802612,5.439783096313477,9.1716890335083,0.2193705290555954,-0.1951656937599182,-0.16431790590286255
-1.7431713342666626,5.717350482940674,9.090332984924316,0.2890070974826813,-0.1847812980413437,-0.11178504675626755
-1.3648061752319336,5.748457431793213,9.061619758605957,0.3970507085323334,-0.23425991833209991,-0.10811996459960938
-1.0657033920288086,5.707779407501221,8.870193481445312,0.43561044335365295,-0.34665581583976746,-0.2229592502117157
-1.2140583992004395,6.019145488739014,8.587541580200195,0.41942301392555237,-0.4993676245212555,-0.37261682748794556
-1.0704890489578247,5.822634696960449,8.704790115356445,0.2740413546562195,-0.8444963097572327,-0.5680879354476929
-0.4815555512905121,4.845765113830566,8.211868286132812,-0.19501298666000366,-1.4682477712631226,-0.8502993583679199
0.20817556977272034,4.268795490264893,8.173283576965332,-0.709346354007721,-1.5702592134475708,-1.0451596975326538
1.227817177772522,3.1076784133911133,7.778468132019043,-1.0175188779830933,-1.294767141342163,-1.1795459985733032
0.5312066078186035,4.139583110809326,7.5412797927856445,-1.1262496709823608,-0.8591566681861877,-1.3615785837173462
-0.009870393201708794,3.957728624343872,6.9068827629089355,-1.1312127113342285,-0.4822639226913452,-1.199093222618103
1.6253247261047363,2.1287147998809814,8.28843879699707,-1.0616525411605835,-0.12491826713085175,-1.2363548278808594
1.0555338859558105,2.7726831436157227,8.530113220214844,-0.9075663089752197,-0.3387148082256317,-1.4141877889633179
1.3453645706176758,2.446960210800171,8.398508071899414,-0.7870003581047058,-0.18783552944660187,-1.5161992311477661
0.797109067440033,2.8803603649139404,9.346664428710938,-0.6683432459831238,0.328330397605896,-1.668911099433899
-0.615553617477417,3.3113675117492676,10.725528717041016,-0.4670690894126892,0.5543438792228699,-1.6970100402832031
-1.8963119983673096,3.385545015335083,11.178071022033691,-0.22043950855731964,0.3637595474720001,-1.5528501272201538
-2.425424814224243,3.4190444946289062,10.593923568725586,-0.03840702027082443,0.06139015033841133,-1.3011046648025513
-2.3416759967803955,3.543471336364746,10.198808670043945,0.02993151545524597,-0.025961007922887802,-0.9840749502182007
-2.463710069656372,3.7277185916900635,8.803194046020508,-0.05894676223397255,0.3387148082256317,-0.08796200156211853
-2.5067808628082275,3.9601213932037354,8.688039779663086,-0.16332527995109558,0.3649812340736389,0.1453816443681717
-1.9920248985290527,3.955335855484009,8.94676399230957,-0.2546469569206238,0.324054479598999,0.28221142292022705
-1.659422516822815,3.8356947898864746,9.073583602905273,-0.24464432895183563,0.25747212767601013,0.23884128034114838
-1.6474584341049194,3.840480327606201,9.107083320617676,-0.18875180184841156,0.2623589038848877,0.16370706260204315
-1.7718851566314697,3.8524444103240967,8.97787094116211,-0.10987614840269089,0.2886253297328949,0.07207997888326645
-2.2938196659088135,4.086941242218018,8.865407943725586,0.02435753494501114,0.33199548721313477,-0.07391251623630524
-2.45413875579834,4.1491546630859375,8.812766075134277,0.05665608495473862,0.3252761662006378,-0.08918370306491852
-2.6051857471466064,4.122833251953125,8.728717803955078,0.09452861547470093,0.25563958287239075,-0.009773556143045425
-2.535494804382324,4.063013076782227,8.604290962219238,0.13056860864162445,0.22754059731960297,0.10262233763933182
-2.6386852264404297,4.208974838256836,8.360222816467285,0.12369657307863235,0.2238755226135254,0.17409147322177887
-2.624328136444092,4.247260093688965,8.592327117919922,0.04359922185540199,0.004581354558467865,0.20524467527866364
-2.456531524658203,4.163511276245117,8.764909744262695,0.018096350133419037,-0.10903623700141907,0.21196399629116058
-2.2076780796051025,3.9792640209198,9.212367057800293,0.05787777900695801,-0.29351210594177246,0.20585553348064423
-2.092822551727295,3.9529430866241455,9.274580955505371,0.21318569779396057,-0.3246653079986572,0.2113531529903412
-2.085644006729126,3.9912281036376953,8.774480819702148,0.35108447074890137,-0.12736165523529053,0.23945212364196777
-2.212463617324829,4.175475597381592,8.494221687316895,0.3262687921524048,0.032069481909275055,0.2480039894580841
-2.119143486022949,4.29033088684082,8.180462837219238,0.12560546398162842,-0.03145863488316536,0.28098973631858826
-1.8891334533691406,4.470091819763184,8.173283576965332,-0.15149012207984924,-0.10964708030223846,0.2779355049133301
-1.8245272636413574,4.706981182098389,8.805587768554688,-0.3968980014324188,-0.10964708030223846,0.21501824259757996
-2.0303099155426025,4.852943420410156,9.269794464111328,-0.46210595965385437,0.0393996499478817,0.16370706260204315
-2.2531416416168213,4.984847545623779,9.528518676757812,-0.3459686040878296,0.34848836064338684,0.1832541823387146
-2.439781904220581,5.039882659912109,9.832406997680664,-0.21234577894210815,0.509141206741333,0.21685077250003815
-2.525923490524292,4.987240791320801,10.289735794067383,-0.10735640674829483,0.3405473530292511,0.21623992919921875
-2.5283162593841553,4.419842720031738,10.553245544433594,0.26037365198135376,0.05772506445646286,0.1954711228609085
-1.6235301494598389,3.5004005432128906,11.108678817749023,0.18707197904586792,-0.07971556484699249,0.18753011524677277
-1.3695918321609497,3.244368314743042,11.3718900680542,0.07093463838100433,-0.20310671627521515,0.20219044387340546
-1.3193426132202148,2.9353952407836914,11.489137649536133,0.07902836054563522,-0.1041494607925415,0.29748260974884033
-1.4919248819351196,2.822932481765747,11.199605941772461,0.26663482189178467,0.08704573661088943,0.4062134325504303
-1.7455641031265259,2.954537868499756,10.17727279663086,0.5679352283477783,0.2843494117259979,0.5485408306121826
-1.7240287065505981,2.9377880096435547,9.583553314208984,0.7226322889328003,0.3924693763256073,0.6236750483512878
-1.6785650253295898,2.9186453819274902,9.004191398620605,0.847474217414856,0.4584408700466156,0.6786513328552246
-1.6402798891067505,2.940180778503418,8.199604988098145,0.9288696050643921,0.3643703758716583,0.6920899152755737
-1.7288143634796143,2.9832515716552734,7.83111047744751,0.784709632396698,0.03695625811815262,0.5680879354476929
-1.6977076530456543,3.0239295959472656,7.804789066314697,0.5641937851905823,-0.2501419484615326,0.3793361485004425
-1.7096717357635498,3.2635109424591064,7.795217990875244,0.3399364948272705,-0.34482327103614807,0.20585553348064423
-1.4847464561462402,3.1746773719787598,8.094321250915527,0.12247487902641296,-0.2996205687522888,0.09345962852239609
-1.2643076181411743,3.13639235496521,8.446364402770996,-0.10430216789245605,-0.35948359966278076,-0.034818295389413834
-1.1327024698257446,3.2347970008850098,8.39611530303955,-0.2931303381919861,-0.4321744441986084,-0.16676130890846252
-1.2523435354232788,3.5410783290863037,8.11824893951416,-0.422324538230896,-0.42606595158576965,-0.26999449729919434
-1.3360923528671265,3.8907296657562256,7.677969455718994,-0.5273138880729675,-0.3808632791042328,-0.33718767762184143
-1.592423439025879,3.9768712520599365,6.722635269165039,-0.7062921524047852,-0.39796698093414307,-0.34757208824157715
-1.8293129205703735,4.0558342933654785,5.652445316314697,-1.1274713277816772,-0.38819342851638794,-0.3365768492221832
-1.9010975360870361,3.902693748474121,5.532804012298584,-1.7076998949050903,-0.37231141328811646,-0.3268032968044281
-1.5014961957931519,3.5171501636505127,7.1249284744262695,-2.2078311443328857,-0.5928272604942322,-0.27915719151496887
-0.5318048596382141,3.009572744369507,8.635397911071777,-2.4029204845428467,-0.9752176403999329,-0.32008397579193115
-0.5557330846786499,2.5522444248199463,8.089534759521484,-2.463165283203125,-1.2342932224273682,-0.5723638534545898
-0.5365904569625854,2.3560330867767334,10.153345108032227,-2.4619436264038086,-1.1958098411560059,-0.8674030900001526
-0.986740231513977,1.9752750396728516,9.930811882019043,-2.314042091369629,-1.4438138008117676,-1.0518789291381836
-1.1805589199066162,1.9058831930160522,10.476675033569336,-1.996019721031189,-1.1634349822998047,-1.1202938556671143
-1.3959128856658936,1.7216359376907349,11.45803165435791,-1.6592901945114136,-0.9874345660209656,-0.9517000317573547
-1.20687997341156,1.2667005062103271,12.257832527160645,-1.3679161071777344,-0.8573241233825684,-0.624285876750946
-1.2044870853424072,0.9771689176559448,12.274581909179688,-1.0926530361175537,-0.7730271816253662,-0.32252734899520874
-0.9699904918670654,0.8380861282348633,12.051750183105469,-0.7907418012619019,-0.545181155204773,0.009773556143045425
-0.7447660565376282,0.6825526356697083,12.3009033203125,-0.4086568057537079,-0.3032856583595276,0.29687178134918213
-0.7878368496894836,0.5916253924369812,12.19801139831543,0.03176405653357506,-0.19883078336715698,0.46485477685928345
-0.8644071817398071,0.6514459848403931,12.250653266906738,0.24670593440532684,-0.16523417830467224,0.5241069197654724
-0.7399803996086121,0.5533402562141418,12.51865005493164,0.6636092066764832,-0.20188501477241516,0.6285618543624878
0.4905286431312561,0.6705885529518127,9.945169448852539,1.3593642711639404,-0.15179555118083954,0.8955020904541016
0.5168496966362,-0.5312066078186035,10.553245544433594,1.5469707250595093,0.42484426498413086,1.0024003982543945
1.9199410676956177,-1.5080764293670654,11.304890632629395,1.375551700592041,-0.04550812020897865,0.28282228112220764
0.22971096634864807,1.8340985774993896,10.189236640930176,1.264301061630249,-0.41201648116111755,-0.5021164417266846
-0.10319047421216965,2.710469961166382,10.107880592346191,1.1984822750091553,0.08887827396392822,-0.448361873626709
0.7010970115661621,2.126322031021118,9.916455268859863,0.9449806809425354,0.6563553810119629,-0.3396310806274414
1.1751750707626343,1.3671990633010864,10.261021614074707,0.5958815217018127,1.0130901336669922,-0.47951510548591614
0.8712865710258484,1.1159526109695435,10.581958770751953,0.241742804646492,1.184738278388977,-0.7220214605331421
-0.033798620104789734,1.3767703771591187,10.54845905303955,0.09697200357913971,1.5500248670578003,-0.8069292306900024
-0.13908281922340393,1.5948163270950317,10.646565437316895,0.1882936656475067,1.8640767335891724,-0.578472375869751
0.38763725757598877,2.29860520362854,12.19801139831543,0.40453359484672546,1.7015913724899292,-0.29687178134918213
-0.22043879330158234,1.2714861631393433,10.100702285766602,0.8518264889717102,0.7656970620155334,-0.18630841374397278
-0.5557330846786499,2.4900310039520264,9.538089752197266,1.0195804834365845,0.3246653079986572,-0.4727957844734192
-0.9484550952911377,2.4349961280822754,8.817551612854004,1.2357439994812012,0.4034646153450012,-0.5949652194976807
-1.3193426132202148,2.071287155151367,7.912466049194336,1.2127609252929688,0.6142069101333618,-0.624285876750946
-1.511067509651184,2.0039889812469482,7.77607536315918,0.9891144037246704,0.6215370893478394,-0.4434750974178314
-1.4174482822418213,2.2938196659088135,8.178069114685059,0.6636092066764832,0.39796698093414307,-0.3023693859577179
-1.1135598421096802,2.3201406002044678,8.525327682495117,0.5095229744911194,0.28129515051841736,-0.2522799074649811
-0.5940182209014893,2.181356906890869,9.808479309082031,0.35169529914855957,0.12552911043167114,-0.23945212364196777
-0.5748756527900696,2.2004995346069336,10.435697555541992,0.37597647309303284,0.06139015033841133,-0.25411245226860046
-1.0274182558059692,2.5043880939483643,10.751849174499512,0.6468108892440796,0.07238540053367615,-0.24372805655002594
-1.3265210390090942,2.6985056400299072,10.656136512756348,0.8393805027008057,0.1328592747449875,-0.2089097648859024
-1.5996019840240479,2.9353952407836914,10.5723876953125,1.0220237970352173,0.1579040139913559,-0.15271180868148804
-1.7455641031265259,3.4692938327789307,9.533304214477539,1.232613444328308,0.06872031837701797,-0.03420744836330414
-1.7024933099746704,4.084548473358154,8.910871505737305,1.2599488496780396,-0.1450762301683426,-0.013438640162348747
-1.3911272287368774,4.498805522918701,7.99382209777832,1.275525450706482,-0.19272230565547943,-0.06291726976633072
-1.474876046180725,5.0015974044799805,7.007380962371826,1.2059651613235474,-0.04489727318286896,-0.12216944992542267
-1.7575281858444214,5.269593715667725,6.760920524597168,0.9928558468818665,0.22570806741714478,-0.11117420345544815
-1.9417755603790283,4.994419097900391,7.177570819854736,0.8008971214294434,0.2910687327384949,-0.05803048983216286
-1.7359927892684937,4.869693279266357,7.677969455718994,0.7306496500968933,0.09865183383226395,0.034818295389413834
-1.7096717357635498,5.106881618499756,7.443173885345459,0.7313368916511536,-0.29717719554901123,-0.029320668429136276
-1.7383856773376465,5.2384867668151855,7.2732834815979,0.7424848675727844,-0.4089622497558594,-0.042759306728839874
-1.5541383028030396,5.269593715667725,7.134500026702881,0.7785248160362244,-0.381474107503891,-0.05864133685827255
-1.8340985774993896,6.069394588470459,7.752147197723389,0.7866185307502747,-0.21837788820266724,-0.08063183724880219
-1.664208173751831,5.841777324676514,6.988238334655762,0.785320520401001,-0.25625041127204895,-0.018936265259981155
-1.810170292854309,6.514459609985352,6.873383045196533,0.621995210647583,-0.25380703806877136,-0.06841489672660828
-1.5182459354400635,5.9901323318481445,7.39771032333374,0.3852919042110443,-0.2770192325115204,-0.07269082218408585
-1.7958134412765503,5.896812438964844,7.634599685668945,0.21318569779396057,-0.2648022770881653,-0.05131116881966591
-1.9680966138839722,6.000002861022949,7.795217990875244,0.1355317384004593,-0.004581354558467865,0.0659715011715889
-1.8508483171463013,5.9422760009765625,7.9244303703308105,0.10636378079652786,0.23914669454097748,0.17592400312423706
-1.8963119983673096,5.8489556312561035,8.508578300476074,0.047951508313417435,0.2617480456829071,0.2095206081867218
-2.501995086669922,6.299105644226074,8.819944381713867,0.09765920788049698,0.23425991833209991,0.2718270421028137
-2.281855583190918,6.07896614074707,8.546863555908203,0.23800136148929596,0.28373855352401733,0.3555130958557129
-1.8245272636413574,5.616852283477783,8.060821533203125,0.19951798021793365,0.23914669454097748,0.2779355049133301
-2.0207388401031494,5.456532955169678,8.314759254455566,-0.07009471952915192,0.12430741637945175,0.12766708433628082
-2.1454646587371826,4.884349346160889,9.291330337524414,-0.2546469569206238,0.18600298464298248,0.09773556143045425
-2.6554348468780518,4.884349346160889,10.000204086303711,-0.12163496017456055,0.28251686692237854,0.16004198789596558
-2.4421746730804443,4.994419097900391,9.351449966430664,0.09765920788049698,0.07299624383449554,0.30725616216659546
-2.068894386291504,5.140381336212158,8.365009307861328,0.305118203163147,0.011911521665751934,0.38483378291130066
-1.963310956954956,5.298307418823242,7.548458099365234,0.42690587043762207,0.16095824539661407,0.3915531039237976
-2.394318103790283,5.338985443115234,7.340282440185547,0.5206709504127502,0.30939415097236633,0.3671191930770874
-2.535494804382324,5.169095039367676,7.0648088455200195,0.5200600624084473,-0.18905723094940186,0.42637139558792114
-2.2722842693328857,4.953741073608398,6.279664039611816,0.42690587043762207,-0.45355409383773804,0.48806697130203247
-2.36081862449646,5.0087761878967285,6.200700759887695,0.19142426550388336,-0.34909921884536743,0.6187883019447327
-1.6187444925308228,4.8915276527404785,5.563910961151123,-0.06635328382253647,-0.02229592576622963,0.7769976854324341
-0.9747761487960815,4.838586330413818,5.156831741333008,-0.4733302593231201,0.3784198760986328,0.6627692580223083
-1.1781660318374634,4.965705394744873,5.4418768882751465,-1.0094250440597534,0.8292251825332642,0.26877278089523315
-1.8987047672271729,5.209773063659668,7.330711364746094,-1.3821946382522583,1.1419789791107178,-0.07696675509214401
-2.3273191452026367,4.944169998168945,7.560422420501709,-1.43312406539917,1.0711206197738647,-0.15393351018428802
-2.415853500366211,5.087738990783691,7.718647480010986,-1.392731785774231,1.157250165939331,-0.07330167293548584
-2.679363250732422,5.473282814025879,9.119047164916992,-1.252313256263733,1.3209571838378906,-0.06719319522380829
-2.923431158065796,5.480461120605469,10.36630630493164,-0.8354863524436951,1.0234745740890503,-0.18814095854759216
-2.9066812992095947,5.1188459396362305,9.772586822509766,-0.31863319873809814,0.32344362139701843,-0.17592400312423706
-2.8420751094818115,5.161916732788086,8.542078018188477,-0.045889899134635925,-0.0522274412214756,-0.13499724864959717
-3.0454649925231934,5.193023204803467,7.965108394622803,0.020616095513105392,0.15484978258609772,-0.1820324808359146
-3.3041889667510986,5.0087761878967285,7.8454670906066895,-0.05459447205066681,0.3136700689792633,-0.21257483959197998
-3.275475025177002,4.762016296386719,8.087141990661621,-0.19066070020198822,0.25380703806877136,-0.17470231652259827
-3.306581735610962,4.936991214752197,8.906085968017578,-0.24159009754657745,0.2348707765340805,-0.11911521852016449
-3.5721850395202637,5.271986484527588,9.712766647338867,0.00259610079228878,0.047951508313417435,-0.11972606182098389
-3.6272199153900146,5.248058319091797,9.205188751220703,0.22066856920719147,-0.16767756640911102,-0.10628741979598999
-3.6966118812561035,5.671886920928955,8.115856170654297,0.1050657257437706,0.1316375881433487,-0.01038440316915512
-4.067798614501953,5.982954025268555,8.30997371673584,0.10697462409734726,0.059557609260082245,0.02504473738372326
-3.8572301864624023,6.169893264770508,8.077570915222168,0.1274380087852478,-0.14018943905830383,0.11606097966432571
-3.1941192150115967,6.181857109069824,7.833503246307373,0.1056765764951706,-0.20066332817077637,0.1582094430923462
-2.9377880096435547,6.320641040802002,8.079963684082031,0.08086090534925461,0.05100574716925621,0.13621893525123596
-2.7774689197540283,6.251249313354492,8.623434066772461,0.15599511563777924,0.04489727318286896,0.08246438205242157
-2.789433002471924,6.083751678466797,8.451150894165039,0.25479966402053833,-0.28373855352401733,-0.024433890357613564
-2.6913273334503174,5.774778366088867,8.072785377502441,0.23616881668567657,-0.5659499764442444,-0.1178935244679451
-2.789433002471924,5.83938455581665,7.926823139190674,0.09017632901668549,-0.46699273586273193,-0.2095206081867218
-2.5139594078063965,5.499603748321533,8.965906143188477,-0.0036650835536420345,0.03145863488316536,-0.29442837834358215
-2.813361167907715,5.506782054901123,9.820443153381348,0.11254860460758209,0.1316375881433487,-0.40010493993759155
-3.182155132293701,5.451747417449951,9.844371795654297,0.31260108947753906,-0.38697174191474915,-0.44042086601257324
-3.2635109424591064,5.2145586013793945,9.49501895904541,0.35169529914855957,-0.7864658236503601,-0.45385950803756714
-3.11246395111084,4.9704909324646,8.455936431884766,0.3324536085128784,-1.141444444656372,-0.45019441843032837
-1.932204246520996,4.623232364654541,7.021738052368164,-0.07009471952915192,-1.503066062927246,-0.26755109429359436
-1.2092727422714233,4.680660247802734,6.973881721496582,-0.42362257838249207,-0.9336800575256348,-0.3255815804004669
-1.1805589199066162,4.271188259124756,7.843074321746826,-0.6920135617256165,-0.5488462448120117,-0.33718767762184143
-1.1901301145553589,4.2592244148254395,8.221439361572266,-0.8299123644828796,-0.29412296414375305,-0.31886225938796997
-0.8045865893363953,3.7950167655944824,8.920442581176758,-0.753480076789856,0.06261184066534042,-0.27060532569885254
-1.139880895614624,3.502793312072754,9.212367057800293,-0.502498209476471,0.3264978528022766,-0.2724378705024719
-1.4365909099578857,3.5147573947906494,9.40169906616211,-0.3832302987575531,0.3552076816558838,-0.25411245226860046
-1.5637096166610718,3.4381871223449707,9.40169906616211,-0.23662695288658142,0.17867282032966614,-0.1948602795600891
-1.0680961608886719,3.447758436203003,8.723932266235352,-0.19867807626724243,-0.24525517225265503,-0.22906772792339325
-1.3001999855041504,3.5769708156585693,8.180462837219238,-0.29503923654556274,-0.38513919711112976,-0.3426853120326996
-1.7886348962783813,4.120440483093262,8.034500122070312,-0.5037199258804321,-0.41140562295913696,-0.3817795515060425
-1.9154545068740845,4.256831645965576,8.343473434448242,-0.6926244497299194,-0.275186687707901,-0.26694026589393616
-1.9250258207321167,4.299902439117432,8.865407943725586,-0.7019398808479309,-0.14141114056110382,-0.14049486815929413
-1.9561325311660767,4.403092861175537,9.05444049835205,-0.5845044851303101,-0.059557609260082245,-0.023212196305394173
-1.781456470489502,4.477270126342773,9.06401252746582,-0.422324538230896,-0.016187451779842377,0.1044548824429512
-1.4847464561462402,4.4605207443237305,9.20997428894043,-0.26335152983665466,-0.015576604753732681,0.20096874237060547
-1.0393823385238647,4.340879440307617,8.8438720703125,-0.06704048812389374,0.02473931387066841,0.1973036676645279
-1.0322039127349854,4.182653903961182,8.656932830810547,0.1343100368976593,0.18600298464298248,0.10384403169155121
-1.537388563156128,4.261617183685303,8.499007225036621,0.2486148327589035,0.17317520081996918,0.0030542362947016954
-1.7694923877716064,4.252045631408691,8.12542724609375,0.25976279377937317,0.06322269141674042,-0.01588202826678753
-1.8460626602172852,4.256831645965576,7.742575645446777,0.19951798021793365,0.0791047215461731,0.022601349279284477
-2.1382861137390137,4.446163654327393,7.823931694030762,0.09139802306890488,0.19944162666797638,0.10750912129878998
-2.344068765640259,4.632803916931152,8.65214729309082,0.13362284004688263,0.24708771705627441,0.1979145109653473
-2.0039889812469482,4.563411712646484,8.496614456176758,0.17836740612983704,0.09620844572782516,0.261442631483078
-1.6259230375289917,4.805087089538574,8.460721969604492,0.12560546398162842,-0.011911521665751934,0.2602209448814392
-1.4724832773208618,4.738088130950928,8.628219604492188,0.001985253533348441,0.04489727318286896,0.18753011524677277
-1.8604196310043335,4.874777793884277,9.183652877807617,0.01435491070151329,0.05772506445646286,0.16676130890846252
-2.0497517585754395,5.121238708496094,9.61226749420166,0.21257483959197998,0.03268032893538475,0.22540263831615448
-1.7718851566314697,5.197809219360352,9.425627708435059,0.3796415627002716,0.049173206090927124,0.24067382514476776
-1.6450655460357666,5.216951370239258,9.238688468933105,0.42812758684158325,0.1572931706905365,0.24250635504722595
-1.688136339187622,5.3078789710998535,9.226723670959473,0.4249969720840454,0.21776704490184784,0.24311721324920654
-1.9010975360870361,5.466104030609131,9.274580955505371,0.38964420557022095,0.30939415097236633,0.22784602642059326
-2.2555344104766846,5.600102424621582,9.411270141601562,0.30633988976478577,0.2867927849292755,0.19302773475646973
-2.4110679626464844,5.633601665496826,9.533304214477539,0.2423536479473114,0.2605263590812683,0.1832541823387146
-2.8875386714935303,5.817849159240723,9.786943435668945,0.11934428662061691,0.28496024012565613,0.20463383197784424
-2.5522444248199463,5.070989608764648,9.985847473144531,0.10010259598493576,0.4077405333518982,0.2858765125274658
-2.1311075687408447,4.3121657371521,9.904491424560547,0.1056765764951706,0.4963133931159973,0.30847787857055664
-2.2459630966186523,4.041477680206299,10.560423851013184,0.1585148572921753,0.38636088371276855,0.29748260974884033
-2.3895325660705566,3.8668015003204346,10.414162635803223,0.31504446268081665,-0.15973655879497528,0.1973036676645279
-2.549851655960083,3.94815731048584,9.516554832458496,0.5194492340087891,-0.29839888215065,0.17409147322177887
-2.9928228855133057,4.292723655700684,8.542078018188477,0.7636354565620422,0.022906772792339325,0.3506263196468353
-3.1244282722473145,4.494019985198975,7.895716667175293,1.0127084255218506,0.4596625566482544,0.6047387719154358
-2.8803603649139404,4.594518661499023,7.7353973388671875,1.149996280670166,0.34543412923812866,0.7006418108940125
-2.665006160736084,4.802694320678711,7.450352191925049,1.0350806713104248,-0.2886253297328949,0.5809157490730286
-2.370389938354492,4.565804481506348,6.806384086608887,0.8399913311004639,-0.5421269536018372,0.3762819170951843
-2.8348965644836426,4.553840637207031,6.777669906616211,0.7269846200942993,-0.08093725889921188,0.2376195788383484
-3.07417893409729,4.582554340362549,6.4375901222229,0.5461738109588623,0.33321717381477356,0.3567348122596741
-2.820539712905884,4.520340919494629,6.411269187927246,0.16469968855381012,0.4871506989002228,0.5515950918197632
-2.3344976902008057,4.422235488891602,6.155237197875977,-0.3167243003845215,0.47859883308410645,0.6505523324012756
-2.758326292037964,5.157131195068359,7.215855598449707,-1.411973476409912,1.3258439302444458,0.33413344621658325
-3.6008989810943604,5.473282814025879,8.726325035095215,-1.32935631275177,1.3313416242599487,0.32252734899520874
-3.426223039627075,5.43499755859375,9.162117958068848,-0.9181034564971924,0.9446752667427063,0.4575245976448059
-2.830111026763916,5.49721097946167,8.546863555908203,-0.5783196687698364,0.5757235288619995,0.5326588153839111
-2.0425732135772705,5.0327043533325195,9.51894760131836,-0.35772743821144104,0.34421244263648987,0.34512871503829956
-2.6602206230163574,5.145166873931885,9.1716890335083,-0.025350160896778107,0.11209046840667725,0.0006108472589403391
-3.2802608013153076,5.027918815612793,8.841479301452637,0.19081340730190277,0.13896775245666504,-0.038483377546072006
-3.643969774246216,5.271986484527588,8.207082748413086,0.2516690790653229,0.16706672310829163,0.012827792204916477
-3.3281171321868896,5.087738990783691,8.463114738464355,0.2038702666759491,0.1713426560163498,0.0036650835536420345
-3.1268210411071777,5.047060966491699,8.858229637145996,0.2187596708536148,-0.016187451779842377,-0.04031591862440109
-3.033500909805298,5.255236625671387,8.522934913635254,0.2852656841278076,-0.3399364948272705,-0.09773556143045425
-3.3329029083251953,5.446961879730225,7.8287177085876465,0.2641150951385498,-0.6655181050300598,-0.12216944992542267
-3.2012975215911865,5.480461120605469,8.336295127868652,0.10262233763933182,-0.8212841153144836,-0.023212196305394173
-3.07417893409729,5.262415409088135,8.242975234985352,0.05535803362727165,-0.8713735938072205,0.04337015375494957
-2.5450658798217773,5.389235019683838,8.882157325744629,0.0584886260330677,-0.7779139876365662,0.04703523963689804
-2.312962293624878,5.676672458648682,8.649754524230957,0.1274380087852478,-0.6239804625511169,-0.06719319522380829
-2.2722842693328857,5.903990745544434,8.587541580200195,0.01626380905508995,-0.5861079692840576,-0.13438639044761658
-2.0665013790130615,5.868098258972168,8.920442581176758,-0.15836215019226074,-0.5354076027870178,-0.17836740612983704
-2.29142689704895,6.119643688201904,8.577970504760742,-0.4117874205112457,-0.5958815217018127,-0.14171656966209412
-1.8556339740753174,5.750850200653076,9.241081237792969,-0.5354076027870178,-0.2764083743095398,0.055587101727724075
-2.0207388401031494,5.927918910980225,9.841979026794434,-0.3222982883453369,0.008246437646448612,0.11606097966432571
-1.3456636667251587,5.216951370239258,9.75105094909668,-0.04527905210852623,0.05344913527369499,0.09834641218185425
-1.0680961608886719,4.6423749923706055,9.456734657287598,0.09575030952692032,-0.15912571549415588,-0.08185353130102158
-1.0393823385238647,4.582554340362549,9.09272575378418,0.12125317752361298,-0.3252761662006378,-0.1453816443681717
-0.9317052960395813,4.65433931350708,8.719146728515625,0.19142426550388336,-0.2782409191131592,-0.04581354558467865
-0.49591249227523804,4.630411148071289,8.465507507324219,0.28961795568466187,-0.16401249170303345,0.10934165865182877
-0.012263216078281403,4.577768802642822,8.276473999023438,0.2964136302471161,-0.15240639448165894,0.12155860662460327
0.27756741642951965,4.505984306335449,8.168498039245605,0.21318569779396057,-0.1841704547405243,-0.04947862774133682
0.014057832770049572,4.498805522918701,7.95553731918335,0.12247487902641296,-0.1572931706905365,-0.2919849753379822
-0.5581258535385132,4.623232364654541,7.756932735443115,0.035505495965480804,-0.05894676223397255,-0.43858832120895386
-0.9122636318206787,4.623232364654541,7.464709281921387,-0.11919157207012177,-0.010078979656100273,-0.4587462842464447
-1.1470593214035034,4.740480899810791,7.613064289093018,-0.2695363461971283,0.06749862432479858,-0.3897205591201782
-0.9146564602851868,4.647160530090332,7.847859859466553,-0.35589489340782166,-0.06261184066534042,-0.3781144618988037
-0.7782655358314514,4.620839595794678,7.881359577178955,-0.44103172421455383,-0.11575555801391602,-0.4679090082645416
-1.108774185180664,4.494019985198975,7.972286701202393,-0.5273138880729675,-0.016187451779842377,-0.5754181146621704
-1.7623138427734375,4.561018943786621,8.329116821289062,-0.5416688323020935,-0.00030542362947016954,-0.6358919739723206
-2.0593230724334717,4.699802875518799,8.321938514709473,-0.4739411175251007,-0.12003148347139359,-0.5522059202194214
-1.841277003288269,4.709373950958252,8.12542724609375,-0.42423340678215027,-0.3155026137828827,-0.42392799258232117
-1.4485549926757812,4.824229717254639,7.814360618591309,-0.4298073947429657,-0.2745758295059204,-0.2993151545524597
-1.407876968383789,4.635196685791016,8.060821533203125,-0.4416425824165344,-0.1041494607925415,-0.21746163070201874
-1.7718851566314697,4.663910388946533,8.293224334716797,-0.3820086121559143,0.018019994720816612,-0.1435490995645523
-2.29142689704895,4.927420139312744,8.563612937927246,-0.217308908700943,0.16523417830467224,-0.007941014133393764
-2.3656044006347656,4.946562767028809,8.604290962219238,-0.03718532621860504,0.26663482189178467,0.20035789906978607
-2.265105724334717,4.829015254974365,8.271688461303711,0.08643488585948944,0.2770192325115204,0.3927747905254364
-2.401496648788452,5.078167915344238,8.53729248046875,0.19264595210552216,0.3289412558078766,0.5216635465621948
-2.0880367755889893,5.149952411651611,8.144570350646973,0.16095824539661407,0.10109522193670273,0.5302154421806335
-1.7288143634796143,4.980062007904053,8.259724617004395,0.04543176665902138,-0.051616594195365906,0.41354358196258545
-1.7096717357635498,5.013561725616455,8.477471351623535,-0.09804098308086395,-0.03390202298760414,0.265718549489975
-1.7479569911956787,5.152345180511475,8.673683166503906,-0.17264071106910706,0.11025793105363846,0.21990501880645752
-1.755135416984558,5.365306377410889,8.743074417114258,-0.1328592747449875,0.32100024819374084,0.24433889985084534
-1.6187444925308228,5.353342533111572,9.48066234588623,-0.033443886786699295,0.34421244263648987,0.2492256760597229
-1.4318052530288696,5.5259246826171875,9.389735221862793,0.01748550310730934,0.1169772520661354,0.1582094430923462
-1.3815559148788452,5.427519798278809,9.339486122131348,0.011911521665751934,0.08948912471532822,0.012216945178806782
-1.6522440910339355,5.271986484527588,9.478269577026367,-0.06016845628619194,0.07727217674255371,-0.10873081535100937
-2.0207388401031494,5.19541597366333,9.691230773925781,-0.194325789809227,0.02229592576622963,-0.14110571146011353
-2.3201406002044678,5.365306377410889,9.818050384521484,-0.3161134421825409,0.03023693896830082,-0.05008947476744652
-2.8277182579040527,5.882455348968506,9.961918830871582,-0.3533751368522644,0.168899267911911,0.16492876410484314
-2.250748872756958,5.252843856811523,10.512567520141602,-0.3167243003845215,0.15179555118083954,0.41048935055732727
-1.3265210390090942,4.292723655700684,10.687243461608887,-0.31237202882766724,-0.12125317752361298,0.3689517378807068
-1.0034899711608887,3.612863063812256,10.495817184448242,-0.31863319873809814,-0.24525517225265503,0.15149012207984924
-1.6211373805999756,3.3041889667510986,10.203594207763672,-0.2148655205965042,-0.05894676223397255,-0.06719319522380829
-2.4972095489501953,3.4070804119110107,9.60508918762207,-0.0036650835536420345,0.15362808108329773,-0.07757759839296341
-3.129213809967041,3.6032917499542236,9.461520195007324,0.371013343334198,0.33627140522003174,0.14660334587097168
-2.820539712905884,3.5554354190826416,8.546863555908203,0.7070556879043579,0.19333316385746002,0.42514967918395996
-2.102393865585327,3.5769708156585693,6.567101955413818,0.4921138286590576,0.3558185398578644,0.1582094430923462
-2.6001009941101074,3.7567315101623535,7.507780075073242,0.36101073026657104,0.532353401184082,0.11361759155988693
-2.549851655960083,3.6008989810943604,8.372187614440918,0.23494713008403778,0.22876229882240295,0.09407047927379608
-2.42303204536438,3.5554354190826416,8.803194046020508,0.1796654462814331,0.008246437646448612,0.08246438205242157
-1.719243049621582,3.4429726600646973,9.011369705200195,0.16905197501182556,-0.23975755274295807,0.08674030750989914
-1.3217353820800781,3.5458641052246094,8.925228118896484,0.2796916961669922,-0.058335911482572556,0.04703523963689804
-1.8293129205703735,3.9840497970581055,8.491828918457031,0.47348299622535706,0.35765108466148376,-0.004275931045413017
-2.377568483352661,4.357629299163818,7.979465484619141,0.6232169270515442,0.6844543814659119,0.02870982140302658
-2.703291416168213,4.601696968078613,7.898109436035156,0.5616740584373474,0.638029932975769,0.13621893525123596
-2.6841487884521484,4.73090934753418,7.445566654205322,0.35856732726097107,0.30572906136512756,0.2095206081867218
-2.597707986831665,4.932205677032471,6.9930243492126465,0.1814979910850525,0.14874130487442017,0.2339545041322708
-2.923431158065796,5.183452129364014,7.060023307800293,0.06467345356941223,0.28373855352401733,0.2596100866794586
-3.1316065788269043,5.379663467407227,7.337889671325684,0.04230117425322533,0.5268557667732239,0.237008735537529
-2.6626133918762207,5.1667022705078125,7.476673603057861,0.07650861889123917,0.6844543814659119,0.20402298867702484
-2.580958366394043,5.236093997955322,7.632206916809082,0.06467345356941223,0.611152708530426,0.11972606182098389
-2.978466033935547,5.590530872344971,7.666005611419678,0.04046862944960594,0.37597647309303284,-0.008551862090826035
-3.057429075241089,5.6431732177734375,7.596314430236816,0.015652960166335106,0.33321717381477356,-0.08674030750989914
-2.995215654373169,5.588138103485107,7.249355316162109,-0.04527905210852623,0.41384902596473694,-0.1948602795600891
-2.767897605895996,5.451747417449951,7.306783199310303,-0.21982865035533905,0.46454933285713196,-0.25350162386894226
-3.25872540473938,5.631208896636963,7.984251022338867,-0.42484426498413086,0.430341899394989,-0.3512371778488159
-3.4429726600646973,5.631208896636963,8.508578300476074,-0.45653197169303894,0.4291202127933502,-0.3805578351020813
-3.691826343536377,5.5498528480529785,9.016156196594238,-0.2782409191131592,0.4083513915538788,-0.3432961702346802
-3.893122434616089,5.647958755493164,8.913264274597168,-0.13721156120300293,0.3796415627002716,-0.2877090573310852
-4.297808647155762,6.067001819610596,9.018548965454102,0.13866232335567474,0.11331216990947723,-0.13805148005485535
-4.4605207443237305,6.323033809661865,7.945965766906738,0.2510582208633423,-0.5341859459877014,0.0012216945178806782
-4.515555381774902,6.346961975097656,7.5101728439331055,0.11438114941120148,-0.4999784827232361,0.15149012207984924
-4.364807605743408,6.208178520202637,8.460721969604492,-0.09498675167560577,-0.1181989461183548,0.25289076566696167
-3.5243287086486816,5.674279689788818,9.600303649902344,-0.2235700935125351,-0.12491826713085175,0.27976804971694946
-2.916252613067627,5.437390327453613,10.57956600189209,-0.16393613815307617,-0.47798797488212585,0.18997350335121155
-2.312962293624878,4.929812908172607,10.522138595581055,0.008170082233846188,-1.0870790481567383,-0.05070032179355621
-2.025524377822876,4.616054058074951,9.478269577026367,-0.007330167107284069,-1.608131766319275,-0.30725616216659546
-1.597209095954895,4.185046672821045,7.474280834197998,-0.21364383399486542,-1.4786320924758911,-0.4172086715698242
-1.5756736993789673,3.996013879776001,6.93320369720459,-0.5658736228942871,-0.583053708076477,-0.33413344621658325
-2.035095691680908,3.972085475921631,6.605386734008789,-1.222534418106079,-0.05100574716925621,-0.01038440316915512
-2.1311075687408447,3.81655216217041,8.671290397644043,-1.5169627666473389,0.5512896776199341,0.40132665634155273
-2.035095691680908,3.751945972442627,10.976775169372559,-1.1548067331314087,0.7510367035865784,0.5131117105484009
-1.3983057737350464,3.4214372634887695,11.36949634552002,-0.4832565486431122,0.44255882501602173,0.4324798583984375
-0.7854440212249756,3.035893678665161,10.92173957824707,0.126216322183609,0.07482878863811493,0.20463383197784424
-0.8380861282348633,3.153141975402832,9.413662910461426,0.4243861436843872,-0.24281178414821625,-0.0794101431965828
-1.2427722215652466,3.6272199153900146,8.329116821289062,0.4039227366447449,-0.2892361879348755,-0.21623992919921875
-1.477268934249878,4.041477680206299,7.699504852294922,0.2044811248779297,-0.1695101112127304,-0.21868331730365753
-1.470090389251709,4.278367042541504,7.548458099365234,-0.017332790419459343,0.06994201242923737,-0.1710372269153595
-1.474876046180725,4.362414836883545,7.639684677124023,-0.11667182296514511,0.16645587980747223,-0.15210096538066864
-1.5158531665802002,4.604089736938477,8.044071197509766,-0.24403348565101624,0.22631891071796417,-0.12094775587320328
-1.2810574769973755,4.59212589263916,8.199604988098145,-0.24159009754657745,0.1957765519618988,-0.10078980028629303
-1.230808138847351,4.572983264923096,8.161319732666016,-0.20677179098129272,0.18905723094940186,-0.10201149433851242
-1.4006985425949097,4.494019985198975,8.221439361572266,-0.1328592747449875,0.20066332817077637,-0.11606097966432571
-1.4796617031097412,4.431806564331055,8.216653823852539,-0.10369132459163666,0.19027891755104065,-0.1178935244679451
-1.7575281858444214,4.364807605743408,8.55882740020752,-0.0005344913806766272,0.16401249170303345,-0.12583453953266144
-1.932204246520996,4.443770885467529,8.52054214477539,0.05726693198084831,0.057114217430353165,-0.12644538283348083
-1.9776679277420044,4.376771926879883,8.20947551727295,0.08521319180727005,-0.037567105144262314,-0.07696675509214401
-1.9537396430969238,4.443770885467529,8.247760772705078,0.07773031294345856,-0.005803049076348543,-0.029320668429136276
-1.8771693706512451,4.489234447479248,8.417651176452637,0.10758547484874725,0.07299624383449554,0.007941014133393764
-2.1933209896087646,4.613661289215088,8.709575653076172,0.19829629361629486,0.025350160896778107,0.04703523963689804
-2.4445674419403076,4.925027370452881,8.956335067749023,0.3007659316062927,-0.1585148572921753,0.12583453953266144
-2.092822551727295,4.7931227684021,8.757431983947754,0.33558422327041626,-0.3020639717578888,0.1973036676645279
-1.8436698913574219,4.762016296386719,8.680861473083496,0.3268796503543854,-0.19027891755104065,0.22601348161697388
-1.4318052530288696,4.628017902374268,8.678468704223633,0.27717193961143494,0.11209046840667725,0.19302773475646973
-1.7599210739135742,4.821836948394775,8.918049812316895,0.2026485800743103,0.37353309988975525,0.14110571146011353
-2.2794625759124756,5.0566325187683105,9.107083320617676,0.19142426550388336,0.6209262609481812,0.13377554714679718
-2.4828526973724365,5.054239749908447,9.298508644104004,0.2199813723564148,0.670404851436615,0.15026842057704926
-2.679363250732422,5.1188459396362305,9.293723106384277,0.2492256760597229,0.6264238357543945,0.17897824943065643
-3.13639235496521,5.56660270690918,9.712766647338867,0.3262687921524048,0.30572906136512756,0.2473931461572647
-2.8803603649139404,5.834599018096924,8.941978454589844,0.31321191787719727,-0.3820849657058716,0.2235700935125351
-2.5211377143859863,5.937490463256836,8.951549530029297,0.21631628274917603,-0.2880144715309143,0.13988402485847473
-2.535494804382324,5.293521881103516,9.468698501586914,0.11499200016260147,-0.20616094768047333,-0.013438640162348747
-2.494816780090332,4.773980140686035,9.947562217712402,-0.014202198944985867,-0.5983248949050903,-0.05070032179355621
-2.0303099155426025,4.01037073135376,10.234700202941895,0.01748550310730934,-0.9581139087677002,-0.10934165865182877
-2.6315066814422607,4.137190341949463,9.985847473144531,0.2585411071777344,-1.071807861328125,-0.20096874237060547
-2.9760732650756836,4.338486671447754,9.662516593933105,0.6424586176872253,-0.9984298348426819,-0.034818295389413834
-3.3496525287628174,4.601696968078613,8.443971633911133,1.0580638647079468,-0.7669187188148499,0.3042019307613373
-2.3321046829223633,4.1659040451049805,7.558029651641846,1.4041087627410889,-0.47859883308410645,0.6120689511299133
-1.542174220085144,3.9457645416259766,7.208677291870117,1.4488533735275269,-0.3949127495288849,0.6810947060585022
-1.657029628753662,4.379164695739746,6.442375659942627,1.01706063747406,-0.7650861740112305,0.5528167486190796
-1.4270195960998535,4.41266393661499,6.016453266143799,0.352993369102478,-0.878703773021698,0.3915531039237976
-1.257129192352295,4.357629299163818,6.10259485244751,0.07773031294345856,-0.698503851890564,0.3164188861846924
-1.0082756280899048,4.211368083953857,6.377769470214844,-0.1477486789226532,-0.41507071256637573,0.25411245226860046
-1.2116655111312866,4.4150567054748535,7.230212688446045,-0.5136461853981018,0.16340164840221405,0.18997350335121155
-1.5038890838623047,4.505984306335449,8.695218086242676,-0.7584432363510132,0.3802524209022522,0.18630841374397278
-1.4270195960998535,4.431806564331055,9.30329418182373,-0.7330167293548584,0.39796698093414307,0.19180603325366974
-1.226022481918335,4.6423749923706055,8.934800148010254,-0.5105919241905212,0.6270347237586975,0.18875180184841156
-1.2451651096343994,4.805087089538574,8.798408508300781,-0.3975088596343994,0.846939742565155,0.17225892841815948
-1.836491346359253,5.384449005126953,8.970691680908203,-0.23410721123218536,1.1755754947662354,0.10750912129878998
-2.243570327758789,5.609673500061035,9.023334503173828,-0.07444700598716736,1.109604001045227,0.0781884491443634
-1.963310956954956,5.463711261749268,8.532505989074707,0.08460234850645065,0.5745018720626831,0.1563768982887268
-1.7647067308425903,5.513960838317871,8.345866203308105,0.1516428291797638,0.3643703758716583,0.14110571146011353
-1.714457392692566,5.480461120605469,8.228617668151855,0.2026485800743103,0.32283276319503784,0.09590301662683487
-1.7479569911956787,5.523531913757324,7.989036560058594,0.3163425326347351,0.30695074796676636,-0.018936265259981155
-1.657029628753662,5.341378211975098,7.8287177085876465,0.33741676807403564,-0.12552911043167114,-0.1966928243637085
-1.9776679277420044,5.511568069458008,7.742575645446777,0.33497336506843567,-0.24342262744903564,-0.26755109429359436
-2.188535451889038,5.755635738372803,7.71386194229126,0.36039987206459045,-0.16156910359859467,-0.265718549489975
