accX,accY,accZ,gyroX,gyroY,gyroZ
0.7250983119010925,8.154000282287598,5.2825093269348145,-0.24061109125614166,0.4269249737262726,-0.4024380147457123
0.6985897421836853,7.9538445472717285,5.603935718536377,-0.22570598125457764,0.33536502718925476,-0.3481408357620239
0.29797276854515076,7.860154628753662,4.9812703132629395,-0.21825341880321503,0.22570598125457764,-0.3225892186164856
-0.0919564962387085,7.451311111450195,4.780789852142334,-0.24380503594875336,0.07878416031599045,-0.23635248839855194
-0.21176233887672424,7.428249835968018,5.327232837677002,-0.24699899554252625,-0.009581857360899448,-0.12030554562807083
0.009710881859064102,7.5289692878723145,6.137966632843018,-0.1437278687953949,0.004258603323251009,-0.048973940312862396
0.2745000123977661,7.675264835357666,6.330125331878662,0.05216789245605469,-0.013840461149811745,-0.015969762578606606
0.6123889088630676,7.856888771057129,5.988578796386719,0.19908970594406128,-0.070266954600811,0.004258603323251009
1.1210993528366089,8.077893257141113,5.4173126220703125,0.08197811245918274,-0.0734609067440033,0.0010646508308127522
0.5876328945159912,8.224724769592285,5.25818395614624,0.019163714721798897,-0.03726277872920036,0.010646508075296879
0.6346166729927063,8.07749080657959,5.548361301422119,0.02874557301402092,-0.06387905031442642,0.03619812801480293
0.6167559027671814,8.09166431427002,5.72871208190918,0.047909289598464966,-0.043650683015584946,0.05429719388484955
0.9560143351554871,8.2449312210083,5.853449821472168,0.1298874020576477,-0.05110324174165726,0.040456730872392654
1.0755903720855713,8.307104110717773,5.584648132324219,0.1852492392063141,-0.015969762578606606,0.0074525559321045876
0.879821240901947,8.262313842773438,5.0771918296813965,0.13201670348644257,-0.03406882658600807,-0.009581857360899448
0.9720937609672546,8.271919250488281,5.112156867980957,0.05536184459924698,-0.0010646508308127522,-0.013840461149811745
0.8230882287025452,8.168508529663086,5.128006458282471,0.012775810435414314,0.041521381586790085,0.005323254037648439
0.8798116445541382,8.252640724182129,5.155683517456055,0.0074525559321045876,0.010646508075296879,0.004258603323251009
0.9393793940544128,8.260455131530762,5.245763301849365,0.06281439960002899,-0.043650683015584946,-0.010646508075296879
0.9072875380516052,8.266555786132812,5.181789875030518,0.08836601674556732,-0.044715333729982376,-0.02768092229962349
0.830021858215332,8.293054580688477,5.183973789215088,0.0734609067440033,-0.02342231757938862,-0.02981022372841835
0.9413905143737793,8.247976303100586,5.278372287750244,0.02768092229962349,0.021293016150593758,-0.038327429443597794
0.8455841541290283,8.249403953552246,5.540211200714111,0.05429719388484955,0.07771950960159302,-0.041521381586790085
0.6711522340774536,8.11892032623291,5.811857223510742,0.15650367736816406,0.07239625602960587,-0.03193952515721321
0.737701416015625,8.259047508239746,5.16017484664917,0.22889992594718933,0.07133160531520844,-0.014905111864209175
0.5790807604789734,8.31794548034668,4.548877716064453,0.14585717022418976,0.02555162087082863,-0.03619812801480293
0.7221391201019287,8.425607681274414,5.033550262451172,0.03193952515721321,0.02874557301402092,-0.05323254317045212
0.5743498802185059,8.341925621032715,5.309774398803711,0.020228365436196327,0.06920230388641357,-0.06068509817123413
0.3693965971469879,8.303157806396484,5.214427947998047,0.05429719388484955,0.03619812801480293,-0.015969762578606606
0.7304805517196655,8.35385799407959,5.265922546386719,0.10965903848409653,-0.010646508075296879,0.02768092229962349
1.0106308460235596,8.550383567810059,5.059321880340576,0.11817624419927597,-0.01171115878969431,-0.005323254037648439
0.7987440228462219,8.427159309387207,5.0943922996521,0.08517206460237503,-0.042586032301187515,-0.0351334773004055
0.6114407777786255,8.210895538330078,5.034891128540039,0.021293016150593758,-0.01171115878969431,-0.041521381586790085
0.5288408398628235,8.293131828308105,5.195541858673096,0.0074525559321045876,-0.0074525559321045876,-0.02342231757938862
0.6150320768356323,8.381122589111328,5.336522579193115,0.015969762578606606,-0.0021293016616255045,0.0021293016616255045
0.8847532868385315,8.447270393371582,5.3132123947143555,0.08091346174478531,0.03300417587161064,0.005323254037648439
0.8085506558418274,8.299625396728516,4.862039566040039,0.10752973705530167,0.04684463515877724,-0.005323254037648439
0.6997677087783813,8.414977073669434,4.761463642120361,0.09368927031755447,0.012775810435414314,-0.015969762578606606
0.3652019798755646,8.29368782043457,4.803161144256592,0.048973940312862396,-0.11604694277048111,-0.02342231757938862
0.9254547357559204,8.408751487731934,5.213537216186523,0.045779984444379807,-0.07771950960159302,-0.005323254037648439
0.5924404263496399,8.269170761108398,5.0046281814575195,0.048973940312862396,-0.07452555745840073,0.020228365436196327
0.7062703371047974,8.307985305786133,5.0612945556640625,0.08091346174478531,-0.16395622491836548,0.05216789245605469
0.5371343493461609,8.374773025512695,4.931251049041748,0.09368927031755447,-0.19802506268024445,0.06600835174322128
0.773844301700592,8.352603912353516,4.510896682739258,0.015969762578606606,-0.24486969411373138,0.06707300245761871
1.108898401260376,8.810576438903809,4.934287071228027,-0.06068509817123413,-0.20121900737285614,0.06494370102882385
1.4977742433547974,8.58413314819336,5.85634183883667,0.0351334773004055,-0.20867156982421875,0.0010646508308127522
1.3232369422912598,8.571423530578613,5.356949806213379,0.08943066745996475,-0.11391764134168625,-0.0021293016616255045
1.1705539226531982,8.482876777648926,3.8091557025909424,0.06600835174322128,-0.10114183276891708,-0.020228365436196327
0.8574594259262085,8.386725425720215,4.869011402130127,-0.10965903848409653,0.10327113419771194,-0.018099064007401466
0.6788328289985657,8.408963203430176,5.375184059143066,-0.14798647165298462,0.16076228022575378,-0.005323254037648439
0.5690634250640869,8.185699462890625,5.557717800140381,-0.02768092229962349,0.07771950960159302,0.03193952515721321
1.208027958869934,8.511367797851562,4.966829299926758,-0.009581857360899448,0.02555162087082863,0.009581857360899448
1.1535359621047974,8.539609909057617,4.826940536499023,-0.06387905031442642,0.07133160531520844,-0.0031939526088535786
1.0572123527526855,8.527371406555176,5.4212965965271,-0.0947539210319519,0.12882275879383087,-0.008517206646502018
1.1680256128311157,8.689946174621582,5.828310489654541,0.03300417587161064,0.2001543641090393,-0.044715333729982376
0.785748302936554,8.529094696044922,5.090628623962402,0.13201670348644257,0.1298874020576477,-0.06387905031442642
0.4921042323112488,8.401800155639648,4.369178771972656,0.04684463515877724,0.11391764134168625,-0.05536184459924698
0.558452308177948,8.397518157958984,4.561174392700195,-0.05216789245605469,0.02981022372841835,-0.019163714721798897
0.5998337268829346,8.385509490966797,4.967623710632324,-0.05323254317045212,0.019163714721798897,-0.010646508075296879
0.6253271698951721,8.286054611206055,5.015862464904785,-0.03087487444281578,0.06068509817123413,-0.014905111864209175
0.7803948521614075,8.376066207885742,4.888730049133301,-0.06068509817123413,0.11285299062728882,-0.024486970156431198
1.1097412109375,8.609175682067871,4.975582122802734,-0.09688322991132736,0.1054004356265068,-0.06281439960002899
0.47998955845832825,8.291580200195312,4.924288749694824,-0.0734609067440033,0.09688322991132736,-0.07665485888719559
0.2428007870912552,8.174178123474121,5.126857280731201,-0.09581857919692993,0.039392080157995224,-0.047909289598464966
0.20444567501544952,8.11913013458252,5.3469319343566895,-0.07984881103038788,0.08197811245918274,-0.010646508075296879
0.25866955518722534,8.098760604858398,5.357734680175781,-0.05536184459924698,0.08623671531677246,0.01171115878969431
0.45550164580345154,8.28496265411377,5.402018070220947,-0.0021293016616255045,0.08197811245918274,0.02555162087082863
0.788257360458374,8.379016876220703,5.0505781173706055,0.008517206646502018,0.02555162087082863,0.010646508075296879
0.8169973492622375,8.431841850280762,4.918015956878662,-0.006387905217707157,-0.02555162087082863,-0.009581857360899448
0.5688623189926147,8.323460578918457,5.164867877960205,-0.014905111864209175,-0.03406882658600807,-0.0031939526088535786
0.5751447081565857,8.30332088470459,5.337939739227295,0.010646508075296879,-0.020228365436196327,0.012775810435414314
0.7079846262931824,8.352028846740723,5.2105393409729,0.05429719388484955,0.008517206646502018,0.008517206646502018
0.8146798014640808,8.440011024475098,5.151469707489014,0.07665485888719559,0.010646508075296879,-0.004258603323251009
0.7833253145217896,8.350650787353516,4.663397312164307,0.07452555745840073,-0.015969762578606606,-0.03300417587161064
0.6567678451538086,8.223125457763672,4.368288040161133,-0.06387905031442642,-0.13414600491523743,-0.021293016150593758
0.8097189664840698,8.384742736816406,5.167041301727295,-0.19802506268024445,0.09581857919692993,-0.038327429443597794
0.5884181261062622,8.30599308013916,5.802922248840332,-0.08623671531677246,0.08730136603116989,-0.022357666864991188
0.6217741966247559,8.296636581420898,4.7621917724609375,-0.03087487444281578,-0.0734609067440033,-0.0031939526088535786
0.8564921021461487,8.442031860351562,5.06770133972168,-0.1330813616514206,0.044715333729982376,-0.018099064007401466
0.7972404360771179,8.437081336975098,5.73431396484375,-0.09581857919692993,0.12349949777126312,-0.02661627158522606
0.5872689485549927,8.407105445861816,4.985254764556885,-0.05429719388484955,0.05536184459924698,-0.07665485888719559
0.48253700137138367,8.28697395324707,5.059043884277344,-0.0351334773004055,0.02555162087082863,-0.038327429443597794
0.3950624465942383,8.318979263305664,5.005471229553223,-0.05429719388484955,0.044715333729982376,-0.021293016150593758
0.6198396682739258,8.296359062194824,5.312637805938721,-0.10433578491210938,0.14479251205921173,-0.019163714721798897
0.6543353199958801,8.379437446594238,5.578537940979004,-0.0596204474568367,0.11391764134168625,-0.013840461149811745
0.6477369070053101,8.32458209991455,5.521268367767334,-0.02342231757938862,0.09262461960315704,-0.020228365436196327
0.43499770760536194,8.297823905944824,5.195638179779053,-0.015969762578606606,0.048973940312862396,-0.008517206646502018
0.5133360028266907,8.414786338806152,5.20204496383667,-0.019163714721798897,0.05642649531364441,-0.014905111864209175
0.26756641268730164,8.199594497680664,5.032209873199463,-0.05429719388484955,0.17673203349113464,0.013840461149811745
0.331826776266098,8.264507293701172,5.223717212677002,-0.06813765317201614,0.21931807696819305,0.020228365436196327
0.3754970133304596,8.416787147521973,5.26486873626709,-0.0734609067440033,0.09155996888875961,-0.0010646508308127522
0.3872286081314087,8.243926048278809,5.5748982429504395,-0.06174974888563156,0.09262461960315704,0.015969762578606606
0.3719823360443115,8.250189781188965,5.614546775817871,-0.017034413293004036,0.0947539210319519,0.013840461149811745
0.12626062333583832,8.153932571411133,5.509709358215332,0.03087487444281578,0.03087487444281578,0.0021293016616255045
0.3417675197124481,8.2015962600708,5.482913494110107,0.06920230388641357,-0.0010646508308127522,0.01171115878969431
0.2337602823972702,8.193580627441406,5.325921058654785,0.10114183276891708,-0.05110324174165726,0.021293016150593758
0.3394499123096466,8.210780143737793,5.015536785125732,0.11178833991289139,-0.12562879920005798,0.08304276317358017
0.36765363812446594,8.124752044677734,4.829315662384033,0.042586032301187515,-0.10327113419771194,0.0947539210319519
0.5053489208221436,8.175442695617676,4.830215930938721,-0.017034413293004036,-0.06920230388641357,0.07559020817279816
0.4510580003261566,8.17150592803955,5.516767501831055,-0.013840461149811745,-0.08304276317358017,0.0841074138879776
0.740612804889679,8.359757423400879,5.706014633178711,0.08517206460237503,-0.0841074138879776,0.08304276317358017
0.8896661996841431,8.515084266662598,5.505064487457275,0.15330971777439117,-0.070266954600811,0.0734609067440033
0.8355764150619507,8.483624458312988,4.867900371551514,0.14266321063041687,-0.06600835174322128,0.03619812801480293
0.519149124622345,8.366403579711914,4.521536350250244,0.02661627158522606,-0.06068509817123413,0.05110324174165726
0.6154918074607849,8.423558235168457,5.0188212394714355,-0.05323254317045212,-0.03087487444281578,0.05536184459924698
0.8642780780792236,8.462535858154297,5.553791522979736,0.0074525559321045876,0.0,0.0351334773004055
0.8297058343887329,8.510687828063965,5.284396171569824,0.08517206460237503,-0.02768092229962349,0.006387905217707157
0.7403829097747803,8.446551322937012,5.096757411956787,0.08730136603116989,-0.03087487444281578,0.005323254037648439
0.6099851131439209,8.364622116088867,4.960709571838379,0.048973940312862396,-0.07452555745840073,0.009581857360899448
0.5245025753974915,8.283851623535156,5.086223125457764,0.02661627158522606,-0.08091346174478531,0.02981022372841835
0.3977726697921753,8.223211288452148,4.873790264129639,0.010646508075296879,-0.07559020817279816,0.05536184459924698
0.5943653583526611,8.288238525390625,5.00945520401001,-0.02768092229962349,-0.05642649531364441,0.08304276317358017
0.8290067315101624,8.380462646484375,5.23644495010376,-0.02555162087082863,-0.0596204474568367,0.08304276317358017
0.8511674404144287,8.326056480407715,5.3472676277160645,0.024486970156431198,-0.05749114602804184,0.06068509817123413
0.6664308309555054,8.350228309631348,5.126023769378662,0.044715333729982376,-0.12137019634246826,0.07559020817279816
0.5471516847610474,8.278124809265137,4.968657970428467,0.05003859102725983,-0.15863297879695892,0.08304276317358017
0.8331438302993774,8.397968292236328,4.8013129234313965,0.017034413293004036,-0.21293017268180847,0.0947539210319519
1.1638119220733643,8.555986404418945,5.257034778594971,0.012775810435414314,-0.15543901920318604,0.05003859102725983
1.0310391187667847,8.565783500671387,5.221916675567627,0.038327429443597794,-0.08091346174478531,0.024486970156431198
1.0360668897628784,8.499712944030762,5.077603816986084,0.05003859102725983,-0.048973940312862396,0.010646508075296879
0.8554482460021973,8.4061279296875,5.04706335067749,0.020228365436196327,-0.06174974888563156,0.012775810435414314
1.0454233884811401,8.426536560058594,5.450352191925049,0.03406882658600807,-0.045779984444379807,-0.0031939526088535786
0.980387270450592,8.401397705078125,4.958535194396973,0.05110324174165726,-0.03619812801480293,-0.017034413293004036
0.8764310479164124,8.496772766113281,3.7905001640319824,-0.08623671531677246,-0.2416757345199585,-0.019163714721798897
1.304246187210083,8.484504699707031,5.204793453216553,-0.12562879920005798,-0.03726277872920036,-0.03193952515721321
0.8444445133209229,8.236628532409668,5.784276485443115,-0.06600835174322128,0.12349949777126312,-0.039392080157995224
0.7978150844573975,8.443449020385742,5.733232021331787,0.03193952515721321,0.11285299062728882,-0.03619812801480293
0.6164782047271729,8.302372932434082,4.7046732902526855,0.021293016150593758,0.0074525559321045876,-0.018099064007401466
0.7878168225288391,8.427638053894043,4.731383323669434,-0.03300417587161064,-0.013840461149811745,-0.022357666864991188
1.0082749128341675,8.500900268554688,5.271007537841797,-0.06174974888563156,0.024486970156431198,-0.03619812801480293
1.0536307096481323,8.554645538330078,5.3182878494262695,-0.038327429443597794,0.038327429443597794,-0.05110324174165726
1.0839699506759644,8.537809371948242,5.3470377922058105,0.020228365436196327,0.08197811245918274,-0.07133160531520844
0.981919527053833,8.548286437988281,5.0485382080078125,0.03087487444281578,0.10965903848409653,-0.09581857919692993
0.7816685438156128,8.493967056274414,5.052464962005615,0.012775810435414314,0.09368927031755447,-0.09368927031755447
0.9541851282119751,8.576480865478516,5.188589572906494,0.008517206646502018,0.1054004356265068,-0.0734609067440033
0.8585511445999146,8.471548080444336,5.201470375061035,-0.006387905217707157,0.18418459594249725,-0.10220648348331451
0.3784083425998688,8.223977088928223,4.816502094268799,-0.008517206646502018,0.2597748041152954,-0.09688322991132736
0.3365289866924286,8.179914474487305,4.783117294311523,-0.02874557301402092,0.22357667982578278,-0.020228365436196327
2.908313512802124,7.4499897956848145,3.6657333374023438,-0.2139948159456253,0.019163714721798897,-0.07559020817279816
0.2082955539226532,8.689266204833984,6.589005947113037,0.05536184459924698,0.1927018016576767,-0.32791244983673096
-0.6343964338302612,8.60330581665039,5.203394889831543,0.13733996450901031,0.18844319880008698,-0.22144737839698792
-0.13426682353019714,8.17021369934082,4.5832109451293945,0.11391764134168625,0.09049531817436218,-0.08197811245918274
0.4885416626930237,8.420828819274902,4.814480781555176,0.0010646508308127522,0.12243484705686569,-0.0351334773004055
0.4930427670478821,8.30720043182373,4.980179309844971,-0.047909289598464966,0.15224507451057434,-0.03726277872920036
0.3094649314880371,8.401656150817871,5.465981483459473,-0.06387905031442642,0.13414600491523743,-0.0351334773004055
0.2690316438674927,8.407842636108398,5.5117011070251465,0.013840461149811745,0.045779984444379807,-0.013840461149811745
0.27073633670806885,8.475934028625488,4.988740921020508,0.020228365436196327,0.038327429443597794,0.018099064007401466
0.5326715707778931,8.472907066345215,4.871769428253174,-0.02768092229962349,0.07239625602960587,0.014905111864209175
0.692230761051178,8.514777183532715,5.0103936195373535,-0.06387905031442642,0.15224507451057434,-0.022357666864991188
0.42797791957855225,8.388861656188965,5.0887227058410645,-0.07771950960159302,0.22251202166080475,-0.0351334773004055
0.0560338981449604,8.28549861907959,5.1217145919799805,-0.07133160531520844,0.1298874020576477,0.0074525559321045876
0.2738966643810272,8.319668769836426,5.371429920196533,-0.06494370102882385,0.11711159348487854,0.041521381586790085
0.20847751200199127,8.248235702514648,5.603811264038086,-0.015969762578606606,0.0947539210319519,0.022357666864991188
0.13335703313350677,8.251472473144531,5.205511569976807,0.038327429443597794,0.06600835174322128,0.014905111864209175
0.17921078205108643,8.317533493041992,5.05308723449707,0.02342231757938862,-0.022357666864991188,0.03193952515721321
0.2618873715400696,8.355476379394531,5.052435874938965,0.0021293016616255045,-0.07452555745840073,0.02342231757938862
0.27651113271713257,8.359048843383789,5.328439235687256,-0.0031939526088535786,-0.03726277872920036,0.02342231757938862
0.09221507608890533,8.23780632019043,5.398704528808594,0.018099064007401466,0.024486970156431198,0.03087487444281578
0.16203956305980682,8.351492881774902,5.339873790740967,0.05110324174165726,-0.010646508075296879,0.045779984444379807
0.2568882703781128,8.378289222717285,5.219091892242432,0.06068509817123413,-0.05216789245605469,0.03193952515721321
0.2588036060333252,8.334628105163574,5.159562110900879,0.06174974888563156,-0.07133160531520844,0.02874557301402092
0.24413195252418518,8.344243049621582,5.00734806060791,0.06920230388641357,-0.07239625602960587,0.038327429443597794
0.4337623119354248,8.392979621887207,5.030189037322998,0.042586032301187515,-0.03619812801480293,0.03406882658600807
0.38613682985305786,8.377877235412598,5.004417896270752,0.02555162087082863,-0.017034413293004036,0.02555162087082863
0.31549832224845886,8.280787467956543,5.33731746673584,0.013840461149811745,0.004258603323251009,0.03406882658600807
0.29671820998191833,8.301003456115723,5.2019782066345215,0.042586032301187515,0.012775810435414314,0.02874557301402092
0.3045616149902344,8.339128494262695,4.958688259124756,0.03726277872920036,-0.012775810435414314,0.022357666864991188
0.4024174213409424,8.409566879272461,4.99163293838501,0.013840461149811745,-0.03406882658600807,0.009581857360899448
0.3967287838459015,8.39991283416748,5.171418190002441,0.022357666864991188,-0.018099064007401466,-0.0021293016616255045
0.29105833172798157,8.462295532226562,5.290620803833008,0.04684463515877724,0.017034413293004036,0.015969762578606606
0.4147619307041168,8.523014068603516,4.9813761711120605,0.07878416031599045,-0.01171115878969431,0.009581857360899448
0.3426198363304138,8.551485061645508,4.892627716064453,0.0596204474568367,-0.02981022372841835,-0.006387905217707157
0.2387785166501999,8.4425687789917,5.057549953460693,0.045779984444379807,-0.006387905217707157,0.0021293016616255045
0.28776389360427856,8.471518516540527,5.00228214263916,0.042586032301187515,-0.10220648348331451,0.012775810435414314
0.4467388987541199,8.515438079833984,5.146480083465576,0.015969762578606606,0.02555162087082863,0.010646508075296879
0.5030505061149597,8.521883010864258,5.283400058746338,0.02874557301402092,0.06813765317201614,0.005323254037648439
0.4376121759414673,8.415331840515137,5.299958229064941,0.05536184459924698,0.13946926593780518,0.014905111864209175
0.4011054039001465,8.477302551269531,4.7333269119262695,0.0596204474568367,0.0841074138879776,0.0010646508308127522
0.22733424603939056,8.317427635192871,5.3010687828063965,0.018099064007401466,0.12137019634246826,0.024486970156431198
0.4259285032749176,8.501044273376465,5.33920431137085,0.12030554562807083,0.14479251205921173,0.022357666864991188
0.43960416316986084,8.416097640991211,5.395151138305664,0.1575683206319809,0.18737854063510895,0.010646508075296879
0.4449096918106079,8.453897476196289,5.003756999969482,0.1788613349199295,0.2065422683954239,0.009581857360899448
0.37000951170921326,8.376803398132324,4.938165664672852,0.21612411737442017,0.19483110308647156,0.01171115878969431
0.32838869094848633,8.376229286193848,4.695460319519043,0.2065422683954239,0.19163715839385986,0.0074525559321045876
0.19315461814403534,8.446284294128418,4.800862789154053,0.14266321063041687,0.16927948594093323,0.018099064007401466
0.1420527845621109,8.4071626663208,4.892972469329834,0.13095206022262573,0.17034412920475006,0.0351334773004055
0.3233991861343384,8.524057388305664,5.058450222015381,0.15650367736816406,0.18418459594249725,0.05323254317045212
0.3932715654373169,8.520302772521973,4.982027530670166,0.16927948594093323,0.19376645982265472,0.04684463515877724
0.3206506371498108,8.563111305236816,4.699942588806152,0.19057250022888184,0.16608552634716034,0.02874557301402092
0.1866232305765152,8.572017669677734,4.515646457672119,0.16076228022575378,0.17353808879852295,0.019163714721798897
0.36944448947906494,8.688433647155762,4.542988300323486,0.14798647165298462,0.18631389737129211,0.004258603323251009
0.25083571672439575,8.715755462646484,4.850221633911133,0.1469218134880066,0.21186551451683044,-0.004258603323251009
0.28778305649757385,8.793634414672852,4.93149995803833,0.15543901920318604,0.2310292273759842,-0.015969762578606606
0.04639962688088417,8.758172035217285,4.836201190948486,0.15330971777439117,0.27148595452308655,-0.009581857360899448
0.14947481453418732,8.767327308654785,4.969443321228027,0.16715018451213837,0.3076840937137604,-0.02874557301402092
0.31218475103378296,8.642781257629395,4.732762336730957,0.2108008712530136,0.3321710526943207,-0.07239625602960587
-0.4547642469406128,8.657462120056152,3.772409439086914,0.19589576125144958,0.2736152708530426,-0.05003859102725983
0.0063685765489935875,8.806056022644043,4.0353312492370605,-0.1085943877696991,-0.07878416031599045,0.010646508075296879
0.10522037744522095,8.795531272888184,5.095005035400391,-0.0021293016616255045,-0.1756673902273178,-0.02981022372841835
-0.2335304468870163,8.469268798828125,4.164608478546143,-0.022357666864991188,-0.19163715839385986,-0.041521381586790085
-0.019230227917432785,8.673426628112793,4.221513748168945,-0.1469218134880066,-0.2278352826833725,-0.02342231757938862
0.02687252126634121,8.65235710144043,4.774421215057373,-0.17353808879852295,-0.20228366553783417,-0.008517206646502018
0.274940550327301,8.742523193359375,5.009857654571533,-0.126693457365036,-0.2108008712530136,0.009581857360899448
0.2251315712928772,8.662077903747559,5.055807113647461,-0.06068509817123413,-0.12030554562807083,0.010646508075296879
0.08223603665828705,8.651371002197266,4.847865581512451,-0.03619812801480293,-0.07771950960159302,0.019163714721798897
0.07540777325630188,8.689362525939941,4.664709568023682,-0.02555162087082863,-0.06281439960002899,0.009581857360899448
0.028854919597506523,8.584870338439941,4.65052604675293,0.0074525559321045876,-0.07771950960159302,-0.0031939526088535786
0.0663481131196022,8.636899948120117,4.406863212585449,0.0,-0.11178833991289139,-0.012775810435414314
0.24867136776447296,8.614806175231934,4.732627868652344,-0.009581857360899448,-0.07452555745840073,-0.020228365436196327
0.22652021050453186,8.638633728027344,4.710476875305176,0.006387905217707157,-0.05536184459924698,-0.010646508075296879
0.20525971055030823,8.63782024383545,4.606463432312012,0.021293016150593758,-0.03406882658600807,-0.022357666864991188
0.0752449706196785,8.549560546875,4.319082736968994,0.009581857360899448,-0.05749114602804184,-0.022357666864991188
0.06963296234607697,8.490978240966797,4.481294631958008,-0.03726277872920036,-0.08623671531677246,-0.010646508075296879
0.06555324792861938,8.539409637451172,4.508980751037598,-0.02874557301402092,-0.16289158165454865,-0.0021293016616255045
-0.0019919758196920156,8.544723510742188,4.599931716918945,-0.038327429443597794,-0.21825341880321503,0.012775810435414314
-0.03159388527274132,8.499923706054688,4.742520809173584,-0.006387905217707157,-0.28639107942581177,0.05536184459924698
0.2927534282207489,8.610440254211426,4.928569316864014,0.06387905031442642,-0.3162012994289398,0.06920230388641357
0.5793967843055725,8.683233261108398,4.829775333404541,0.09901253134012222,-0.23315852880477905,0.041521381586790085
0.6506482362747192,8.775083541870117,4.708216667175293,0.09049531817436218,-0.1682148277759552,0.017034413293004036
0.35310643911361694,8.678866386413574,4.597719669342041,0.0841074138879776,-0.1650208830833435,0.018099064007401466
0.35315433144569397,8.794046401977539,4.704089164733887,0.10114183276891708,-0.2842617630958557,0.06068509817123413
0.4597442150115967,8.6683988571167,4.569066047668457,0.09688322991132736,-0.19589576125144958,0.05323254317045212
0.5963669419288635,8.705652236938477,4.5563764572143555,0.08623671531677246,-0.17034412920475006,0.048973940312862396
0.5593047142028809,8.729738235473633,4.23888635635376,0.03087487444281578,-0.11178833991289139,0.0351334773004055
0.5907931923866272,8.791297912597656,4.228974342346191,-0.0351334773004055,-0.05216789245605469,0.014905111864209175
0.36277902126312256,8.65759563446045,4.360090255737305,-0.05003859102725983,-0.05110324174165726,0.024486970156431198
0.5191587209701538,8.738855361938477,4.83611536026001,-0.018099064007401466,-0.09155996888875961,0.013840461149811745
0.4783136248588562,8.68761920928955,4.671164035797119,0.02981022372841835,-0.09688322991132736,0.03406882658600807
0.5191778540611267,8.668647766113281,4.569965839385986,0.03619812801480293,-0.10433578491210938,0.039392080157995224
0.3644932508468628,8.610421180725098,4.4858622550964355,0.010646508075296879,-0.10752973705530167,0.06387905031442642
0.7052839398384094,8.756064414978027,4.543534278869629,-0.0021293016616255045,-0.09688322991132736,0.04684463515877724
0.6638163328170776,8.706877708435059,4.423938751220703,-0.009581857360899448,-0.08623671531677246,0.044715333729982376
0.7874050140380859,8.864109992980957,4.603877544403076,-0.015969762578606606,-0.09155996888875961,0.039392080157995224
0.7228094935417175,8.785599708557129,4.718301296234131,-0.005323254037648439,-0.08197811245918274,0.03406882658600807
0.7161344885826111,8.763429641723633,4.611414432525635,0.0010646508308127522,-0.06920230388641357,0.03406882658600807
0.6868293881416321,8.697234153747559,4.543591499328613,0.0010646508308127522,-0.05110324174165726,0.0351334773004055
0.6949889063835144,8.738739967346191,4.525893688201904,0.01171115878969431,-0.05216789245605469,0.02661627158522606
0.6510792374610901,8.711207389831543,4.500572204589844,-0.008517206646502018,-0.039392080157995224,0.017034413293004036
0.5818963646888733,8.681758880615234,4.714633464813232,0.0,-0.03726277872920036,0.021293016150593758
0.7731260657310486,8.771224975585938,4.499768257141113,0.03300417587161064,-0.06281439960002899,0.009581857360899448
0.8153789043426514,8.754493713378906,4.595698833465576,0.03619812801480293,-0.0351334773004055,-0.0031939526088535786
0.5926319360733032,8.672382354736328,4.262617588043213,0.03406882658600807,-0.038327429443597794,-0.008517206646502018
0.7176571488380432,8.83072566986084,3.3308229446411133,-0.05003859102725983,-0.24380503594875336,-0.0010646508308127522
0.8855769038200378,8.725390434265137,4.837274074554443,-0.11498229205608368,-0.02768092229962349,-0.02555162087082863
0.6268307566642761,8.651179313659668,5.3103203773498535,-0.03193952515721321,0.08517206460237503,-0.02342231757938862
0.5381208062171936,8.673905372619629,4.630951404571533,0.024486970156431198,0.0351334773004055,-0.005323254037648439
0.6895779967308044,8.68979263305664,4.276149272918701,-0.05216789245605469,-0.0074525559321045876,-0.0031939526088535786
0.7814961671829224,8.72459602355957,4.545496940612793,-0.08517206460237503,0.038327429443597794,-0.017034413293004036
0.6224541664123535,8.728943824768066,4.914884090423584,-0.05323254317045212,0.07239625602960587,-0.03300417587161064
0.6833434700965881,8.787524223327637,4.937016010284424,-0.01171115878969431,0.06707300245761871,-0.02661627158522606
0.718203067779541,8.735024452209473,4.738010406494141,0.05216789245605469,0.07452555745840073,-0.03300417587161064
0.6344538331031799,8.736010551452637,4.218592643737793,0.038327429443597794,0.040456730872392654,-0.02661627158522606
0.6980055570602417,8.777392387390137,4.275651454925537,-0.0031939526088535786,-0.03193952515721321,-0.02874557301402092
0.7169580459594727,8.73548412322998,4.423498630523682,-0.019163714721798897,-0.017034413293004036,-0.02874557301402092
0.6628873944282532,8.711350440979004,4.699549674987793,-0.012775810435414314,0.042586032301187515,-0.021293016150593758
0.6760459542274475,8.689276695251465,4.714824676513672,0.0351334773004055,0.06068509817123413,-0.012775810435414314
0.6365320682525635,8.709493637084961,4.527464389801025,0.05323254317045212,0.03193952515721321,-0.02874557301402092
0.5609901547431946,8.685819625854492,4.328362464904785,0.018099064007401466,0.006387905217707157,-0.020228365436196327
0.5911954641342163,8.655891418457031,4.261813163757324,-0.015969762578606606,0.0,-0.02768092229962349
0.6278075575828552,8.63992691040039,4.313479900360107,-0.05642649531364441,-0.018099064007401466,-0.03726277872920036
0.5377281308174133,8.574230194091797,4.5046234130859375,-0.05536184459924698,0.0,-0.043650683015584946
0.4913955330848694,8.574374198913574,4.347611904144287,-0.05003859102725983,0.02768092229962349,-0.042586032301187515
0.4821922183036804,8.629047393798828,4.260519981384277,-0.06920230388641357,-0.0010646508308127522,-0.03193952515721321
0.39267778396606445,8.575474739074707,5.022881984710693,-0.15650367736816406,-0.06920230388641357,-0.03619812801480293
0.3493714928627014,8.555660247802734,5.198692798614502,-0.08836601674556732,-0.05642649531364441,-0.004258603323251009
0.5773186683654785,8.654455184936523,5.086740016937256,-0.03619812801480293,0.02661627158522606,0.008517206646502018
0.6929298639297485,8.717785835266113,4.992465972900391,0.010646508075296879,0.05429719388484955,-0.0031939526088535786
0.647727370262146,8.684478759765625,4.821223258972168,0.019163714721798897,0.05216789245605469,-0.0074525559321045876
0.6426516175270081,8.73054313659668,4.774056911468506,0.01171115878969431,0.05003859102725983,-0.0074525559321045876
0.4719833433628082,8.687236785888672,4.68157434463501,0.015969762578606606,0.05429719388484955,-0.010646508075296879
0.39987000823020935,8.656303405761719,4.809913158416748,0.02555162087082863,0.05323254317045212,0.005323254037648439
0.5272319316864014,8.678971290588379,4.615656852722168,0.03619812801480293,0.06920230388641357,0.0074525559321045876
0.38675934076309204,8.619844436645508,4.4875383377075195,0.014905111864209175,0.06920230388641357,0.020228365436196327
0.4482711851596832,8.66600513458252,4.545698165893555,-0.021293016150593758,0.07133160531520844,0.05216789245605469
0.5032228827476501,8.556341171264648,4.686803340911865,-0.041521381586790085,0.09368927031755447,0.06494370102882385
0.6855173707008362,8.659300804138184,4.768311023712158,-0.013840461149811745,0.10007718205451965,0.06281439960002899
0.672971785068512,8.545528411865234,4.717362880706787,0.006387905217707157,0.09049531817436218,0.05003859102725983
0.7243034839630127,8.616042137145996,4.533334732055664,0.008517206646502018,0.08943066745996475,0.02555162087082863
0.8169495463371277,8.688462257385254,4.473029613494873,-0.005323254037648439,0.10114183276891708,0.0010646508308127522
0.4391540586948395,8.504626274108887,4.790098667144775,0.0,0.08517206460237503,-0.004258603323251009
0.46298113465309143,8.56472110748291,4.857059478759766,0.04684463515877724,0.06281439960002899,0.010646508075296879
0.6288226842880249,8.71406078338623,4.709452152252197,0.070266954600811,0.07878416031599045,0.0021293016616255045
0.5387911200523376,8.57817554473877,4.904062271118164,0.10114183276891708,0.1192408949136734,-0.006387905217707157
0.38105157017707825,8.622152328491211,4.487432956695557,0.15543901920318604,0.15011577308177948,-0.004258603323251009
0.17768807709217072,8.778205871582031,3.1946983337402344,0.1192408949136734,0.13201670348644257,0.0010646508308127522
0.5223861336708069,8.84113597869873,4.263986587524414,-0.14585717022418976,-0.08623671531677246,0.04684463515877724
0.6321937441825867,8.813621520996094,5.687598705291748,-0.06494370102882385,-0.11817624419927597,0.02661627158522606
0.4239844083786011,8.71134090423584,4.04056978225708,0.0031939526088535786,-0.010646508075296879,-0.039392080157995224
0.5536926984786987,8.755241394042969,4.668013095855713,-0.05110324174165726,-0.047909289598464966,-0.013840461149811745
0.5626277923583984,8.745482444763184,4.862451076507568,-0.018099064007401466,-0.05536184459924698,-0.0031939526088535786
0.5216199159622192,8.652243614196777,4.743488311767578,0.038327429443597794,-0.05323254317045212,0.0
0.40222588181495667,8.565093994140625,4.507726669311523,0.05536184459924698,-0.014905111864209175,-0.0010646508308127522
0.2951093018054962,8.511052131652832,4.294020175933838,0.041521381586790085,-0.05323254317045212,0.0021293016616255045
0.4421228766441345,8.591468811035156,4.290754318237305,-0.014905111864209175,-0.070266954600811,0.009581857360899448
0.7289291024208069,8.669729232788086,4.522331237792969,-0.02661627158522606,-0.08304276317358017,-0.009581857360899448
0.7476995587348938,8.669145584106445,4.56196928024292,-0.02661627158522606,-0.07984881103038788,-0.015969762578606606
0.7251654267311096,8.688126564025879,4.549280166625977,-0.02661627158522606,-0.07452555745840073,-0.018099064007401466
0.5507717132568359,8.651678085327148,4.6685686111450195,-0.045779984444379807,-0.0351334773004055,-0.010646508075296879
0.5230947732925415,8.666808128356934,4.835166931152344,-0.0351334773004055,-0.018099064007401466,-0.015969762578606606
0.4140053689479828,8.669988632202148,4.831231117248535,0.0031939526088535786,-0.0031939526088535786,0.0010646508308127522
0.5015565156936646,8.701525688171387,4.497939109802246,-0.0031939526088535786,-0.022357666864991188,0.017034413293004036
0.6041049957275391,8.732908248901367,4.569085121154785,-0.02661627158522606,-0.03087487444281578,0.009581857360899448
0.6044402122497559,8.738462448120117,4.656233787536621,-0.02768092229962349,-0.03087487444281578,-0.0010646508308127522
0.5851620435714722,8.744438171386719,4.81689453125,-0.005323254037648439,-0.0074525559321045876,-0.0031939526088535786
0.5706723928451538,8.765852928161621,4.660869121551514,0.020228365436196327,0.0,-0.0074525559321045876
0.5813887715339661,8.723092079162598,4.505514144897461,0.006387905217707157,0.0,-0.0031939526088535786
0.47286441922187805,8.75587272644043,4.64048957824707,0.004258603323251009,-0.017034413293004036,-0.006387905217707157
0.48705723881721497,8.678129196166992,4.612658977508545,0.005323254037648439,-0.017034413293004036,0.0021293016616255045
0.5962710976600647,8.699800491333008,4.632109642028809,0.01171115878969431,-0.0074525559321045876,0.0
0.5867326855659485,8.640654563903809,4.622868061065674,0.013840461149811745,-0.0021293016616255045,-0.0074525559321045876
0.5825571417808533,8.610478401184082,4.6113667488098145,0.017034413293004036,0.015969762578606606,-0.010646508075296879
0.43568724393844604,8.58559799194336,4.482453346252441,0.005323254037648439,0.022357666864991188,0.004258603323251009
0.5031558275222778,8.64810562133789,4.484971523284912,-0.019163714721798897,0.0010646508308127522,0.017034413293004036
0.47228020429611206,8.60161018371582,4.5903167724609375,-0.013840461149811745,-0.018099064007401466,0.018099064007401466
0.6248674988746643,8.660621643066406,4.6379899978637695,-0.013840461149811745,-0.019163714721798897,0.005323254037648439
0.5834094882011414,8.655671119689941,4.479063034057617,-0.008517206646502018,-0.015969762578606606,-0.0010646508308127522
0.5611242651939392,8.723848342895508,4.609834671020508,-0.03406882658600807,-0.015969762578606606,-0.004258603323251009
0.5691304802894592,8.773513793945312,4.785444259643555,-0.021293016150593758,-0.005323254037648439,0.0021293016616255045
0.539499819278717,8.708372116088867,4.735319137573242,-0.0021293016616255045,0.004258603323251009,-0.0031939526088535786
0.518727719783783,8.643624305725098,4.552143573760986,-0.008517206646502018,-0.005323254037648439,-0.005323254037648439
0.5600899457931519,8.663036346435547,4.668386936187744,-0.009581857360899448,-0.005323254037648439,-0.006387905217707157
0.5878148078918457,8.662394523620605,4.740174770355225,0.0,-0.0031939526088535786,-0.01171115878969431
0.5051095485687256,8.617354393005371,4.610820770263672,-0.006387905217707157,0.008517206646502018,-0.005323254037648439
0.5913295149803162,8.67215347290039,4.757565975189209,-0.01171115878969431,0.013840461149811745,-0.010646508075296879
0.5515666007995605,8.599771499633789,4.687119007110596,0.019163714721798897,0.0,-0.010646508075296879
0.5623117685317993,8.617996215820312,4.434549808502197,-0.005323254037648439,-0.01171115878969431,-0.009581857360899448
0.561583936214447,8.644112586975098,4.75504732131958,-0.019163714721798897,-0.005323254037648439,-0.015969762578606606
0.46542325615882874,8.634095191955566,4.715792179107666,0.009581857360899448,0.014905111864209175,-0.014905111864209175
0.3273256719112396,8.568368911743164,4.5272345542907715,0.0021293016616255045,0.0031939526088535786,-0.01171115878969431
0.4688517451286316,8.668953895568848,4.564756393432617,-0.02874557301402092,-0.0074525559321045876,0.0
0.5582512021064758,8.675457000732422,4.650698661804199,-0.02768092229962349,-0.02768092229962349,0.0
0.548396646976471,8.6149320602417,4.6563005447387695,-0.017034413293004036,-0.02874557301402092,-0.0021293016616255045
0.6175029277801514,8.705460548400879,4.641437530517578,-0.021293016150593758,-0.009581857360899448,-0.004258603323251009
0.5191299319267273,8.655450820922852,4.72715950012207,-0.010646508075296879,-0.0031939526088535786,0.0010646508308127522
0.49221915006637573,8.664146423339844,4.728385925292969,-0.004258603323251009,-0.0031939526088535786,0.010646508075296879
0.5841756463050842,8.643775939941406,4.7014079093933105,-0.0074525559321045876,-0.004258603323251009,0.0031939526088535786
0.5750489234924316,8.622008323669434,4.639158248901367,-0.012775810435414314,-0.004258603323251009,-0.005323254037648439
0.4810621738433838,8.58830738067627,4.849762439727783,-0.008517206646502018,-0.004258603323251009,-0.0010646508308127522
0.5002157688140869,8.643423080444336,4.733107089996338,0.017034413293004036,-0.010646508075296879,0.004258603323251009
0.5827487111091614,8.683252334594727,4.577761650085449,0.014905111864209175,-0.008517206646502018,0.0021293016616255045
0.5429187417030334,8.659894943237305,4.539329528808594,-0.0021293016616255045,0.0031939526088535786,0.0021293016616255045
0.4801619350910187,8.622697830200195,4.574841022491455,-0.010646508075296879,-0.0031939526088535786,-0.0031939526088535786
0.5744360089302063,8.638452529907227,4.768349647521973,-0.004258603323251009,-0.02981022372841835,-0.006387905217707157
0.6010595560073853,8.634870529174805,4.828444004058838,0.01171115878969431,-0.02661627158522606,0.0031939526088535786
0.585075855255127,8.657452583312988,4.82416296005249,0.02981022372841835,-0.005323254037648439,0.015969762578606606
0.5510877966880798,8.631240844726562,4.650918960571289,0.03300417587161064,-0.0010646508308127522,0.021293016150593758
0.5383697748184204,8.615621566772461,4.533804416656494,0.021293016150593758,-0.022357666864991188,0.024486970156431198
0.5625320672988892,8.644716262817383,4.609728813171387,0.012775810435414314,-0.03193952515721321,0.018099064007401466
0.5156056880950928,8.603084564208984,4.588563919067383,0.0010646508308127522,-0.024486970156431198,0.02768092229962349
0.6800873279571533,8.65966510772705,4.689484596252441,0.0074525559321045876,-0.03619812801480293,0.040456730872392654
0.7725322842597961,8.68925666809082,4.688613414764404,0.008517206646502018,-0.02874557301402092,0.03087487444281578
0.733066201210022,8.677726745605469,4.7626800537109375,0.021293016150593758,-0.03406882658600807,0.017034413293004036
0.6270126700401306,8.624939918518066,4.6548261642456055,0.024486970156431198,-0.020228365436196327,0.009581857360899448
0.6042007207870483,8.619193077087402,4.6659159660339355,0.02342231757938862,-0.018099064007401466,0.012775810435414314
0.5622255802154541,8.616348266601562,4.623193740844727,0.02555162087082863,-0.020228365436196327,0.02661627158522606
0.647966742515564,8.63737964630127,4.761530876159668,0.05855579674243927,-0.07665485888719559,0.024486970156431198
0.4936843812465668,8.610976219177246,4.521545886993408,0.02768092229962349,-0.02981022372841835,0.02342231757938862
0.6671299338340759,8.731443405151367,4.541810035705566,0.015969762578606606,-0.06494370102882385,0.02874557301402092
0.6834487915039062,8.652424812316895,4.599443435668945,0.015969762578606606,-0.03726277872920036,0.02981022372841835
0.6320213675498962,8.641037940979004,4.673941612243652,0.039392080157995224,-0.020228365436196327,0.02661627158522606
0.723834216594696,8.679527282714844,4.479647159576416,0.042586032301187515,-0.03300417587161064,0.02768092229962349
0.7291110157966614,8.665555000305176,4.422847270965576,0.015969762578606606,-0.042586032301187515,0.015969762578606606
0.6688345670700073,8.651103973388672,4.493686676025391,0.01171115878969431,-0.039392080157995224,0.006387905217707157
0.6284108757972717,8.600594520568848,4.645881175994873,0.014905111864209175,-0.0010646508308127522,0.014905111864209175
0.27617597579956055,8.422514915466309,3.741438150405884,0.03087487444281578,-0.02661627158522606,0.045779984444379807
0.8425866365432739,8.644553184509277,3.6922805309295654,-0.045779984444379807,-0.15224507451057434,0.05216789245605469
1.1398890018463135,8.738040924072266,4.72544527053833,-0.0947539210319519,0.009581857360899448,0.02555162087082863
0.5253549218177795,8.555956840515137,5.154419422149658,-0.07878416031599045,0.0841074138879776,-0.015969762578606606
0.5290802717208862,8.651705741882324,5.067873477935791,0.010646508075296879,0.05642649531364441,0.024486970156431198
0.7846277952194214,8.743605613708496,4.234480857849121,0.0010646508308127522,-0.0031939526088535786,0.022357666864991188
0.8509567379951477,8.724068641662598,4.232967853546143,-0.10220648348331451,-0.042586032301187515,0.014905111864209175
0.8233851194381714,8.747522354125977,5.068419456481934,-0.1330813616514206,0.08517206460237503,-0.004258603323251009
0.811088502407074,8.744821548461914,5.27164888381958,-0.017034413293004036,0.126693457365036,-0.01171115878969431
0.8117684125900269,8.823323249816895,4.759462356567383,0.044715333729982376,0.10646508634090424,-0.017034413293004036
0.7800883650779724,8.72507381439209,4.427204608917236,0.0074525559321045876,0.08517206460237503,-0.03087487444281578
0.6139020323753357,8.647990226745605,4.4055609703063965,-0.03087487444281578,0.06281439960002899,-0.03193952515721321
0.5683547258377075,8.547654151916504,4.525300025939941,-0.05216789245605469,0.07984881103038788,-0.015969762578606606
0.860255777835846,8.603046417236328,4.569918155670166,-0.09155996888875961,0.1054004356265068,-0.02555162087082863
0.6783443689346313,8.605881690979004,4.663952827453613,-0.10220648348331451,0.11391764134168625,-0.044715333729982376
0.5020928382873535,8.60063362121582,4.812910556793213,-0.0031939526088535786,0.11604694277048111,-0.017034413293004036
0.6984748244285583,8.712030410766602,4.839696884155273,-0.018099064007401466,0.12456414848566055,-0.021293016150593758
0.5715725421905518,8.664329528808594,4.836516857147217,-0.0010646508308127522,0.14479251205921173,-0.013840461149811745
0.37233665585517883,8.645012855529785,4.595574378967285,-0.005323254037648439,0.14266321063041687,0.004258603323251009
0.4846247136592865,8.623732566833496,4.769201755523682,-0.03300417587161064,0.13414600491523743,0.017034413293004036
0.5034910440444946,8.66926097869873,4.883415222167969,-0.03087487444281578,0.12882275879383087,0.012775810435414314
0.4641399681568146,8.608199119567871,4.909684181213379,0.008517206646502018,0.12137019634246826,-0.0021293016616255045
0.3266552984714508,8.566539764404297,4.768981456756592,0.0021293016616255045,0.1682148277759552,0.0010646508308127522
0.40566396713256836,8.523204803466797,4.703505039215088,0.020228365436196327,0.19696040451526642,0.03087487444281578
0.48484501242637634,8.570964813232422,4.746926307678223,0.02874557301402092,0.2139948159456253,0.024486970156431198
0.5206239819526672,8.574048042297363,4.651464939117432,0.02342231757938862,0.2171887755393982,0.010646508075296879
0.460146427154541,8.632370948791504,4.798679351806641,0.02768092229962349,0.203348308801651,-0.004258603323251009
0.2989974915981293,8.60297966003418,4.684954643249512,0.008517206646502018,0.14905111491680145,-0.009581857360899448
0.286691278219223,8.63823127746582,4.827457427978516,0.009581857360899448,0.11817624419927597,-0.0074525559321045876
0.20045214891433716,8.51969051361084,4.861234664916992,0.0351334773004055,0.06707300245761871,0.0
0.3442670702934265,8.600863456726074,4.655209064483643,0.039392080157995224,0.05323254317045212,0.010646508075296879
0.33226731419563293,8.619729042053223,4.652632713317871,0.020228365436196327,0.07665485888719559,-0.01171115878969431
0.2620405852794647,8.636987686157227,4.843498706817627,0.024486970156431198,0.08730136603116989,-0.009581857360899448
0.24441926181316376,8.667000770568848,4.857921600341797,0.06174974888563156,0.0841074138879776,-0.005323254037648439
0.26961585879325867,8.68228530883789,4.688814163208008,0.08091346174478531,0.06174974888563156,0.004258603323251009
0.23475627601146698,8.684353828430176,4.66595458984375,0.07239625602960587,0.042586032301187515,0.009581857360899448
0.31638896465301514,8.7427339553833,4.55087947845459,0.0596204474568367,0.02555162087082863,0.020228365436196327
0.3571861684322357,8.692705154418945,4.777820587158203,0.043650683015584946,0.05110324174165726,0.017034413293004036
0.43921151757240295,8.681337356567383,5.047446250915527,0.08943066745996475,0.1437278687953949,0.021293016150593758
0.43056365847587585,8.650163650512695,4.969318866729736,0.126693457365036,0.18311993777751923,0.02342231757938862
0.391959547996521,8.703153610229492,4.623011589050293,0.16182692348957062,0.22570598125457764,0.006387905217707157
0.32289162278175354,8.698039054870605,4.665465831756592,0.1575683206319809,0.24806363880634308,-0.009581857360899448
0.28413426876068115,8.674470901489258,4.654414176940918,0.1756673902273178,0.2672273516654968,-0.0010646508308127522
0.30038610100746155,8.699647903442383,4.224080562591553,0.15224507451057434,0.24380503594875336,-0.012775810435414314
0.09802819043397903,8.812347412109375,3.792606830596924,0.12137019634246826,0.19483110308647156,-0.022357666864991188
-0.018090587109327316,8.682247161865234,4.251403331756592,-0.010646508075296879,0.01171115878969431,-0.0031939526088535786
-0.09767384827136993,8.651093482971191,4.777504920959473,-0.024486970156431198,0.0021293016616255045,0.008517206646502018
-0.042645517736673355,8.626787185668945,4.440181255340576,0.07878416031599045,-0.07878416031599045,0.008517206646502018
-0.04907156154513359,8.653573989868164,3.854980707168579,0.012775810435414314,-0.15224507451057434,0.03193952515721321
0.1976269781589508,8.805912017822266,4.193195343017578,-0.07984881103038788,-0.2139948159456253,0.05536184459924698
0.43808144330978394,8.70490550994873,4.859061241149902,-0.06920230388641357,-0.17673203349113464,0.041521381586790085
0.4205559194087982,8.734862327575684,4.510541915893555,0.06600835174322128,-0.05323254317045212,0.02981022372841835
0.40938934683799744,8.76557445526123,4.431265354156494,0.045779984444379807,-0.06920230388641357,0.008517206646502018
0.2398415505886078,8.66720199584961,4.604777812957764,0.05110324174165726,-0.06600835174322128,0.020228365436196327
0.49849194288253784,8.662968635559082,2.886650562286377,0.06281439960002899,-0.19696040451526642,0.03406882658600807
0.8540787696838379,8.685148239135742,3.963035821914673,-0.10327113419771194,-0.11178833991289139,0.0074525559321045876
0.2886449694633484,8.567344665527344,5.022010326385498,-0.11178833991289139,0.03726277872920036,-0.0031939526088535786
0.4998135268688202,8.823533058166504,5.325834274291992,0.042586032301187515,0.11178833991289139,-0.0010646508308127522
0.28836721181869507,8.712145805358887,4.467273712158203,0.12030554562807083,0.126693457365036,-0.010646508075296879
0.4395754337310791,8.76121711730957,4.200406551361084,0.06813765317201614,0.1437278687953949,0.006387905217707157
0.4193683862686157,8.833253860473633,4.694828510284424,0.06068509817123413,0.19057250022888184,-0.008517206646502018
-0.11284351348876953,8.870009422302246,3.7958152294158936,0.03193952515721321,0.06813765317201614,-0.005323254037648439
0.16674178838729858,8.783943176269531,4.426974773406982,-0.07984881103038788,-0.038327429443597794,-0.01171115878969431
0.4888385236263275,8.72628116607666,4.756570339202881,0.0021293016616255045,-0.10646508634090424,-0.042586032301187515
-0.05447287857532501,8.439828872680664,3.3326425552368164,-0.009581857360899448,-0.3470761775970459,-0.070266954600811
-0.5390114188194275,8.157073974609375,3.190311908721924,-0.19696040451526642,-0.5206142663955688,-0.013840461149811745
-0.8405946493148804,8.103894233703613,3.3277103900909424,-0.23422318696975708,-0.7335444092750549,0.04684463515877724
-0.3824593424797058,8.134472846984863,4.863476276397705,-0.18099063634872437,-0.814457893371582,0.22889992594718933
0.7711149454116821,8.297882080078125,5.027766227722168,-0.06707300245761871,-0.6270793676376343,0.19163715839385986
1.021510124206543,8.914302825927734,5.585758686065674,0.2171887755393982,-0.6845704913139343,0.13414600491523743
1.060698390007019,8.824769020080566,5.123045921325684,0.3374943137168884,-0.7016049027442932,0.16715018451213837
1.0346685647964478,8.911840438842773,3.924048662185669,0.24699899554252625,-0.6686007380485535,0.21186551451683044
0.984294593334198,8.862510681152344,3.6401538848876953,0.018099064007401466,-0.5653296113014221,0.22251202166080475
1.3574550151824951,8.897610664367676,4.6141533851623535,-0.07984881103038788,-0.4173431396484375,0.2139948159456253
1.3678265810012817,9.007867813110352,5.132622718811035,0.021293016150593758,-0.30342549085617065,0.18311993777751923
1.5377957820892334,8.879826545715332,4.914031505584717,0.17779669165611267,-0.3225892186164856,0.1756673902273178
1.61309814453125,8.964130401611328,4.517197608947754,0.24699899554252625,-0.3928561508655548,0.1511804163455963
1.5803837776184082,8.865174293518066,4.268957614898682,0.2384817898273468,-0.40776127576828003,0.13946926593780518
1.434471607208252,8.834853172302246,3.9832046031951904,0.1927018016576767,-0.39392080903053284,0.13095206022262573
1.2667721509933472,8.822614669799805,4.0123372077941895,0.08943066745996475,-0.38114500045776367,0.14479251205921173
1.4585188627243042,8.901995658874512,4.5104079246521,0.06174974888563156,-0.33430036902427673,0.1469218134880066
1.6096793413162231,8.747714042663574,4.399134635925293,0.11072368919849396,-0.3183306157588959,0.11498229205608368
1.9107165336608887,9.146856307983398,4.387786388397217,0.1895078420639038,-0.3513347804546356,0.10220648348331451
2.029804229736328,9.032527923583984,3.6588380336761475,0.22677062451839447,-0.41521382331848145,0.05110324174165726
1.7909873723983765,8.944775581359863,3.244708299636841,0.19163715839385986,-0.43011894822120667,0.02981022372841835
1.6905937194824219,8.968650817871094,3.034583568572998,0.11817624419927597,-0.43331289291381836,0.02768092229962349
2.043872594833374,8.813516616821289,3.24651837348938,-0.20441296696662903,-0.3023608326911926,0.0010646508308127522
1.7401632070541382,8.835456848144531,4.35128927230835,-0.2416757345199585,-0.15011577308177948,-0.02661627158522606
1.647929072380066,8.895522117614746,5.175143718719482,-0.12243484705686569,-0.0734609067440033,-0.0021293016616255045
1.8071626424789429,8.802263259887695,4.348569393157959,-0.022357666864991188,-0.15650367736816406,0.014905111864209175
