accX,accY,accZ,gyroX,gyroY,gyroZ
-0.838038444519043,4.9357805252075195,8.501212120056152,-0.010004281997680664,-0.19483551383018494,-0.040476568043231964
-0.608110785484314,4.878298759460449,8.83891773223877,-0.08084993064403534,0.0070479437708854675,0.09801868349313736
-0.6033205986022949,4.8447675704956055,8.901189804077148,-0.04249740391969681,0.0640440583229065,0.10441076755523682
-0.541048526763916,4.808841705322266,8.807781219482422,-0.029713224619627,0.05978268012404442,0.1139988899230957
-0.46680107712745667,4.744174480438232,8.84610366821289,-0.06327168643474579,-0.015857040882110596,0.10867216438055038
-0.43087485432624817,4.753754138946533,8.896400451660156,-0.06753307580947876,-0.0398273728787899,0.09428996592760086
-0.41410931944847107,4.751359939575195,8.937116622924805,-0.053683552891016006,-0.027575870975852013,0.0825711339712143
-0.41410931944847107,4.741779327392578,8.934720993041992,-0.0446280911564827,-0.02278180420398712,0.07724439352750778
-0.43087485432624817,4.70585298538208,8.88202953338623,-0.027582526206970215,-0.025445174425840378,0.06712358444929123
-0.37578803300857544,4.739384174346924,8.836522102355957,-0.01639636978507042,-0.019585760310292244,0.061264172196388245
-0.3733929693698883,4.744174480438232,8.795806884765625,-0.00840625911951065,-0.00254019140265882,0.05380672961473465
-0.35662737488746643,4.741779327392578,8.850893020629883,-0.005210217088460922,0.013972703367471695,0.045816630125045776
-0.30633071064949036,4.722618579864502,8.829337120056152,0.009704655967652798,0.023028165102005005,0.03143443167209625
-0.3039356768131256,4.703457832336426,8.831732749938965,0.007573959417641163,0.009711313992738724,0.012790834531188011
-0.32309624552726746,4.732198715209961,8.82454776763916,0.008106634020805359,-0.011062974110245705,-0.004254733677953482
-0.35902249813079834,4.765729904174805,8.807781219482422,0.012368026189506054,-0.015857040882110596,-0.015973560512065887
-0.4236896336078644,4.768125057220459,8.762275695800781,0.019292788580060005,0.006515268236398697,-0.03408447653055191
-0.4787764847278595,4.804051399230957,8.750299453735352,0.016096744686365128,-0.0009421685244888067,-0.03941121697425842
-0.5458387136459351,4.784890651702881,8.735929489135742,0.005443263798952103,-0.00946495309472084,-0.035682499408721924
-0.5793697834014893,4.801656246185303,8.819756507873535,-0.005210217088460922,-0.00946495309472084,-0.033019132912158966
-0.5602091550827026,4.8447675704956055,8.889214515686035,-0.0036121951416134834,-0.025977848097682,-0.022898323833942413
-0.5194927453994751,4.818421840667725,8.939512252807617,0.013966048136353493,-0.013193671591579914,-0.012777518481016159
-0.5194927453994751,4.81602668762207,8.841312408447266,0.04326312243938446,-0.014259019866585732,-0.014375540427863598
-0.5434436798095703,4.811236381530762,8.783831596374512,0.03474033623933792,-0.032369934022426605,-0.01810425892472267
-0.5626043081283569,4.897459506988525,8.573064804077148,0.03846905380487442,-0.024912500753998756,-0.015973560512065887
-0.730259895324707,4.947756290435791,8.307210922241211,0.13648107647895813,0.3026820123195648,-0.0015913639217615128
-0.766185998916626,4.954941272735596,8.264098167419434,0.1572553515434265,0.37778908014297485,0.013323510065674782
-0.6751730442047119,4.971706867218018,8.242542266845703,0.1316870152950287,0.3564821183681488,0.030901754274964333
-0.48356667160987854,4.847163200378418,8.422174453735352,-0.019059743732213974,0.06191336736083031,0.04688197374343872
-0.34944212436676025,4.739384174346924,8.757485389709473,-0.1628817617893219,-0.2784653306007385,0.019715601578354836
-0.38536837697029114,4.744174480438232,9.071240425109863,-0.19537486135959625,-0.40577447414398193,-0.02236565202474594
-0.37578803300857544,4.794471263885498,9.145488739013672,-0.1628817617893219,-0.3626278340816498,-0.0324864536523819
-0.4236896336078644,4.820816993713379,9.121537208557129,-0.09789550304412842,-0.25023362040519714,-0.03408447653055191
-0.5194927453994751,4.796865940093994,8.721558570861816,0.14020979404449463,0.20200663805007935,-0.007983451709151268
-0.47398629784584045,4.772915363311768,8.436545372009277,0.10025924444198608,0.12370356917381287,-0.0026567112654447556
-0.442850261926651,4.818421840667725,8.549113273620605,-0.053683552891016006,-0.11866313219070435,-0.023430999368429184
-0.4979371130466461,4.854348182678223,8.850893020629883,-0.07658854126930237,-0.1415681093931198,-0.03621517866849899
-0.5769747495651245,4.878298759460449,8.750299453735352,0.07202751934528351,0.09121043980121613,-0.0031893854029476643
-0.481171578168869,4.842372417449951,8.62814998626709,-0.014798350632190704,-0.049415506422519684,6.658956408500671e-06
-0.4787764847278595,4.851953029632568,8.728744506835938,-0.02545183151960373,-0.07338584214448929,-0.012244843877851963
-0.5266780853271484,4.892669200897217,8.721558570861816,0.0011818716302514076,-0.03396795690059662,-0.013842866756021976
-0.5386534929275513,4.89985466003418,8.692817687988281,0.016096744686365128,-0.006268909201025963,-0.010114148259162903
-0.5314682722091675,4.873508930206299,8.575459480285645,0.03047894313931465,0.041139084845781326,0.005333399400115013
-0.5051224231719971,4.847163200378418,8.558693885803223,0.024619529023766518,0.05072721466422081,0.011725487187504768
-0.442850261926651,4.837582588195801,8.594619750976562,-0.0020141741260886192,0.03634502366185188,0.012790834531188011
-0.4069240987300873,4.837582588195801,8.764670372009277,-0.019059743732213974,0.008645964786410332,0.0032027028501033783
-0.43087485432624817,4.830397605895996,8.759881019592285,-0.011602308601140976,-0.015324367210268974,-0.006918103434145451
-0.44764044880867004,4.842372417449951,8.71916389465332,-0.0041448697447776794,-0.006801582872867584,-0.013842866756021976
-0.481171578168869,4.820816993713379,8.71916389465332,0.0011818716302514076,0.01663607731461525,-0.011712170206010342
-0.4787764847278595,4.842372417449951,8.783831596374512,0.0022472189739346504,0.02515885978937149,-0.009581473655998707
-0.46440598368644714,4.830397605895996,8.793411254882812,0.0022472189739346504,0.01663607731461525,-0.013310193084180355
-0.4787764847278595,4.830397605895996,8.77664566040039,0.004910589195787907,-0.0030728650745004416,-0.022898323833942413
-0.5027272701263428,4.823211669921875,8.735929489135742,0.00650861207395792,-0.02171645686030388,-0.028225066140294075
-0.5673943758010864,4.8806939125061035,8.716768264770508,0.004910589195787907,-0.032369934022426605,-0.02982308529317379
-0.5578141212463379,4.897459506988525,8.668867111206055,0.010237329639494419,-0.01798773743212223,-0.019169606268405914
-0.5458387136459351,4.873508930206299,8.647311210632324,0.013433374464511871,0.009178640320897102,-0.007983451709151268
-0.5051224231719971,4.856743335723877,8.61378002166748,0.011302677914500237,0.021962814033031464,-0.0026567112654447556
-0.49075189232826233,4.8615336418151855,8.62575626373291,0.004377915523946285,0.018234096467494965,-0.007450778968632221
-0.5099124908447266,4.859138011932373,8.642521858215332,-0.005742892622947693,-0.00254019140265882,-0.01544088777154684
-0.5482337474822998,4.8806939125061035,8.676053047180176,-0.010004281997680664,-0.008932279422879219,-0.0175715833902359
-0.5673943758010864,4.878298759460449,8.723954200744629,-0.010536961257457733,-0.007866931147873402,-0.014375540427863598
-0.5721845626831055,4.878298759460449,8.74071979522705,-0.00840625911951065,-0.0030728650745004416,-0.009581473655998707
-0.5218878984451294,4.887879371643066,8.683237075805664,0.007573959417641163,0.011309333145618439,0.0016046809032559395
-0.5051224231719971,4.837582588195801,8.62814998626709,0.003845241852104664,0.010776661336421967,-0.0015913639217615128
-0.5266780853271484,4.856743335723877,8.673657417297363,-0.006808239966630936,0.004384571686387062,-0.007983451709151268
-0.5506289005279541,4.854348182678223,8.771855354309082,-0.005742892622947693,0.004917247220873833,-0.003722059540450573
-0.8164827823638916,4.964521408081055,8.041356086730957,0.019825462251901627,0.002253875369206071,-0.004254733677953482
-0.7446303367614746,5.026793956756592,8.273679733276367,-0.0259845033288002,0.12903030216693878,0.03942453861236572
-0.35662737488746643,4.7465691566467285,8.953882217407227,-0.0611409954726696,0.05392326042056084,0.03835919499397278
-0.5099124908447266,4.782495498657227,9.047289848327637,-0.06433703005313873,-0.05261154845356941,-0.0015913639217615128
-0.5506289005279541,4.808841705322266,9.066451072692871,-0.04143204912543297,-0.07604920864105225,-0.002124037593603134
-0.5530239343643188,4.801656246185303,9.040104866027832,-0.02119043469429016,-0.05687294527888298,-0.0010586893185973167
-0.5673943758010864,4.818421840667725,8.970647811889648,0.026217550039291382,0.002253875369206071,-0.002124037593603134
-0.5602091550827026,4.825606822967529,8.814967155456543,0.0517859049141407,0.02995293028652668,0.002137354575097561
-0.5362584590911865,4.856743335723877,8.637731552124023,0.0443284697830677,-0.008399604819715023,0.002670029178261757
-0.5314682722091675,4.839977264404297,8.580248832702637,0.002779892645776272,-0.05527491495013237,-0.0010586893185973167
-0.541048526763916,4.847163200378418,8.61378002166748,-0.0020141741260886192,-0.044621437788009644,-0.0005260147154331207
-0.5290732383728027,4.885483741760254,8.616175651550293,0.009704655967652798,0.0006558543536812067,0.007464095950126648
-0.46680107712745667,4.863928318023682,8.585039138793945,0.008639306761324406,0.019299447536468506,0.009594792500138283
-0.5003321170806885,4.856743335723877,8.618570327758789,-0.007340915501117706,0.009178640320897102,0.0016046809032559395
-0.5602091550827026,4.875903606414795,8.673657417297363,-0.017994392663240433,-0.019053086638450623,-0.007450778968632221
-0.5841600894927979,4.873508930206299,8.67126178741455,-0.020125091075897217,-0.019053086638450623,-0.0010586893185973167
-0.5841600894927979,4.8806939125061035,8.70958423614502,-0.01266765221953392,-0.009997626766562462,0.007464095950126648
-0.5170978307723999,4.839977264404297,8.62814998626709,-0.0036121951416134834,0.010776661336421967,0.019182922318577766
-0.5218878984451294,4.804051399230957,8.64012622833252,-0.005742892622947693,0.023560836911201477,0.020248273387551308
-0.5194927453994751,4.842372417449951,8.767065048217773,-0.014798350632190704,0.002253875369206071,0.009062116965651512
-0.5218878984451294,4.863928318023682,8.759881019592285,-0.012134980410337448,-0.013726345263421535,0.005333399400115013
-0.5530239343643188,4.86871862411499,8.71916389465332,-0.008938934653997421,-0.016922390088438988,0.0058660730719566345
-0.5194927453994751,4.832792282104492,8.764670372009277,-0.0036121951416134834,0.013440031558275223,0.019182922318577766
-0.43087485432624817,4.823211669921875,8.77664566040039,0.002779892645776272,0.013440031558275223,0.01705222763121128
-0.41410931944847107,4.828001976013184,8.74551010131836,0.0070412857457995415,-0.00254019140265882,0.0058660730719566345
-0.42129454016685486,4.823211669921875,8.666472434997559,0.009704655967652798,-0.020651107653975487,-0.01117949653416872
-0.4859617054462433,4.8447675704956055,8.620965957641602,0.010237329639494419,-0.016389714553952217,-0.020234953612089157
-0.5602091550827026,4.859138011932373,8.597014427185059,0.005975937470793724,-0.005203559994697571,-0.014375540427863598
-0.5123076438903809,4.842372417449951,8.608990669250488,0.00011652428656816483,0.010243985801935196,-0.002124037593603134
-0.46680107712745667,4.849557399749756,8.683237075805664,-0.006808239966630936,0.019299447536468506,-0.005320081487298012
-0.5027272701263428,4.854348182678223,8.738324165344238,-0.010004281997680664,0.006515268236398697,-0.01544088777154684
-0.5482337474822998,4.866323471069336,8.743114471435547,-0.00840625911951065,-0.003605538746342063,-0.018636934459209442
-0.5793697834014893,4.878298759460449,8.688028335571289,-0.005742892622947693,-0.015324367210268974,-0.0175715833902359
-0.5745795965194702,4.8615336418151855,8.67126178741455,-0.005210217088460922,-0.008399604819715023,-0.009581473655998707
-0.5578141212463379,4.863928318023682,8.678447723388672,-0.005210217088460922,-0.00254019140265882,-0.005852756090462208
-0.5218878984451294,4.856743335723877,8.690423011779785,-0.0020141741260886192,0.011309333145618439,-0.003722059540450573
-0.5338633060455322,4.847163200378418,8.690423011779785,0.0006491979584097862,0.013440031558275223,-0.007450778968632221
-0.5626043081283569,4.856743335723877,8.692817687988281,-0.005210217088460922,-0.0030728650745004416,-0.011712170206010342
-0.5913451910018921,4.86871862411499,8.73114013671875,-0.008938934653997421,-0.014259019866585732,-0.010114148259162903
-0.5793697834014893,4.866323471069336,8.747905731201172,-0.006275564432144165,-0.008399604819715023,-0.0031893854029476643
-0.5937403440475464,4.883089542388916,8.75508975982666,-0.0025468477979302406,-0.0020075140055269003,0.001072007231414318
-0.5530239343643188,4.8806939125061035,8.73353385925293,0.007573959417641163,0.003319224575534463,0.007464095950126648
-0.5242830514907837,4.8351874351501465,8.67126178741455,0.011835351586341858,0.001188528025522828,0.009594792500138283
-0.49075189232826233,4.842372417449951,8.642521858215332,0.009704655967652798,-0.0014748421963304281,0.0069314222782850266
-0.4979371130466461,4.8351874351501465,8.668867111206055,0.003312567248940468,-0.0020075140055269003,0.002670029178261757
-0.5075173377990723,4.839977264404297,8.676053047180176,0.0011818716302514076,-0.0020075140055269003,0.001072007231414318
-0.5386534929275513,4.837582588195801,8.723954200744629,-0.0036121951416134834,-0.005203559994697571,-0.0015913639217615128
-0.5697895288467407,4.842372417449951,8.783831596374512,-0.005742892622947693,-0.004138212651014328,-0.0026567112654447556
-0.5578141212463379,4.8711137771606445,8.872447967529297,0.0006491979584097862,-0.011062974110245705,-0.0015913639217615128
-0.7374451160430908,4.928595542907715,8.328765869140625,0.10878202319145203,0.37246236205101013,0.04262058436870575
-0.4883567988872528,4.907039642333984,8.570669174194336,-0.014265675097703934,0.05019453540444374,0.049545347690582275
-0.35662737488746643,4.686692237854004,8.925140380859375,-0.18045999109745026,-0.3876635432243347,0.011192813515663147
-0.344651997089386,4.76333475112915,9.073636054992676,-0.11547376215457916,-0.2747366428375244,-0.02609436772763729
-0.4979371130466461,4.895064353942871,9.040104866027832,0.028880920261144638,0.0342143215239048,-0.03621517866849899
-0.6248763799667358,4.832792282104492,8.647311210632324,0.13115434348583221,0.19241851568222046,0.002137354575097561
-0.5338633060455322,4.813632011413574,8.395828247070312,0.05657996982336044,0.021962814033031464,0.00852944329380989
-0.4859617054462433,4.818421840667725,8.448519706726074,-0.04143204912543297,-0.13304534554481506,-0.009048799984157085
-0.5314682722091675,4.887879371643066,8.64970588684082,-0.0723271518945694,-0.1474275290966034,-0.023430999368429184
-0.5769747495651245,4.950151443481445,8.77664566040039,-0.028115201741456985,-0.04888283088803291,-0.01810425892472267
-0.5961353778839111,4.959731578826904,8.690423011779785,0.03687103092670441,0.05925000086426735,0.002670029178261757
-0.5027272701263428,4.875903606414795,8.448519706726074,0.053383927792310715,0.08854707330465317,0.028771059587597847
-0.4069240987300873,4.775310039520264,8.34313678741455,0.003845241852104664,0.031550947576761246,0.02557501383125782
-0.3542323410511017,4.777705669403076,8.494026184082031,-0.06060831621289253,-0.033435285091400146,0.0037353765219449997
-0.4069240987300873,4.825606822967529,8.771855354309082,-0.07765388488769531,-0.05261154845356941,-0.025561697781085968
-0.653617262840271,4.866323471069336,8.889214515686035,0.015564071014523506,0.05392326042056084,-0.023963674902915955
-0.6440370082855225,4.866323471069336,8.867659568786621,0.013433374464511871,0.022495489567518234,-0.011712170206010342
-0.5913451910018921,4.859138011932373,8.88202953338623,0.0006491979584097862,-0.03876202180981636,-0.005320081487298012
-0.5649993419647217,4.940571308135986,8.601804733276367,0.0022472189739346504,-0.03822935000061989,-0.005320081487298012
-0.6943336725234985,4.959731578826904,8.381457328796387,0.08161565661430359,0.2531433403491974,0.012790834531188011
-0.6560124158859253,4.897459506988525,8.276074409484863,0.142873153090477,0.4230663478374481,0.023444315418601036
-0.5218878984451294,4.878298759460449,8.213802337646484,0.014498721808195114,0.22065025568008423,0.022378968074917793
-0.5817649364471436,4.727408409118652,8.738324165344238,-0.118669793009758,-0.10428093373775482,-0.018636934459209442
-0.5314682722091675,4.854348182678223,9.2484769821167,-0.1980382204055786,-0.4047091007232666,-0.03834587335586548
-0.541048526763916,4.808841705322266,9.152673721313477,0.028880920261144638,-0.12825126945972443,-0.05059736967086792
-0.6631976366043091,4.887879371643066,8.795806884765625,0.10238993167877197,0.023028165102005005,-0.0489993542432785
-0.679963231086731,4.942965984344482,8.388643264770508,0.10931470990180969,0.06883812695741653,-0.005852756090462208
-0.5218878984451294,4.856743335723877,8.316790580749512,-0.03876868635416031,-0.14103545248508453,-0.0010586893185973167
-0.541048526763916,4.887879371643066,8.558693885803223,-0.06380435824394226,-0.11653244495391846,-0.01117949653416872
-0.5913451910018921,4.9357805252075195,8.695213317871094,-0.017994392663240433,0.00811329297721386,-0.005320081487298012
-0.5961353778839111,4.938175678253174,8.688028335571289,0.026750225573778152,0.1029292643070221,0.010127464309334755
-0.5793697834014893,4.895064353942871,8.642521858215332,0.027815572917461395,0.09760252386331558,0.022378968074917793
-0.5482337474822998,4.851953029632568,8.652101516723633,0.00011652428656816483,0.024093512445688248,0.019715601578354836
-0.5170978307723999,4.890274524688721,8.714373588562012,-0.028115201741456985,-0.0398273728787899,0.009594792500138283
-0.5434436798095703,4.86871862411499,8.759881019592285,-0.015331022441387177,-0.03769667446613312,0.004800725728273392
-0.5194927453994751,4.847163200378418,8.711978912353516,0.01290070079267025,0.011309333145618439,0.00799676962196827
-0.5027272701263428,4.8711137771606445,8.632941246032715,0.028880920261144638,0.04646582528948784,0.010127464309334755
-0.5386534929275513,4.842372417449951,8.644917488098145,-0.023321133106946945,-0.027043195441365242,-0.003722059540450573
-0.5290732383728027,4.892669200897217,8.707188606262207,-0.02065776288509369,-0.010530301369726658,-0.0026567112654447556
-0.5218878984451294,4.902249336242676,8.752695083618164,-0.013200327754020691,0.004917247220873833,-0.0005260147154331207
-0.5027272701263428,4.86871862411499,8.757485389709473,0.003845241852104664,0.023560836911201477,0.0005393326282501221
-0.5003321170806885,4.849557399749756,8.704792976379395,0.007573959417641163,0.010243985801935196,-0.008516126312315464
-0.5626043081283569,4.885483741760254,8.659287452697754,0.003312567248940468,-0.014259019866585732,-0.01810425892472267
-0.5985304117202759,4.916620254516602,8.64970588684082,-0.006275564432144165,-0.029173893854022026,-0.016506239771842957
-0.6200861930847168,4.902249336242676,8.67126178741455,-0.007873587310314178,-0.023847153410315514,-0.00478740781545639
-0.5649993419647217,4.892669200897217,8.683237075805664,0.0006491979584097862,0.001188528025522828,0.0058660730719566345
-0.5506289005279541,4.8711137771606445,8.707188606262207,0.008639306761324406,0.019832123070955276,0.007464095950126648
-0.5721845626831055,4.8615336418151855,8.656891822814941,0.012368026189506054,0.010243985801935196,6.658956408500671e-06
-0.5865551233291626,4.904644966125488,8.618570327758789,0.0022472189739346504,-0.015857040882110596,-0.0026567112654447556
-0.5889501571655273,4.902249336242676,8.589829444885254,-0.0036121951416134834,-0.0222491305321455,-0.0005260147154331207
-0.5218878984451294,4.863928318023682,8.680842399597168,0.00011652428656816483,0.018766768276691437,0.009594792500138283
-0.5386534929275513,4.883089542388916,8.632941246032715,0.005443263798952103,-0.013193671591579914,0.005333399400115013
-0.5218878984451294,4.849557399749756,8.58264446258545,-0.0020141741260886192,-0.011595649644732475,0.009594792500138283
-0.47398629784584045,4.854348182678223,8.637731552124023,-0.00840625911951065,-0.006268909201025963,0.009594792500138283
-0.44045522809028625,4.847163200378418,8.680842399597168,-0.010536961257457733,0.00811329297721386,0.0016046809032559395
-0.5194927453994751,4.8806939125061035,8.743114471435547,-0.0041448697447776794,0.0027865509036928415,-0.012244843877851963
-0.5649993419647217,4.919014930725098,8.690423011779785,0.0006491979584097862,-0.007334256544709206,-0.013310193084180355
-0.5769747495651245,4.890274524688721,8.714373588562012,-0.004677541553974152,-0.011595649644732475,-0.00478740781545639
-0.5793697834014893,4.875903606414795,8.757485389709473,-0.0036121951416134834,-0.0030728650745004416,0.0037353765219449997
-0.45722076296806335,4.854348182678223,8.74551010131836,0.013433374464511871,-0.021183781325817108,-0.002124037593603134
-0.7015188932418823,5.002843379974365,8.211406707763672,0.03474033623933792,0.010776661336421967,-0.013310193084180355
-0.8595942258834839,5.01002836227417,8.20661735534668,0.05231858044862747,0.21479083597660065,0.011725487187504768
-0.4715912640094757,4.983682632446289,8.489236831665039,0.018227441236376762,0.1785689890384674,0.03942453861236572
-0.38536837697029114,4.832792282104492,8.735929489135742,-0.05901029333472252,-0.027575870975852013,0.026640361174941063
-0.44045522809028625,4.794471263885498,9.047289848327637,-0.12080049514770508,-0.2433088719844818,-0.009581473655998707
-0.3733929693698883,4.830397605895996,9.008968353271484,0.026217550039291382,-0.020651107653975487,-0.02236565202474594
-0.47398629784584045,4.875903606414795,8.886819839477539,0.07096217572689056,0.07043614983558655,-0.023963674902915955
-0.4691961705684662,4.863928318023682,8.637731552124023,0.11783748865127563,0.12583425641059875,-0.01490821409970522
-0.4691961705684662,4.8447675704956055,8.309605598449707,0.07096217572689056,0.015038050711154938,-0.02662704698741436
-0.5578141212463379,4.911829948425293,8.391037940979004,-0.05208553001284599,-0.1101403534412384,-0.04367261379957199
-0.6560124158859253,4.976497173309326,8.654497146606445,-0.057944949716329575,-0.07178781926631927,-0.03621517866849899
-0.6464320421218872,4.986077308654785,8.75508975982666,-0.011602308601140976,0.018234096467494965,-0.010646821931004524
-0.653617262840271,4.962126731872559,8.721558570861816,0.013433374464511871,0.05125988647341728,-0.0005260147154331207
-0.6296665668487549,4.914225101470947,8.60420036315918,-0.02119043469429016,-0.004670886322855949,0.0032027028501033783
-0.6296665668487549,4.919014930725098,8.716768264770508,-0.04516076669096947,-0.045154113322496414,0.009062116965651512
-0.6105058193206787,4.919014930725098,8.822152137756348,-0.027582526206970215,-0.029706565663218498,0.018650250509381294
-0.5482337474822998,4.885483741760254,8.747905731201172,0.009704655967652798,0.01184200868010521,0.02504233829677105
-0.5075173377990723,4.8447675704956055,8.716768264770508,0.02195615880191326,0.031018273904919624,0.026640361174941063
-0.4284798204898834,4.8351874351501465,8.711978912353516,0.028348248451948166,0.03954106196761131,0.026107685640454292
-0.3973437547683716,4.825606822967529,8.680842399597168,0.03687103092670441,0.05072721466422081,0.009062116965651512
-0.4093191623687744,4.839977264404297,8.666472434997559,0.036338359117507935,0.0454004742205143,0.0005393326282501221
-0.40213391184806824,4.847163200378418,8.623361587524414,0.015564071014523506,-0.007866931147873402,-0.016506239771842957
-0.44764044880867004,4.859138011932373,8.618570327758789,-0.0020141741260886192,-0.0435560904443264,-0.023963674902915955
-0.4524305760860443,4.86871862411499,8.620965957641602,-0.004677541553974152,-0.040892720222473145,-0.025561697781085968
-0.4787764847278595,4.904644966125488,8.635335922241211,0.0006491979584097862,-0.019053086638450623,-0.03514982759952545
-0.5530239343643188,4.9357805252075195,8.61378002166748,0.008639306761324406,0.004917247220873833,-0.036747850477695465
-0.6009255647659302,4.921410083770752,8.611385345458984,0.0070412857457995415,0.008645964786410332,-0.033019132912158966
-0.6272714138031006,4.911829948425293,8.64970588684082,-0.00041615311056375504,0.0006558543536812067,-0.031953781843185425
-0.6416418552398682,4.9357805252075195,8.683237075805664,0.001714545302093029,-0.003605538746342063,-0.02982308529317379
-0.7182844877243042,4.959731578826904,8.666472434997559,0.015564071014523506,0.0038518982473760843,-0.012777518481016159
-0.6823583841323853,4.952546119689941,8.644917488098145,0.011835351586341858,-0.0004094929900020361,0.0016046809032559395
-0.6033205986022949,4.945361137390137,8.62575626373291,0.004377915523946285,-0.005203559994697571,0.019182922318577766
-0.5697895288467407,4.9357805252075195,8.61378002166748,0.004377915523946285,-0.008932279422879219,0.02184629626572132
-0.5170978307723999,4.911829948425293,8.539533615112305,0.001714545302093029,-0.00254019140265882,0.022911643609404564
-0.5027272701263428,4.919014930725098,8.549113273620605,-0.003079521469771862,0.0001231806818395853,0.019715601578354836
-0.4979371130466461,4.916620254516602,8.558693885803223,-0.009471610188484192,0.0001231806818395853,0.01705222763121128
-0.4859617054462433,4.914225101470947,8.623361587524414,-0.017994392663240433,0.001188528025522828,0.011192813515663147
-0.49314698576927185,4.921410083770752,8.654497146606445,-0.019059743732213974,0.001188528025522828,0.0069314222782850266
-0.5314682722091675,4.921410083770752,8.714373588562012,-0.011602308601140976,0.0006558543536812067,-0.0005260147154331207
-0.5362584590911865,4.914225101470947,8.654497146606445,0.003845241852104664,0.0001231806818395853,0.001072007231414318
-0.5290732383728027,4.907039642333984,8.611385345458984,0.004910589195787907,0.0017212016973644495,0.002670029178261757
-0.5218878984451294,4.873508930206299,8.601804733276367,-0.019059743732213974,-0.003605538746342063,0.001072007231414318
-0.5123076438903809,4.890274524688721,8.71916389465332,-0.02545183151960373,-0.00254019140265882,-0.006918103434145451
-0.5578141212463379,4.916620254516602,8.769460678100586,-0.011069633066654205,0.002253875369206071,-0.01544088777154684
-0.5602091550827026,4.933385848999023,8.743114471435547,-0.0020141741260886192,0.006515268236398697,-0.01703891158103943
-0.5769747495651245,4.923805236816406,8.728744506835938,0.003845241852104664,0.005982592701911926,-0.01810425892472267
-0.6033205986022949,4.940571308135986,8.690423011779785,0.00650861207395792,-0.0004094929900020361,-0.012777518481016159
-0.5817649364471436,4.9357805252075195,8.647311210632324,0.003312567248940468,-0.013193671591579914,-0.0010586893185973167
-0.5194927453994751,4.890274524688721,8.62575626373291,-0.003079521469771862,-0.013726345263421535,0.0016046809032559395
-0.5194927453994751,4.89985466003418,8.642521858215332,-0.0025468477979302406,-0.004138212651014328,-0.0015913639217615128
-0.5386534929275513,4.89985466003418,8.642521858215332,-0.0020141741260886192,-0.00254019140265882,-0.006918103434145451
-0.5554190874099731,4.907039642333984,8.644917488098145,-0.0025468477979302406,-0.00946495309472084,-0.011712170206010342
-0.5721845626831055,4.909434795379639,8.623361587524414,-0.0036121951416134834,-0.009997626766562462,-0.01117949653416872
-0.6320616006851196,4.976497173309326,8.37906265258789,-0.0014814985916018486,-0.0030728650745004416,-0.009048799984157085
-0.90989089012146,5.01481819152832,8.055727005004883,0.00011652428656816483,0.16631750762462616,0.012790834531188011
-0.8907302618026733,4.976497173309326,8.199431419372559,-0.003079521469771862,0.2344997674226761,0.0324997752904892
-0.48356667160987854,4.923805236816406,8.747905731201172,-0.03024589642882347,0.1657848060131073,0.045816630125045776
-0.44045522809028625,4.921410083770752,8.977831840515137,-0.0835133045911789,-0.07711455971002579,0.013856183737516403
-0.5147026777267456,4.727408409118652,9.155068397521973,-0.09896084666252136,-0.22413259744644165,-0.004254733677953482
-0.4620109498500824,4.744174480438232,9.028128623962402,-0.036637987941503525,-0.14955823123455048,-0.01810425892472267
-0.5027272701263428,4.885483741760254,8.968252182006836,0.04645916447043419,0.04326977953314781,-0.023430999368429184
-0.5314682722091675,4.890274524688721,8.82454776763916,0.10079191625118256,0.11091937869787216,-0.0175715833902359
-0.4979371130466461,4.873508930206299,8.51318645477295,0.08640971779823303,0.018766768276691437,-0.022898323833942413
-0.5003321170806885,4.8711137771606445,8.37906265258789,0.02089081145823002,-0.09202943742275238,-0.041541919112205505
-0.5841600894927979,4.890274524688721,8.3838529586792,-0.008938934653997421,-0.1101403534412384,-0.045270636677742004
-0.5194927453994751,4.921410083770752,8.529953002929688,0.041132424026727676,0.05978268012404442,0.004800725728273392
-0.45482566952705383,4.892669200897217,8.326370239257812,0.028348248451948166,0.04326977953314781,-0.002124037593603134
-0.5003321170806885,4.878298759460449,8.304815292358398,-0.02545183151960373,-0.006801582872867584,-0.02183297649025917
-0.5793697834014893,4.914225101470947,8.522768020629883,-0.07445785403251648,-0.03929469734430313,-0.027692394331097603
-0.6009255647659302,4.933385848999023,8.73353385925293,-0.07658854126930237,-0.027043195441365242,-0.019169606268405914
-0.6152961254119873,4.926200866699219,8.812572479248047,-0.06273901462554932,-0.011062974110245705,-0.014375540427863598
-0.5985304117202759,4.897459506988525,8.8604736328125,-0.024386480450630188,0.026756882667541504,-0.013842866756021976
-0.6105058193206787,4.875903606414795,8.8604736328125,-0.007873587310314178,0.03847571834921837,-0.016506239771842957
-0.6488271951675415,4.873508930206299,8.800597190856934,0.004377915523946285,0.03474699333310127,-0.023430999368429184
-0.6967287063598633,4.921410083770752,8.77664566040039,-0.004677541553974152,-0.003605538746342063,-0.022898323833942413
-0.6775680780410767,4.892669200897217,8.829337120056152,-0.014798350632190704,-0.03716399893164635,-0.01490821409970522
-0.6248763799667358,4.8711137771606445,8.855683326721191,0.0006491979584097862,-0.03503330424427986,-0.006918103434145451
-0.5602091550827026,4.883089542388916,8.786225318908691,0.028880920261144638,-0.007334256544709206,-0.006385429762303829
-0.5314682722091675,4.8447675704956055,8.690423011779785,0.045393817126750946,0.011309333145618439,-0.009581473655998707
-0.5194927453994751,4.875903606414795,8.577853202819824,0.03687103092670441,-0.00254019140265882,-0.015973560512065887
-0.5386534929275513,4.885483741760254,8.62814998626709,0.010770004242658615,-0.029706565663218498,-0.025561697781085968
-0.5386534929275513,4.919014930725098,8.692817687988281,0.005975937470793724,-0.040892720222473145,-0.03088843636214733
-0.8500138521194458,5.022003173828125,7.9431586265563965,-0.011602308601140976,-0.032902609556913376,-0.02183297649025917
-0.7685811519622803,4.966917037963867,8.374272346496582,-0.04995483532547951,0.030485602095723152,0.019715601578354836
-0.5003321170806885,4.923805236816406,8.642521858215332,-0.03823600709438324,0.03208361938595772,0.022911643609404564
-0.7590007781982422,4.919014930725098,8.769460678100586,-0.014265675097703934,-0.007334256544709206,-0.013310193084180355
-0.5314682722091675,4.859138011932373,8.644917488098145,0.023554181680083275,-0.013193671591579914,-0.002124037593603134
-0.5817649364471436,4.914225101470947,8.618570327758789,0.015564071014523506,-0.015857040882110596,-0.01544088777154684
-0.65840744972229,4.921410083770752,8.62814998626709,0.011302677914500237,-0.019053086638450623,-0.01490821409970522
-0.6679877042770386,4.919014930725098,8.618570327758789,0.005443263798952103,-0.016922390088438988,-0.0015913639217615128
-0.6057157516479492,4.914225101470947,8.616175651550293,0.008639306761324406,-0.012128323316574097,0.011192813515663147
-0.5314682722091675,4.885483741760254,8.549113273620605,0.011302677914500237,0.0027865509036928415,0.012790834531188011
-0.49314698576927185,4.897459506988525,8.529953002929688,0.007573959417641163,0.00758061558008194,0.009062116965651512
-0.5242830514907837,4.878298759460449,8.539533615112305,-0.0041448697447776794,0.002253875369206071,-0.003722059540450573
-0.5434436798095703,4.892669200897217,8.565878868103027,-0.008938934653997421,0.001188528025522828,-0.006385429762303829
-0.5889501571655273,4.933385848999023,8.611385345458984,-0.01692904531955719,0.0006558543536812067,-0.008516126312315464
-0.617691159248352,4.890274524688721,8.685632705688477,-0.020125091075897217,-0.0009421685244888067,-0.00478740781545639
-0.617691159248352,4.916620254516602,8.71916389465332,-0.015863697975873947,-0.00254019140265882,-0.005320081487298012
-0.612900972366333,4.902249336242676,8.683237075805664,-0.005210217088460922,0.002253875369206071,-0.003722059540450573
-0.6416418552398682,4.907039642333984,8.637731552124023,-0.0014814985916018486,0.004917247220873833,-0.003722059540450573
-0.65840744972229,4.890274524688721,8.647311210632324,-0.009471610188484192,0.002253875369206071,0.0032027028501033783
-0.6057157516479492,4.89985466003418,8.67126178741455,-0.015863697975873947,-0.008399604819715023,0.00852944329380989
-0.5937403440475464,4.904644966125488,8.759881019592285,-0.012134980410337448,-0.007334256544709206,0.005333399400115013
-0.608110785484314,4.902249336242676,8.728744506835938,0.0070412857457995415,0.002253875369206071,-0.0010586893185973167
-0.6224813461303711,4.923805236816406,8.630545616149902,0.01503139641135931,0.014505378901958466,-0.0015913639217615128
-0.6033205986022949,4.873508930206299,8.611385345458984,-0.0025468477979302406,0.0038518982473760843,0.014921532943844795
-0.5242830514907837,4.863928318023682,8.635335922241211,-0.012134980410337448,-0.004138212651014328,0.019715601578354836
-0.5386534929275513,4.8711137771606445,8.692817687988281,0.008639306761324406,0.014505378901958466,-0.012244843877851963
-0.5817649364471436,4.895064353942871,8.61378002166748,0.013433374464511871,0.01663607731461525,-0.015973560512065887
-0.6057157516479492,4.8806939125061035,8.597014427185059,0.008639306761324406,0.01184200868010521,-0.013842866756021976
-0.5673943758010864,4.89985466003418,8.618570327758789,-0.007340915501117706,-0.003605538746342063,-0.007983451709151268
-0.5649993419647217,4.859138011932373,8.711978912353516,-0.011602308601140976,-0.0014748421963304281,-0.009581473655998707
-0.5697895288467407,4.897459506988525,8.73353385925293,0.003845241852104664,0.00758061558008194,-0.0213003046810627
-0.6152961254119873,4.904644966125488,8.654497146606445,0.012368026189506054,0.008645964786410332,-0.022898323833942413
-0.6224813461303711,4.914225101470947,8.592225074768066,-0.00041615311056375504,-0.005203559994697571,-0.0175715833902359
-0.6224813461303711,4.89985466003418,8.64012622833252,-0.005210217088460922,-0.0004094929900020361,-0.01544088777154684
-0.6416418552398682,4.89985466003418,8.673657417297363,0.001714545302093029,0.006515268236398697,-0.01544088777154684
-0.6344566345214844,4.911829948425293,8.632941246032715,0.003312567248940468,-0.0030728650745004416,-0.012777518481016159
-0.6248763799667358,4.89985466003418,8.632941246032715,-0.0036121951416134834,-0.004670886322855949,-0.009581473655998707
-0.608110785484314,4.902249336242676,8.680842399597168,-0.007873587310314178,0.005982592701911926,-0.009581473655998707
-0.6727780103683472,4.923805236816406,8.707188606262207,0.02142348513007164,-0.021183781325817108,-0.014375540427863598
-0.6392468214035034,4.907039642333984,8.666472434997559,0.024619529023766518,-0.015324367210268974,-0.009581473655998707
-0.6152961254119873,4.909434795379639,8.664076805114746,0.026750225573778152,0.0027865509036928415,-0.007450778968632221
-0.6344566345214844,4.89985466003418,8.656891822814941,0.032076966017484665,0.005982592701911926,-0.009581473655998707
-0.7374451160430908,4.95733642578125,8.000640869140625,0.032609641551971436,-0.05207887664437294,-0.009048799984157085
-0.7326549291610718,5.060324668884277,8.003035545349121,-0.13198664784431458,-0.20389097929000854,0.004800725728273392
-0.49314698576927185,5.017213344573975,8.577853202819824,-0.15702232718467712,-0.14636218547821045,0.036228492856025696
-0.7422351837158203,4.923805236816406,8.62575626373291,0.07841961085796356,0.10932136327028275,0.0016046809032559395
-0.6009255647659302,4.911829948425293,8.82454776763916,-0.036105312407016754,-0.12558789551258087,0.004800725728273392
-0.6320616006851196,4.950151443481445,8.680842399597168,0.014498721808195114,-0.08031060546636581,-0.013842866756021976
-0.7063089609146118,4.971706867218018,8.515582084655762,0.05231858044862747,0.02143014222383499,-0.011712170206010342
-0.5721845626831055,4.938175678253174,8.546717643737793,-0.03397461399435997,-0.03769667446613312,0.028771059587597847
-0.5482337474822998,4.904644966125488,8.597014427185059,-0.031843919306993484,-0.03023924119770527,0.018117574974894524
-0.5769747495651245,4.940571308135986,8.632941246032715,-0.01266765221953392,0.010243985801935196,0.009594792500138283
-0.5985304117202759,4.911829948425293,8.592225074768066,-0.003079521469771862,0.03368164971470833,0.009062116965651512
-0.5793697834014893,4.907039642333984,8.637731552124023,-0.013732999563217163,0.027822230011224747,0.00799676962196827
-0.6560124158859253,4.945361137390137,8.771855354309082,-0.013200327754020691,-0.03183726221323013,-0.01703891158103943
-0.720679521560669,4.954941272735596,8.700002670288086,0.008106634020805359,-0.010530301369726658,-0.011712170206010342
-0.6967287063598633,4.945361137390137,8.623361587524414,0.01716209203004837,0.008645964786410332,0.0016046809032559395
-0.6488271951675415,4.945361137390137,8.58264446258545,0.010770004242658615,0.014505378901958466,0.009594792500138283
-0.5961353778839111,4.930990695953369,8.632941246032715,0.00011652428656816483,0.004384571686387062,0.0069314222782850266
-0.617691159248352,4.9357805252075195,8.62575626373291,0.00011652428656816483,-0.013193671591579914,-0.0015913639217615128
-0.617691159248352,4.921410083770752,8.61378002166748,0.001714545302093029,-0.016389714553952217,-0.002124037593603134
-0.6344566345214844,4.914225101470947,8.553903579711914,-0.0014814985916018486,-0.012128323316574097,-0.0010586893185973167
-0.612900972366333,4.933385848999023,8.60420036315918,-0.007873587310314178,0.009711313992738724,0.004268051125109196
-0.5626043081283569,4.89985466003418,8.642521858215332,-0.0014814985916018486,0.01663607731461525,0.0032027028501033783
-0.5626043081283569,4.914225101470947,8.597014427185059,0.001714545302093029,0.01237468421459198,-0.007450778968632221
-0.6608024835586548,4.914225101470947,8.656891822814941,-0.013200327754020691,0.008645964786410332,-0.01703891158103943
-0.6871484518051147,4.947756290435791,8.700002670288086,-0.009471610188484192,0.004917247220873833,-0.016506239771842957
-0.7063089609146118,4.942965984344482,8.700002670288086,-0.005742892622947693,0.0038518982473760843,-0.01544088777154684
-0.7350499629974365,4.954941272735596,8.704792976379395,0.001714545302093029,0.0027865509036928415,-0.01490821409970522
-0.7590007781982422,4.990867614746094,8.608990669250488,0.00650861207395792,-0.008399604819715023,-0.0031893854029476643
-0.7374451160430908,4.9357805252075195,8.575459480285645,0.0011818716302514076,-0.008399604819715023,0.011192813515663147
-0.6152961254119873,4.921410083770752,8.597014427185059,-0.006275564432144165,0.0027865509036928415,0.01651955582201481
-0.5769747495651245,4.938175678253174,8.611385345458984,-0.006275564432144165,0.006515268236398697,0.011725487187504768
-0.5865551233291626,4.914225101470947,8.620965957641602,-0.013200327754020691,-0.0009421685244888067,0.002670029178261757
-0.6488271951675415,4.940571308135986,8.704792976379395,-0.01639636978507042,-0.003605538746342063,-0.003722059540450573
-0.6679877042770386,4.930990695953369,8.747905731201172,-0.013200327754020691,-0.004670886322855949,-0.004254733677953482
-0.6871484518051147,4.940571308135986,8.723954200744629,0.0006491979584097862,-0.013193671591579914,0.002670029178261757
-0.6488271951675415,4.916620254516602,8.630545616149902,0.005975937470793724,-0.0222491305321455,0.007464095950126648
-0.6344566345214844,4.897459506988525,8.599410057067871,0.004377915523946285,-0.010530301369726658,0.002137354575097561
-0.6296665668487549,4.919014930725098,8.611385345458984,0.003845241852104664,0.0001231806818395853,-0.0015913639217615128
-0.6560124158859253,4.945361137390137,8.608990669250488,0.001714545302093029,-0.0014748421963304281,0.001072007231414318
-0.6224813461303711,4.950151443481445,8.597014427185059,-0.0009488249197602272,-0.006268909201025963,0.0058660730719566345
-0.608110785484314,4.919014930725098,8.606595039367676,-0.0025468477979302406,0.006515268236398697,0.007464095950126648
-0.5817649364471436,4.923805236816406,8.647311210632324,-0.00041615311056375504,0.023028165102005005,0.0058660730719566345
-0.5673943758010864,4.909434795379639,8.64970588684082,0.001714545302093029,0.0001231806818395853,-0.004254733677953482
-0.5602091550827026,4.892669200897217,8.644917488098145,-0.0020141741260886192,-0.012128323316574097,-0.012244843877851963
-0.5961353778839111,4.885483741760254,8.67126178741455,-0.0014814985916018486,-0.007866931147873402,-0.0175715833902359
-0.5841600894927979,4.8806939125061035,8.67126178741455,0.003312567248940468,-0.003605538746342063,-0.01810425892472267
-0.5793697834014893,4.902249336242676,8.66168212890625,0.009171982295811176,-0.0014748421963304281,-0.023963674902915955
-0.7278647422790527,5.050744533538818,7.916812419891357,-0.04516076669096947,-0.15541763603687286,-0.03621517866849899
-0.41171422600746155,4.974102020263672,9.22213077545166,-0.15862034261226654,-0.03716399893164635,0.049545347690582275
-0.45003554224967957,4.940571308135986,9.361045837402344,0.052851252257823944,0.20147396624088287,0.002137354575097561
-0.8571990728378296,4.820816993713379,8.963461875915527,0.14979791641235352,0.2733849883079529,-0.008516126312315464
-0.8021122217178345,4.823211669921875,8.549113273620605,0.07469089329242706,0.09280847012996674,0.01705222763121128
-0.6320616006851196,4.875903606414795,8.69760799407959,-0.054216232150793076,-0.13517603278160095,0.022378968074917793
-0.5913451910018921,4.907039642333984,8.700002670288086,0.05657996982336044,0.003319224575534463,-0.0213003046810627
-0.730259895324707,4.930990695953369,8.506002426147461,0.09226913750171661,0.11411542445421219,-0.010646821931004524
-0.6608024835586548,4.947756290435791,8.424569129943848,0.024619529023766518,0.017168749123811722,0.02131362073123455
-0.5170978307723999,4.895064353942871,8.501212120056152,-0.028115201741456985,-0.07178781926631927,0.019182922318577766
-0.4979371130466461,4.909434795379639,8.601804733276367,-0.03024589642882347,-0.07072247564792633,6.658956408500671e-06
-0.5673943758010864,4.930990695953369,8.61378002166748,0.0006491979584097862,0.005982592701911926,-0.014375540427863598
-0.6512222290039062,4.950151443481445,8.563483238220215,0.022488832473754883,0.05871732905507088,-0.013842866756021976
-0.6727780103683472,4.930990695953369,8.565878868103027,0.007573959417641163,0.044335123151540756,-0.00478740781545639
-0.6751730442047119,4.942965984344482,8.608990669250488,-0.020125091075897217,-0.013193671591579914,-0.0031893854029476643
-0.6751730442047119,4.919014930725098,8.635335922241211,-0.03024589642882347,-0.03396795690059662,-0.005852756090462208
-0.6991238594055176,4.954941272735596,8.735929489135742,-0.028647877275943756,-0.03716399893164635,-0.009048799984157085
-0.7446303367614746,4.95733642578125,8.750299453735352,-0.005210217088460922,-0.005736234597861767,-0.006385429762303829
-0.7542107105255127,4.95733642578125,8.64012622833252,0.01290070079267025,0.010243985801935196,0.00852944329380989
-0.7326549291610718,4.952546119689941,8.608990669250488,0.011835351586341858,0.015038050711154938,0.01758490316569805
-0.65840744972229,4.919014930725098,8.656891822814941,-0.003079521469771862,0.006515268236398697,0.027173036709427834
-0.5673943758010864,4.897459506988525,8.685632705688477,-0.005210217088460922,-0.00946495309472084,0.024509666487574577
-0.5338633060455322,4.909434795379639,8.66168212890625,0.003845241852104664,-0.012128323316574097,0.01758490316569805
-0.5123076438903809,4.895064353942871,8.606595039367676,0.008106634020805359,-0.014259019866585732,0.010660139843821526
-0.5290732383728027,4.892669200897217,8.558693885803223,0.009171982295811176,-0.009997626766562462,0.0037353765219449997
-0.5602091550827026,4.895064353942871,8.549113273620605,-0.00041615311056375504,0.00811329297721386,-0.0026567112654447556
-0.5817649364471436,4.89985466003418,8.594619750976562,-0.005210217088460922,0.015038050711154938,-0.005320081487298012
-0.6224813461303711,4.954941272735596,8.716768264770508,-0.006808239966630936,0.01663607731461525,-0.009048799984157085
-0.6200861930847168,4.952546119689941,8.71916389465332,0.0006491979584097862,-0.00254019140265882,-0.005320081487298012
-0.6105058193206787,4.902249336242676,8.620965957641602,0.005443263798952103,-0.023314477875828743,-0.0031893854029476643
-0.5961353778839111,4.8806939125061035,8.587434768676758,0.004910589195787907,-0.02278180420398712,-0.005852756090462208
-0.6033205986022949,4.883089542388916,8.599410057067871,0.00011652428656816483,-0.006801582872867584,-0.013842866756021976
-0.653617262840271,4.930990695953369,8.647311210632324,-0.0014814985916018486,0.001188528025522828,-0.01703891158103943
-0.6679877042770386,4.940571308135986,8.66168212890625,0.001714545302093029,-0.007334256544709206,-0.01490821409970522
-0.65840744972229,4.95733642578125,8.64970588684082,0.003845241852104664,-0.014791693538427353,-0.012244843877851963
-0.6703828573226929,4.95733642578125,8.637731552124023,0.00650861207395792,-0.005736234597861767,-0.009048799984157085
-0.6991238594055176,4.974102020263672,8.64012622833252,0.007573959417641163,0.002253875369206071,-0.0031893854029476643
-0.6416418552398682,4.928595542907715,8.64012622833252,0.005443263798952103,-0.0004094929900020361,0.005333399400115013
-0.6560124158859253,4.942965984344482,8.393433570861816,0.003845241852104664,-0.006801582872867584,0.002670029178261757
-0.8548040390014648,5.0699052810668945,8.280864715576172,0.0022472189739346504,0.0917431116104126,0.0037353765219449997
-0.7997171878814697,5.089066028594971,8.446125030517578,0.0022472189739346504,0.12157285958528519,0.018650250509381294
-0.5865551233291626,4.986077308654785,8.707188606262207,-0.013732999563217163,0.05072721466422081,0.030901754274964333
-0.5985304117202759,4.811236381530762,8.747905731201172,-0.049422163516283035,-0.11599976569414139,0.015986880287528038
-0.5673943758010864,4.818421840667725,8.66168212890625,-0.057944949716329575,-0.14210079610347748,0.001072007231414318
-0.5386534929275513,4.895064353942871,8.700002670288086,-0.048356812447309494,-0.07977793365716934,-0.0026567112654447556
-0.608110785484314,4.933385848999023,8.910770416259766,-0.0036121951416134834,0.056586626917123795,-0.002124037593603134
-0.6105058193206787,4.907039642333984,8.83891773223877,0.04752451553940773,0.08854707330465317,0.009594792500138283
-0.5865551233291626,4.950151443481445,8.690423011779785,-0.028115201741456985,-0.04408876225352287,-0.025029022246599197
-0.6224813461303711,4.95733642578125,8.539533615112305,0.036338359117507935,0.04220442846417427,-0.005320081487298012
-0.6248763799667358,4.89985466003418,8.431754112243652,0.013433374464511871,0.035279665142297745,-0.007450778968632221
-0.6512222290039062,4.945361137390137,8.630545616149902,-0.031843919306993484,-0.012660996988415718,-0.015973560512065887
-0.6727780103683472,4.933385848999023,8.62575626373291,0.001714545302093029,0.030485602095723152,0.004268051125109196
-0.6608024835586548,4.945361137390137,8.700002670288086,-0.012134980410337448,-0.0020075140055269003,0.004268051125109196
-0.6344566345214844,4.9357805252075195,8.707188606262207,-0.012134980410337448,-0.03130458667874336,0.0058660730719566345
-0.6200861930847168,4.904644966125488,8.676053047180176,0.0022472189739346504,-0.023847153410315514,0.0037353765219449997
-0.5961353778839111,4.926200866699219,8.632941246032715,0.011302677914500237,-0.010530301369726658,0.001072007231414318
-0.6057157516479492,4.938175678253174,8.594619750976562,0.016096744686365128,0.015570726245641708,-0.0031893854029476643
-0.6272714138031006,4.9357805252075195,8.654497146606445,0.0022472189739346504,0.002253875369206071,-0.0005260147154331207
-0.6009255647659302,4.921410083770752,8.676053047180176,-0.0020141741260886192,-0.025445174425840378,-0.0015913639217615128
-0.8787548542022705,5.117806434631348,7.679699897766113,0.009704655967652798,-0.003605538746342063,-0.025561697781085968
-0.9745581150054932,5.050744533538818,8.316790580749512,-0.06540238857269287,0.011309333145618439,0.011192813515663147
-0.6009255647659302,4.986077308654785,8.73114013671875,-0.057412270456552505,-0.012128323316574097,0.04262058436870575
-0.5290732383728027,4.942965984344482,8.819756507873535,-0.008938934653997421,0.008645964786410332,0.015986880287528038
