accX,accY,accZ,gyroX,gyroY,gyroZ
2.9539754390716553,9.271307945251465,-1.7669495344161987,0.01771509274840355,0.04136430472135544,0.025045474991202354
3.0448689460754395,9.297432899475098,-1.3719158172607422,-0.1500808596611023,-0.06661921739578247,0.057962384074926376
2.9822654724121094,9.507536888122559,-1.5327391624450684,-0.273074209690094,-0.1984090358018875,-0.004642575979232788
2.782684803009033,9.639822006225586,-1.3867790699005127,-0.332991361618042,-0.25213027000427246,0.025481807067990303
2.831306219100952,9.57801342010498,-1.445446491241455,-0.32875022292137146,-0.20916025340557098,0.0671253651380539
2.678546667098999,9.653746604919434,-1.4902851581573486,-0.3389603793621063,-0.15692254900932312,0.1316501796245575
2.723097801208496,9.64009952545166,-1.5318388938903809,-0.3945491313934326,-0.13695599138736725,0.21626374125480652
2.9956154823303223,9.417344093322754,-1.107461929321289,-0.4449367821216583,-0.19949112832546234,0.25624924898147583
3.269301414489746,9.354443550109863,-1.0272082090377808,-0.4703313112258911,-0.19750145077705383,0.2425134927034378
3.2327468395233154,9.513838768005371,-0.9781845808029175,-0.4360705018043518,-0.15276867151260376,0.21462313830852509
3.25677490234375,9.401071548461914,-0.9252727031707764,-0.4392295479774475,-0.17730799317359924,0.2116735279560089
3.5495762825012207,9.171525955200195,-0.9672765731811523,-0.4504869282245636,-0.21301743388175964,0.18477800488471985
3.545017719268799,9.006662368774414,-0.9371192455291748,-0.4418126344680786,-0.15142476558685303,0.15404276549816132
3.3633551597595215,9.203694343566895,-0.5759491324424744,-0.3816162347793579,-0.04660028964281082,0.19221310317516327
3.403740644454956,9.211968421936035,-0.369827538728714,-0.3422241508960724,-0.037489671260118484,0.2500882148742676
3.555044651031494,9.153732299804688,-0.2117719203233719,-0.3253991901874542,-0.042271874845027924,0.2577153146266937
3.8233771324157715,8.896059036254883,-0.181748628616333,-0.3113318383693695,-0.0414690226316452,0.24593433737754822
4.301058769226074,8.542702674865723,0.13513831794261932,-0.22085396945476532,-0.11185815185308456,0.027960173785686493
3.9577972888946533,8.85405445098877,-0.22387699782848358,-0.16205382347106934,-0.042760565876960754,-0.047333329916000366
3.7085225582122803,8.9502534866333,-0.22471018135547638,-0.15603242814540863,-0.019984019920229912,-0.03157300502061844
3.6183760166168213,8.993741989135742,0.09134358167648315,-0.12512265145778656,-0.03487167879939079,0.011414453387260437
3.8810582160949707,8.815718650817871,0.2859634459018707,-0.07960446923971176,-0.07810348272323608,0.027960173785686493
4.080638885498047,8.779144287109375,0.19664056599140167,-0.003543018363416195,-0.06696828454732895,-0.02361430414021015
3.6548635959625244,9.139032363891602,-0.03532883897423744,0.12318533658981323,0.06586872786283493,0.017680184915661812
3.8704183101654053,9.122981071472168,-0.24454374611377716,0.18573793768882751,0.1273392289876938,0.057508599013090134
3.96834135055542,8.995599746704102,-0.48578351736068726,0.16123351454734802,0.10005972534418106,0.005969026125967503
3.896974802017212,9.012377738952637,-0.4524083435535431,0.12976522743701935,0.07145377993583679,-0.02387610450387001
3.5891380310058594,9.167091369628906,-0.3457610309123993,0.09091419726610184,0.00548033369705081,-0.058538343757390976
3.5891189575195312,9.128124237060547,-0.3517848253250122,0.05440191179513931,-0.0302465558052063,-0.039269909262657166
3.5917141437530518,9.144049644470215,-0.3793373107910156,0.07075564563274384,0.01970476657152176,-0.03021164983510971
3.723768711090088,9.125441551208496,-0.29391220211982727,0.06199409440159798,0.004660028964281082,-0.0239110104739666
3.6341586112976074,9.237184524536133,-0.4967297911643982,0.04846779257059097,0.0022165682166814804,-0.03663446009159088
3.575864553451538,9.238994598388672,-0.3748074769973755,0.046041786670684814,0.0046774824149906635,-0.025708699598908424
3.6128406524658203,9.110262870788574,-0.3356574773788452,0.06927211582660675,0.008429939858615398,-0.026197392493486404
3.5611066818237305,9.157964706420898,-0.4229692220687866,0.09690067917108536,0.04047418385744095,-0.01727875880897045
3.5415987968444824,9.178267478942871,-0.46059650182724,0.13838715851306915,0.11110766232013702,0.013456488028168678
3.5308728218078613,9.222742080688477,-0.5863591432571411,0.09772098809480667,0.07293730974197388,-0.00708603672683239
3.455752372741699,9.314143180847168,-0.5616605281829834,-0.012409291230142117,-0.034697145223617554,-0.015742870047688484
3.564554452896118,9.213118553161621,-0.4932725727558136,-0.03958406671881676,-0.02649409882724285,-0.022340213879942894
3.6559746265411377,9.155943870544434,-0.35191890597343445,-0.020402899011969566,0.002373647876083851,-0.02839650772511959
3.670588731765747,9.189396858215332,-0.3773932158946991,0.015306537039577961,0.02892010472714901,-0.020542524755001068
3.872764825820923,9.016429901123047,-0.5154045820236206,0.07082545757293701,0.09183922410011292,-0.03691371530294418
3.3658642768859863,9.234780311584473,-0.5141212940216064,0.19594810903072357,0.15802210569381714,-0.14138911664485931
3.1934149265289307,9.38644027709961,-0.5905728936195374,0.1370781660079956,0.10730284452438354,-0.1218239814043045
3.150960922241211,9.399798393249512,-0.5051669478416443,0.026110125705599785,0.026720991358160973,-0.060528017580509186
3.3835813999176025,9.228018760681152,-0.31428205966949463,-0.007923794910311699,-0.020001472905278206,-0.01727875880897045
3.5858054161071777,9.129559516906738,-0.3048967719078064,0.07483971863985062,0.04614650458097458,-0.012252211570739746
3.804290533065796,9.032039642333984,-0.49065810441970825,0.33974578976631165,0.2629513144493103,0.013299409300088882
3.8287785053253174,8.92721176147461,-0.4428219497203827,0.4708898365497589,0.3894702196121216,-0.0005759586347267032
3.7621142864227295,9.026867866516113,-0.5543055534362793,0.5324825048446655,0.4319864511489868,-0.006702064536511898
3.6864097118377686,9.057552337646484,-1.0551725625991821,0.3851243555545807,0.28611183166503906,-0.004834562074393034
3.9032669067382812,8.997746467590332,-1.4550424814224243,0.25246188044548035,0.2499835044145584,-0.01665044017136097
4.267319679260254,8.658726692199707,-1.3325072526931763,0.28036969900131226,0.4271344244480133,-0.09257226437330246
3.8668174743652344,8.88632869720459,-0.4918552041053772,0.5064421892166138,0.6838200092315674,-0.10526080429553986
3.3124544620513916,9.283439636230469,-0.15204137563705444,0.8125554919242859,0.8667654395103455,-0.023195425048470497
3.0218942165374756,9.500393867492676,-1.348232388496399,0.9275552034378052,1.0669372081756592,0.106569804251194
2.951159954071045,9.582218170166016,-1.3354665040969849,0.8905717134475708,1.1351271867752075,0.23485150933265686
3.0191168785095215,9.505202293395996,-1.4358888864517212,0.7497585415840149,1.0100743770599365,0.35904914140701294
3.4212565422058105,9.236303329467773,-1.3589870929718018,0.7411191463470459,1.1136771440505981,0.4591263234615326
4.18499755859375,8.99433708190918,-0.904098391532898,0.7464947700500488,1.0102314949035645,0.3735353648662567
4.210500240325928,8.99513053894043,-1.2913652658462524,0.5277003049850464,0.5503895878791809,0.14049901068210602
3.5843305587768555,9.266585350036621,-1.6896934509277344,0.22506020963191986,0.22067943215370178,0.02612757869064808
3.3887529373168945,9.276115417480469,-1.7081670761108398,0.03508111834526062,0.15606734156608582,0.059550635516643524
3.3836867809295654,9.10501480102539,-1.2438260316848755,0.09573131054639816,0.33569663763046265,0.16051793098449707
3.44382905960083,8.983552932739258,-0.6923743486404419,0.3159394860267639,0.5999918580055237,0.31204742193222046
4.111351490020752,8.68271541595459,-0.7718427181243896,0.5040685534477234,0.7212398648262024,0.37798595428466797
4.502181053161621,8.728540420532227,-0.9404711127281189,0.528415858745575,0.6212673783302307,0.31841787695884705
4.4550251960754395,8.77548599243164,-1.4304684400558472,0.4245862364768982,0.43045055866241455,0.23232077062129974
4.2692155838012695,8.779136657714844,-1.437737226486206,0.3131295144557953,0.31182053685188293,0.17582446336746216
4.0289530754089355,8.859896659851074,-1.6260554790496826,0.29070204496383667,0.33278194069862366,0.19652406871318817
4.156142234802246,8.695280075073242,-1.7328752279281616,0.29771825671195984,0.4288797676563263,0.2669306695461273
4.494021892547607,8.448075294494629,-1.3208235502243042,0.4051781892776489,0.5919982194900513,0.3343701660633087
4.871568202972412,8.504328727722168,-1.0473674535751343,0.5105611681938171,0.6239551901817322,0.3098832070827484
5.16188907623291,8.145687103271484,-1.5147442817687988,0.39364156126976013,0.45116761326789856,0.1347743272781372
4.901553153991699,8.612010955810547,-1.7767466306686401,0.18793705105781555,0.22883011400699615,0.016545720398426056
4.59475040435791,8.71640682220459,-1.8534281253814697,0.027750734239816666,0.053302355110645294,0.0027052604127675295
4.608895778656006,8.557930946350098,-1.5849614143371582,0.023596851155161858,0.06988298147916794,0.023945916444063187
4.709518909454346,8.405621528625488,-1.6208553314208984,0.09351474046707153,0.14953981339931488,0.03719296678900719
4.936872482299805,8.529458045959473,-1.8118072748184204,-0.09173450618982315,-0.07737044245004654,-0.015533430501818657
4.7108025550842285,8.711121559143066,-1.2157756090164185,-0.06696828454732895,-0.08026769012212753,-0.06771877408027649
4.608052730560303,8.631911277770996,-1.0358465909957886,0.04202752932906151,-0.08864527195692062,-0.06572909653186798
4.521852016448975,8.599560737609863,-1.569169282913208,0.02869321219623089,-0.16797049343585968,-0.0982096791267395
4.612132549285889,8.43469524383545,-1.7582728862762451,-0.15023794770240784,-0.3545636236667633,-0.163013756275177
4.480958938598633,8.835533142089844,-1.5196380615234375,-0.4573460817337036,-0.6315299272537231,-0.23942427337169647
4.688919544219971,8.639851570129395,-1.5300959348678589,-0.3603406846523285,-0.4309043288230896,-0.2408205270767212
4.25261926651001,8.80574893951416,-1.2555959224700928,-0.28387778997421265,-0.36053267121315,-0.2172062247991562
4.109819412231445,8.982537269592285,-1.1863555908203125,-0.2676636874675751,-0.3821223974227905,-0.1854935884475708
4.093194007873535,8.78233528137207,-1.6916279792785645,-0.26771605014801025,-0.35760051012039185,-0.11938051879405975
4.10867977142334,8.70707893371582,-1.5935039520263672,-0.2517113983631134,-0.2670353651046753,-0.11201523244380951
3.67588472366333,9.157170295715332,-1.5062018632888794,-0.27899089455604553,-0.2773851752281189,-0.04893903061747551
3.9271514415740967,9.072328567504883,-1.5841761827468872,-0.29619982838630676,-0.2825688123703003,0.013735741376876831
4.218066215515137,8.905405044555664,-1.5520555973052979,-0.3125884532928467,-0.2780134975910187,-0.037402406334877014
4.147274494171143,8.909762382507324,-1.5208543539047241,-0.3163060247898102,-0.26940903067588806,-0.05251695588231087
3.982773542404175,8.979568481445312,-1.3399771451950073,-0.3009296655654907,-0.2453583925962448,-0.05340707674622536
4.003162384033203,8.928620338439941,-1.032168984413147,-0.2237861156463623,-0.22628194093704224,-0.046355944126844406
4.039764881134033,8.8828706741333,-1.2677010297775269,-0.17432348430156708,-0.1929985135793686,-0.04269075393676758
4.439472198486328,8.65133285522461,-1.2640522718429565,-0.13875368237495422,-0.123272605240345,-0.02972295694053173
4.228954792022705,8.749371528625488,-0.9101030826568604,0.0570373609662056,0.032882001250982285,0.06956882029771805
4.36220645904541,8.704157829284668,-1.1609771251678467,0.07857472449541092,0.03703588619828224,0.03241076320409775
4.093452453613281,8.94197940826416,-1.3804583549499512,0.01448623277246952,-0.025830872356891632,-0.010419615544378757
3.9299094676971436,9.027691841125488,-1.3699909448623657,-0.05347688868641853,-0.09267698228359222,-0.009791296906769276
4.182468891143799,8.871637344360352,-1.2830334901809692,-0.044366270303726196,-0.08155923336744308,-0.02591813914477825
4.127383232116699,8.853863716125488,-1.289459466934204,-0.027122415602207184,-0.0823969915509224,-0.05117305368185043
3.978559732437134,8.921629905700684,-1.4139004945755005,-0.06209881603717804,-0.11367329210042953,-0.03933972120285034
3.9671058654785156,8.90331745147705,-1.364244818687439,-0.07332128286361694,-0.10709340125322342,-0.028187068179249763
4.020333766937256,8.923466682434082,-1.1140124797821045,-0.05483824387192726,-0.06503096967935562,0.0076445420272648335
4.109282970428467,8.883743286132812,-1.0617421865463257,-0.025569073855876923,-0.05836381018161774,0.018099064007401466
4.012155055999756,8.98659896850586,-1.0239616632461548,-0.02295107953250408,-0.14442598819732666,0.014224433340132236
3.843775749206543,9.075450897216797,-1.1443517208099365,-0.05864306166768074,-0.2419549971818924,0.036582101136446
4.044572830200195,9.012914657592773,-1.6706163883209229,-0.3090454638004303,-0.3260100483894348,-0.07667231559753418
3.9308862686157227,8.886521339416504,-1.1211758852005005,-0.2773502767086029,-0.26453953981399536,-0.07148868590593338
3.9718079566955566,8.931434631347656,-1.0293822288513184,-0.23968607187271118,-0.22764329612255096,-0.057159531861543655
3.9946775436401367,8.940581321716309,-1.0547606945037842,-0.12341222912073135,-0.10725048184394836,-0.02869321219623089
4.054771900177002,8.910300254821777,-1.0835102796554565,-0.026057764887809753,0.014695672318339348,0.023928463459014893
4.22279691696167,8.87307357788086,-1.1620688438415527,0.00024434609804302454,0.04120722413063049,0.028640853241086006
4.139928817749023,8.917425155639648,-1.1717222929000854,-0.019495327025651932,0.01638864167034626,0.020839231088757515
4.143931865692139,8.869894027709961,-1.0822844505310059,-0.013997540809214115,0.003490658476948738,0.01603957638144493
4.009406566619873,8.838224411010742,-1.1772289276123047,0.03787364438176155,0.07468263804912567,0.008848818950355053
3.998460292816162,8.88316822052002,-1.0862109661102295,0.05092870816588402,0.08339183032512665,0.02755874954164028
4.108536243438721,8.829020500183105,-0.9302239418029785,0.060039326548576355,0.05455899238586426,0.021711895242333412
3.9437479972839355,8.98793888092041,-1.081164002418518,0.07339109480381012,0.04412192478775978,0.016755159944295883
3.858207941055298,9.027539253234863,-1.207300066947937,0.09688322991132736,0.12407545745372772,0.06867870688438416
4.129777431488037,8.904247283935547,-1.2998216152191162,0.1275835633277893,0.21204005181789398,0.09117600321769714
4.233235836029053,8.838876724243164,-1.3360315561294556,0.11238174885511398,0.21006782352924347,0.07784168422222137
4.277825355529785,8.92233657836914,-1.2677584886550903,0.040596358478069305,0.08951793611049652,0.038065630942583084
4.163267612457275,8.980467796325684,-1.207951307296753,-0.01958259381353855,-0.00923279207199812,0.014940018765628338
4.047206401824951,8.94323444366455,-1.0903385877609253,-0.018064158037304878,-0.031956978142261505,0.01211258489638567
3.8465051651000977,9.027873039245605,-1.2234848737716675,0.05775294452905655,0.03200933709740639,0.03274237737059593
3.8676412105560303,9.098224639892578,-1.8293232917785645,0.02453932911157608,-0.04344124346971512,0.054908059537410736
4.360779762268066,8.814062118530273,-1.190933346748352,0.06949900835752487,0.04351105913519859,-0.017924530431628227
4.305397033691406,8.71138858795166,-1.5233442783355713,0.02134537696838379,0.011658798903226852,-0.06045820564031601
4.398608207702637,8.694889068603516,-1.6369444131851196,-0.044488441199064255,-0.027139870449900627,-0.08883725851774216
4.255588054656982,8.78423023223877,-1.5812456607818604,-0.2111324816942215,-0.16233307123184204,-0.13917255401611328
4.255099773406982,8.89040756225586,-1.292572021484375,-0.31206485629081726,-0.2704038619995117,-0.15577062964439392
4.183675765991211,8.921321868896484,-0.9761638641357422,-0.30455994606018066,-0.2836683690547943,-0.16720254719257355
3.9197676181793213,9.018115043640137,-0.9582648277282715,-0.23717279732227325,-0.22057470679283142,-0.15027284622192383
3.7825512886047363,9.028898239135742,-1.0009294748306274,-0.16430529952049255,-0.14240141212940216,-0.11704178154468536
3.604480028152466,9.150063514709473,-0.8483613729476929,-0.1267632693052292,-0.14788174629211426,-0.06471680849790573
3.6279242038726807,9.200897216796875,-0.7665754556655884,-0.053302355110645294,-0.09225810319185257,-0.04386012256145477
3.5558202266693115,9.27857494354248,-1.018388032913208,-0.04536110535264015,-0.07897614687681198,-0.005078908056020737
4.075477123260498,8.880438804626465,-1.2464596033096313,-0.16318827867507935,-0.18476055562496185,-0.05235987901687622
3.9871692657470703,8.833619117736816,-1.1470141410827637,-0.2197718620300293,-0.24233897030353546,-0.089867003262043
3.8840653896331787,8.933743476867676,-0.7666041851043701,-0.25567328929901123,-0.34257322549819946,-0.12362167239189148
3.643400192260742,9.06669807434082,-0.6197917461395264,-0.16723744571208954,-0.2764427065849304,-0.09855873882770538
3.62929368019104,9.1649751663208,-0.6579648852348328,-0.002286381321027875,-0.09463175386190414,-0.023317597806453705
3.8196804523468018,8.977702140808105,-1.0770268440246582,0.01719149388372898,-0.03508111834526062,0.012932890094816685
3.9757344722747803,8.855481147766113,-0.9198235273361206,-0.03289945796132088,-0.07648032903671265,0.010192723013460636
3.8581314086914062,9.012331008911133,-1.1505095958709717,0.10920525342226028,0.010681414976716042,0.020315632224082947
3.656970500946045,9.072405815124512,-1.101629614830017,0.04640830308198929,-0.0555887371301651,-0.0011344640515744686
3.7005162239074707,9.044547080993652,-1.0428376197814941,0.08894197642803192,-0.02068215236067772,0.03207915276288986
3.834131956100464,8.978008270263672,-1.1243457794189453,0.13144074380397797,0.03923500329256058,0.036582101136446
3.803601026535034,9.051251411437988,-1.24075186252594,0.03375466912984848,-0.03621558099985123,0.011676252819597721
3.834275484085083,9.043157577514648,-1.3680754899978638,0.0022689281031489372,-0.05873033031821251,0.00331612559966743
3.897683620452881,9.005023002624512,-1.2917579412460327,-0.007504915818572044,-0.025848325341939926,0.011885692365467548
3.826422691345215,9.02941608428955,-1.3247787952423096,-0.052063170820474625,-0.05249950289726257,0.02214822731912136
3.9844398498535156,8.919254302978516,-1.3322486877441406,-0.05553637817502022,-0.03206169977784157,0.009250245057046413
3.8820924758911133,8.988629341125488,-1.1785888671875,-0.036826446652412415,-0.004939281847327948,-0.00047123889089562
3.8417551517486572,9.004746437072754,-1.153804063796997,-0.028728120028972626,-0.014364060014486313,0.00753982225432992
3.8830502033233643,9.011938095092773,-1.2322955131530762,-0.0351334773004055,-0.02546435408294201,0.0006632251315750182
3.873013734817505,8.987238883972168,-1.1936818361282349,-0.048973940312862396,-0.031084313988685608,0.00457276264205575
3.8567235469818115,8.954840660095215,-1.0807617902755737,-0.02649409882724285,-0.02117084339261055,0.006073745898902416
3.765083074569702,9.029167175292969,-1.0552970170974731,-0.00251327408477664,-0.015289084054529667,0.020699605345726013
3.863781690597534,8.950597763061523,-1.215842604637146,0.017348572611808777,0.030264008790254593,0.00783652812242508
3.805602550506592,9.041855812072754,-1.2455499172210693,0.003630284918472171,0.008499753661453724,0.013037609867751598
3.9242496490478516,8.980697631835938,-1.279164433479309,-0.007382742594927549,0.006911503616720438,0.015498523600399494
4.005279064178467,8.96402645111084,-1.2701144218444824,-0.0009599310578778386,0.016196655109524727,-0.0007853981805965304
4.087831020355225,8.913507461547852,-1.3275656700134277,-0.00125663704238832,0.024609142914414406,-0.01357866171747446
4.061983108520508,8.896384239196777,-1.352034330368042,-0.0026529005263000727,0.05283111706376076,-0.019058994948863983
4.04805850982666,8.900521278381348,-1.2813957929611206,0.0025656339712440968,0.07075564563274384,-0.02165953628718853
3.7940146923065186,9.060070991516113,-1.2605184316635132,-0.014206980355083942,0.037402406334877014,-0.026633724570274353
3.859998941421509,8.827143669128418,-0.9036387205123901,0.10819295793771744,0.13561208546161652,0.012217304669320583
3.9539856910705566,8.903212547302246,-0.8521538376808167,0.16001178324222565,0.139434352517128,0.020629791542887688
3.7008419036865234,9.016362190246582,-1.088988184928894,0.061505403369665146,0.006911503616720438,0.0025830871891230345
3.7671804428100586,8.882190704345703,-0.9914963245391846,0.11728612333536148,0.07182029634714127,0.023719023913145065
4.17703914642334,8.60547924041748,-0.7942811846733093,0.1900838017463684,0.0794997438788414,-0.023003440350294113
3.9463815689086914,8.977327346801758,-1.3308792114257812,0.1477246731519699,0.02888519875705242,-0.059917151927948
3.59212589263916,9.251866340637207,-1.5250872373580933,0.06260495632886887,-0.009197885170578957,-0.006946410518139601
3.6216514110565186,9.152074813842773,-1.2563046216964722,0.05677555873990059,-0.006946410518139601,0.06386159360408783
3.7303097248077393,9.039499282836914,-1.1424651145935059,0.15084880590438843,0.08775515109300613,0.10677924007177353
3.952012777328491,8.882248878479004,-1.0344674587249756,0.2705260217189789,0.1679006665945053,0.11330677568912506
3.786707639694214,9.149020195007324,-1.5904968976974487,0.12079423666000366,0.042586032301187515,0.06707300245761871
3.8472137451171875,8.993233680725098,-1.410347580909729,0.1440420299768448,0.07091272622346878,0.09253735840320587
4.006801605224609,8.858623504638672,-1.2279285192489624,0.232722207903862,0.1557880938053131,0.10487683117389679
4.168582916259766,8.790780067443848,-1.4906107187271118,0.2669655680656433,0.1702568680047989,0.08051203936338425
4.071598529815674,8.873064041137695,-1.644280195236206,0.23287928104400635,0.1613207757472992,0.08566076308488846
4.130122184753418,8.825881004333496,-1.5633466243743896,0.22272147238254547,0.1716705858707428,0.12159708887338638
3.970735549926758,8.860681533813477,-1.5283050537109375,0.27293458580970764,0.24085544049739838,0.17959438264369965
3.9884238243103027,8.82405948638916,-1.4828439950942993,0.3324154019355774,0.3117332458496094,0.2341533750295639
4.357686519622803,8.61227798461914,-1.3519865274429321,0.3816162347793579,0.3355744481086731,0.23495621979236603
4.786679267883301,8.389522552490234,-1.8217672109603882,0.29075440764427185,0.12431979924440384,0.035849060863256454
4.3003692626953125,8.919857025146484,-2.457561731338501,0.049270644783973694,-0.061540309339761734,-0.07663740962743759
3.940798282623291,9.02327823638916,-2.007633924484253,-0.05843362212181091,-0.122714102268219,-0.011536626145243645
4.291414737701416,8.8556547164917,-1.9740958213806152,-0.03977605327963829,0.0035604715812951326,0.024521876126527786
4.268832683563232,8.85120964050293,-1.6065763235092163,-0.029653143137693405,-0.015271631069481373,0.013037609867751598
4.5334014892578125,8.671242713928223,-1.9270257949829102,0.013857914134860039,0.06812020391225815,0.005777040030807257
4.507553577423096,8.560018539428711,-1.9187897443771362,-0.0062831854447722435,0.05508258938789368,-0.02258456125855446
4.154763221740723,8.821857452392578,-1.6507540941238403,-0.0012915435945615172,0.05953317880630493,0.028763025999069214
4.314035415649414,8.749523162841797,-1.74472177028656,-0.011554080061614513,0.0731467455625534,0.036337755620479584
4.516325950622559,8.589428901672363,-1.6106464862823486,-0.012322024442255497,0.05536184459924698,0.010646508075296879
4.294872283935547,8.737552642822266,-1.6053122282028198,-0.004468042869120836,-0.026145031675696373,0.0036651913542300463
4.176675319671631,8.734583854675293,-1.5380159616470337,0.0509810671210289,-0.005951572675257921,0.01740093342959881
4.442977428436279,8.548670768737793,-1.5184409618377686,0.13720032572746277,0.10449286550283432,-0.0047996556386351585
4.38551664352417,8.388075828552246,-1.7192761898040771,0.24294982850551605,0.27495917677879333,0.0006632251315750182
3.902050733566284,8.895033836364746,-1.8188844919204712,0.2797588109970093,0.34376004338264465,0.08677776902914047
4.264571189880371,8.627765655517578,-1.8118455410003662,0.2802824378013611,0.335906058549881,0.1382475346326828
4.255386829376221,8.828254699707031,-1.7933911085128784,0.3089756369590759,0.37175512313842773,0.14008012413978577
4.5085978507995605,8.543190956115723,-2.6569125652313232,-0.040631264448165894,-0.06948155909776688,0.08965755999088287
5.185017108917236,8.037641525268555,-1.68260657787323,-0.013788101263344288,0.05227261036634445,-0.0031939526088535786
5.1080098152160645,8.1441068649292,-1.615578532218933,0.021013764664530754,0.06728244572877884,-0.03824016451835632
5.036797046661377,8.30736255645752,-1.6762667894363403,0.06002187356352806,0.08484045416116714,-0.06988298147916794
4.812785625457764,8.529688835144043,-2.0051629543304443,0.06604325771331787,0.06921976059675217,-0.07904595881700516
4.701733112335205,8.585444450378418,-2.141278028488159,-0.03387684002518654,-0.02843141369521618,-0.10358528792858124
4.5423173904418945,8.737285614013672,-2.131864070892334,-0.15995942056179047,-0.15109315514564514,-0.12150982022285461
4.354526042938232,8.70232105255127,-1.976710319519043,-0.23767893016338348,-0.21671752631664276,-0.11639600992202759
4.276714324951172,8.639457702636719,-1.7935442924499512,-0.21738076210021973,-0.17748253047466278,-0.12543681263923645
4.158411979675293,8.6954345703125,-1.678507685661316,-0.1636246144771576,-0.13028882443904877,-0.11737339198589325
4.132593154907227,8.786796569824219,-1.7042884826660156,-0.13461723923683167,-0.10789625346660614,-0.11157889664173126
4.040119647979736,8.903030395507812,-1.7585314512252808,-0.14557790756225586,-0.12037535756826401,-0.0890117883682251
4.061715126037598,8.846336364746094,-1.6426234245300293,-0.16856390237808228,-0.13728760182857513,-0.051225412636995316
4.209475517272949,8.700968742370605,-1.5660663843154907,-0.16081464290618896,-0.14412929117679596,-0.04668755829334259
4.451845645904541,8.60777759552002,-1.6751558780670166,-0.1469043642282486,-0.1206720620393753,-0.06244787946343422
4.496894836425781,8.601064682006836,-1.5584911108016968,-0.13463470339775085,-0.11873474717140198,-0.10014699399471283
4.367952823638916,8.75600814819336,-1.5202701091766357,-0.16467180848121643,-0.2232276052236557,-0.14016738533973694
4.12173318862915,8.86970329284668,-1.4949586391448975,-0.24647539854049683,-0.37346553802490234,-0.16755160689353943
4.094171047210693,8.867116928100586,-1.4966920614242554,-0.2657961845397949,-0.43825218081474304,-0.18006561696529388
4.022881031036377,8.85362434387207,-1.576639175415039,-0.21704915165901184,-0.39929643273353577,-0.1748645305633545
4.005087375640869,8.877172470092773,-1.5871928930282593,-0.11990411579608917,-0.3191858232021332,-0.14966198801994324
4.090177536010742,8.707969665527344,-1.5188623666763306,-0.058276545256376266,-0.28269097208976746,-0.15172147750854492
3.868818998336792,8.831012725830078,-1.4950543642044067,-0.03296926990151405,-0.27860692143440247,-0.12995721399784088
3.890864849090576,8.903432846069336,-1.3548308610916138,0.012548916973173618,-0.2606300115585327,-0.08084364980459213
3.9429244995117188,8.947372436523438,-1.4091408252716064,0.06756169348955154,-0.25972244143486023,-0.05792747810482979
4.029901027679443,8.813565254211426,-1.6143335103988647,0.08932594954967499,-0.2843490540981293,-0.0956091359257698
3.5580804347991943,9.150046348571777,-1.6185855865478516,0.06691592186689377,-0.3816162347793579,-0.062203533947467804
3.613999366760254,8.974578857421875,-1.8110603094100952,0.0391826406121254,-0.45961499214172363,0.0009075712296180427
3.625683069229126,8.999372482299805,-1.9650936126708984,-0.030979594215750694,-0.2693566679954529,0.0080634206533432
3.8644328117370605,8.849363327026367,-1.9963618516921997,-0.0691324919462204,-0.24635322391986847,-0.02640683203935623
3.9421870708465576,8.691757202148438,-2.036306858062744,-0.13760176301002502,-0.26768115162849426,-0.12639674544334412
3.712822437286377,9.019944190979004,-2.1558539867401123,-0.22542671859264374,-0.38238418102264404,-0.15395548939704895
3.38193416595459,9.296866416931152,-2.0551252365112305,-0.22343705594539642,-0.37220892310142517,-0.09751154482364655
3.407715082168579,9.071476936340332,-1.87832772731781,-0.1598547101020813,-0.3044028878211975,-0.03764675185084343
3.5563182830810547,9.003069877624512,-1.944455623626709,-0.11273081600666046,-0.16173966228961945,0.0010471974965184927
3.6767561435699463,9.033774375915527,-1.8777148723602295,-0.10164797306060791,-0.08080874383449554,0.04080579802393913
3.7687413692474365,8.96548080444336,-1.8818137645721436,-0.12407545745372772,-0.12147491425275803,0.010768681764602661
3.847778797149658,8.852502822875977,-2.187582015991211,-0.27286478877067566,-0.21308724582195282,-0.02782054804265499
3.6919162273406982,8.824385643005371,-1.9119998216629028,-0.3320663571357727,-0.2468419224023819,-0.03604104742407799
3.4414541721343994,9.18248176574707,-1.7514063119888306,-0.2347467839717865,-0.2903704345226288,0.017383478581905365
3.568260669708252,9.03601360321045,-1.587470531463623,-0.24818581342697144,-0.29021334648132324,0.03645992651581764
3.884122848510742,8.834182739257812,-1.5715826749801636,-0.23120376467704773,-0.28794440627098083,-0.00019198621157556772
3.462226152420044,9.031091690063477,-1.3619847297668457,-0.19088666141033173,-0.2676287889480591,-0.028850292786955833
3.8128139972686768,9.106173515319824,-1.6024104356765747,-0.14652039110660553,-0.2312910258769989,-0.025621432811021805
3.7559468746185303,8.84020709991455,-1.5387341976165771,-0.08129743486642838,-0.1632755547761917,5.2359879191499203e-05
3.555284023284912,9.031149864196777,-1.51609468460083,-0.049672070890665054,-0.0792204961180687,-0.005846852902323008
3.738593578338623,9.015376091003418,-1.5738906860351562,-0.10707595199346542,-0.12451178580522537,-0.01797689124941826
3.607630968093872,8.999602317810059,-1.4799134731292725,-0.11595967411994934,-0.1410924196243286,-0.018936822190880775
3.590766191482544,8.989978790283203,-1.5689969062805176,-0.11020009219646454,-0.15976743400096893,-0.021903881803154945
3.5268313884735107,9.082605361938477,-1.6418380737304688,-0.07216936349868774,-0.07152359187602997,-0.022200588136911392
3.4455626010894775,9.220865249633789,-1.900641679763794,-0.12407545745372772,-0.049235738813877106,-0.010873401537537575
3.177440643310547,9.6072998046875,-1.7608681917190552,-0.1906772255897522,-0.0555887371301651,0.03206169977784157
3.819105863571167,8.814934730529785,-1.391873836517334,-0.22591541707515717,-0.06949900835752487,0.007051130291074514
3.605073928833008,8.993722915649414,-1.109635829925537,-0.1676039695739746,-0.04742059484124184,-0.008970992639660835
3.5697929859161377,9.056900978088379,-1.031623125076294,-0.03893829509615898,0.03104940801858902,0.028047440573573112
3.5962631702423096,9.028898239135742,-1.1566771268844604,0.0584685280919075,0.1252971887588501,0.04248131439089775
3.523862600326538,9.063881874084473,-1.2705261707305908,0.05661848187446594,0.11856021732091904,0.027122415602207184
3.600505828857422,8.999774932861328,-1.1667423248291016,0.020751964300870895,0.059498272836208344,0.015882495790719986
3.5685575008392334,8.98585033416748,-1.1303696632385254,0.06997025012969971,0.07353071868419647,0.008604473434388638
3.54117751121521,9.056346893310547,-1.0787218809127808,0.15596261620521545,0.1333256959915161,0.019547687843441963
3.5480153560638428,9.139596939086914,-1.38579261302948,0.17678439617156982,0.15334463119506836,0.016353735700249672
3.6629178524017334,9.08949089050293,-1.4954853057861328,0.07550293952226639,0.036686819046735764,-0.018587756901979446
3.508108615875244,9.162303924560547,-1.6412442922592163,-0.04668755829334259,-0.08895943313837051,-0.05094616115093231
3.413949489593506,9.24968147277832,-1.5206053256988525,-0.04820599406957626,-0.06073745712637901,-0.020926497876644135
3.4424405097961426,9.199501037597656,-1.4171470403671265,-0.009738937020301819,-0.020839231088757515,-0.005235987715423107
3.4963579177856445,9.093810081481934,-1.3558841943740845,0.0613483227789402,0.03761184588074684,0.0004886921960860491
3.511077404022217,9.116994857788086,-1.417702555656433,0.07923794537782669,0.05176646634936333,-0.012828170321881771
3.4341087341308594,9.191397666931152,-1.6027264595031738,0.015446163713932037,-0.0031415927223861217,-0.029129544273018837
3.4213428497314453,9.200763702392578,-1.5151848793029785,-0.03303908184170723,-0.023143066093325615,-0.008970992639660835
3.6024880409240723,9.044450759887695,-1.335782527923584,0.04195771366357803,0.029967302456498146,-0.008604473434388638
3.4681637287139893,9.118471145629883,-1.4202308654785156,0.024260075762867928,0.010855947621166706,-0.006946410518139601
3.4884092807769775,9.094758033752441,-1.356784462928772,0.003804817795753479,-0.019146261736750603,-0.0016929693520069122
3.496051549911499,9.132949829101562,-1.365987777709961,-0.00188495556358248,-0.04246386140584946,-0.0060388389974832535
3.5338222980499268,9.167350769042969,-1.4180090427398682,0.003351032268255949,-0.031555552035570145,-0.0067369709722697735
3.602689266204834,9.088522911071777,-1.4518630504608154,-0.00970403105020523,-0.028413960710167885,-0.015428710728883743
3.508673667907715,9.09526538848877,-1.479080319404602,-0.02471386268734932,-0.017034413293004036,-0.005567600484937429
3.476208448410034,9.043397903442383,-1.3040928840637207,-0.0009773843921720982,-0.005061454605311155,0.016179202124476433
3.5345981121063232,8.948387145996094,-1.24616277217865,0.03799581900238991,0.002600540639832616,0.021851522848010063
3.6189026832580566,9.061248779296875,-1.3846337795257568,0.07052875310182571,0.02197369560599327,0.008761553093791008
3.550208330154419,9.178258895874023,-1.5898264646530151,0.04632103815674782,0.02612757869064808,-0.0019373154500499368
3.561633348464966,9.07242488861084,-1.399094820022583,0.02520255371928215,0.0047996556386351585,0.006719517521560192
3.4965686798095703,9.02539348602295,-1.53342866897583,0.04960225895047188,0.019477874040603638,-0.016091935336589813
3.5010697841644287,9.11585521697998,-1.5253267288208008,0.03754203021526337,0.02542944625020027,-0.014940018765628338
3.4677233695983887,9.164400100708008,-1.4604341983795166,0.005323254037648439,0.014398965984582901,-0.0045553091913461685
3.6117968559265137,9.030335426330566,-1.461008906364441,0.035063665360212326,0.033056534826755524,0.006649704650044441
3.571516752243042,9.029597282409668,-1.4051952362060547,0.06583382189273834,0.06260495632886887,0.011327186599373817
3.4867427349090576,9.097325325012207,-1.5241104364395142,0.04092797264456749,0.017348572611808777,0.009616764262318611
3.5080225467681885,9.11806869506836,-1.6104931831359863,-0.00930260494351387,-0.006981316953897476,0.008848818950355053
3.5427768230438232,9.109861373901367,-1.5553308725357056,-0.028623400256037712,-0.005218534264713526,0.013229595497250557
3.688889980316162,8.980525970458984,-2.0300817489624023,0.006527531426399946,0.09086184203624725,0.002321287989616394
3.749635696411133,9.113480567932129,-1.5216492414474487,0.037454765290021896,0.11058405786752701,0.0023038345389068127
3.55442214012146,9.09215259552002,-1.1428194046020508,0.06600835174322128,0.04930555075407028,0.014398965984582901
3.645650863647461,9.025901794433594,-1.5274336338043213,0.040735986083745956,0.025621432811021805,0.007016223389655352
3.6173226833343506,9.079961776733398,-1.7265257835388184,-0.018186330795288086,0.0434936061501503,-0.01918116770684719
3.480288028717041,9.113231658935547,-1.574886679649353,-0.04602433368563652,0.020612338557839394,-0.01581268385052681
3.970658779144287,8.988761901855469,-1.3929944038391113,-0.053564153611660004,-0.007749261800199747,0.0011868239380419254
3.606788158416748,9.041836738586426,-1.266819953918457,0.0017976891249418259,0.0279427208006382,0.006300638429820538
3.5414648056030273,9.069092750549316,-1.4091025590896606,0.037751469761133194,0.05511749908328056,-0.0005410520825535059
3.5489537715911865,9.088111877441406,-1.5038459300994873,0.05134758725762367,0.09288642555475235,0.011571533046662807
3.5772628784179688,9.024762153625488,-1.436578392982483,0.07192502170801163,0.12114330381155014,0.03445279970765114
3.6440417766571045,8.987785339355469,-1.42670476436615,0.054017938673496246,0.07944738864898682,0.02361430414021015
3.7136940956115723,8.99121379852295,-1.560856580734253,0.00989601667970419,0.038432151079177856,0.004502949304878712
3.626765251159668,9.015893936157227,-1.5603681802749634,0.030019663274288177,0.1091703474521637,0.01507964450865984
3.6341969966888428,9.031981468200684,-1.52498197555542,0.09744173288345337,0.18737854063510895,0.04274311289191246
3.7379138469696045,8.92856216430664,-1.7029956579208374,0.13974851369857788,0.311139851808548,0.0601964071393013
3.783250331878662,8.943942070007324,-1.708061695098877,0.13313370943069458,0.3559424579143524,0.0858178362250328
3.950183629989624,8.87464427947998,-1.2777087688446045,0.203365758061409,0.4129623472690582,0.11489502340555191
4.179778099060059,8.789429664611816,-1.1748634576797485,0.3018721342086792,0.4131019711494446,0.0596204474568367
3.8962278366088867,8.787035942077637,-1.1976754665374756,0.3429746627807617,0.4446575343608856,0.002600540639832616
3.4055986404418945,9.094480514526367,-1.432431697845459,0.3879343271255493,0.5137202143669128,0.020385446026921272
3.103929042816162,9.223183631896973,-1.7819275856018066,0.4260523319244385,0.6703286170959473,0.15763813257217407
3.053258180618286,9.208578109741211,-1.4821544885635376,0.5344198346138,0.9003629684448242,0.3456973731517792
3.3091793060302734,9.3727445602417,-1.178722858428955,0.6266953945159912,0.9692686200141907,0.4060857594013214
3.8516287803649902,8.829183578491211,-1.2737631797790527,0.5397779941558838,0.8099374771118164,0.33252012729644775
4.035857677459717,9.05038833618164,-2.035329818725586,0.25616198778152466,0.4075518250465393,0.18397516012191772
4.2147908210754395,8.946786880493164,-2.0585248470306396,0.057910025119781494,0.25822144746780396,0.09527752548456192
4.151756286621094,8.751361846923828,-1.6453336477279663,0.053354714065790176,0.19191640615463257,0.023631757125258446
3.879640817642212,8.903020858764648,-1.331568717956543,0.0872664600610733,0.10709340125322342,0.02949606440961361
4.206487655639648,8.725303649902344,-1.7116434574127197,0.010314895771443844,-0.07874925434589386,0.013491394929587841
4.125103950500488,8.953605651855469,-1.4057698249816895,-0.029530970379710197,-0.13857914507389069,-0.0285186804831028
3.945586681365967,8.996127128601074,-1.212059736251831,0.035761795938014984,-0.11173597723245621,-0.030613074079155922
4.1342692375183105,8.852293014526367,-1.7640382051467896,0.11936306953430176,-0.003089232835918665,-0.026633724570274353
4.235946178436279,8.661139488220215,-2.298337697982788,0.10046114772558212,0.0774751678109169,-0.03413863852620125
4.410645961761475,8.56444263458252,-2.0844781398773193,-0.010908307507634163,-0.015009831637144089,-0.02839650772511959
4.021042346954346,8.751811981201172,-1.6466935873031616,-0.14093533158302307,-0.23081979155540466,-0.025935592129826546
4.227135181427002,8.707040786743164,-1.4681148529052734,-0.21645572781562805,-0.3378782868385315,-0.059602994471788406
4.406403541564941,8.600881576538086,-1.419866919517517,-0.1773952692747116,-0.25277602672576904,-0.11826351284980774
4.052023410797119,8.88988208770752,-1.2364710569381714,-0.09414306282997131,-0.21701423823833466,-0.10655234754085541
3.849330186843872,8.945743560791016,-1.540467619895935,-0.0010122909443452954,-0.14936527609825134,-0.03637266159057617
4.053067207336426,8.732132911682129,-1.7345991134643555,0.10810569673776627,-0.0049916417337954044,0.016999507322907448
4.127096176147461,8.680609703063965,-1.989706039428711,0.1362753063440323,0.0547335259616375,0.0023038345389068127
3.9354066848754883,8.961517333984375,-2.3360226154327393,0.08457865566015244,0.05380849912762642,-0.006248278543353081
3.981337070465088,9.048166275024414,-2.3182191848754883,0.0031241392716765404,0.015830136835575104,0.006928957067430019
4.1637654304504395,8.950042724609375,-2.1889801025390625,-0.04478514939546585,0.006841690745204687,-0.008028514683246613
4.033961772918701,8.915307998657227,-1.8470594882965088,-0.05420992523431778,-0.007941247895359993,-0.020367993041872978
4.001256942749023,8.759828567504883,-1.6499879360198975,-0.04773475602269173,0.016266468912363052,-0.012287117540836334
4.002990245819092,8.813209533691406,-1.533658504486084,-0.07070329040288925,-0.030368728563189507,-0.01539380382746458
4.027085304260254,8.832880973815918,-1.5242348909378052,-0.040631264448165894,-0.010419615544378757,-0.018291050568223
3.968379497528076,8.836116790771484,-1.6244083642959595,0.004049163777381182,0.025499260053038597,-0.021851522848010063
3.866262197494507,8.950291633605957,-1.7211148738861084,0.008656833320856094,0.028187068179249763,-0.004363323096185923
3.9218075275421143,8.920364379882812,-1.694520115852356,-0.006056292448192835,0.02595304511487484,0.01713913306593895
4.0278706550598145,8.801430702209473,-1.5548615455627441,-0.033021628856658936,-0.0006108652451075613,0.004747295752167702
3.959904193878174,8.838627815246582,-1.6206254959106445,-0.035726889967918396,-0.021502455696463585,-0.0010995573829859495
3.84969425201416,8.996156692504883,-1.8564926385879517,-0.03707079216837883,-0.018971728160977364,0.016406094655394554
3.932351589202881,8.85922622680664,-1.5368380546569824,-0.05005604401230812,-0.06773623079061508,0.002321287989616394
4.105308532714844,8.803298950195312,-1.6448452472686768,-0.00996582955121994,0.006021386012434959,-0.012077677994966507
4.042331695556641,8.839037895202637,-1.789129376411438,0.013910274021327496,0.05354670062661171,-0.011623892933130264
4.005336284637451,8.84254264831543,-1.710226058959961,-0.007347836159169674,0.022218041121959686,0.0013089969288557768
3.8067517280578613,8.855528831481934,-1.5809201002120972,-0.06319837272167206,-0.07571238279342651,-0.01825614459812641
4.052751064300537,8.785761833190918,-1.5274814367294312,-0.08114035427570343,-0.103114053606987,-0.03150319308042526
3.9513041973114014,8.878485679626465,-1.4939721822738647,-0.049759335815906525,-0.06442010402679443,-0.02984512969851494
3.8834619522094727,8.911659240722656,-1.5861010551452637,0.0017627825727686286,-0.013473941944539547,-0.016406094655394554
3.9224014282226562,8.91646671295166,-1.6457741260528564,0.018483037129044533,0.004817108623683453,-0.003403391921892762
3.890462636947632,8.904199600219727,-1.6981688737869263,0.003455751808360219,0.001343903481028974,-0.003036872949451208
3.9494845867156982,8.881607055664062,-1.646205186843872,-0.0006457717972807586,-0.025848325341939926,-0.020664697512984276
3.9446768760681152,8.852808952331543,-1.683995246887207,0.006265731994062662,0.0036128314677625895,-0.00874409917742014
3.967297315597534,8.822795867919922,-1.7515212297439575,-0.014643312431871891,-0.0032463124953210354,-0.013055062852799892
3.904818296432495,8.915892601013184,-1.6930549144744873,-0.03525565192103386,-0.03174753859639168,-0.015254177153110504
3.9798717498779297,8.884498596191406,-1.7219384908676147,-0.028239427134394646,-0.028797931969165802,-0.0142593402415514
3.850067615509033,8.915910720825195,-1.611173152923584,-0.008639379404485226,-0.010576695203781128,-0.01226966455578804
3.839456558227539,8.968899726867676,-1.5717837810516357,0.0091455252841115,-0.01335176918655634,-0.003455751808360219
3.9123647212982178,8.90185260772705,-1.6463775634765625,0.015934856608510017,-0.01532399095594883,-0.010349802672863007
4.002137660980225,8.878198623657227,-1.7276558876037598,-0.02905973233282566,-0.06956882029771805,-0.05112069472670555
3.9225544929504395,8.891547203063965,-1.8371474742889404,-0.09854128956794739,-0.13861404359340668,-0.08587019890546799
3.694300889968872,9.036674499511719,-1.7448844909667969,-0.12910200655460358,-0.13494886457920074,-0.06407103687524796
3.688976287841797,8.994576454162598,-1.6597563028335571,-0.10409143567085266,-0.0927293449640274,-0.013037609867751598
3.845442056655884,8.911218643188477,-1.5444611310958862,-0.04618141055107117,-0.016929693520069122,0.022305307909846306
4.006179332733154,8.851593971252441,-1.5762369632720947,-0.017261305823922157,0.0017802357906475663,0.019634954631328583
3.9886345863342285,8.943645477294922,-1.6680881977081299,-0.056496307253837585,-0.0584685280919075,-0.008848818950355053
3.7718348503112793,9.021468162536621,-1.6811509132385254,-0.12917181849479675,-0.13669419288635254,-0.022078415378928185
3.6388511657714844,9.022520065307617,-1.5587210655212402,-0.12056734412908554,-0.11316715180873871,0.0028448866214603186
3.643476724624634,8.953280448913574,-1.4522173404693604,-0.056007616221904755,-0.035185836255550385,0.048956483602523804
3.704892873764038,8.934309005737305,-1.2810702323913574,0.014852751977741718,-0.012304571457207203,0.07414158433675766
3.8892464637756348,8.907157897949219,-1.5992308855056763,0.023509584367275238,0.004625122528523207,0.06757915019989014
4.039247989654541,8.927604675292969,-1.8542612791061401,-0.07754497975111008,-0.06241297349333763,0.04136430472135544
4.0008544921875,8.969091415405273,-1.6941370964050293,-0.1886700987815857,-0.17392206192016602,0.01740093342959881
4.0556721687316895,8.832383155822754,-1.5920100212097168,-0.21563543379306793,-0.23392647504806519,-0.012444197200238705
3.908036231994629,8.940590858459473,-1.5146006345748901,-0.16261231899261475,-0.19165460765361786,0.0019547687843441963
4.0142621994018555,8.797771453857422,-1.4562395811080933,-0.07740534842014313,-0.07817329466342926,0.004293509759008884
3.9706108570098877,8.852982521057129,-1.5187187194824219,-0.059201568365097046,-0.07480481266975403,-0.002687806962057948
3.9792587757110596,8.883761405944824,-1.6383329629898071,-0.07784168422222137,-0.08415977656841278,0.0020420351065695286
3.9618003368377686,8.909101486206055,-1.519934892654419,-0.06979571282863617,-0.06417575478553772,0.005445427261292934
3.9234163761138916,8.907397270202637,-1.4999194145202637,-0.046390850096940994,-0.029967302456498146,0.01326450239866972
3.8667409420013428,8.899467468261719,-1.3933966159820557,-0.025569073855876923,-0.025272367522120476,0.021135937422513962
3.8982582092285156,8.941798210144043,-1.4662760496139526,-0.012950343079864979,-0.03467969223856926,0.023544492200016975
3.9105069637298584,8.900300979614258,-1.4817043542861938,-0.005497787147760391,-0.020542524755001068,0.010716321878135204
3.8821020126342773,8.95887279510498,-1.5547178983688354,-0.012967796064913273,-0.020804325118660927,0.014032446779310703
3.902778387069702,8.914628028869629,-1.4943265914916992,-0.015533430501818657,-0.008953538723289967,0.01802925020456314
3.8421285152435303,8.959446907043457,-1.3895467519760132,-0.02183406800031662,-0.026197392493486404,0.019163714721798897
3.9689159393310547,8.895157814025879,-1.4343565702438354,-0.0027052604127675295,-0.0024434609804302454,0.023439772427082062
4.002176284790039,8.834393501281738,-1.3610174655914307,0.01825614459812641,0.009808750823140144,0.004171337001025677
3.9635720252990723,8.909188270568848,-1.3772788047790527,0.04286528751254082,0.012479104101657867,-0.0016231562476605177
3.8375604152679443,8.960760116577148,-1.3698759078979492,0.07880161702632904,0.04820599406957626,0.0114493602886796
3.869039297103882,8.91303825378418,-1.4872876405715942,0.11215485632419586,0.09552186727523804,0.03364994749426842
4.059579372406006,8.81218433380127,-1.405606985092163,0.11114256829023361,0.06876597553491592,0.015620696358382702
3.9386818408966064,8.878110885620117,-1.520653247833252,0.05174901336431503,-0.01904154196381569,-0.017086774110794067
3.9412004947662354,8.930459022521973,-1.5894337892532349,0.05244714394211769,-0.01869247667491436,-0.01966986060142517
4.036595344543457,8.802742004394531,-1.624906301498413,0.09670869261026382,0.04375540465116501,-0.027454029768705368
4.033233642578125,9.018460273742676,-1.934409499168396,0.216019406914711,0.255202054977417,0.0777718722820282
3.8464956283569336,9.121917724609375,-2.582232713699341,0.03677408769726753,0.08749335259199142,0.0437728576362133
3.9388256072998047,8.992459297180176,-2.1857337951660156,-0.21755528450012207,-0.10981611907482147,0.011414453387260437
3.9786555767059326,8.967406272888184,-1.4869906902313232,-0.2024581879377365,-0.12311552464962006,-0.024033183231949806
4.003296852111816,8.797091484069824,-1.2336554527282715,-0.053791046142578125,-0.003054326167330146,-0.023265238851308823
4.187573432922363,8.729345321655273,-1.769745945930481,0.02967059798538685,0.09697049111127853,-0.028361599892377853
4.278907299041748,8.732295036315918,-2.097071647644043,0.0062831854447722435,0.10910052806138992,-0.034749504178762436
4.199065685272217,8.77103328704834,-1.9843525886535645,-0.12049753218889236,0.02214822731912136,-0.048834312707185745
3.575366497039795,8.958422660827637,-1.489844560623169,-0.2503849267959595,-0.16233307123184204,-0.06323327869176865
3.956820487976074,8.904352188110352,-1.098680019378662,-0.2857103943824768,-0.27954939007759094,-0.0711221694946289
3.6982274055480957,9.002275466918945,-1.034630298614502,-0.15400785207748413,-0.16166985034942627,-0.046443212777376175
3.7562341690063477,8.973065376281738,-1.1453286409378052,0.02174680307507515,0.007923794910311699,0.00938987173140049
3.9215586185455322,8.826587677001953,-1.4877665042877197,0.08196066319942474,0.061854466795921326,0.008290314115583897
3.8836536407470703,8.898375511169434,-1.6892145872116089,0.004764748737215996,-0.0022165682166814804,-0.003455751808360219
3.816931962966919,9.03531551361084,-1.594815969467163,-0.06485643237829208,-0.07592181861400604,0.0057072266936302185
3.9055845737457275,8.997965812683105,-1.5159893035888672,-0.0742986649274826,-0.08649851381778717,0.006440265104174614
3.9378104209899902,8.925171852111816,-1.4698290824890137,-0.034033920615911484,-0.04548327997326851,0.013596114702522755
4.037916660308838,8.862759590148926,-1.4839069843292236,0.015271631069481373,-0.006963863503187895,0.025499260053038597
4.088740825653076,8.77485466003418,-1.6226366758346558,0.02307325229048729,0.008325220085680485,0.024294983595609665
4.06512451171875,8.800960540771484,-1.5727605819702148,0.007016223389655352,0.013631021603941917,0.029914943501353264
4.059340000152588,8.826061248779297,-1.4851807355880737,-0.007138396613299847,0.010349802672863007,0.029478611424565315
4.0638604164123535,8.864408493041992,-1.4122246503829956,0.005689773242920637,0.01408480666577816,0.018483037129044533
4.04854679107666,8.882535934448242,-1.355817198753357,0.037978366017341614,0.02785545401275158,0.017994344234466553
4.151315689086914,8.802703857421875,-1.5769073963165283,0.04283038154244423,0.026197392493486404,-0.0016231562476605177
3.997387647628784,8.878551483154297,-1.5904107093811035,0.007853982038795948,0.0021816615480929613,-0.0016231562476605177
4.003823280334473,8.90698528289795,-1.5330647230148315,-0.007155850064009428,-0.022357666864991188,0.002722713630646467
3.9381072521209717,8.889785766601562,-1.5490963459014893,-0.016528267413377762,-0.021362829953432083,-0.005410520825535059
3.9517159461975098,8.913459777832031,-1.6041916608810425,-0.024609142914414406,-0.03298672288656235,-0.004136430099606514
3.945107936859131,8.97365951538086,-1.6524683237075806,-0.025935592129826546,-0.015550883486866951,0.0013089969288557768
3.9999351501464844,8.850808143615723,-1.3885315656661987,-0.010245082899928093,-0.004834562074393034,0.013316862285137177
4.127565383911133,8.780169486999512,-1.5216013193130493,-0.010524335317313671,-0.01357866171747446,-0.005096361506730318
4.03361701965332,8.867528915405273,-1.5565279722213745,0.00013962633966002613,0.0057246801443398,-0.011466813273727894
4.0059494972229,8.86904239654541,-1.529090404510498,0.006806783843785524,0.008604473434388638,-0.00609119888395071
4.053622722625732,8.893960952758789,-1.4792430400848389,0.011554080061614513,0.00020943951676599681,-0.011013027280569077
4.147293567657471,8.813152313232422,-1.5116510391235352,-0.005777040030807257,-0.00839503388851881,-0.01811651699244976
4.033386707305908,8.873006820678711,-1.5918279886245728,-0.024207716807723045,-0.006422811653465033,-0.018413223326206207
3.9094438552856445,8.914867401123047,-1.4914727210998535,-0.035185836255550385,-0.021327923983335495,-0.008255407214164734
3.915410280227661,8.906554222106934,-1.5302491188049316,-0.022165682166814804,-0.017819812521338463,-0.002460914198309183
4.001103401184082,8.8546781539917,-1.5304406881332397,-0.004502949304878712,-0.002949606394395232,-0.004136430099606514
4.0193281173706055,8.858144760131836,-1.5324326753616333,-0.01120501384139061,-0.006963863503187895,-0.015376350842416286
4.047876834869385,8.848414421081543,-1.3313006162643433,0.023282691836357117,0.034784410148859024,0.00040142572834156454
3.984009027481079,8.87907886505127,-1.448377013206482,0.029827676713466644,0.016510814428329468,-0.009197885170578957
3.899139165878296,8.929549217224121,-1.4847785234451294,0.007853982038795948,-0.02076941728591919,-0.014608405530452728
3.9179673194885254,8.91718578338623,-1.4772127866744995,0.0018500490114092827,-0.033108897507190704,-0.007958701811730862
3.922592878341675,8.907981872558594,-1.5046886205673218,0.008255407214164734,-0.025621432811021805,-0.006475171539932489
4.003947734832764,8.8865966796875,-1.5913970470428467,0.017558012157678604,0.0012391837080940604,-0.0010821041651070118
3.984612226486206,8.903059959411621,-1.5227696895599365,0.004450589418411255,0.003263765713199973,-0.0013962633674964309
3.9681975841522217,8.913938522338867,-1.4868662357330322,-0.006300638429820538,-0.009512044489383698,0.0011519172694534063
4.015698432922363,8.888101577758789,-1.5003598928451538,0.006073745898902416,-0.011484266258776188,0.002286381321027875
4.018610000610352,8.868448257446289,-1.4956481456756592,0.025708699598908424,-0.003490658476948738,-3.490658491500653e-05
3.959568977355957,8.887784004211426,-1.5810350179672241,0.017662731930613518,-0.00663225119933486,0.0
3.9882993698120117,8.855385780334473,-1.5508393049240112,-0.008098327554762363,-0.005410520825535059,0.00663225119933486
4.017086982727051,8.858248710632324,-1.4758433103561401,0.005148721393197775,0.006195918656885624,0.01302015595138073
3.9249391555786133,8.923046112060547,-1.4539794921875,-0.08777260780334473,-0.06679374724626541,-0.020559977740049362
3.9787511825561523,8.876358985900879,-1.3609216213226318,-0.013316862285137177,-0.013613567687571049,-0.016598081216216087
3.9357705116271973,8.913899421691895,-1.490447998046875,0.03183480724692345,0.009634217247366905,-0.013456488028168678
3.917948007583618,8.947715759277344,-1.5984551906585693,-0.003228859044611454,-0.004712388850748539,-0.01710422709584236
3.9300243854522705,8.913095474243164,-1.5780373811721802,-0.03907792270183563,-0.01993165910243988,-0.011082841083407402
3.935492753982544,8.889124870300293,-1.5153475999832153,-0.030682887881994247,-0.01448623277246952,-0.012583823874592781
3.88938045501709,8.931971549987793,-1.568384051322937,0.01696459949016571,0.0007679448463022709,0.0165631752461195
4.060661792755127,8.841739654541016,-1.514045238494873,0.028728120028972626,0.014608405530452728,-0.002024581888690591
3.9882609844207764,8.90530014038086,-1.508854627609253,0.025045474991202354,-0.00022689280740451068,-0.01226966455578804
3.928731679916382,8.921370506286621,-1.5458593368530273,0.03447025269269943,0.0037000980228185654,-0.013700834475457668
3.9024240970611572,8.917357444763184,-1.5310440063476562,0.04509930685162544,0.013142329640686512,-0.016144296154379845
3.9106504917144775,8.911410331726074,-1.6089609861373901,0.033684853464365005,0.001518436474725604,-0.023335052654147148
3.8874077796936035,8.925785064697266,-1.5946053266525269,0.011100294068455696,-0.0005410520825535059,-0.024923302233219147
3.9586398601531982,8.874319076538086,-1.5445568561553955,0.027314402163028717,0.02675589732825756,-0.020978856831789017
4.0348615646362305,8.850454330444336,-1.5538463592529297,0.03050835430622101,0.033772122114896774,-0.028553586453199387
3.864500045776367,8.944660186767578,-1.5532909631729126,-0.0012042771559208632,0.005445427261292934,-0.02174680307507515
3.8339595794677734,8.962176322937012,-1.5702611207962036,-0.010855947621166706,0.005096361506730318,-0.012479104101657867
3.893479347229004,8.957695007324219,-1.5929198265075684,-0.009320057928562164,0.006963863503187895,-0.0207345113158226
3.927764415740967,8.95042610168457,-1.5563268661499023,-0.010227628983557224,0.0031939526088535786,-0.03363249450922012
3.785165786743164,9.009065628051758,-1.5649746656417847,-0.028187068179249763,-0.022689281031489372,-0.033457960933446884
3.7437939643859863,9.0200777053833,-1.4415966272354126,-0.017784904688596725,-0.020053833723068237,-0.015201817266643047
3.7509095668792725,9.014850616455078,-1.5029840469360352,0.004747295752167702,0.008429939858615398,0.0005934119690209627
3.897722005844116,8.912856101989746,-1.5797325372695923,0.0068765971809625626,0.03241076320409775,-0.00017453292093705386
3.8685414791107178,8.931187629699707,-1.5730575323104858,-0.022287854924798012,-0.002949606394395232,-0.007155850064009428
3.858820915222168,8.985180854797363,-1.4352281093597412,-0.020385446026921272,-0.02649409882724285,0.0045553091913461685
3.8409504890441895,8.929634094238281,-1.3499178886413574,0.01940806210041046,-0.003857177682220936,0.012688543647527695
3.8905200958251953,8.884777069091797,-1.4202404022216797,0.054995324462652206,0.024085544049739838,0.00457276264205575
3.808178663253784,8.948836326599121,-1.594681978225708,0.04879940673708916,0.02378883771598339,-0.0013613568153232336
3.814882516860962,8.963067054748535,-1.6105985641479492,0.0262148454785347,0.015463616698980331,0.014992378652095795
3.887474775314331,8.888080596923828,-1.5906118154525757,0.02209586836397648,0.01235693134367466,0.01335176918655634
3.895174503326416,8.893635749816895,-1.5880547761917114,0.016702800989151,0.010681414976716042,0.008604473434388638
3.9122307300567627,8.966026306152344,-1.5940881967544556,0.009983283467590809,-0.0005235987482592463,-0.00020943951676599681
3.938155174255371,9.027021408081055,-1.6621217727661133,-0.003054326167330146,-0.010629055090248585,-0.00031415926059708
3.873990535736084,9.006095886230469,-2.0618960857391357,-0.048258353024721146,0.005148721393197775,0.002024581888690591
3.884208917617798,8.845674514770508,-1.3481366634368896,-0.08731882274150848,-0.07932521402835846,0.002199114765971899
4.077976703643799,8.809627532958984,-1.4340022802352905,-0.05124286562204361,-0.03609341010451317,-0.038432151079177856
3.8810486793518066,9.011431694030762,-1.3826322555541992,-0.006021386012434959,0.022933626547455788,-0.034522611647844315
3.768205165863037,8.995781898498535,-1.6593348979949951,-0.00029670598451048136,0.0619242824614048,-0.0071907564997673035
3.7462456226348877,9.011833190917969,-1.5526492595672607,-0.033719759434461594,0.0527089424431324,0.014800392091274261
4.038070201873779,8.888578414916992,-1.3783514499664307,-0.08162904530763626,-0.03757693991065025,-0.005742133129388094
3.817410707473755,8.986129760742188,-1.263132929801941,-0.06524040549993515,-0.0855560377240181,-0.02488839440047741
3.7266898155212402,8.973085403442383,-1.4024658203125,-0.061505403369665146,-0.0944746732711792,-0.05019566789269447
3.5451996326446533,9.10208511352539,-1.3937221765518188,-0.045640360563993454,-0.061767201870679855,-0.013700834475457668
3.639071464538574,9.05721664428711,-1.2447645664215088,-0.025795966386795044,-0.05359905958175659,0.006021386012434959
3.971740961074829,8.803461074829102,-1.2731406688690186,-0.020839231088757515,-0.0731467455625534,-0.005916666239500046
3.9310779571533203,8.884098052978516,-1.4282753467559814,-0.002722713630646467,-0.04389503225684166,-0.020350538194179535
3.8133790493011475,8.976264953613281,-1.5507913827896118,0.004642575979232788,-0.020263273268938065,-0.003926991019397974
3.733039140701294,9.00336742401123,-1.5616706609725952,0.004712388850748539,-0.013404129073023796,0.027750734239816666
3.820667028427124,8.938196182250977,-1.4879388809204102,0.0014486232539638877,-0.0239110104739666,0.04000294581055641
4.018198013305664,8.861716270446777,-1.5322507619857788,0.01961750164628029,-0.003089232835918665,0.021537363529205322
4.013294696807861,8.9069185256958,-1.6149752140045166,0.017662731930613518,0.013753194361925125,-0.004293509759008884
3.9858956336975098,8.952102661132812,-1.6473926305770874,-0.016109388321638107,0.008115780539810658,-0.010384708642959595
3.872410297393799,8.921063423156738,-1.5502837896347046,0.016912240535020828,0.05448918044567108,0.005288347601890564
3.8178226947784424,8.994431495666504,-1.4622060060501099,0.017784904688596725,0.06358234584331512,0.01392772700637579
3.8778786659240723,8.94918155670166,-1.4139292240142822,0.007400196045637131,0.03104940801858902,0.016406094655394554
3.8860669136047363,8.947284698486328,-1.3063242435455322,0.00019198621157556772,-0.001483529806137085,0.01012290921062231
3.8849081993103027,8.927804946899414,-1.2932519912719727,0.02577851340174675,-0.00769690191373229,-0.0026703537441790104
3.818761110305786,8.956402778625488,-1.3927453756332397,0.05363396927714348,0.012444197200238705,-0.0023038345389068127
3.800316095352173,8.955989837646484,-1.5808913707733154,0.059812434017658234,0.03844960406422615,0.0
3.923454761505127,9.03797721862793,-2.090080499649048,0.04207988828420639,0.031241392716765404,0.0024958208668977022
3.9809730052948,8.849505424499512,-1.7308257818222046,-0.05700245499610901,-0.0501258559525013,-0.039217546582221985
3.8023178577423096,9.084482192993164,-1.4016231298446655,-0.12424998730421066,-0.08199556916952133,-0.03056071512401104
3.969796895980835,8.975967407226562,-1.4072734117507935,-0.048031460493803024,-0.007627088576555252,-0.00609119888395071
3.9923312664031982,8.91481876373291,-1.3299885988235474,0.00205948855727911,0.04773475602269173,-0.008185594342648983
3.6740365028381348,8.888694763183594,-1.3677403926849365,0.02546435408294201,0.05836381018161774,-0.01310742273926735
3.2753922939300537,9.039278984069824,-1.39595365524292,-0.007679448463022709,-0.024486970156431198,-0.022078415378928185
3.7534186840057373,8.899065017700195,-1.5019880533218384,-0.04508185386657715,-0.07428121566772461,-0.022881265729665756
3.861693859100342,8.91910171508789,-1.4373445510864258,-0.04881685972213745,-0.07637561112642288,-0.021956242620944977
3.780252695083618,8.983532905578613,-1.5229612588882446,-0.08272860944271088,-0.0875631719827652,-0.04351105913519859
3.702833890914917,9.09821605682373,-1.361850619316101,-0.08342673629522324,-0.07695156335830688,-0.027890361845493317
3.7758188247680664,9.054851531982422,-1.2091484069824219,-0.018587756901979446,-0.0362853966653347,0.014974924735724926
3.8723433017730713,8.957015037536621,-1.252962350845337,0.024870941415429115,-0.00376991112716496,0.01771509274840355
3.942349910736084,8.852542877197266,-1.3665623664855957,0.08288568258285522,0.025167647749185562,0.0026179938577115536
3.928645372390747,8.866714477539062,-1.6934571266174316,0.048747044056653976,0.006230825558304787,-0.020437804982066154
3.9277164936065674,8.907790184020996,-1.6280953884124756,0.00996582955121994,-0.012339477427303791,-0.028274333104491234
3.8699395656585693,8.959705352783203,-1.4918270111083984,0.004590216092765331,-0.024504423141479492,-0.02560397982597351
3.828596591949463,8.958490371704102,-1.3994395732879639,0.020036378875374794,-0.018308503553271294,-0.022828906774520874
3.788182497024536,8.965739250183105,-1.346910834312439,0.05331980809569359,0.004363323096185923,-0.015568336471915245
3.8131682872772217,8.93122386932373,-1.3082300424575806,0.09358455240726471,0.023684117943048477,-0.009005898609757423
3.8423774242401123,8.914666175842285,-1.5453613996505737,0.08716174215078354,-0.0018675023457035422,-0.03331833705306053
3.8066656589508057,8.928228378295898,-1.6620835065841675,0.0705636590719223,-0.005829399451613426,-0.03747221827507019
3.8765859603881836,8.874232292175293,-1.425095796585083,0.2183581441640854,0.13526301085948944,0.03050835430622101
3.994974374771118,8.779136657714844,-1.7492132186889648,0.16296139359474182,0.11173597723245621,-0.008272860199213028
3.938260555267334,8.970470428466797,-1.902681589126587,0.0950506329536438,0.057595863938331604,-0.03420845419168472
3.6363420486450195,9.049555778503418,-1.8798887729644775,0.10822786390781403,0.06759659945964813,-0.0200189258903265
3.6747355461120605,9.047919273376465,-1.6066433191299438,0.1552121341228485,0.10185741633176804,0.02316051907837391
3.735816478729248,8.901067733764648,-1.7568076848983765,0.16353735327720642,0.12754866480827332,0.025045474991202354
3.6894071102142334,8.963537216186523,-1.7273589372634888,0.17879152297973633,0.1808684766292572,0.04742059484124184
3.8898019790649414,8.936022758483887,-1.6709803342819214,0.23553217947483063,0.24411919713020325,0.09433504939079285
3.955335855484009,8.7588529586792,-1.7459858655929565,0.24921555817127228,0.2626720368862152,0.10302678495645523
3.900968551635742,8.825956344604492,-1.515596628189087,0.2778913080692291,0.29846876859664917,0.12915436923503876
3.9091086387634277,8.786758422851562,-1.3896424770355225,0.35360369086265564,0.325416624546051,0.1535540670156479
4.082266807556152,8.802780151367188,-1.5925463438034058,0.39884263277053833,0.28326693177223206,0.1146506816148758
3.884936809539795,8.92033576965332,-2.3326897621154785,0.2500707805156708,0.1690525859594345,0.05660102888941765
3.7026326656341553,9.084874153137207,-2.3904857635498047,0.06483898311853409,0.06848672032356262,0.07318165898323059
3.598580837249756,9.15305233001709,-2.4771270751953125,0.01171115878969431,0.060615286231040955,0.15474088490009308
4.280841827392578,8.72602367401123,-1.3688991069793701,0.0797615498304367,0.11473794281482697,0.17004743218421936
4.579772472381592,8.44048023223877,-1.8746789693832397,0.15475834906101227,0.11814133822917938,0.029129544273018837
4.198625087738037,8.821349143981934,-2.4146385192871094,0.07648032903671265,0.03900810703635216,-0.03078760765492916
3.876049518585205,8.881254196166992,-2.5880935192108154,-0.07304202765226364,-0.07246606796979904,-0.0303861815482378
3.5998735427856445,8.946623802185059,-2.403903007507324,-0.1324704885482788,-0.11129964888095856,-0.022165682166814804
4.176550388336182,8.71641731262207,-1.8785480260849,-0.16868607699871063,-0.14091788232326508,-0.023945916444063187
4.161811828613281,8.680169105529785,-1.6825491189956665,-0.1388409435749054,-0.12754866480827332,-0.03659955412149429
4.189641952514648,8.679633140563965,-1.6964163780212402,-0.07234390079975128,-0.059498272836208344,-0.036704275757074356
4.17268180847168,8.72574520111084,-1.8152453899383545,-0.020437804982066154,-0.01846558414399624,-0.04749041050672531
3.8720080852508545,8.863956451416016,-1.8407196998596191,-0.11918853223323822,-0.12330751121044159,-0.04214970022439957
3.9369101524353027,8.84205436706543,-1.6563278436660767,-0.08517206460237503,-0.0962025448679924,-0.037891097366809845
3.8643083572387695,8.904562950134277,-1.960353136062622,0.10444050282239914,0.0449422262609005,-0.03179989755153656
3.7794482707977295,8.961048126220703,-2.1771433353424072,0.08705702424049377,0.05763076990842819,-0.014782939106225967
3.894685983657837,8.9039306640625,-1.9190292358398438,-0.06204645335674286,-0.050300389528274536,-0.01958259381353855
3.9337880611419678,8.794421195983887,-1.8282601833343506,0.0131772356107831,0.013892821036279202,-0.011588986031711102
3.8827438354492188,8.792754173278809,-1.785988211631775,0.056182149797677994,0.05284857004880905,-0.00045378561480902135
3.8615503311157227,8.842342376708984,-1.8408633470535278,0.07232644408941269,0.06831218302249908,0.009075712412595749
3.93007230758667,8.825641632080078,-2.007662534713745,0.049759335815906525,0.057997290045022964,-0.00012217304902151227
3.856196880340576,8.870535850524902,-1.9037829637527466,0.020367993041872978,0.020472712814807892,0.008866272866725922
3.9081223011016846,8.80422592163086,-2.0933749675750732,0.02759365551173687,-0.03672172874212265,-0.004363323096185923
3.9134373664855957,8.837142944335938,-2.216254949569702,0.03654719516634941,-0.0012915435945615172,-0.0016755161341279745
4.009195804595947,8.85099983215332,-2.6305668354034424,0.041434116661548615,0.0570199079811573,0.011379546485841274
4.042303085327148,8.816965103149414,-1.8501431941986084,-0.09012880176305771,-0.07934267073869705,-6.981316983001307e-05
4.006035804748535,8.781866073608398,-1.8517425060272217,0.01012290921062231,0.03375466912984848,-0.002775073517113924
