accX,accY,accZ,gyroX,gyroY,gyroZ
1.410050630569458,5.938549041748047,7.1277008056640625,0.23979078233242035,0.7184298634529114,-0.018500490114092827
1.7314865589141846,5.518998622894287,6.7614359855651855,-0.6916565299034119,0.32306045293807983,0.13690362870693207
1.3141580820083618,5.836488723754883,6.509126663208008,-0.9365262389183044,0.6232919692993164,0.113481305539608
0.6731058359146118,5.923580169677734,7.118842601776123,-1.059205412864685,0.7594625949859619,0.31607913970947266
0.7505917549133301,5.616299152374268,6.7503557205200195,-1.1790920495986938,0.8825780749320984,0.5405459403991699
1.6462339162826538,3.7576324939727783,9.495767593383789,-1.0840065479278564,-0.7008718848228455,-0.532360315322876
1.4759869575500488,3.540440082550049,9.022281646728516,-0.8469035625457764,-0.3256959021091461,-0.5626766681671143
1.4607694149017334,2.721987009048462,9.139012336730957,-0.40769144892692566,0.009494591504335403,-0.6775193810462952
0.8127260804176331,3.3773374557495117,9.327838897705078,0.47682395577430725,0.16557937860488892,0.04159119725227356
0.7705690264701843,3.019672393798828,8.697099685668945,0.635840892791748,0.10433578491210938,-0.04584980010986328
0.8314679265022278,3.4465489387512207,8.444206237792969,0.6252118349075317,0.13732250034809113,-0.08649851381778717
0.4272596538066864,3.6616249084472656,8.488497734069824,0.5660975575447083,0.26165977120399475,-0.1419825404882431
0.014748281799256802,3.961493968963623,8.979251861572266,0.4778013229370117,0.13665927946567535,0.004066617228090763
0.2337985783815384,3.7871193885803223,8.72175121307373,0.3297799527645111,-0.1849001795053482,0.11915362626314163
0.7042592167854309,3.9473776817321777,8.27137279510498,0.1860520988702774,-0.11020009219646454,0.09238027781248093
1.2830430269241333,4.05359411239624,8.704254150390625,0.16009904444217682,0.1396961510181427,-0.03113667294383049
1.335131287574768,3.901658058166504,9.006143569946289,0.20600120723247528,0.0342782661318779,-0.2632479965686798
0.8247833251953125,3.882303237915039,8.702434539794922,0.20655971765518188,-0.04907865822315216,-0.2854311466217041
0.05384080484509468,3.468719244003296,7.655679702758789,0.1051211804151535,0.04300491139292717,-0.15479324758052826
0.9968401789665222,4.37008810043335,8.200475692749023,-0.06696828454732895,0.3873583674430847,0.12447687983512878
1.0769981145858765,4.114148139953613,8.859857559204102,-0.2663721442222595,0.3540400266647339,-0.030421089380979538
0.6337930560112,3.5111732482910156,8.731242179870605,-0.5133711695671082,-0.1342332661151886,-0.29106855392456055
-0.2148364931344986,3.309265375137329,8.336945533752441,-0.7084466218948364,-0.4478514790534973,-0.27296948432922363
-0.3643687665462494,3.416755437850952,8.774049758911133,-0.7035247683525085,-0.40015164017677307,0.02940879762172699
0.45094308257102966,3.243760108947754,8.941413879394531,-0.6237457394599915,-0.6532243490219116,0.18612191081047058
0.7534169554710388,3.3185548782348633,7.789774417877197,-0.537509024143219,-0.6293482780456543,0.14857988059520721
0.7576881647109985,3.0645110607147217,7.419651031494141,-0.4161737561225891,-0.1339365690946579,0.1897696554660797
1.0198149681091309,3.070314645767212,9.050752639770508,0.9944362640380859,-0.2829004228115082,0.0947539210319519
0.8099296689033508,4.351892471313477,7.233093738555908,0.2947162985801697,-0.23656192421913147,-0.025656340643763542
0.8114140629768372,3.8377902507781982,9.784087181091309,0.3885975480079651,0.12466886639595032,-0.1255415380001068
0.8682523965835571,3.845365524291992,9.607834815979004,0.5247332453727722,-0.36878806352615356,-0.20443041622638702
0.9746507406234741,4.226455211639404,8.180009841918945,0.5486617088317871,-0.5121145248413086,-0.17582446336746216
1.1181974411010742,4.344173431396484,7.141673564910889,0.3859097361564636,-0.3452959358692169,-0.15132004022598267
1.28016996383667,4.590057849884033,7.512085437774658,0.2200860232114792,-0.15502014756202698,-0.17065829038619995
1.350712776184082,4.472090721130371,8.012934684753418,0.34259068965911865,0.15805701911449432,0.034836772829294205
1.2140804529190063,4.568098545074463,8.718676567077637,0.4588645100593567,0.31063368916511536,0.03113667294383049
0.9816609621047974,4.331378936767578,8.041711807250977,0.4398578703403473,0.19821704924106598,0.029618237167596817
1.0234445333480835,4.482577323913574,7.554443359375,0.2442588210105896,0.09854128956794739,-0.06520549952983856
0.9879816770553589,4.768751621246338,7.788088798522949,-0.02834414690732956,0.012932890094816685,-0.08688248693943024
0.9626030921936035,4.711817264556885,8.008163452148438,-0.11770500242710114,-0.06396631896495819,-0.0913156270980835
0.6325863599777222,4.837656497955322,8.62697982788086,-0.1126260980963707,-0.17919296026229858,-0.08012806624174118
0.8472983837127686,4.806646823883057,8.631843566894531,0.0345575176179409,-0.17922785878181458,-0.046966809779405594
1.085741639137268,4.616940021514893,8.295843124389648,0.2257932424545288,-0.05712462589144707,-0.049637164920568466
1.251037359237671,4.712459087371826,7.9253339767456055,0.2589021325111389,0.0200189258903265,-0.08906415104866028
1.0080546140670776,5.012251377105713,7.433536052703857,0.10934487730264664,0.03331833705306053,-0.059323739260435104
1.0405583381652832,5.055490970611572,7.4373860359191895,-0.05916666239500046,0.12077678740024567,-0.009320057928562164
0.9616454243659973,4.822831630706787,8.254076957702637,-0.05112069472670555,0.16023868322372437,0.012444197200238705
0.8770822286605835,4.7433061599731445,8.51742172241211,0.0028448866214603186,0.13093459606170654,0.011554080061614513
1.0131590366363525,4.746734619140625,8.038657188415527,0.33047810196876526,0.062029000371694565,-0.04476769641041756
1.0257525444030762,4.979891300201416,7.651082992553711,0.3099530339241028,0.2082701325416565,-0.0207345113158226
0.9250333309173584,4.887973308563232,7.4968390464782715,0.07593927532434464,0.17517869174480438,-0.007347836159169674
0.835442304611206,4.778654098510742,8.131953239440918,-0.13027137517929077,0.019739674404263496,-0.034836772829294205
0.7895693778991699,5.080629825592041,7.9340009689331055,-0.19076448678970337,-0.07080800831317902,-0.04366813600063324
0.9866122007369995,5.0644354820251465,6.862730026245117,-0.25413739681243896,0.1825963407754898,0.04277801886200905
1.132907509803772,4.894303321838379,6.727055072784424,-0.26832690834999084,0.4032757878303528,0.04756022244691849
0.7255292534828186,4.6608686447143555,8.175643920898438,-0.1869073063135147,0.6310412287712097,-0.015132004395127296
0.3643304407596588,4.938577175140381,8.908595085144043,-0.04729842394590378,0.4671722650527954,0.007382742594927549
0.27048730850219727,4.741677761077881,8.865527153015137,0.004066617228090763,0.1687907874584198,0.035011306405067444
0.5498427748680115,4.818857669830322,7.977853298187256,-0.12946853041648865,-0.1209862232208252,-0.05218534544110298
0.4929182231426239,5.045827865600586,7.970804691314697,-0.09253735840320587,0.017994344234466553,-0.021380282938480377
0.4074452221393585,4.974547386169434,8.37537670135498,-0.0279427208006382,0.09194394201040268,0.06007423251867294
0.6475932002067566,4.5226850509643555,8.611244201660156,0.0013089969288557768,-0.03822271153330803,0.06876597553491592
0.7579659223556519,4.4443182945251465,8.285661697387695,-0.005689773242920637,-0.08827875554561615,0.03029891662299633
0.6339845657348633,4.678193092346191,8.069426536560059,-0.03296926990151405,-0.06927211582660675,-0.028536133468151093
0.5245312452316284,4.786688804626465,8.184625625610352,-0.06258750706911087,-0.1143365204334259,-0.018535396084189415
0.4304487109184265,4.789628982543945,7.645930767059326,-0.08302531391382217,0.029391344636678696,0.061138883233070374
-0.020561402663588524,5.277835369110107,7.756322383880615,-0.05405284836888313,0.10819295793771744,0.12810716032981873
0.47092029452323914,4.919165134429932,8.46701717376709,-0.01624901592731476,0.0754505842924118,0.33569663763046265
0.5013554096221924,4.832676887512207,8.112809181213379,0.013823007233440876,0.004694935865700245,0.2505594789981842
0.7143722772598267,4.106103420257568,7.504528999328613,0.010262535884976387,0.09656906872987747,0.2192308008670807
1.1624040603637695,3.9883854389190674,8.652998924255371,0.0030194194987416267,0.042010076344013214,0.009913469664752483
1.0495126247406006,4.259332656860352,8.84685230255127,0.0867079570889473,-0.15461872518062592,-0.22305308282375336
0.4191097915172577,4.908601760864258,8.372474670410156,0.23549728095531464,-0.13177235424518585,-0.17186257243156433
0.0844961628317833,4.943087577819824,8.388277053833008,0.2560572624206543,-0.25560346245765686,-0.024661501869559288
0.11264239996671677,4.792779922485352,8.408330917358398,0.23047073185443878,-0.4046371281147003,-0.020350538194179535
0.8037334680557251,4.675655364990234,8.127854347229004,0.2476796805858612,-0.5391671061515808,-0.0962025448679924
1.6320219039916992,4.622772216796875,8.72605037689209,0.3323630392551422,-0.6025749444961548,-0.18011797964572906
1.1399942636489868,4.929450511932373,8.014734268188477,0.058398716151714325,-1.023077130317688,0.03920009359717369
1.21800696849823,4.73098087310791,7.398245811462402,0.16982053220272064,-0.6332752704620361,-0.08407250791788101
1.5533101558685303,4.998834133148193,7.508474826812744,0.3009645640850067,-0.43942153453826904,-0.056670840829610825
1.4881112575531006,5.16695499420166,7.283017635345459,-0.09700539708137512,-0.5257106423377991,0.025080380961298943
2.03617262840271,5.082832336425781,7.717459678649902,0.056583575904369354,-0.20099212229251862,-0.003228859044611454
1.9869670867919922,5.091212272644043,7.964426517486572,0.10246828198432922,-0.14964452385902405,-0.03234095126390457
1.6528992652893066,5.432376384735107,7.7051825523376465,0.07752752304077148,-0.3233920633792877,0.023753931745886803
2.149418354034424,5.64641809463501,8.01794147491455,0.030979594215750694,-0.4414635896682739,0.15994197130203247
2.100078821182251,4.870600700378418,7.530559062957764,0.02485348843038082,-0.28061404824256897,0.08683013170957565
2.559162139892578,5.074615478515625,7.341771125793457,-0.02139773592352867,-0.26659902930259705,0.03851941600441933
2.85235595703125,4.888020992279053,7.253118991851807,-0.042760565876960754,-0.10648253560066223,-0.04583234712481499
2.8182051181793213,4.75791072845459,7.338074684143066,0.04441862925887108,0.1886351853609085,-0.2079908847808838
2.1949753761291504,5.182613372802734,7.771214485168457,0.15158183872699738,0.30309388041496277,-0.256371408700943
1.9032082557678223,5.35905647277832,7.762825012207031,0.1534842550754547,0.2028072625398636,-0.22156955301761627
2.016071081161499,5.573298931121826,7.530214309692383,0.07152359187602997,0.09749408811330795,-0.17271777987480164
1.979296088218689,5.375547409057617,7.345314979553223,0.1353851854801178,-0.046670105308294296,-0.17500416934490204
1.6661536693572998,5.723089694976807,7.408186435699463,0.061802107840776443,-0.05394812673330307,-0.12363912165164948
1.638907551765442,5.536428451538086,7.8514204025268555,-0.034836772829294205,-0.24096015095710754,-0.03649483621120453
1.812171220779419,5.4196391105651855,7.653764724731445,-0.0224623866379261,-0.3876550793647766,-0.02755874954164028
1.7790641784667969,5.320921421051025,7.407095909118652,0.014643312431871891,-0.5330759286880493,-0.006352998316287994
2.5148980617523193,5.51959228515625,7.575464725494385,0.116937056183815,-0.42154937982559204,-0.003036872949451208
2.274108409881592,5.4536848068237305,5.913486480712891,0.1273392289876938,0.024591689929366112,-0.06871361285448074
2.1488821506500244,5.52390193939209,7.144154071807861,-0.04274311289191246,0.18936821818351746,-0.0619242824614048
2.131844997406006,5.430528163909912,8.36546516418457,-0.04054399952292442,0.08937831223011017,-0.04078834503889084
1.8907105922698975,5.336522102355957,8.103252410888672,0.09557422995567322,0.10252063721418381,-0.08922123163938522
1.7993574142456055,5.7394280433654785,7.691631317138672,0.13032373785972595,0.07941248267889023,-0.048659779131412506
2.144256591796875,5.546474456787109,6.265845775604248,0.07023204863071442,0.21814870834350586,-0.0019373154500499368
2.4704809188842773,5.616509437561035,6.058651447296143,-0.042725659906864166,0.6433981657028198,-0.04340633749961853
2.1228044033050537,5.416967391967773,7.0407819747924805,-0.05907939374446869,0.9197885394096375,-0.062116269022226334
1.7761719226837158,5.304315567016602,7.652280330657959,-0.06316346675157547,0.8394335508346558,-0.1710946261882782
1.4339351654052734,5.573835372924805,7.633270263671875,-0.06895796209573746,0.7942469716072083,-0.1552121341228485
1.1047133207321167,5.5195159912109375,8.118546485900879,0.004433136433362961,0.8217009902000427,-0.13763666152954102
1.0673351287841797,5.676201820373535,8.185382843017578,0.1990198940038681,0.7980343699455261,-0.12833406031131744
0.811212956905365,5.511567115783691,7.832276344299316,0.2660579979419708,0.7046417593955994,-0.09896016865968704
0.6755862236022949,5.481553077697754,7.5359039306640625,0.2056870460510254,0.6142686009407043,-0.1111949235200882
0.4976300001144409,5.9008259773254395,7.872087001800537,0.0806516632437706,0.37861427664756775,-0.06757915019989014
0.2839522957801819,5.779008865356445,7.76093864440918,-0.056356679648160934,0.11253882944583893,0.024591689929366112
0.4768770635128021,5.680444240570068,7.599531173706055,-0.0944572165608406,0.04902629926800728,0.05541420355439186
0.44874998927116394,5.696293830871582,7.883148193359375,0.006108652334660292,0.09773843735456467,0.041695915162563324
0.5486169457435608,5.823292255401611,7.805376052856445,0.07276277989149094,0.020210912451148033,0.0737401619553566
0.7431505918502808,5.534206390380859,7.584849834442139,0.04064871743321419,-0.09934414178133011,0.07527604699134827
0.8516941070556641,5.176244735717773,7.539867401123047,0.032044246792793274,-0.17376497387886047,-0.01595230959355831
0.4522646963596344,5.697615623474121,7.439512252807617,0.047682393342256546,-0.2848551869392395,-0.0763232484459877
0.6026396751403809,6.0861945152282715,7.297689437866211,0.022602014243602753,-0.2534741759300232,0.027262043207883835
0.8711733222007751,5.747366905212402,7.349777698516846,-0.018168877810239792,-0.21010273694992065,0.07138396799564362
1.0425598621368408,5.754339218139648,7.540164470672607,-0.019826939329504967,-0.18599973618984222,0.07426375895738602
1.0706582069396973,5.543735504150391,7.544349670410156,0.024469515308737755,-0.1440420299768448,0.06551966071128845
1.0927040576934814,5.272395610809326,7.856199264526367,0.025010569021105766,-0.19764108955860138,0.004625122528523207
1.1468225717544556,5.366353988647461,7.919683933258057,0.06492624431848526,-0.2929709553718567,-0.08796459436416626
1.1611685752868652,5.76629114151001,7.78311824798584,0.18854792416095734,-0.2813296318054199,-0.12004374712705612
1.2564482688903809,5.983684539794922,7.173325061798096,0.22476349771022797,-0.1681799292564392,-0.0723089873790741
1.1382704973220825,5.690902233123779,6.87387752532959,0.15159930288791656,-0.06569419056177139,-0.035325463861227036
1.1863939762115479,5.446033000946045,7.218814849853516,0.09019861370325089,-0.04970697686076164,-0.069725900888443
1.2646076679229736,5.469879150390625,7.452775955200195,0.12150982022285461,-0.08482300490140915,-0.14981906116008759
0.5901036858558655,6.257628917694092,7.076436519622803,0.06229080259799957,-0.21251128613948822,-0.0345749706029892
0.6650230288505554,6.092256546020508,6.912270545959473,0.008779006078839302,-0.16142550110816956,0.0786445364356041
0.8426344394683838,6.029308319091797,7.428594589233398,0.015742870047688484,-0.13548991084098816,0.14793410897254944
1.7138270139694214,5.194880962371826,6.206833362579346,0.12283626943826675,-0.03808308392763138,0.04611159861087799
1.8369942903518677,5.567323207855225,7.147055625915527,0.07794640213251114,0.3153984546661377,-0.0907396674156189
0.8834220767021179,6.102599620819092,8.632514953613281,0.012880530208349228,-0.011414453387260437,-0.03850196301937103
0.852891206741333,6.190409183502197,7.655489444732666,-0.15273375809192657,-0.36592572927474976,0.12199851125478745
1.4845390319824219,6.1626176834106445,5.254439353942871,-0.33367204666137695,0.6565753817558289,0.2650282382965088
1.6265535354614258,5.909550189971924,5.682206630706787,-0.3473554253578186,0.9825330972671509,0.2719222903251648
1.3430033922195435,5.401175022125244,7.085275650024414,-0.2915048897266388,1.352874517440796,0.2332807034254074
0.26866772770881653,5.686266899108887,8.074731826782227,-0.08510225266218185,0.6159964799880981,0.06965608894824982
0.5442882180213928,5.259074687957764,7.962769985198975,-0.1722116321325302,0.4697902798652649,0.2450965791940689
0.6644388437271118,5.2173004150390625,8.603228569030762,-0.18669787049293518,0.10402162373065948,0.034173548221588135
0.33635658025741577,5.5195159912109375,7.452785491943359,0.15508995950222015,-0.14789919555187225,0.044802602380514145
0.8332779407501221,5.257820129394531,7.051412105560303,0.21954496204853058,0.11718140542507172,-0.007627088576555252
0.6626479625701904,5.479408264160156,7.23809289932251,0.1981995850801468,0.2667212188243866,-0.06965608894824982
0.31195488572120667,5.603743553161621,7.508714199066162,0.09276425093412399,0.21998129785060883,-0.04000294581055641
0.29384514689445496,5.586706638336182,7.785560607910156,-0.11588986217975616,-0.0558854416012764,0.025394540280103683
0.30674511194229126,5.477636337280273,7.691171646118164,-0.06330309063196182,-0.024958208203315735,0.038379788398742676
0.23375068604946136,4.611452579498291,7.188685894012451,-0.00989601667970419,0.08997172117233276,-0.04574507847428322
0.7126867771148682,5.734457492828369,8.1552152633667,-0.10208430886268616,-0.00041887903353199363,-0.11414453387260437
0.06320692598819733,5.235218524932861,7.55180025100708,-0.11053170263767242,-0.1114741787314415,-0.09337511658668518
0.5047360062599182,5.237813949584961,7.932392120361328,-0.15746361017227173,-0.23544491827487946,-0.12082914263010025
0.30678340792655945,5.350839614868164,7.865172386169434,-0.14781193435192108,-0.2517637312412262,-0.15589280426502228
0.13930422067642212,5.820486068725586,7.496973037719727,-0.1160992980003357,-0.21301743388175964,-0.038641590625047684
0.31230923533439636,5.552909851074219,7.379369735717773,-0.08227481693029404,-0.03850196301937103,0.046006880700588226
0.5626565217971802,5.206133842468262,7.774652481079102,-0.01012290921062231,0.03932226821780205,0.03712315484881401
0.5067662596702576,5.159849166870117,7.655852317810059,0.0034382985904812813,-0.005323254037648439,-0.012653636746108532
0.4297400414943695,5.394864082336426,7.541677474975586,-0.01970476657152176,0.025481807067990303,-0.025534166023135185
0.33443164825439453,5.504757881164551,7.654415607452393,-0.007976154796779156,0.11506956070661545,0.02422516979277134
0.3746829628944397,5.358500957489014,7.805288791656494,-0.009878563694655895,0.1612858772277832,0.07714354991912842
0.4030494689941406,5.138943195343018,7.922575950622559,-0.011780972592532635,0.1005309671163559,0.055204764008522034
0.6115365624427795,5.121867656707764,7.967299461364746,-0.003926991019397974,0.07471754401922226,0.00251327408477664
0.39811742305755615,5.372588157653809,7.820879936218262,0.013683381490409374,0.06325073540210724,-0.015044738538563251
0.17778383195400238,5.607143402099609,7.479036808013916,-0.05757841095328331,0.12514010071754456,0.06188937649130821
0.08921752870082855,4.954158782958984,7.035974502563477,-0.15376350283622742,0.2705085873603821,0.07396705448627472
0.7384196519851685,5.018792629241943,8.011591911315918,-0.19486601650714874,0.4144807755947113,-0.19196876883506775
-0.008303090929985046,5.753505706787109,8.253377914428711,-0.13114404678344727,0.28824111819267273,-0.08492772281169891
-0.06366661190986633,5.531162261962891,8.14819622039795,-0.12519246339797974,0.19767598807811737,0.042062435299158096
0.04383304342627525,5.158891677856445,8.212754249572754,-0.2007477730512619,0.05770058557391167,0.08888962119817734
0.07612603157758713,4.995425224304199,7.701715469360352,-0.3402344882488251,-0.09145525097846985,0.03052580915391445
0.08801084756851196,5.1822590827941895,7.417476177215576,-0.37084755301475525,-0.05307546257972717,0.007923794910311699
0.1558050662279129,4.77282190322876,8.318854331970215,-0.0007853981805965304,0.07764969766139984,-0.0045378562062978745
0.06497862935066223,4.848899841308594,8.116908073425293,0.014206980355083942,0.02427753061056137,-0.02604031190276146
0.11154106259346008,4.90554666519165,7.858363628387451,-0.007958701811730862,-0.004852015525102615,-0.026720991358160973
0.0919373407959938,4.937744140625,7.836643218994141,-0.06859143823385239,-0.019652407616376877,-0.035098571330308914
0.08325117826461792,4.924298286437988,7.858114242553711,-0.10129890590906143,-0.018744835630059242,-0.03553490340709686
0.09856449067592621,4.759548187255859,8.024923324584961,-0.1368512660264969,-0.0316777266561985,-0.04876450076699257
0.1085243672132492,4.731727600097656,7.961792945861816,-0.12089895457029343,-0.04721115529537201,-0.07464773207902908
-0.24819251894950867,4.932735443115234,8.751908302307129,-0.14107497036457062,-0.2036624699831009,0.01665044017136097
0.06848374009132385,4.525826454162598,7.511453151702881,-0.16999506950378418,-0.2024581879377365,0.018797196447849274
0.29880592226982117,4.821883678436279,8.08299732208252,-0.11583749949932098,0.07237880676984787,-0.013631021603941917
-0.0075369467958807945,5.013946533203125,8.380970001220703,-0.05143485218286514,0.12014846503734589,-0.02157226949930191
0.14006079733371735,4.914740562438965,8.06201457977295,-0.032445669174194336,-0.08255407214164734,-0.0863937959074974
-0.20701225101947784,5.002119064331055,8.125384330749512,0.03750712424516678,0.04251622036099434,-0.026895523071289062
-0.08606676012277603,4.941344738006592,8.182050704956055,0.09063494950532913,-0.03174753859639168,-0.02560397982597351
0.06750690937042236,4.713790416717529,7.893299579620361,0.07400196045637131,-0.03295181691646576,-0.06592108309268951
0.040720582008361816,4.753964900970459,7.7795844078063965,0.0414864756166935,-0.02206096239387989,-0.09250245243310928
-0.05925169959664345,4.8958740234375,7.840502738952637,0.01722639985382557,-0.0018500490114092827,-0.07641051709651947
-0.0567617304623127,4.849666118621826,7.95428466796875,-0.00043633230961859226,0.011938052251935005,-0.034784410148859024
0.020599709823727608,4.701129913330078,8.088053703308105,-0.028902651742100716,-0.07251843065023422,-0.06557202339172363
0.0005554547533392906,4.763245105743408,8.041290283203125,-0.04956734925508499,-0.06983062624931335,-0.06161012127995491
0.06054456904530525,4.762861728668213,7.97935676574707,-0.03733259439468384,-0.04476769641041756,-0.05258677154779434
0.08169973641633987,4.807346343994141,8.06701374053955,-0.022933626547455788,-0.0005410520825535059,-0.06213372200727463
-0.012172120623290539,4.763819694519043,8.049344062805176,0.01975712738931179,0.006073745898902416,-0.06668902933597565
-0.07823292911052704,4.8121538162231445,7.95763635635376,0.053703781217336655,0.024678954854607582,-0.07326892018318176
-0.1370919793844223,5.000328540802002,7.9405035972595215,0.03728023171424866,0.031084313988685608,-0.07735299319028854
-0.26391762495040894,5.109982967376709,8.190285682678223,0.0030717793852090836,-0.003525565145537257,-0.0495498962700367
-0.26159048080444336,5.00977087020874,8.078486442565918,-0.03237585723400116,-0.026110125705599785,-0.007051130291074514
-0.18773414194583893,4.891976356506348,8.183706283569336,-0.05365142226219177,-0.03911282867193222,0.00251327408477664
-0.11877155303955078,4.8556036949157715,8.10566520690918,-0.05902703478932381,-0.0760265439748764,0.0023038345389068127
-0.005334281362593174,4.840060710906982,8.045628547668457,-0.047280970960855484,-0.04911356419324875,0.006719517521560192
0.005487510003149509,4.791305065155029,8.275433540344238,0.0002617993741296232,-0.0038397242315113544,0.006667157635092735
-0.053429003804922104,4.754022598266602,8.334177017211914,0.06789331138134003,-0.006771877408027649,5.2359879191499203e-05
-0.01947922445833683,4.736075401306152,8.19802474975586,0.08796459436416626,-0.016982054337859154,-0.016755159944295883
0.01986229605972767,4.809931755065918,7.993923187255859,0.0815068781375885,-0.023020893335342407,-0.03192207217216492
-0.004386177286505699,4.8296217918396,8.030851364135742,0.08021533489227295,0.00010471975838299841,-0.02183406800031662
0.01684560254216194,4.872430324554443,8.027710914611816,0.07819075137376785,-0.0019198621157556772,-0.021380282938480377
-0.019584568217396736,4.893192768096924,7.996739864349365,0.03977605327963829,-0.05537929758429527,-0.023544492200016975
-0.04593036323785782,4.8729376792907715,7.894402027130127,-0.00015707963029854,-0.10065313428640366,-0.02591813914477825
-0.031909920275211334,4.899647235870361,7.718905925750732,-0.010541788302361965,-0.03438298776745796,-0.004485496319830418
0.0008906429866328835,4.9662346839904785,8.119321823120117,0.015934856608510017,0.018448129296302795,-0.01120501384139061
-0.09438900649547577,5.051698207855225,7.690836429595947,0.00830776710063219,0.009424777701497078,0.06616543233394623
0.04637089744210243,4.9368438720703125,7.922834396362305,-0.011239920742809772,0.11569787561893463,0.07630579173564911
0.022687453776597977,4.680338382720947,8.48546314239502,0.02338741160929203,0.07159340381622314,0.0420449823141098
0.00526724336668849,5.1585373878479,7.818408966064453,0.07414158433675766,0.03230604529380798,-0.015830136835575104
0.03667916730046272,4.972593784332275,7.939957618713379,0.027646014466881752,0.05497787147760391,-0.0028448866214603186
-0.00024899697746150196,4.9593682289123535,8.065394401550293,0.017505653202533722,0.08168140798807144,-0.02595304511487484
-0.06800489872694016,5.034507751464844,8.407737731933594,0.011990412138402462,0.04131194204092026,-0.0239110104739666
0.0014556745300069451,4.9185614585876465,8.241637229919434,0.044226642698049545,-0.060266219079494476,-0.02816961333155632
-0.00769017543643713,5.028445720672607,7.953901767730713,0.06487388908863068,0.014817845076322556,-0.04213224723935127
-0.11422257125377655,4.971377849578857,8.191119194030762,0.06496115773916245,0.008848818950355053,-0.04295255243778229
-0.1620778739452362,5.006515026092529,7.9720306396484375,0.051975905895233154,-0.05838126316666603,-0.03956661373376846
-0.1654297560453415,5.292382717132568,8.058365821838379,0.02975786291062832,-0.0246265958994627,-0.002460914198309183
-0.2031049132347107,5.028349876403809,7.964828968048096,0.017819812521338463,-0.12747885286808014,0.0455007329583168
-0.02810792624950409,4.99603796005249,7.672171115875244,-0.0025307273026555777,-0.1180715262889862,0.03303908184170723
0.024143129587173462,4.908247470855713,7.881491184234619,0.016109388321638107,0.0007330382941290736,0.02923426404595375
0.024650700390338898,4.857988357543945,7.882986545562744,-0.0015358896926045418,-0.023457225412130356,0.011815878562629223
0.022333111613988876,4.88813591003418,7.826166152954102,-0.029653143137693405,-0.018360864371061325,-0.007470009382814169
-0.10515333712100983,5.023695945739746,7.942524433135986,-0.04576253145933151,-0.034400440752506256,-0.02010619267821312
-0.22620417177677155,5.206306457519531,8.022011756896973,-0.07323401421308517,-0.0973370149731636,0.021851522848010063
-0.13295480608940125,5.1229400634765625,7.792168617248535,-0.11191051453351974,-0.16374678909778595,0.06752678751945496
-0.01517923828214407,5.133100986480713,7.754387855529785,-0.14193017780780792,-0.14062117040157318,0.08114035427570343
0.09186072647571564,5.112827301025391,7.970335483551025,-0.14816099405288696,-0.11622147262096405,0.10068804770708084
0.10501925647258759,4.994792938232422,8.187020301818848,-0.08923868089914322,-0.1376715749502182,0.09971065819263458
0.16094781458377838,4.802577018737793,8.367897033691406,0.01302015595138073,-0.1693667471408844,0.07227408140897751
0.04641878232359886,4.76951789855957,8.30333137512207,0.15055209398269653,-0.22820179164409637,0.011013027280569077
0.08576030284166336,5.203615188598633,7.781787395477295,0.1811302751302719,-0.20776399970054626,0.03480186685919762
0.39913254976272583,5.0543317794799805,7.716434955596924,0.13400638103485107,-0.07637561112642288,0.06691592186689377
0.3013820946216583,4.557852268218994,8.454519271850586,0.18250907957553864,-0.09615018963813782,-0.0024085543118417263
0.3076740503311157,4.6206560134887695,8.740655899047852,0.3490833044052124,-0.335906058549881,-0.12667599320411682
0.08587522059679031,5.308375835418701,7.987793922424316,0.3763976991176605,-0.44223153591156006,-0.10707595199346542
0.2135436236858368,4.853918075561523,8.365303039550781,0.2831447720527649,-0.4112170338630676,-0.024382250383496284
0.4888097643852234,5.083119869232178,7.493889331817627,0.31183797121047974,-0.43771111965179443,-0.06037093698978424
0.7574583292007446,5.39245080947876,7.496264457702637,0.3836757242679596,-0.23867377638816833,-0.09658651798963547
0.5314074158668518,5.918830394744873,8.424832344055176,0.49698251485824585,-0.2217615395784378,0.03958406671881676
0.6890704035758972,5.472407341003418,7.316928863525391,0.5931676030158997,-0.19303341209888458,0.06785839796066284
0.7433612942695618,5.530624866485596,7.474448204040527,0.5616993308067322,-0.16606807708740234,0.08091346174478531
0.6903440952301025,5.3833909034729,6.995090961456299,0.3995058536529541,-0.16018632054328918,0.10288716107606888
1.0006613731384277,5.5676774978637695,7.939938545227051,0.3349112272262573,-0.23034855723381042,0.05258677154779434
1.0207247734069824,5.357859134674072,7.793614864349365,0.3410024344921112,-0.34697145223617554,-0.003979350905865431
1.2332819700241089,5.645249843597412,7.296750545501709,0.366362065076828,-0.2824815511703491,-0.060615286231040955
1.1521472930908203,6.009474754333496,6.962386131286621,0.3321710526943207,-0.15978489816188812,-0.038327429443597794
0.9733099937438965,5.908927917480469,6.889622688293457,0.15618951618671417,-0.17069320380687714,0.03555235639214516
1.2794326543807983,5.714020729064941,7.351740837097168,0.057910025119781494,-0.28614673018455505,0.010855947621166706
1.546663761138916,5.74711799621582,7.082824230194092,0.1062730997800827,-0.20233601331710815,-0.09295623749494553
1.4936561584472656,5.847674369812012,7.170394420623779,0.22846360504627228,-0.03099704720079899,-0.15742869675159454
1.2569845914840698,6.112607479095459,7.237891674041748,0.23485150933265686,0.030490901321172714,-0.14563027024269104
0.9746986031532288,5.917029857635498,7.333793640136719,0.23284436762332916,-0.16290903091430664,-0.17350317537784576
1.112039566040039,6.157752513885498,6.2320685386657715,0.24844761192798615,-0.06436774134635925,-0.16528268158435822
0.9783665537834167,6.225795745849609,6.4646124839782715,0.08463101834058762,0.18449875712394714,-0.11962486803531647
0.9606877565383911,5.988032341003418,6.793508529663086,-0.033684853464365005,0.21333159506320953,-0.07539822161197662
1.082897424697876,5.9619927406311035,6.960011005401611,-0.10609856247901917,0.16868607699871063,-0.12095131725072861
0.8548161387443542,6.208317756652832,6.385651588439941,-0.1367814540863037,0.1402546614408493,-0.1609717160463333
0.8933915495872498,6.2952656745910645,6.001602649688721,-0.1618618369102478,0.2349911332130432,-0.1650732457637787
0.6694570779800415,6.332711219787598,6.323230266571045,-0.18966493010520935,0.5364094972610474,-0.15058700740337372
0.4081922173500061,6.318480014801025,7.047619819641113,-0.21041689813137054,0.6472728252410889,-0.11316715180873871
0.296651154756546,6.013813018798828,7.5665388107299805,-0.2462310492992401,0.5166348814964294,-0.06286676228046417
0.3418057858943939,5.880666732788086,7.326735973358154,-0.22743386030197144,0.2885727286338806,-0.07255333662033081
0.33199915289878845,5.784764766693115,7.684525012969971,-0.19563394784927368,0.2968979477882385,-0.06459463387727737
0.40595126152038574,5.517131328582764,7.820544719696045,-0.012950343079864979,0.057962384074926376,-8.726646046852693e-05
0.39865371584892273,5.552210807800293,7.9492950439453125,0.08285077661275864,0.12000884115695953,-0.07398450374603271
-0.0663672685623169,5.894859313964844,6.9299492835998535,0.08103563636541367,0.3254864513874054,-0.004764748737215996
-0.09715670347213745,5.679697513580322,7.098194599151611,0.0771959125995636,0.37168532609939575,-0.020472712814807892
-0.34531089663505554,5.816760540008545,7.379082679748535,0.06829473376274109,0.3392221927642822,-0.02439970336854458
-0.3172796070575714,5.785224437713623,7.584524154663086,-0.0670904591679573,0.10442304611206055,0.06035348400473595
-0.0566372312605381,5.645843505859375,7.62391471862793,-0.11112511157989502,0.027436574921011925,0.07140141725540161
0.07636545598506927,5.704817295074463,7.8180928230285645,-0.10787880420684814,0.04862487316131592,0.04190535470843315
-0.020772093906998634,5.733001708984375,8.003729820251465,-0.10164797306060791,-0.006998770404607058,0.030002210289239883
0.0010247182799503207,5.698726654052734,7.935054302215576,-0.09122835844755173,-0.08218755573034286,0.014852751977741718
0.0798705667257309,5.739083290100098,7.736938953399658,-0.051714107394218445,-0.07923794537782669,-0.004450589418411255
0.10151414573192596,5.748889923095703,7.694494724273682,0.002775073517113924,-0.02755874954164028,-0.011239920742809772
0.13362517952919006,5.68781852722168,7.6599321365356445,0.04171336814761162,0.002286381321027875,-0.023579398170113564
0.09567229449748993,5.685539245605469,7.643469333648682,0.07410667836666107,-0.0011868239380419254,-0.047019168734550476
-0.013369222171604633,5.694081783294678,7.584887981414795,0.08370599150657654,-0.04113740846514702,-0.05578072369098663
-0.04077804088592529,5.6579484939575195,7.360159873962402,0.058939769864082336,-0.11281808465719223,-0.06028367206454277
-0.1395532190799713,5.570311069488525,6.979672431945801,0.023177972063422203,-0.11440633237361908,-0.07730063050985336
-0.17892347276210785,5.751465797424316,6.917901992797852,-0.007435102481395006,-0.027174776419997215,-0.08230973035097122
-0.24033953249454498,5.873704433441162,7.146136283874512,-0.028902651742100716,0.038990654051303864,-0.041119955480098724
-0.1726027876138687,5.782437324523926,7.335278034210205,-0.05340707674622536,0.08124507963657379,0.003298672381788492
-0.24371056258678436,5.640748500823975,7.574018478393555,-0.08470083028078079,0.0725882425904274,0.019896753132343292
-0.2817017734050751,5.682513236999512,7.746400833129883,-0.11883946508169174,-0.011397000402212143,0.026284659281373024
-0.23285047709941864,5.251872539520264,7.944784641265869,-0.2765648663043976,-0.2421993464231491,0.09040805697441101
-0.34983116388320923,5.481821537017822,7.756983280181885,-0.3087487518787384,-0.40516072511672974,0.06667158007621765
0.020484788343310356,5.539464473724365,7.469602584838867,-0.30117401480674744,-0.3920533061027527,0.090425506234169
0.439594566822052,5.401453018188477,7.571480751037598,-0.11489502340555191,-0.07887142896652222,0.13501867651939392
0.5094860792160034,4.9688591957092285,7.887716293334961,0.05539675056934357,0.09086184203624725,0.09630727022886276
0.2558060884475708,5.012481212615967,7.816887378692627,0.02569124661386013,-0.024731315672397614,0.006230825558304787
0.15347789227962494,5.424657344818115,7.678606986999512,-0.14953981339931488,-0.21104520559310913,-1.7453292457503267e-05
0.16435715556144714,5.514133453369141,7.657499313354492,-0.2692694067955017,-0.30229103565216064,0.07152359187602997
0.3804194927215576,5.551415920257568,7.69693660736084,-0.2957983911037445,-0.3142814338207245,0.12520991265773773
0.22685539722442627,5.6136555671691895,7.768121242523193,-0.32358404994010925,-0.3231651484966278,0.21729348599910736
0.46012723445892334,5.276140213012695,7.749858379364014,-0.3603755831718445,-0.31819096207618713,0.28534388542175293
0.9560813307762146,4.357092380523682,7.961007595062256,-0.4063301086425781,-0.29363420605659485,0.10732029378414154
0.7856811881065369,4.174798011779785,8.090792655944824,-0.5412266254425049,-0.20552997291088104,-0.030805060639977455
0.6435518264770508,4.857135772705078,8.684200286865234,-0.4050559997558594,-0.4519529938697815,-0.08683013170957565
0.8379896879196167,4.984325408935547,8.371039390563965,-0.1627170443534851,-0.3867649734020233,0.04965461790561676
1.0884997844696045,4.672073841094971,7.852856636047363,0.017680184915661812,-0.18599973618984222,0.08105309307575226
1.3321242332458496,4.389739990234375,7.897801876068115,0.15561355650424957,0.08855800330638885,0.026197392493486404
1.2552703619003296,4.464937210083008,7.956995010375977,0.1978679746389389,0.13891075551509857,-0.05483824387192726
0.9830495715141296,4.762880802154541,8.025287628173828,0.07379251718521118,0.011484266258776188,-0.08384561538696289
0.7345314621925354,4.774085998535156,8.002092361450195,-0.1048244759440422,-0.1748296320438385,-0.0650833249092102
0.9183486700057983,5.0386738777160645,8.327818870544434,-0.15025539696216583,-0.20774653553962708,-0.018308503553271294
1.5300863981246948,4.619793891906738,8.263367652893066,0.18250907957553864,-0.17409659922122955,-0.09831439703702927
1.3829482793807983,4.678968906402588,7.691267490386963,0.146328404545784,-0.23310618102550507,-0.17496925592422485
1.298097848892212,5.045875549316406,7.192355155944824,0.09635962545871735,-0.1206720620393753,-0.1990548074245453
1.005325198173523,5.12362003326416,7.475760459899902,0.2830924093723297,-0.15226252377033234,-0.04881685972213745
1.2311558723449707,5.104782581329346,6.163153648376465,0.16528268158435822,0.25361379981040955,0.022532200440764427
1.2812905311584473,4.697423458099365,8.256011962890625,0.03651228919625282,0.3159045875072479,-0.031555552035570145
1.3577229976654053,4.981548309326172,8.565629959106445,0.2856580317020416,0.21279054880142212,-0.07899360358715057
1.4480801820755005,4.837024688720703,6.762240409851074,0.0780511274933815,0.6047565937042236,-0.2401922047138214
0.9511205554008484,5.342267990112305,7.420502185821533,-0.09079203009605408,0.5573883652687073,-0.2359336018562317
0.3474465310573578,5.637655258178711,7.849792003631592,-0.07478735595941544,0.552518904209137,-0.16863371431827545
-0.07379887253046036,5.867029190063477,7.988799571990967,-0.02249729447066784,0.5079955458641052,0.006143558770418167
0.06418375670909882,5.3571600914001465,7.930898189544678,0.0030194194987416267,0.44174283742904663,0.11383037269115448
0.43816763162612915,5.101066589355469,8.097333908081055,0.0063355453312397,0.3984062969684601,0.06014404445886612
0.6745040416717529,5.167845726013184,8.847024917602539,0.10728538781404495,0.24403193593025208,-0.05204571783542633
0.2812325060367584,5.455293655395508,8.147286415100098,0.13730505108833313,0.1560847908258438,-0.040997784584760666
0.37586092948913574,5.432826519012451,7.800348281860352,0.05768313258886337,0.18256144225597382,0.023596851155161858
0.5093903541564941,5.30200719833374,7.835580348968506,0.05407030135393143,0.26373669505119324,0.009320057928562164
0.41474276781082153,5.324598789215088,7.8663411140441895,0.08763298392295837,0.309324711561203,-0.0016406094655394554
0.17353172600269318,5.48712682723999,7.985715866088867,0.15906931459903717,0.39653879404067993,0.0071907564997673035
-0.018607735633850098,5.535748481750488,7.807472229003906,0.18181094527244568,0.4000643789768219,0.0639314129948616
-0.06736325472593307,5.5502095222473145,7.463531017303467,0.11222466826438904,0.35332444310188293,0.12707741558551788
0.3118974268436432,5.506960391998291,7.298886299133301,-0.08218755573034286,0.3229033648967743,0.16629497706890106
0.30072128772735596,5.384952068328857,7.8901872634887695,-0.25048965215682983,0.25249677896499634,0.15789993107318878
0.1463623344898224,5.163316249847412,8.571624755859375,-0.2627243995666504,0.08906415104866028,0.14587461948394775
0.10979808866977692,5.224234104156494,9.411147117614746,-0.09950122237205505,-0.07586946338415146,0.12831661105155945
0.09023267030715942,5.352419853210449,9.391792297363281,-0.008639379404485226,-0.21036453545093536,0.14463543891906738
0.5739476084709167,5.294891834259033,8.964629173278809,0.12685053050518036,-0.24211207032203674,0.004153883550316095
0.04500141367316246,5.480480670928955,7.857780456542969,-0.10323622822761536,0.13753195106983185,0.3697828948497772
0.021250933408737183,5.02037239074707,7.852588653564453,-0.05115560069680214,0.11033971607685089,0.3709871768951416
0.24020545184612274,4.785903453826904,7.803066730499268,0.007347836159169674,0.09890780597925186,0.2324429452419281
0.19009003043174744,4.236664295196533,7.197429656982422,0.09135053306818008,0.23973841965198517,0.01616174913942814
0.5947292447090149,5.216553688049316,7.607412815093994,0.15966272354125977,0.11388273537158966,-0.0861145481467247
-0.060324303805828094,5.662459373474121,7.564001083374023,0.17870426177978516,0.08281587064266205,-0.10992083698511124
-0.1161283552646637,5.535260200500488,7.30219030380249,0.168808251619339,0.14894640445709229,0.04764748737215996
0.17624196410179138,5.342890739440918,7.340401649475098,0.15905185043811798,0.13180726766586304,0.07466518878936768
0.10005847364664078,5.193722248077393,7.266230583190918,0.1103048101067543,0.13386675715446472,0.02431243658065796
0.04473326355218887,5.266946792602539,7.4116339683532715,0.013089969754219055,0.0982271283864975,-0.022200588136911392
0.280686616897583,5.298042297363281,8.036637306213379,-0.07916813343763351,0.09175195544958115,-0.13463470339775085
0.14337436854839325,5.524256229400635,8.437750816345215,-0.06923720985651016,-0.1589471399784088,-0.09374163299798965
0.32266175746917725,5.243914604187012,7.881663799285889,0.08485791087150574,-0.09838420897722244,-0.03132865950465202
0.3184383809566498,5.202121257781982,7.667842388153076,0.09300859272480011,-0.08918632566928864,-0.06297148019075394
0.23676738142967224,5.399949550628662,7.551474571228027,0.06333799660205841,-0.1011069267988205,-0.0754680335521698
0.15133269131183624,5.471651077270508,7.448955059051514,0.06152285635471344,-0.006963863503187895,-0.08145451545715332
-0.03844130039215088,5.5861992835998535,7.678627014160156,0.09047786891460419,0.009407324716448784,-0.058398716151714325
0.056723423302173615,5.5886030197143555,7.752932548522949,0.05595525726675987,-0.03476695716381073,-0.00040142572834156454
0.24847981333732605,5.279903888702393,7.631239891052246,-0.027122415602207184,-0.13414600491523743,-0.01731366664171219
0.1818731278181076,5.320318222045898,7.407362937927246,-0.10560987144708633,0.017086774110794067,-0.05181882530450821
-0.3202388286590576,5.589560508728027,8.006650924682617,-0.14564771950244904,0.03981095924973488,-0.015184364281594753
-0.12466128915548325,5.5723700523376465,8.166094779968262,-0.13344787061214447,0.08169886469841003,0.06813765317201614
0.3903697729110718,5.039803981781006,7.826453685760498,-0.005777040030807257,-0.06646213680505753,0.04907865822315216
0.41580578684806824,5.286253452301025,8.378652572631836,0.1454208344221115,-0.0165631752461195,-0.04297000542283058
0.07404786348342896,5.529992580413818,7.891911029815674,-0.09698794782161713,-0.1059938445687294,-0.02843141369521618
0.27931714057922363,5.504345893859863,7.367733955383301,-0.06421066075563431,-0.04717624932527542,-0.039618972688913345
0.18502390384674072,5.569066047668457,7.671184539794922,-0.06550220400094986,0.050823986530303955,-0.035360369831323624
0.15637008845806122,5.424944877624512,7.56790828704834,-0.06075491011142731,-0.011798425577580929,-0.012548916973173618
0.17940232157707214,5.444759368896484,7.330451488494873,-0.11011282354593277,0.07620107382535934,-0.03295181691646576
-0.15447388589382172,5.463175296783447,8.027010917663574,-0.18441148102283478,-0.1034107580780983,0.012723450548946857
0.08516653627157211,5.390841960906982,7.570733547210693,-0.18243926763534546,-0.09442231059074402,0.013823007233440876
0.15751931071281433,5.216170310974121,7.650920391082764,-0.034784410148859024,-0.019739674404263496,0.002199114765971899
0.17153975367546082,5.31669807434082,7.517151355743408,-0.005969026125967503,0.03502875939011574,-0.01687733456492424
0.13330914080142975,5.302677631378174,7.538478851318359,-0.0351334773004055,0.023771384730935097,-0.01045452244579792
-0.057977985590696335,5.101258277893066,7.7493696212768555,-0.07888887822628021,-0.08621926605701447,-0.04029965400695801
-0.24569296836853027,4.780799388885498,7.8466796875,-0.12315043061971664,-0.3400948643684387,-0.1010894700884819
-0.4199429750442505,4.471497058868408,7.919108867645264,-0.08951793611049652,-0.6128025650978088,-0.2586752474308014
-0.9858555793762207,5.831394195556641,7.556551456451416,-0.14309954643249512,-0.9134355187416077,-0.17259560525417328
2.240417242050171,6.255752086639404,5.704061031341553,0.027750734239816666,-0.8973610401153564,0.17214182019233704
2.946840763092041,5.246126651763916,6.224847316741943,0.08796459436416626,-0.2784847319126129,0.20271998643875122
2.912297248840332,4.645862102508545,7.299556732177734,0.1834864616394043,-0.14357078075408936,-0.026808258146047592
2.014883518218994,5.462447643280029,7.288553237915039,0.1330988109111786,-0.24673719704151154,-0.09030333161354065
1.7532546520233154,5.711147785186768,7.695950508117676,0.029164452105760574,-0.3954916000366211,0.11356857419013977
2.3335421085357666,4.831613540649414,8.380711555480957,0.06728244572877884,-0.5978450775146484,0.17669713497161865
2.7206270694732666,4.865534782409668,8.33573055267334,0.1509186178445816,-0.7641400694847107,0.0544368177652359
2.4103193283081055,5.40089750289917,7.658849716186523,0.15165166556835175,-0.7651174068450928,0.03755948692560196
2.62196683883667,5.603389263153076,7.271630764007568,0.22254693508148193,-0.6195220947265625,0.056635934859514236
2.6812472343444824,5.471220016479492,7.268479824066162,0.3009471297264099,-0.42723914980888367,0.07675957679748535
3.0660240650177,5.301921367645264,7.396924018859863,0.2658136487007141,-0.4643273949623108,0.050736721605062485
2.6577839851379395,5.4487624168396,6.713791370391846,0.1587376892566681,-0.49012336134910583,0.014433872886002064
2.4701266288757324,5.683911323547363,6.646045207977295,0.1045626774430275,-0.1722290962934494,0.1390852928161621
3.072498083114624,5.378660202026367,7.283641338348389,0.126710906624794,-0.002460914198309183,0.16137313842773438
3.5121214389801025,5.087994575500488,8.125998497009277,0.12054988741874695,-0.22764329612255096,0.06314601004123688
3.56093430519104,5.089066982269287,7.888731479644775,0.2447824329137802,-0.40798816084861755,-0.0837932601571083
2.944657325744629,5.654673099517822,6.8879265785217285,0.3693291246891022,-0.3857003152370453,-0.14672982692718506
2.9880785942077637,5.765945911407471,6.659079074859619,0.2756921947002411,-0.3759439289569855,-0.04057890549302101
3.3617846965789795,5.6344757080078125,6.753353118896484,0.2125461995601654,-0.42563343048095703,-0.015882495790719986
3.687051296234131,5.578489780426025,6.57628870010376,0.07243116199970245,-0.5138947367668152,-0.04173082113265991
3.644118547439575,5.297946929931641,6.358233451843262,0.003926991019397974,-0.4128052592277527,-0.08145451545715332
4.007309436798096,5.09105920791626,7.1651177406311035,0.09328784793615341,-0.15805701911449432,-0.19118335843086243
3.7558703422546387,5.333266258239746,7.254181861877441,0.1857903003692627,-0.0990823432803154,-0.3527659475803375
2.9781951904296875,6.017404556274414,6.5787200927734375,0.14985397458076477,-0.1627344936132431,-0.31002283096313477
2.7032737731933594,6.272674083709717,6.615954875946045,0.06024876609444618,-0.15170401334762573,-0.0976511687040329
3.140244483947754,5.860670566558838,6.883971214294434,-0.06265731900930405,-0.2675589621067047,0.015306537039577961
3.1870462894439697,5.833749771118164,6.885369300842285,-0.031206486746668816,-0.34030428528785706,0.017907077446579933
3.607630968093872,5.676757335662842,6.653227806091309,0.08705702424049377,-0.1472010612487793,-0.03940953314304352
3.6494336128234863,5.64786434173584,6.8144917488098145,0.20052087306976318,-0.029024824500083923,-0.08677776902914047
3.3296258449554443,6.061007499694824,5.890501976013184,0.031031953170895576,-0.19462166726589203,-0.06656685471534729
3.090559959411621,6.107656002044678,5.089995861053467,-0.15618951618671417,0.12493066489696503,0.03050835430622101
3.266514539718628,5.828665733337402,6.076253890991211,-0.10161306709051132,0.2911907434463501,0.025761060416698456
3.70597505569458,5.519218921661377,6.921186923980713,0.10927506536245346,0.45029494166374207,-0.08868017792701721
3.631582498550415,5.822948455810547,7.386054515838623,0.2073974758386612,0.45144686102867126,-0.16149531304836273
3.183378219604492,6.401357650756836,7.136626720428467,0.07407177239656448,0.20579177141189575,-0.02918190509080887
3.61002516746521,6.053834438323975,6.566404342651367,0.038327429443597794,0.4011988341808319,0.04726351425051689
4.026922702789307,5.353233814239502,6.570742607116699,0.080058254301548,0.6679549813270569,-0.11391764134168625
3.9521756172180176,5.286732196807861,6.1178364753723145,-0.026773350313305855,0.7091272473335266,-0.3381401002407074
2.6825878620147705,5.951525688171387,6.265022277832031,-0.059725165367126465,0.9293878078460693,-0.3658559024333954
1.9695180654525757,6.031472682952881,6.738135814666748,-0.029740409925580025,1.1426670551300049,-0.23940680921077728
1.971404790878296,6.068774223327637,7.357965469360352,0.008028514683246613,0.8868192434310913,-0.11623892933130264
1.3874781131744385,6.454125881195068,6.016417980194092,-0.14233160018920898,1.0767459869384766,-0.10981611907482147
1.3365199565887451,6.221907615661621,7.047151565551758,-0.25075146555900574,1.2736365795135498,0.061103977262973785
1.4085566997528076,5.870658874511719,8.344874382019043,-0.4329289197921753,0.8735198378562927,0.16859880089759827
0.930817723274231,5.721040725708008,8.30700969696045,-0.6044249534606934,0.506302535533905,0.24832545220851898
0.46790361404418945,5.15682315826416,7.941030502319336,-0.5592209696769714,0.3843040466308594,0.3738844394683838
1.148393154144287,4.993107318878174,8.183276176452637,-0.5104215145111084,0.5332504510879517,0.34204962849617004
1.2638894319534302,4.97412633895874,7.0563249588012695,-0.6344795227050781,0.8503418564796448,0.26167720556259155
1.300578236579895,5.218478202819824,8.002992630004883,-0.8500800728797913,0.9292656779289246,0.00830776710063219
0.7763821482658386,5.224435329437256,8.84282112121582,-0.7917336821556091,0.561681866645813,-0.01507964450865984
0.5877573490142822,4.730109214782715,7.994143486022949,-0.6603802442550659,0.46525242924690247,-0.00041887903353199363
0.19455282390117645,4.007701873779297,8.358992576599121,-0.5850692987442017,0.19994491338729858,0.12438961863517761
2.206754684448242,3.86724853515625,7.99211311340332,0.5338089466094971,1.218030333518982,-0.12548917531967163
1.7868788242340088,4.364016532897949,8.957043647766113,0.32304298877716064,1.033531665802002,-0.4818505048751831
0.2818070948123932,5.815467834472656,8.154008865356445,-0.07735299319028854,0.26864108443260193,-0.39728930592536926
-0.4881681203842163,5.95770263671875,7.236177444458008,-0.5217137932777405,0.0521329827606678,0.00898844562470913
0.36966472864151,4.906714916229248,7.784756183624268,-0.7018666863441467,0.09953612834215164,0.25792476534843445
0.6774728894233704,4.249248027801514,8.468656539916992,-0.4202927350997925,0.3272143304347992,0.08314748853445053
0.807420551776886,4.302926063537598,9.233285903930664,0.07761479169130325,0.56220543384552,-0.11969467997550964
0.6485413312911987,4.354305744171143,9.082135200500488,0.49031534790992737,0.5655564665794373,-0.265010803937912
0.05671384930610657,4.232536792755127,8.463034629821777,0.6060481071472168,0.3761533498764038,-0.37922513484954834
0.38179853558540344,5.24111795425415,8.147305488586426,0.09180431813001633,-0.13693852722644806,-0.4449367821216583
0.03121081180870533,5.0302653312683105,8.401569366455078,0.24172809720039368,-0.09138543903827667,-0.49980995059013367
-0.6034536957740784,5.4693427085876465,8.042487144470215,0.318522572517395,-0.09513789415359497,-0.44430845975875854
-0.6954964399337769,5.749253749847412,7.459786415100098,0.20352284610271454,-0.10957176983356476,-0.28736844658851624
-0.532480001449585,5.57977294921875,7.567889213562012,0.10480701923370361,-0.054279740899801254,-0.16458454728126526
-0.42330440878868103,5.273458957672119,8.033409118652344,0.12109094113111496,0.00017453292093705386,-0.13437290489673615
-0.5568625330924988,5.342095851898193,8.24406909942627,0.19348719716072083,-0.11513937264680862,-0.12133529037237167
-0.5213517546653748,5.512993812561035,7.888118743896484,0.15687018632888794,-0.23872613906860352,-0.061679936945438385
-0.5045732259750366,5.484321117401123,7.762327194213867,0.11784463375806808,-0.29534462094306946,-0.03794345632195473
-0.47341984510421753,5.362705230712891,7.677371501922607,0.07117452472448349,-0.3554362952709198,-0.015934856608510017
-0.4021684229373932,5.518548488616943,7.359086036682129,0.0659734457731247,-0.2952747941017151,0.030351275578141212
0.060659490525722504,5.613971710205078,6.523787498474121,-0.04228932783007622,-0.07389724254608154,-0.03717551380395889
0.0810389369726181,5.62692928314209,7.689016819000244,-0.11103784292936325,0.055169858038425446,0.006300638429820538
0.24593238532543182,5.480700969696045,8.646716117858887,-0.057508599013090134,-0.09292133152484894,0.017732545733451843
0.16704823076725006,5.091978549957275,8.372312545776367,-0.014835298992693424,-0.3308795094490051,0.0022689281031489372
0.43864646553993225,5.268986701965332,7.326831340789795,0.030630528926849365,-0.11861257255077362,-0.05958554148674011
0.21087169647216797,5.684390068054199,7.241128444671631,-0.06412339955568314,0.05763076990842819,-0.04623377323150635
-0.03966713324189186,5.8861541748046875,7.528768062591553,-0.1676214188337326,0.05581562966108322,0.04441862925887108
0.09259814023971558,5.563042163848877,7.66978645324707,-0.2042558789253235,0.029775317758321762,0.1417032778263092
0.3714364469051361,5.17922306060791,7.77396297454834,-0.1926668882369995,0.04778711497783661,0.10608111321926117
0.05635950714349747,5.3281426429748535,7.851151943206787,-0.18516197800636292,-0.015411256812512875,0.03984586521983147
0.01243069488555193,5.4811320304870605,7.468118190765381,-0.2278701812028885,-0.019512781873345375,0.0677013248205185
0.1886247843503952,5.523097515106201,7.619690418243408,-0.2744530141353607,0.11410962790250778,0.09934414178133011
0.20367951691150665,5.678653717041016,8.463321685791016,-0.24265313148498535,-0.15219271183013916,0.06995279341936111
-0.36584359407424927,4.879383087158203,8.161287307739258,-0.38350120186805725,-0.2546609938144684,0.136537104845047
-0.36323869228363037,4.5758843421936035,8.460256576538086,-0.6167993545532227,-0.6553711295127869,0.10609856247901917
-0.2597421407699585,4.536906719207764,8.03250789642334,-0.7942469716072083,-0.9305222630500793,0.07925540208816528
0.9279733896255493,5.149008274078369,8.413254737854004,-0.8082619905471802,-0.6269047856330872,0.09019861370325089
0.9743921756744385,5.214791297912598,8.673321723937988,-0.5097408890724182,-0.5274385213851929,0.00617846567183733
0.5283523797988892,4.731938362121582,8.626251220703125,-0.17353808879852295,-0.26916468143463135,0.10702358931303024
0.8533700704574585,4.699750900268555,7.799217224121094,0.2535439729690552,0.05838126316666603,0.17132152616977692
1.0057562589645386,4.775723457336426,7.655325412750244,0.3853163421154022,0.35644859075546265,0.13456489145755768
0.6707786917686462,4.850154399871826,7.566203594207764,0.37229618430137634,0.4899662733078003,0.29370400309562683
1.2814916372299194,4.910095691680908,7.849571704864502,0.21842795610427856,0.40194931626319885,0.27724555134773254
1.2050591707229614,4.547431468963623,7.88041877746582,0.044366270303726196,0.24747022986412048,0.04642575979232788
0.5738614201545715,4.557190418243408,8.255053520202637,-0.036704275757074356,0.10091494023799896,-0.07510151714086533
0.4762066900730133,4.8340559005737305,8.417572021484375,-0.030054569244384766,-0.09398598223924637,-0.06668902933597565
0.5696284174919128,4.9694719314575195,7.931894302368164,-0.01457349956035614,-0.17662732303142548,-0.03982841223478317
0.6134040355682373,4.551252841949463,8.14108943939209,0.07447320222854614,0.08747590333223343,0.01251401100307703
0.6365224123001099,4.721643447875977,7.977403163909912,0.08450884371995926,-0.077178455889225,-0.031520646065473557
0.5468931198120117,4.7979607582092285,7.675436973571777,0.06716027110815048,-0.02604031190276146,-0.027611108496785164
0.4372961223125458,5.1882829666137695,8.370827674865723,0.0901462584733963,0.37578684091567993,0.04769985005259514
0.5210835933685303,4.8149213790893555,7.4089813232421875,0.26085689663887024,0.26288148760795593,0.13950416445732117
0.4437413215637207,5.188733100891113,7.605813503265381,0.19868828356266022,0.3827332556247711,0.05633922666311264
0.3416525721549988,5.139508247375488,7.806801795959473,0.08689994364976883,0.22979004681110382,0.08450884371995926
0.37621524930000305,4.997819423675537,7.513722896575928,-0.06836454570293427,0.033283427357673645,0.056531213223934174
0.32074639201164246,4.980437278747559,7.322042942047119,-0.1745678335428238,0.08881980180740356,-0.01722639985382557
0.207835853099823,5.216821670532227,7.772526264190674,-0.09615018963813782,0.31382766366004944,-0.05763076990842819
-0.19260872900485992,5.165145397186279,8.568485260009766,0.019390607252717018,0.21739821135997772,-0.05572836101055145
-0.6330747604370117,5.3918375968933105,8.424333572387695,0.09182177484035492,-0.11604694277048111,-0.017505653202533722
-0.8755212426185608,5.779372692108154,8.074264526367188,0.027454029768705368,-0.27864181995391846,0.10175269842147827
-0.41605478525161743,5.471133708953857,7.517304420471191,-0.21615903079509735,-0.34454545378685,0.32993704080581665
0.5141212940216064,4.656970977783203,7.633959770202637,-0.3577575981616974,-0.2840523421764374,0.363517165184021
1.1838082075119019,4.025495529174805,8.653430938720703,-0.16510814428329468,-0.13182471692562103,0.16495107114315033
0.9479793310165405,4.0107855796813965,9.156585693359375,0.14407692849636078,-0.38753291964530945,-0.08089601248502731
0.48161759972572327,4.786794185638428,8.272953033447266,0.22282618284225464,-0.6325247883796692,-0.11372565478086472
0.03204399347305298,5.297908306121826,8.07714557647705,0.39189621806144714,-0.35040974617004395,-0.051661744713783264
-0.0038498761132359505,5.29307222366333,8.106451034545898,0.6478661894798279,-0.1302015632390976,0.041922807693481445
-0.2762238383293152,5.309467792510986,7.361078262329102,0.8440237641334534,-0.20350539684295654,0.35264378786087036
0.04552813619375229,5.774527072906494,6.1389055252075195,0.7808603048324585,0.0027052604127675295,0.6007074117660522
1.4006749391555786,6.517821311950684,6.86838960647583,0.4869817793369293,0.2531251013278961,0.7801272869110107
0.9952887296676636,6.056257247924805,7.984116554260254,0.30661943554878235,0.2693043053150177,0.9110094904899597
0.38784149289131165,5.245964050292969,8.315369606018066,0.275954008102417,0.07124433666467667,1.0580884218215942
2.51700496673584,4.68519401550293,7.1158447265625,0.034749504178762436,-0.28682741522789,0.18772761523723602
1.916836142539978,5.048030376434326,7.723110198974609,-0.27005478739738464,-0.3914249837398529,-0.17296212911605835
1.183396339416504,5.2700114250183105,7.642244815826416,-0.36826446652412415,-0.45153412222862244,-0.26595327258110046
1.4460690021514893,5.655391693115234,7.601274013519287,-0.257505863904953,-0.323147714138031,-0.22247712314128876
1.5875184535980225,5.840118408203125,7.88197135925293,-0.1057145893573761,-0.15313519537448883,-0.1345299780368805
1.6870310306549072,5.541820049285889,8.390461921691895,0.07091272622346878,-0.06993534415960312,-0.05811946466565132
1.6404495239257812,5.532377243041992,8.587723731994629,0.2594431936740875,-0.15763813257217407,-0.04742059484124184
2.002567768096924,5.4302897453308105,8.073105812072754,0.33367204666137695,-0.22998203337192535,-0.025446901097893715
2.5076770782470703,5.326159954071045,7.684573173522949,0.3880041539669037,-0.1828930526971817,-0.18503980338573456
2.3107876777648926,5.5185770988464355,7.6221513748168945,0.4834038317203522,-0.03136356547474861,-0.38240164518356323
1.507542610168457,5.6246018409729,7.4262003898620605,0.5509655475616455,0.10471975803375244,-0.36917203664779663
1.3608258962631226,5.73044490814209,7.7635722160339355,0.4525464177131653,-0.1128878965973854,-0.3128851652145386
1.4292042255401611,5.7140398025512695,7.550564765930176,0.3848101794719696,-0.2505245506763458,-0.3159045875072479
1.7755590677261353,5.860373497009277,7.287203788757324,0.31991884112358093,-0.39819687604904175,-0.34379494190216064
1.5963290929794312,5.901065349578857,6.740596771240234,0.4551120400428772,-0.06976080685853958,-0.4138524830341339
1.277335286140442,6.068793296813965,6.460906028747559,0.5079955458641052,0.2306976169347763,-0.39212313294410706
0.9789794683456421,6.286091327667236,6.402822971343994,0.42153191566467285,0.24029693007469177,-0.33976325392723083
0.8788060545921326,6.392393589019775,6.416690349578857,0.24504423141479492,0.18275342881679535,-0.2776469886302948
0.836007297039032,6.489511966705322,6.381734848022461,0.07222172617912292,0.09615018963813782,-0.20638518035411835
0.6860153675079346,6.480576992034912,6.353540897369385,-0.0527089424431324,0.08887216448783875,-0.12575097382068634
0.7346751093864441,6.564709186553955,6.410599231719971,-0.15805701911449432,0.1048244759440422,-0.023806290701031685
0.5827678442001343,6.553025722503662,7.154305458068848,-0.19608774781227112,0.12897983193397522,0.08740609139204025
1.42521071434021,5.85207986831665,7.599023342132568,-0.04345869645476341,-0.1529432088136673,0.022479841485619545
1.5628294944763184,6.052666187286377,7.218000888824463,-0.011187560856342316,-0.2502976655960083,-0.030927233397960663
1.2857054471969604,6.186961650848389,7.010557651519775,-0.005829399451613426,-0.17634806036949158,-0.020315632224082947
1.424559473991394,6.280134677886963,7.009350776672363,0.011972958222031593,-0.04195771366357803,0.019826939329504967
1.352331280708313,6.1356120109558105,7.102073669433594,0.029688050970435143,0.0006632251315750182,0.04419173672795296
1.3981850147247314,6.0733232498168945,7.31843376159668,0.06691592186689377,-0.031031953170895576,0.0449247732758522
1.3000609874725342,5.848392963409424,7.611003875732422,0.13011430203914642,-0.15503759682178497,0.032882001250982285
1.611489176750183,6.0877556800842285,6.595422267913818,0.1287703961133957,-0.14851006865501404,0.0003490658418741077
1.6806528568267822,6.240879058837891,6.941374778747559,0.043999750167131424,-0.009442231617867947,-0.02494075521826744
1.5632891654968262,6.364630699157715,7.245332717895508,0.07874925434589386,-0.08459610491991043,-0.007679448463022709
