accX,accY,accZ,gyroX,gyroY,gyroZ
3.3194937705993652,8.896910667419434,2.7418878078460693,-0.12775810062885284,0.30342549085617065,-0.044715333729982376
-0.054702721536159515,7.993521213531494,5.556540012359619,-0.6079156398773193,-0.5908812284469604,0.2725506126880646
0.04278917238116264,7.887017726898193,5.614556312561035,-0.5791700482368469,-0.5014505386352539,0.3162012994289398
0.1292581707239151,7.8537187576293945,5.671998023986816,-0.5504244565963745,-0.43011894822120667,0.3513347804546356
0.4053766429424286,7.719183921813965,5.767277240753174,-0.49612727761268616,-0.23741713166236877,0.39817941188812256
0.6329407095909119,7.565035820007324,6.064321517944336,-0.4003087282180786,-0.02555162087082863,0.43224823474884033
0.7616721987724304,7.481784820556641,6.250896453857422,-0.3374943137168884,0.041521381586790085,0.43650683760643005
1.0668562650680542,7.313347816467285,6.383047103881836,-0.22144737839698792,0.05855579674243927,0.435442179441452
1.370450735092163,7.208740234375,6.327712535858154,-0.1756673902273178,0.045779984444379807,0.3758217394351959
1.3897287845611572,7.035993576049805,6.326084613800049,-0.1820552945137024,-0.018099064007401466,0.3023608326911926
1.3650109767913818,6.9654412269592285,6.409086227416992,-0.203348308801651,-0.08517206460237503,0.253386914730072
1.3509809970855713,6.924892902374268,6.543410778045654,-0.18631389737129211,-0.05323254317045212,0.21931807696819305
1.4540274143218994,6.999486923217773,6.711177349090576,-0.12137019634246826,-0.010646508075296879,0.18631389737129211
1.4537975788116455,6.924347400665283,6.601762294769287,-0.02342231757938862,0.06600835174322128,0.15650367736816406
1.4452455043792725,6.931931972503662,6.514450550079346,0.0010646508308127522,0.09155996888875961,0.1362753063440323
1.3853905200958252,6.924539089202881,6.482454299926758,0.0021293016616255045,0.07878416031599045,0.08517206460237503
1.353413462638855,6.907577991485596,6.465350151062012,-0.008517206646502018,0.040456730872392654,0.03619812801480293
1.2849488258361816,6.940685749053955,6.506176471710205,0.006387905217707157,0.043650683015584946,-0.006387905217707157
1.161484718322754,7.036730766296387,6.639763355255127,0.06174974888563156,0.10646508634090424,-0.02342231757938862
1.1291534900665283,7.082871913909912,6.626183032989502,0.10433578491210938,0.12456414848566055,-0.024486970156431198
1.0996090173721313,7.073630332946777,6.5879716873168945,0.13733996450901031,0.12775810062885284,-0.024486970156431198
1.0814512968063354,7.123726844787598,6.497298240661621,0.1511804163455963,0.08730136603116989,-0.05110324174165726
0.9733004570007324,7.177088737487793,6.344193935394287,0.12562879920005798,0.0010646508308127522,-0.09368927031755447
0.6348944306373596,7.430817127227783,6.033761501312256,0.19696040451526642,-0.40776127576828003,-0.12562879920005798
0.6951038241386414,7.763792991638184,4.237372875213623,-0.06068509817123413,-0.33855897188186646,-0.02874557301402092
1.2067351341247559,7.319984436035156,5.7243733406066895,-0.3087487518787384,0.2725506126880646,0.070266954600811
0.6305752396583557,7.211546421051025,7.036999702453613,-0.25019294023513794,0.014905111864209175,-0.06174974888563156
0.8236628174781799,7.23285436630249,6.929662704467773,-0.12030554562807083,-0.21931807696819305,0.024486970156431198
1.0187040567398071,7.252486705780029,6.715410232543945,-0.11178833991289139,-0.19696040451526642,-0.017034413293004036
0.840642511844635,7.162742614746094,6.478508949279785,-0.1437278687953949,-0.2278352826833725,-0.05749114602804184
0.8595566749572754,7.318155288696289,6.538191318511963,-0.1788613349199295,-0.27148595452308655,-0.048973940312862396
0.989140510559082,7.283573150634766,6.626795768737793,-0.13201670348644257,-0.22570598125457764,-0.03300417587161064
1.0879539251327515,7.311585426330566,6.566366195678711,-0.03087487444281578,-0.11498229205608368,-0.02342231757938862
1.146449089050293,7.362936496734619,6.476756572723389,0.045779984444379807,-0.013840461149811745,-0.0010646508308127522
1.1595118045806885,7.344779014587402,6.26080846786499,0.044715333729982376,0.008517206646502018,0.02555162087082863
1.3541029691696167,7.137383460998535,6.42176628112793,-0.06281439960002899,-0.05323254317045212,0.05323254317045212
1.365518569946289,7.138657093048096,6.6316704750061035,-0.018099064007401466,-0.02874557301402092,0.045779984444379807
1.335648536682129,7.167052268981934,6.593755722045898,0.02555162087082863,-0.03193952515721321,0.040456730872392654
1.4051953554153442,7.060472011566162,6.534839153289795,-0.012775810435414314,-0.13095206022262573,0.009581857360899448
1.0580648183822632,7.06749153137207,5.719738483428955,0.2065422683954239,-0.022357666864991188,-0.05110324174165726
1.3849211931228638,7.3154449462890625,5.54219388961792,0.2171887755393982,0.5110324025154114,0.040456730872392654
1.1902151107788086,7.116793632507324,6.100655555725098,-0.04684463515877724,0.16076228022575378,0.0021293016616255045
1.0223528146743774,7.059179306030273,6.309171199798584,-0.22144737839698792,-0.19163715839385986,-0.03406882658600807
1.2335118055343628,7.031320095062256,6.476478576660156,-0.3960501253604889,-0.4982565939426422,-0.045779984444379807
1.2844030857086182,7.0481276512146,6.762279033660889,-0.3758217394351959,-0.4237310290336609,-0.09049531817436218
1.2394782304763794,7.028447151184082,6.807443141937256,-0.253386914730072,-0.40456733107566833,-0.09901253134012222
1.2419681549072266,7.066859722137451,6.694034576416016,-0.15969762206077576,-0.25125759840011597,-0.08304276317358017
1.2278902530670166,7.119206428527832,6.70124626159668,-0.0596204474568367,-0.10646508634090424,-0.04684463515877724
1.2949566841125488,7.138484954833984,6.556214809417725,-0.009581857360899448,-0.040456730872392654,-0.0021293016616255045
1.3420265913009644,7.054678440093994,6.562276840209961,-0.02661627158522606,-0.0596204474568367,-0.0031939526088535786
1.4268771409988403,7.070556640625,6.544799327850342,-0.02874557301402092,-0.06813765317201614,-0.0074525559321045876
1.4511735439300537,7.074032783508301,6.573357582092285,-0.02661627158522606,-0.06174974888563156,-0.024486970156431198
1.4264174699783325,7.007291793823242,6.522542953491211,-0.024486970156431198,-0.07452555745840073,-0.024486970156431198
1.468000054359436,6.9804768562316895,6.578701019287109,-0.0351334773004055,-0.070266954600811,-0.038327429443597794
1.410520076751709,6.984346389770508,6.630368232727051,-0.03087487444281578,-0.07771950960159302,-0.041521381586790085
1.374827265739441,7.014455795288086,6.67982292175293,-0.045779984444379807,-0.12775810062885284,-0.0351334773004055
1.4312633275985718,6.9434051513671875,6.750078201293945,-0.043650683015584946,-0.1469218134880066,-0.03726277872920036
1.4274901151657104,6.9315972328186035,6.737484931945801,-0.0351334773004055,-0.15330971777439117,-0.041521381586790085
1.3325073719024658,7.046202659606934,6.413060665130615,-0.010646508075296879,-0.09155996888875961,-0.05110324174165726
1.200203776359558,6.991480827331543,5.9823150634765625,0.29597294330596924,0.5461658835411072,0.015969762578606606
1.3380905389785767,7.087766170501709,6.198942184448242,0.23422318696975708,0.3513347804546356,0.019163714721798897
1.4996417760849,6.881175518035889,6.341139316558838,-0.2831971347332001,-0.3704984784126282,-0.010646508075296879
1.4763126373291016,6.971436500549316,6.944401264190674,-0.21186551451683044,-0.19057250022888184,-0.08836601674556732
1.296057939529419,7.026129722595215,7.020565509796143,-0.008517206646502018,0.006387905217707157,-0.06068509817123413
1.3456850051879883,7.088263988494873,6.870037078857422,0.13733996450901031,0.16076228022575378,-0.009581857360899448
1.362492322921753,7.034020900726318,6.6615214347839355,0.11817624419927597,0.08730136603116989,-0.014905111864209175
1.285217046737671,7.048491477966309,6.590461254119873,-0.010646508075296879,-0.08197811245918274,-0.02661627158522606
1.2229104042053223,7.0776238441467285,6.810804843902588,-0.09901253134012222,-0.20121900737285614,-0.024486970156431198
0.9420417547225952,7.12880277633667,6.018247604370117,0.09262461960315704,-0.010646508075296879,-0.019163714721798897
1.1341907978057861,7.20680570602417,5.996651649475098,0.40456733107566833,0.6302732825279236,0.09794788062572479
1.2531250715255737,7.0466718673706055,6.090734481811523,0.10327113419771194,0.20973621308803558,0.10433578491210938
1.4769926071166992,6.874605655670166,7.118535995483398,-0.19802506268024445,-0.31087803840637207,-0.04684463515877724
1.3820481300354004,6.998232364654541,6.994047164916992,0.06281439960002899,-0.07665485888719559,-0.03726277872920036
1.3518908023834229,7.096193313598633,6.640500545501709,0.1820552945137024,0.1298874020576477,0.018099064007401466
1.4324699640274048,7.111583709716797,6.393399238586426,0.10752973705530167,0.070266954600811,0.048973940312862396
1.5222141742706299,7.12084436416626,6.4500274658203125,-0.05003859102725983,-0.12456414848566055,0.039392080157995224
1.4921526908874512,7.0947089195251465,6.700096607208252,-0.11072368919849396,-0.2491282969713211,0.0074525559321045876
1.5051579475402832,7.065365791320801,6.794763565063477,-0.05110324174165726,-0.2278352826833725,0.01171115878969431
1.4479844570159912,7.192526817321777,5.751466274261475,0.31726595759391785,0.5568124055862427,0.05749114602804184
1.4788025617599487,6.706915378570557,5.989526271820068,0.5195496082305908,0.8676904439926147,0.1054004356265068
1.2130463123321533,7.1660847663879395,5.96345853805542,0.3044901490211487,0.3055547773838043,0.05216789245605469
1.4532804489135742,6.801026821136475,5.871655464172363,-0.28639107942581177,-0.44715335965156555,0.042586032301187515
1.7514926195144653,6.760421276092529,6.48059606552124,-0.5131617188453674,-0.5855579376220703,-0.06813765317201614
1.618260145187378,6.733424186706543,6.840205669403076,-0.39817941188812256,-0.4950626492500305,-0.10114183276891708
1.5162670612335205,6.975228786468506,6.93739128112793,-0.1192408949136734,-0.15969762206077576,-0.03193952515721321
1.614601731300354,6.932315349578857,6.9111409187316895,0.0351334773004055,0.06813765317201614,0.02555162087082863
1.7122756242752075,6.893050193786621,6.752568244934082,0.07239625602960587,0.08304276317358017,0.03726277872920036
1.5241966247558594,7.055664539337158,5.92523717880249,0.28852036595344543,0.7175746560096741,0.045779984444379807
1.2753242254257202,6.950702667236328,6.232614517211914,0.3790156841278076,0.7218332886695862,0.05642649531364441
1.2795859575271606,7.2700700759887695,6.3768792152404785,0.11072368919849396,0.1298874020576477,0.07984881103038788
1.7745919227600098,6.717469215393066,6.463855743408203,-0.3130073547363281,-0.35559338331222534,0.039392080157995224
1.7047194242477417,6.78262996673584,6.965451240539551,-0.3438822329044342,-0.4003087282180786,-0.0734609067440033
1.5759785175323486,6.835704803466797,7.170212745666504,-0.17460273206233978,-0.2352878302335739,-0.06174974888563156
1.4435408115386963,6.825198650360107,7.195562362670898,-0.070266954600811,-0.15543901920318604,-0.05536184459924698
1.4617079496383667,6.851659297943115,7.036625862121582,0.10007718205451965,0.041521381586790085,-0.015969762578606606
1.520959734916687,6.873561382293701,6.842867851257324,0.15863297879695892,0.09368927031755447,-0.0074525559321045876
1.2641959190368652,7.17042350769043,5.577541828155518,0.38008034229278564,0.6324025988578796,0.012775810435414314
1.2088228464126587,7.198694229125977,5.777745246887207,0.42905429005622864,0.7654839754104614,0.10114183276891708
1.0613209009170532,7.102083683013916,6.023782730102539,-0.08517206460237503,0.017034413293004036,0.10114183276891708
1.5946627855300903,6.783721446990967,6.487903118133545,-0.5152910351753235,-0.6217560768127441,0.01171115878969431
1.7092781066894531,6.821243762969971,6.851132869720459,-0.3534640669822693,-0.45779985189437866,-0.10007718205451965
1.3440473079681396,6.920698642730713,7.272732257843018,-0.08943066745996475,-0.21293017268180847,-0.06600835174322128
1.366169810295105,6.958775997161865,7.071293830871582,0.09901253134012222,0.06707300245761871,0.021293016150593758
1.4310814142227173,7.074818134307861,6.353914737701416,0.15330971777439117,0.1682148277759552,0.0734609067440033
1.3611611127853394,6.754665374755859,6.10761833190918,0.504644513130188,1.028452754020691,0.1437278687953949
1.1727949380874634,7.357372283935547,6.307275295257568,0.2384817898273468,0.25764551758766174,0.14479251205921173
1.8287104368209839,6.808027267456055,6.3027167320251465,-0.34494686126708984,-0.39498546719551086,0.16182692348957062
2.0889697074890137,6.6009674072265625,6.602317810058594,-0.45034730434417725,-0.5408426523208618,0.06920230388641357
2.037494421005249,6.7260308265686035,7.144881725311279,-0.2949082851409912,-0.3396236300468445,-0.05536184459924698
1.6951713562011719,6.9017653465271,7.124578952789307,0.024486970156431198,0.01171115878969431,-0.03300417587161064
1.6894253492355347,6.879691123962402,6.583566188812256,0.3332357108592987,0.4524766206741333,0.08304276317358017
1.5355260372161865,6.728673934936523,6.225728988647461,0.2065422683954239,0.31726595759391785,0.05855579674243927
1.4960025548934937,6.826644420623779,6.295064926147461,0.014905111864209175,0.06920230388641357,0.008517206646502018
1.5059623718261719,6.928666591644287,6.502220630645752,-0.07771950960159302,-0.02874557301402092,-0.019163714721798897
1.3861470222473145,6.980438709259033,6.600507736206055,-0.06600835174322128,0.010646508075296879,-0.03087487444281578
1.2698941230773926,7.047916889190674,6.618952751159668,-0.020228365436196327,0.09794788062572479,-0.013840461149811745
1.2527612447738647,7.065136432647705,6.6275811195373535,-0.010646508075296879,0.12775810062885284,-0.009581857360899448
1.193758487701416,6.997389793395996,6.631153106689453,-0.0010646508308127522,0.08730136603116989,-0.004258603323251009
1.207711935043335,6.961620330810547,6.730819225311279,-0.004258603323251009,0.0596204474568367,-0.012775810435414314
1.1857044696807861,6.976349830627441,6.663111209869385,0.02768092229962349,0.0351334773004055,-0.039392080157995224
1.1728427410125732,6.991710662841797,6.689160346984863,0.044715333729982376,0.06920230388641357,-0.02874557301402092
1.1532678604125977,7.129415512084961,6.655785083770752,0.038327429443597794,0.05216789245605469,-0.009581857360899448
1.2584402561187744,7.085649490356445,6.699867248535156,-0.008517206646502018,-0.022357666864991188,0.038327429443597794
0.7923371195793152,7.038636684417725,6.279387474060059,0.19376645982265472,-0.6494370102882385,-0.015969762578606606
1.7214118242263794,7.4943108558654785,4.628327369689941,-0.10433578491210938,-0.004258603323251009,0.09794788062572479
1.6730968952178955,6.693355083465576,6.440680027008057,-0.26190412044525146,0.558941662311554,0.1437278687953949
1.0324276685714722,6.821549892425537,7.79612398147583,-0.14585717022418976,0.126693457365036,0.018099064007401466
1.4286201000213623,6.88210391998291,7.4081292152404785,-0.0351334773004055,-0.1085943877696991,0.08623671531677246
1.3713891506195068,6.777477741241455,7.126992702484131,-0.0074525559321045876,-0.02661627158522606,-0.004258603323251009
1.3203446865081787,7.006171226501465,6.988617420196533,0.039392080157995224,-0.06068509817123413,0.0010646508308127522
1.3620996475219727,7.059016704559326,6.9142913818359375,0.04684463515877724,-0.07133160531520844,-0.0010646508308127522
1.391079068183899,7.070537090301514,6.645183563232422,0.05536184459924698,-0.045779984444379807,0.008517206646502018
1.4303152561187744,7.104793548583984,6.636334419250488,0.06068509817123413,-0.0021293016616255045,0.021293016150593758
1.563385009765625,7.046260356903076,6.530309677124023,0.06600835174322128,-0.008517206646502018,0.021293016150593758
1.6060880422592163,7.0501484870910645,6.481583118438721,0.0596204474568367,-0.021293016150593758,0.01171115878969431
1.605159044265747,7.001143455505371,6.43887996673584,0.03619812801480293,-0.044715333729982376,0.009581857360899448
1.602257251739502,6.924797534942627,6.524477481842041,-0.0031939526088535786,-0.05429719388484955,0.02768092229962349
1.7500944137573242,6.8106513023376465,6.558053493499756,0.004258603323251009,-0.024486970156431198,0.014905111864209175
1.7018847465515137,6.8738484382629395,6.750279426574707,0.048973940312862396,0.019163714721798897,-0.021293016150593758
1.575308084487915,6.896162509918213,6.702663421630859,0.06387905031442642,-0.013840461149811745,-0.03193952515721321
1.5186325311660767,6.829336166381836,6.573376655578613,0.022357666864991188,-0.09901253134012222,-0.04684463515877724
1.4935413599014282,6.823417663574219,6.67309045791626,-0.02768092229962349,-0.1543743759393692,-0.070266954600811
1.3123195171356201,6.9468913078308105,6.513434886932373,0.042586032301187515,-0.21931807696819305,-0.09368927031755447
0.9151979088783264,6.834334850311279,5.770275115966797,0.26829200983047485,-0.3012961745262146,-0.11498229205608368
1.7373093366622925,7.389464378356934,5.100741386413574,0.1469218134880066,0.601527750492096,0.024486970156431198
0.9353858828544617,7.0599260330200195,6.284549713134766,-0.20228366553783417,0.1437278687953949,-0.070266954600811
0.8982086777687073,7.067511081695557,6.972260475158691,-0.45779985189437866,-0.5333900451660156,-0.03193952515721321
1.2410967350006104,7.097256660461426,7.192699432373047,-0.4599291682243347,-0.5216789245605469,-0.020228365436196327
1.337525486946106,6.909512519836426,7.514642715454102,-0.2565808594226837,-0.3651752471923828,-0.07984881103038788
1.2626829147338867,7.035495758056641,7.268911361694336,-0.0021293016616255045,-0.20973621308803558,-0.06494370102882385
1.272843837738037,6.997418403625488,6.744082927703857,0.11604694277048111,0.014905111864209175,-0.0074525559321045876
1.2992565631866455,6.995963096618652,6.613561153411865,0.12137019634246826,0.08943066745996475,0.05216789245605469
1.4832080602645874,7.024319648742676,6.538995742797852,0.04684463515877724,-0.03087487444281578,0.07559020817279816
1.7569035291671753,6.9949188232421875,6.508206367492676,-0.10327113419771194,-0.19696040451526642,0.07239625602960587
1.9485259056091309,6.882429599761963,6.666539669036865,-0.08091346174478531,-0.13840460777282715,0.06920230388641357
1.9964672327041626,6.853795051574707,6.685367584228516,-0.0351334773004055,-0.07452555745840073,0.0596204474568367
2.027975082397461,6.84712028503418,6.710305690765381,0.05216789245605469,0.039392080157995224,0.038327429443597794
2.0042436122894287,6.8288092613220215,6.6048173904418945,0.0734609067440033,0.04684463515877724,0.0010646508308127522
1.9810103178024292,6.810891151428223,6.652040481567383,0.05855579674243927,0.019163714721798897,-0.017034413293004036
1.9281463623046875,6.78285026550293,6.661550521850586,0.009581857360899448,-0.07665485888719559,-0.0596204474568367
1.5129151344299316,7.223794937133789,5.430891990661621,0.3534640669822693,1.0210001468658447,-0.015969762578606606
1.3480887413024902,6.739553451538086,5.751839637756348,0.7016049027442932,1.5394850969314575,0.05003859102725983
0.8275797963142395,7.353024482727051,6.171600818634033,0.7282211780548096,1.0976550579071045,0.08943066745996475
2.044485569000244,6.458837985992432,6.905174732208252,-0.5120970606803894,-0.6025923490524292,-0.012775810435414314
1.982006311416626,6.547988414764404,7.615668296813965,-0.4343775510787964,-0.5546830892562866,-0.23422318696975708
1.563202977180481,6.8597612380981445,7.6182637214660645,-0.24593433737754822,-0.3992440700531006,-0.252322256565094
1.4626274108886719,7.053719997406006,6.970037937164307,0.3193952441215515,0.1927018016576767,-0.1511804163455963
1.4732002019882202,7.043214797973633,6.359114646911621,0.42905429005622864,0.46099382638931274,-0.07878416031599045
1.1365180015563965,7.1858038902282715,6.131320953369141,0.2246413230895996,0.2661627233028412,-0.1054004356265068
1.1546565294265747,7.1066131591796875,6.133925914764404,0.041521381586790085,0.010646508075296879,-0.10752973705530167
0.9535243511199951,7.159419536590576,6.440134048461914,-0.044715333729982376,-0.12030554562807083,-0.15011577308177948
0.8178209662437439,7.2092671394348145,6.551790714263916,0.05323254317045212,-0.03193952515721321,-0.11498229205608368
0.854595959186554,7.176724910736084,6.3591437339782715,0.13095206022262573,0.07771950960159302,-0.08836601674556732
0.8260857462882996,7.133945465087891,6.19740104675293,0.11604694277048111,0.11285299062728882,-0.06920230388641357
0.8310273885726929,7.161564826965332,6.1158447265625,0.07239625602960587,0.10007718205451965,-0.07559020817279816
0.7603409886360168,7.1457343101501465,6.252084255218506,0.02555162087082863,0.042586032301187515,-0.06920230388641357
0.8817365765571594,7.267943859100342,6.360675811767578,0.005323254037648439,0.01171115878969431,-0.06600835174322128
0.9057744145393372,7.302640438079834,6.392891883850098,0.009581857360899448,0.004258603323251009,-0.06494370102882385
0.9432579874992371,7.201998233795166,6.405035495758057,0.03087487444281578,0.020228365436196327,-0.06600835174322128
0.9668265581130981,7.207313537597656,6.381649017333984,0.047909289598464966,0.06068509817123413,-0.05749114602804184
0.9356540441513062,7.28405237197876,6.5057830810546875,0.09368927031755447,0.11817624419927597,-0.05642649531364441
0.7590768337249756,7.350582599639893,6.007684230804443,0.12456414848566055,0.0734609067440033,-0.05642649531364441
0.08346186578273773,7.586698055267334,4.36646842956543,0.03300417587161064,-0.18311993777751923,-0.039392080157995224
0.5949399471282959,7.483134746551514,4.318057537078857,-0.1895078420639038,-0.038327429443597794,0.038327429443597794
0.7784028053283691,7.532876968383789,7.015834331512451,-0.24486969411373138,0.24380503594875336,0.02768092229962349
0.4891832768917084,7.289472579956055,6.846775531768799,-0.047909289598464966,-0.13840460777282715,0.07878416031599045
0.7738634347915649,7.354987621307373,6.484848499298096,-0.08517206460237503,0.08623671531677246,0.08623671531677246
0.7918103933334351,7.319811820983887,6.576076984405518,-0.05749114602804184,0.03087487444281578,0.10965903848409653
0.9362860918045044,7.353809356689453,6.585835933685303,-0.06920230388641357,0.03726277872920036,0.12137019634246826
1.025005578994751,7.265827655792236,6.656033992767334,-0.06600835174322128,-0.0074525559321045876,0.1362753063440323
1.101304054260254,7.178094387054443,6.643344879150391,-0.05323254317045212,-0.010646508075296879,0.14159856736660004
1.209943413734436,7.099478721618652,6.649857044219971,-0.02981022372841835,-0.02874557301402092,0.13521066308021545
1.2597618103027344,7.056056976318359,6.708830833435059,-0.02874557301402092,-0.05110324174165726,0.10752973705530167
1.355644941329956,6.945176601409912,6.619565486907959,-0.0021293016616255045,-0.11178833991289139,0.08197811245918274
1.4054921865463257,6.976895332336426,6.485116481781006,-0.009581857360899448,-0.09901253134012222,0.045779984444379807
1.3162649869918823,6.997293949127197,6.439483165740967,-0.021293016150593758,-0.09155996888875961,0.02768092229962349
1.3008368015289307,6.981808185577393,6.379838943481445,-0.013840461149811745,-0.08836601674556732,0.03300417587161064
1.3945937156677246,6.986356735229492,6.441561698913574,-0.009581857360899448,-0.05536184459924698,0.03406882658600807
1.5555607080459595,6.945732593536377,6.601666450500488,0.047909289598464966,-0.010646508075296879,0.013840461149811745
1.6074573993682861,6.925869941711426,6.524142265319824,0.14159856736660004,0.06707300245761871,-0.03406882658600807
1.4125598669052124,7.049248218536377,6.313480854034424,0.1756673902273178,0.12030554562807083,-0.0841074138879776
1.2593214511871338,7.069234848022461,6.365148067474365,0.1511804163455963,0.13414600491523743,-0.06813765317201614
1.167029619216919,7.093875885009766,6.4883246421813965,0.1330813616514206,0.12882275879383087,-0.06600835174322128
1.0754179954528809,7.193465232849121,6.508618354797363,0.1054004356265068,0.06068509817123413,-0.07239625602960587
0.5774431228637695,7.395267486572266,5.30942964553833,0.06600835174322128,-0.10327113419771194,-0.09262461960315704
0.19153612852096558,7.443955898284912,4.477731704711914,-0.03406882658600807,-0.16395622491836548,-0.06920230388641357
0.9138859510421753,7.4701104164123535,5.651752471923828,-0.25019294023513794,0.12137019634246826,0.03619812801480293
1.0259250402450562,7.169350624084473,7.131915092468262,-0.11072368919849396,0.10220648348331451,-0.021293016150593758
0.7969052791595459,7.05757999420166,6.751572132110596,-0.015969762578606606,-0.022357666864991188,-0.02555162087082863
0.7413406372070312,7.1483683586120605,6.534581184387207,-0.06281439960002899,0.019163714721798897,-0.02981022372841835
0.7353550791740417,7.273191928863525,6.606943130493164,-0.09794788062572479,-0.05855579674243927,-0.008517206646502018
0.7730876803398132,7.352143287658691,6.610927104949951,-0.11604694277048111,-0.08517206460237503,0.0010646508308127522
0.7523635029792786,7.343504905700684,6.6251678466796875,-0.11178833991289139,-0.10220648348331451,0.0074525559321045876
0.7813907861709595,7.348264694213867,6.535193920135498,-0.09688322991132736,-0.13521066308021545,0.015969762578606606
0.8061659932136536,7.3535990715026855,6.397029399871826,-0.13840460777282715,-0.1575683206319809,0.02874557301402092
0.7437061071395874,7.3598713874816895,6.361317157745361,-0.19163715839385986,-0.19696040451526642,0.05429719388484955
0.8470302820205688,7.261307239532471,6.368203163146973,-0.2597748041152954,-0.2352878302335739,0.1543743759393692
1.0172580480575562,7.135937690734863,6.435039520263672,-0.2661627233028412,-0.20547761023044586,0.1895078420639038
1.1831377744674683,7.037794589996338,6.589188098907471,-0.25125759840011597,-0.15969762206077576,0.20121900737285614
1.3646565675735474,6.947274208068848,6.63751220703125,-0.1927018016576767,-0.08517206460237503,0.21825341880321503
1.4977456331253052,6.856189250946045,6.785780906677246,-0.1192408949136734,-0.0010646508308127522,0.20867156982421875
1.6762572526931763,6.797693729400635,6.814041614532471,-0.045779984444379807,0.01171115878969431,0.19483110308647156
1.8005354404449463,6.788605690002441,6.727620601654053,-0.044715333729982376,-0.02342231757938862,0.1511804163455963
1.9092321395874023,6.749417304992676,6.636851787567139,-0.05855579674243927,-0.06387905031442642,0.11178833991289139
1.950575351715088,6.749666690826416,6.77278470993042,-0.048973940312862396,-0.02874557301402092,0.07771950960159302
1.8705514669418335,6.689811706542969,6.7467360496521,-0.0031939526088535786,-0.0074525559321045876,0.06494370102882385
1.799175500869751,6.773149013519287,6.727639675140381,-0.014905111864209175,0.010646508075296879,0.05216789245605469
1.827637791633606,6.7817487716674805,6.707442283630371,-0.05323254317045212,-0.03300417587161064,0.03300417587161064
1.7335072755813599,6.633681774139404,6.765324592590332,-0.07984881103038788,-0.08304276317358017,0.013840461149811745
1.7951724529266357,6.679669380187988,6.82860803604126,-0.0734609067440033,-0.07771950960159302,-0.012775810435414314
1.6779619455337524,6.602633953094482,6.881223201751709,-0.039392080157995224,-0.05642649531364441,-0.05110324174165726
1.648589849472046,6.653936386108398,6.791584014892578,0.0074525559321045876,-0.045779984444379807,-0.08197811245918274
1.5913970470428467,6.679200172424316,6.767900466918945,0.012775810435414314,-0.03193952515721321,-0.0947539210319519
1.4423916339874268,6.731000900268555,6.7166643142700195,0.014905111864209175,-0.03300417587161064,-0.09688322991132736
1.407081961631775,6.9196929931640625,6.782237529754639,-0.04684463515877724,-0.043650683015584946,-0.070266954600811
1.4148104190826416,6.921062469482422,6.841986656188965,-0.02555162087082863,-0.06281439960002899,-0.06707300245761871
1.3793761730194092,6.968477249145508,6.819471836090088,-0.01171115878969431,-0.07133160531520844,-0.07133160531520844
1.2254482507705688,7.168239593505859,6.811465263366699,0.05429719388484955,-0.042586032301187515,-0.06174974888563156
1.0112533569335938,7.2100043296813965,5.7231764793396,0.4386361539363861,0.6153681874275208,0.022357666864991188
1.162097692489624,6.997533321380615,5.8241353034973145,0.06813765317201614,0.4939979910850525,0.12243484705686569
1.346250057220459,6.796219348907471,6.4586944580078125,-0.36943385004997253,-0.2310292273759842,0.048973940312862396
1.6936964988708496,6.6157917976379395,7.088091850280762,-0.405631959438324,-0.3130073547363281,-0.005323254037648439
1.6768126487731934,6.619058132171631,7.3306050300598145,-0.2874557375907898,-0.16395622491836548,-0.045779984444379807
1.4243967533111572,6.811340808868408,7.327052116394043,-0.0010646508308127522,0.07133160531520844,-0.045779984444379807
1.5086727142333984,6.922633171081543,6.967021465301514,0.1650208830833435,0.26190412044525146,0.009581857360899448
1.5088928937911987,6.869893550872803,6.817795753479004,0.1756673902273178,0.3162012994289398,0.020228365436196327
1.4947192668914795,6.860958576202393,6.742569923400879,0.12243484705686569,0.26403340697288513,0.005323254037648439
1.3883687257766724,6.8678154945373535,6.772794246673584,0.05003859102725983,0.13521066308021545,-0.0031939526088535786
1.3651068210601807,6.795884132385254,6.75905179977417,-0.021293016150593758,-0.02555162087082863,-0.02555162087082863
1.3283414840698242,6.782744407653809,6.842197418212891,0.015969762578606606,0.005323254037648439,-0.03193952515721321
1.275343418121338,6.818562030792236,6.787083148956299,0.039392080157995224,0.03406882658600807,-0.02555162087082863
1.278781533241272,6.808506488800049,6.629027366638184,0.040456730872392654,0.07665485888719559,-0.010646508075296879
1.2655750513076782,6.825811386108398,6.715506076812744,-0.008517206646502018,0.02661627158522606,-0.012775810435414314
1.2686586380004883,6.847570419311523,6.769308567047119,-0.02555162087082863,-0.070266954600811,-0.03619812801480293
1.222230315208435,6.8509697914123535,6.763504981994629,-0.02342231757938862,-0.09581857919692993,-0.047909289598464966
0.8471930623054504,7.152773380279541,5.8357133865356445,0.16927948594093323,-0.3641105890274048,-0.07665485888719559
1.0966688394546509,7.081061840057373,5.489406585693359,-0.126693457365036,0.26190412044525146,0.11498229205608368
1.350521206855774,6.882870197296143,6.656991481781006,-0.3130073547363281,0.16289158165454865,0.06813765317201614
1.0908557176589966,6.819031238555908,7.196874618530273,-0.3513347804546356,-0.05323254317045212,-0.02661627158522606
1.041085124015808,6.821511745452881,7.504347801208496,-0.2693566679954529,-0.3162012994289398,0.039392080157995224
1.2936829328536987,6.8142523765563965,7.424984455108643,-0.20760691165924072,-0.29597294330596924,0.01171115878969431
1.1941702365875244,6.859301567077637,7.119876861572266,-0.11178833991289139,-0.2672273516654968,-0.02981022372841835
1.1682554483413696,6.971924781799316,6.851113319396973,-0.09581857919692993,-0.1820552945137024,0.022357666864991188
1.1696345806121826,6.912806987762451,6.839094638824463,-0.0947539210319519,-0.15224507451057434,0.05429719388484955
1.3907822370529175,6.865344524383545,6.979366302490234,-0.045779984444379807,-0.08836601674556732,0.10965903848409653
1.725443720817566,6.765774250030518,6.899236679077148,0.02555162087082863,-0.04684463515877724,0.11711159348487854
1.9344096183776855,6.697376728057861,6.49281644821167,0.03193952515721321,-0.04684463515877724,0.08304276317358017
1.8929228782653809,6.7221903800964355,6.458559989929199,-0.03193952515721321,-0.019163714721798897,0.08517206460237503
1.8771404027938843,6.733520030975342,6.702989101409912,-0.09581857919692993,-0.05110324174165726,0.10752973705530167
1.9878002405166626,6.67502498626709,6.787791728973389,-0.1085943877696991,-0.07452555745840073,0.10646508634090424
2.0468125343322754,6.586266994476318,6.880456924438477,-0.08943066745996475,-0.07878416031599045,0.07239625602960587
2.0072507858276367,6.479217052459717,6.981128215789795,-0.06494370102882385,-0.039392080157995224,0.040456730872392654
1.9539846181869507,6.446560382843018,7.048137187957764,-0.047909289598464966,-0.04684463515877724,0.013840461149811745
1.380247712135315,6.807615756988525,5.947810173034668,0.5791700482368469,0.8080700039863586,-0.01171115878969431
1.502419114112854,6.693824291229248,6.446560382843018,-0.36943385004997253,-0.11178833991289139,0.11498229205608368
1.8956905603408813,6.285641670227051,7.348293304443359,-0.5323254466056824,-0.48973938822746277,-0.05855579674243927
1.8918503522872925,6.529016494750977,7.750471115112305,-0.2672273516654968,-0.2938436269760132,-0.13840460777282715
1.589922308921814,6.621394634246826,7.431985378265381,0.03726277872920036,-0.038327429443597794,-0.15650367736816406
1.3628370761871338,6.81374454498291,6.993568420410156,0.1511804163455963,0.15224507451057434,-0.09155996888875961
1.3197414875030518,6.794371128082275,6.794323444366455,0.05642649531364441,0.11285299062728882,-0.02342231757938862
1.4530601501464844,6.757644176483154,6.923007011413574,-0.11391764134168625,-0.11498229205608368,-0.02768092229962349
1.5780757665634155,6.721683025360107,7.203099727630615,-0.15330971777439117,-0.2108008712530136,-0.05003859102725983
0.9167206883430481,6.749302387237549,6.569411754608154,0.6185621619224548,0.6643421053886414,-0.06281439960002899
0.8111554980278015,7.209382057189941,5.670312404632568,0.6313379406929016,1.1732451915740967,0.14266321063041687
0.7418960332870483,6.83225679397583,5.899351119995117,-0.1362753063440323,0.16395622491836548,0.22996458411216736
1.5639883279800415,6.403675079345703,6.935379981994629,-0.7548374533653259,-0.6728593111038208,0.1437278687953949
1.9061100482940674,6.250408172607422,7.892533779144287,-0.6920230388641357,-0.734609067440033,-0.020228365436196327
1.9184067249298096,6.294241428375244,8.081158638000488,-0.28639107942581177,-0.4269249737262726,-0.10965903848409653
1.6323188543319702,6.388927459716797,7.8564581871032715,-0.047909289598464966,-0.203348308801651,-0.1054004356265068
1.4598597288131714,6.625435829162598,7.315578937530518,0.22889992594718933,0.19376645982265472,-0.020228365436196327
1.4532899856567383,6.648947238922119,6.797962188720703,0.2629687488079071,0.37262779474258423,0.05429719388484955
0.7462248206138611,6.895463943481445,5.608580112457275,0.8091346621513367,1.475606083869934,0.17673203349113464
0.7899715900421143,7.027575492858887,6.130745887756348,0.5557477474212646,1.2701284885406494,0.2693566679954529
1.2591872215270996,6.743929862976074,6.5933918952941895,-0.2171887755393982,-0.04684463515877724,0.2203827202320099
1.8532557487487793,6.35203742980957,7.234147548675537,-0.6494370102882385,-0.6696653962135315,0.041521381586790085
1.6333531141281128,6.368825912475586,7.797541618347168,-0.35985198616981506,-0.4663170576095581,-0.11817624419927597
1.4378618001937866,6.5101213455200195,7.4172468185424805,0.0021293016616255045,0.0031939526088535786,-0.05749114602804184
1.4202021360397339,6.680292129516602,7.135563850402832,0.23209388554096222,0.4343775510787964,0.05323254317045212
1.4881303310394287,6.652528762817383,7.0394415855407715,0.27148595452308655,0.5142263770103455,0.1054004356265068
1.4655483961105347,6.4764018058776855,6.838874340057373,0.203348308801651,0.40882593393325806,0.07133160531520844
1.3723372220993042,6.557028770446777,6.80189847946167,0.040456730872392654,0.22251202166080475,0.02555162087082863
1.2410680055618286,6.541504859924316,7.002857685089111,-0.08730136603116989,-0.0010646508308127522,-0.015969762578606606
1.0895053148269653,6.6062541007995605,7.225710391998291,-0.11072368919849396,-0.14159856736660004,-0.05429719388484955
1.0067235231399536,6.607929706573486,7.391963958740234,-0.03619812801480293,-0.12030554562807083,-0.05323254317045212
0.9294673800468445,6.768580436706543,7.69353723526001,0.16076228022575378,-0.26083946228027344,-0.06281439960002899
1.310863733291626,7.201663017272949,4.951123237609863,0.2597748041152954,0.21612411737442017,0.02874557301402092
1.5795315504074097,7.118124485015869,5.4302215576171875,0.06707300245761871,0.736738383769989,0.10433578491210938
0.7928255200386047,6.447680950164795,7.148473262786865,-0.11604694277048111,0.3321710526943207,-0.07133160531520844
1.0039845705032349,6.787542343139648,7.473347187042236,-0.08197811245918274,-0.2352878302335739,-0.02661627158522606
1.2860119342803955,6.7549333572387695,7.395200729370117,-0.05855579674243927,-0.17247343063354492,-0.06920230388641357
1.1725267171859741,6.710066318511963,7.3020758628845215,0.10433578491210938,-0.09049531817436218,-0.10646508634090424
1.2099720239639282,6.938980579376221,7.180373668670654,0.18737854063510895,0.038327429443597794,-0.08943066745996475
1.0910569429397583,6.948787689208984,7.074703216552734,0.1895078420639038,0.039392080157995224,-0.06281439960002899
1.1370638608932495,6.963899612426758,6.878589153289795,0.1298874020576477,-0.015969762578606606,-0.005323254037648439
1.210537075996399,6.892408847808838,6.86305570602417,0.040456730872392654,-0.06920230388641357,0.02555162087082863
1.2313953638076782,6.850539207458496,6.931491851806641,0.006387905217707157,-0.11817624419927597,0.02981022372841835
1.2032012939453125,6.8286848068237305,7.071495056152344,0.038327429443597794,-0.28639107942581177,0.017034413293004036
1.4406007528305054,7.2383036613464355,4.46034049987793,0.09581857919692993,-0.47483426332473755,0.01171115878969431
1.3723084926605225,6.44539213180542,6.695921421051025,-0.22677062451839447,0.4695110321044922,-0.03087487444281578
0.5188809633255005,6.677016735076904,7.716071605682373,-0.15969762206077576,-0.19057250022888184,0.008517206646502018
1.2057774066925049,6.698507308959961,7.4183573722839355,-0.12775810062885284,-0.25764551758766174,-0.015969762578606606
1.1658804416656494,6.691084861755371,7.183093547821045,-0.05429719388484955,-0.21931807696819305,-0.041521381586790085
1.2698079347610474,6.809234142303467,7.012444496154785,-0.05110324174165726,-0.20867156982421875,-0.039392080157995224
1.4492294788360596,6.806236743927002,6.912184715270996,-0.044715333729982376,-0.19057250022888184,-0.012775810435414314
1.4916738271713257,6.887572288513184,7.030439376831055,-0.02768092229962349,-0.12349949777126312,-0.012775810435414314
1.4309663772583008,6.8710618019104,7.081042766571045,-0.009581857360899448,-0.11285299062728882,-0.005323254037648439
1.5387247800827026,6.860690593719482,7.007416725158691,0.03726277872920036,-0.14159856736660004,0.018099064007401466
1.679551601409912,6.796372413635254,6.915278434753418,0.02342231757938862,-0.12562879920005798,0.012775810435414314
1.6720529794692993,6.763169765472412,6.883598327636719,0.02768092229962349,-0.15011577308177948,0.0021293016616255045
1.69795823097229,6.686727523803711,6.761962890625,0.013840461149811745,-0.1575683206319809,-0.01171115878969431
1.6459561586380005,6.652787685394287,6.859808921813965,0.0021293016616255045,-0.17779669165611267,-0.013840461149811745
1.7712782621383667,6.582139015197754,6.895434856414795,0.020228365436196327,-0.13733996450901031,-0.022357666864991188
1.8463412523269653,6.5380859375,6.926751136779785,0.0596204474568367,-0.12243484705686569,-0.047909289598464966
1.4354866743087769,6.544521331787109,6.1565842628479,0.6270793676376343,0.8613025546073914,-0.040456730872392654
1.2242032289505005,7.106794834136963,6.147457599639893,0.4173431396484375,0.5685235261917114,0.024486970156431198
1.2173558473587036,6.939459323883057,6.172577857971191,0.06387905031442642,0.10646508634090424,0.0596204474568367
1.8235676288604736,6.388563632965088,6.5698137283325195,-0.3470761775970459,-0.45779985189437866,-0.042586032301187515
1.829256296157837,6.429925918579102,6.969750881195068,-0.3609166443347931,-0.4418300986289978,-0.1330813616514206
1.515002965927124,6.555066108703613,7.433249473571777,-0.14159856736660004,-0.21931807696819305,-0.1756673902273178
1.2793177366256714,6.7423882484436035,7.184884071350098,0.10114183276891708,-0.043650683015584946,-0.15543901920318604
1.168609857559204,6.8962202072143555,6.6847357749938965,0.05749114602804184,0.004258603323251009,-0.10327113419771194
1.1778992414474487,6.96295166015625,6.716980934143066,-0.041521381586790085,-0.15011577308177948,-0.10752973705530167
1.1084387302398682,7.028073787689209,6.842245578765869,-0.017034413293004036,-0.15543901920318604,-0.08836601674556732
1.1097986698150635,6.978676795959473,6.774901390075684,0.040456730872392654,-0.043650683015584946,-0.0596204474568367
1.078434705734253,6.938961505889893,6.77251672744751,0.0841074138879776,0.017034413293004036,-0.02342231757938862
1.1667519807815552,6.884718894958496,6.739179611206055,0.10114183276891708,0.006387905217707157,-0.014905111864209175
1.1946587562561035,6.927392482757568,6.5732903480529785,0.1054004356265068,0.0031939526088535786,-0.018099064007401466
1.2373521327972412,6.874404430389404,6.427100658416748,0.08836601674556732,0.03406882658600807,-0.010646508075296879
1.3020914793014526,6.900328636169434,6.597548484802246,0.06600835174322128,0.06813765317201614,-0.018099064007401466
1.4512214660644531,6.875304698944092,6.443419456481934,0.13733996450901031,0.14266321063041687,-0.042586032301187515
1.3592170476913452,6.9109015464782715,6.537319660186768,0.13840460777282715,0.19696040451526642,-0.043650683015584946
1.3371042013168335,6.942332744598389,6.598649978637695,0.12562879920005798,0.1895078420639038,-0.03193952515721321
1.3124821186065674,6.896948337554932,6.673262596130371,0.1085943877696991,0.12349949777126312,-0.040456730872392654
1.053458333015442,7.081177234649658,6.623750686645508,-0.0031939526088535786,-0.05855579674243927,-0.06281439960002899
1.0129101276397705,7.079433917999268,6.6975016593933105,0.03619812801480293,-0.004258603323251009,-0.045779984444379807
1.1128344535827637,7.118134498596191,6.37025260925293,-0.03087487444281578,-0.07665485888719559,-0.03087487444281578
1.1301110982894897,7.134673118591309,6.619173049926758,-0.018099064007401466,-0.05536184459924698,-0.039392080157995224
1.13833749294281,7.196050643920898,6.794275283813477,0.041521381586790085,-0.020228365436196327,-0.040456730872392654
0.5030696988105774,7.436725616455078,4.455964088439941,0.13946926593780518,0.2768092155456543,0.02874557301402092
1.3848732709884644,7.265645503997803,6.0811767578125,0.038327429443597794,0.483351469039917,0.13521066308021545
0.9254547357559204,7.045675754547119,6.953517913818359,-0.09901253134012222,-0.013840461149811745,0.07239625602960587
1.2282732725143433,6.763121604919434,6.758266448974609,-0.23635248839855194,-0.26403340697288513,0.05003859102725983
