accX,accY,accZ,gyroX,gyroY,gyroZ
0.6991643309593201,2.7406234741210938,9.621865272521973,-0.48687705397605896,-0.07033676654100418,0.2750813364982605
0.5785540342330933,2.5937917232513428,9.273606300354004,-0.22499039769172668,-0.06499606370925903,-0.021938787773251534
-0.1928768754005432,3.1254003047943115,8.999382019042969,-0.08126252889633179,-0.15229743719100952,-0.09433504939079285
-0.5034814476966858,3.576812744140625,9.04522705078125,-0.004834562074393034,-0.37775906920433044,-0.01909390278160572
0.2759556770324707,3.13161563873291,8.663542747497559,-0.038606684654951096,-0.3426953852176666,-0.0815243273973465
0.3306775391101837,3.414342164993286,8.760077476501465,-0.0988030880689621,-0.21622884273529053,-0.0555887371301651
0.7526412010192871,3.4615941047668457,8.299001693725586,-0.08285077661275864,0.36336010694503784,-0.01788962446153164
0.5707967877388,3.509794235229492,8.308454513549805,-0.3009994924068451,0.6889163851737976,-0.010821041651070118
-0.0851856917142868,3.46525239944458,9.41222858428955,0.4977155327796936,-0.6642897725105286,-0.136502206325531
0.21689550578594208,3.3526675701141357,9.123115539550781,0.6028367280960083,-0.7503868341445923,-0.24410174787044525
0.021528661251068115,3.6937263011932373,8.90909194946289,0.5108927488327026,-0.7063173055648804,-0.22162190079689026
0.2950039505958557,4.148768424987793,8.067607879638672,0.1209862232208252,-0.3755599558353424,-0.026389379054307938
0.7596514225006104,3.9590325355529785,8.49836254119873,-0.3021339476108551,0.10300933569669724,0.044139377772808075
0.626332700252533,3.716921329498291,8.660795211791992,-0.4916243553161621,0.39652135968208313,0.040369465947151184
0.6144382953643799,4.133761405944824,8.582734107971191,-0.035499997437000275,-0.10615092515945435,0.0030194194987416267
0.715100109577179,3.8660035133361816,8.725295066833496,-0.23396138846874237,0.10536552965641022,-0.023998277261853218
0.4202111065387726,3.7035329341888428,9.217390060424805,-0.2793225049972534,0.15702727437019348,0.016441000625491142
0.4249899387359619,3.6706366539001465,9.575189590454102,-0.1684940904378891,0.03347541391849518,0.06707300245761871
0.5114684700965881,3.640737771987915,9.487407684326172,-0.00017453292093705386,-0.03199188411235809,0.05728170648217201
0.5897110104560852,3.636754035949707,9.394827842712402,0.1250353902578354,-0.0408930629491806,0.017697637900710106
0.6317914724349976,3.7477970123291016,9.245708465576172,0.19333012402057648,0.016353735700249672,-0.0587477833032608
0.24049276113510132,3.8591465950012207,9.047486305236816,0.14648547768592834,0.028274333104491234,-0.04366813600063324
0.09746316075325012,3.835827112197876,8.819043159484863,0.04180063679814339,0.01736602559685707,-0.0012915435945615172
0.06590758264064789,3.813560962677002,8.819779396057129,-0.014206980355083942,0.04078834503889084,0.021293016150593758
0.2793745994567871,3.6933624744415283,9.08283519744873,-0.013089969754219055,-0.014224433340132236,0.015463616698980331
0.574033796787262,3.674926996231079,9.249988555908203,0.0587477833032608,-0.03338814899325371,-0.030892327427864075
0.36864957213401794,3.8578920364379883,9.142057418823242,0.1103048101067543,-0.04153883457183838,-0.03488913178443909
0.31901299953460693,3.776153802871704,9.025766372680664,0.09871581941843033,-0.052028264850378036,0.0031066860537976027
0.2699989080429077,3.747030735015869,9.015682220458984,0.1062905490398407,-0.02275909297168255,0.037716563791036606
0.19012834131717682,3.8153421878814697,9.02099895477295,0.11746066063642502,0.006126105785369873,0.06642723083496094
0.3961828947067261,3.813455581665039,8.987153053283691,0.09700539708137512,-0.00518362782895565,0.028902651742100716
0.5488276481628418,3.9919192790985107,8.929099082946777,0.07353071868419647,-0.0023911010939627886,-0.04813618212938309
0.3949379324913025,3.930915117263794,9.106536865234375,-0.10487683117389679,-0.05642649531364441,-0.020036378875374794
0.5043912529945374,3.812727689743042,9.246981620788574,-0.044139377772808075,-0.02139773592352867,-0.013718287460505962
0.4240705668926239,3.927572727203369,9.28670597076416,0.05208062380552292,0.002024581888690591,-0.024155355989933014
0.46627554297447205,3.938758611679077,9.129417419433594,0.10213666409254074,-0.05452408641576767,-0.020141098648309708
0.748753011226654,3.986987352371216,9.091635704040527,0.11109020560979843,-0.026947883889079094,-0.07464773207902908
0.33841562271118164,4.123236656188965,8.810115814208984,0.01785471849143505,0.009040805511176586,-0.040456730872392654
0.06708552688360214,3.9009971618652344,8.723599433898926,-0.08566076308488846,0.031084313988685608,0.04173082113265991
0.27382004261016846,3.653618574142456,8.95047378540039,-0.10611601918935776,0.039269909262657166,0.04820599406957626
0.3912891447544098,3.906465530395508,8.996529579162598,-0.10028661787509918,-0.022287854924798012,0.08576548099517822
0.48353296518325806,3.811262607574463,9.003548622131348,-0.15425220131874084,0.03272492438554764,0.07325147092342377
0.7357190251350403,3.8412187099456787,8.63073444366455,-0.11355111747980118,-0.275988906621933,-0.024260075762867928
0.6667085289955139,3.785184860229492,9.55338191986084,0.08951793611049652,-0.015742870047688484,-0.04248131439089775
0.5554930567741394,3.97005558013916,9.04291820526123,0.07290240377187729,0.09037315100431442,-0.013875367119908333
0.4391636252403259,3.889629602432251,9.232721328735352,-0.0038920841179788113,0.17304939031600952,0.004852015525102615
0.4863964319229126,3.8066561222076416,9.200601577758789,-0.05026548355817795,0.12117820978164673,0.04876450076699257
0.5293675661087036,3.783978223800659,9.05797290802002,-0.05466371029615402,0.06155776232481003,0.010035643354058266
0.41234853863716125,3.7880771160125732,9.092621803283691,-0.015358896926045418,0.0685390830039978,-0.040596358478069305
0.5383793115615845,3.716681957244873,9.11656379699707,0.04616395756602287,0.05593780055642128,-0.06120869517326355
0.35585495829582214,3.7891018390655518,9.1474027633667,0.07756242901086807,0.019198622554540634,-0.06206390634179115
0.30155447125434875,3.8883652687072754,9.035477638244629,0.05160938575863838,-0.033859387040138245,-0.03029891662299633
0.40282920002937317,3.8079967498779297,8.64724349975586,-0.04689699783921242,-0.01794198527932167,-0.00094247778179124
0.6154055595397949,3.7342746257781982,8.69400691986084,-0.14044664800167084,0.052639130502939224,-0.04848524555563927
0.49951663613319397,3.853543996810913,8.950761795043945,-0.12795008718967438,0.06822492182254791,-0.0870046615600586
0.1251305490732193,3.7452783584594727,9.315752983093262,-0.029530970379710197,-0.04775220900774002,-0.054681167006492615
0.22407811880111694,3.689464569091797,9.427188873291016,-0.06672393530607224,-0.030892327427864075,0.026197392493486404
0.3611030578613281,3.6390044689178467,9.482982635498047,0.054506633430719376,-0.08023278415203094,0.052726395428180695
0.5143032073974609,3.6994149684906006,9.143014907836914,0.1569400131702423,-0.13889330625534058,0.02984512969851494
0.6655497550964355,3.8324272632598877,8.832008361816406,0.13960888981819153,-0.15224507451057434,0.00017453292093705386
0.7030525207519531,4.024374961853027,8.643556594848633,0.01120501384139061,-0.08154178410768509,-0.035587262362241745
0.5697816610336304,3.9495227336883545,8.903681755065918,-0.0674046128988266,-0.03977605327963829,0.010506882332265377
0.6115365624427795,3.796447277069092,8.990017890930176,-0.059725165367126465,-0.023806290701031685,0.009197885170578957
0.5902664661407471,3.812612771987915,9.045639991760254,-0.02364921197295189,-0.006126105785369873,-0.00017453292093705386
0.488733172416687,3.822572708129883,8.949813842773438,-0.007592182140797377,-0.03263765573501587,0.013055062852799892
0.43882840871810913,3.7471554279327393,8.991223335266113,-0.024207716807723045,-0.06859143823385239,0.027436574921011925
0.4521401822566986,3.7801856994628906,8.966840744018555,0.0016755161341279745,-0.14844025671482086,0.026145031675696373
0.7349432706832886,3.6213927268981934,9.160483360290527,0.0829380452632904,-0.17046630382537842,-0.007120943162590265
0.7905557751655579,3.82185435295105,9.306138038635254,0.1293638050556183,-0.040334559977054596,-0.046931903809309006
0.5179328322410583,4.084297180175781,9.077664375305176,0.009075712412595749,0.030543262138962746,-0.031956978142261505
0.524876058101654,3.866156816482544,9.145171165466309,-0.09756390750408173,0.014521139673888683,0.021729348227381706
0.9804925918579102,3.6845901012420654,9.224992752075195,-0.06215117499232292,0.0009250245057046413,0.015655603259801865
0.6438869833946228,3.7749950885772705,9.05949592590332,0.02298598550260067,0.0008203047327697277,-0.0007853981805965304
0.5092275142669678,3.7457380294799805,9.269430160522461,0.12170180678367615,-0.16772614419460297,-0.009337511844933033
0.6247142553329468,3.7192580699920654,9.322876930236816,0.2563539743423462,-0.31497958302497864,-0.04501204192638397
0.7775505185127258,3.8774478435516357,9.16270637512207,0.34056609869003296,-0.33171728253364563,-0.08723155409097672
0.7652155756950378,4.07810115814209,8.746000289916992,0.28066638112068176,-0.26748916506767273,-0.0973370149731636
0.8571816086769104,4.0937113761901855,8.654176712036133,0.14381512999534607,-0.1869596689939499,-0.06572909653186798
0.6707499623298645,4.006064414978027,8.966985702514648,0.14147639274597168,-0.1500983089208603,0.002548180753365159
0.6552737951278687,3.899618148803711,8.721378326416016,0.13810789585113525,-0.15105824172496796,0.03153809905052185
1.0138773918151855,3.9974164962768555,8.506875991821289,0.05457644537091255,-0.06232570856809616,0.017924530431628227
1.1306185722351074,4.142026424407959,8.677716255187988,-0.03897320106625557,-0.03183480724692345,0.009424777701497078
1.0366413593292236,4.177182674407959,8.471451759338379,-0.07206464558839798,-0.08253662288188934,0.022113321349024773
0.9155331254005432,4.024691104888916,9.009533882141113,0.01731366664171219,0.041259583085775375,0.042062435299158096
0.9860758781433105,4.1978302001953125,9.25969123840332,-0.026110125705599785,0.1851968914270401,0.04155628755688667
0.9092411398887634,4.178829669952393,9.458006858825684,-0.015690509229898453,0.10871656239032745,0.03078760765492916
0.4864538908004761,4.177249908447266,9.173163414001465,0.002460914198309183,0.04977678880095482,0.02808234840631485
0.7764012813568115,4.181157112121582,9.186685562133789,0.02330014482140541,0.05106833204627037,0.012566370889544487
0.9257611632347107,4.11110258102417,8.839508056640625,0.04815363511443138,0.11238174885511398,0.012932890094816685
0.9154373407363892,4.036011219024658,8.609903335571289,0.018709929659962654,0.1967335194349289,0.01745329238474369
0.9796881675720215,4.0174031257629395,8.734593391418457,0.010698867961764336,0.2474527806043625,0.00548033369705081
0.7625723481178284,4.079192638397217,8.747004508972168,-0.07189010828733444,0.17952457070350647,0.024696409702301025
0.7902684807777405,3.981729745864868,8.772421836853027,-0.10475466400384903,0.22184880077838898,0.021764256060123444
0.7749838829040527,3.9708120822906494,8.781070709228516,-0.11627383530139923,0.2790257930755615,0.006859143730252981
0.6641132235527039,4.0370259284973145,8.994919776916504,-0.12852604687213898,0.30599111318588257,0.009407324716448784
0.5439051389694214,4.0620503425598145,9.10238265991211,-0.1327672004699707,0.2832145690917969,0.02830924093723297
0.5582799315452576,3.9965736865997314,8.99819564819336,-0.11864747852087021,0.27146852016448975,0.025324726477265358
0.5037400126457214,3.965698003768921,9.096290588378906,-0.09726719558238983,0.24033184349536896,0.017645278945565224
0.3327748775482178,3.9837119579315186,9.127138137817383,-0.0809483677148819,0.16870352625846863,0.009634217247366905
0.1862880438566208,3.8917555809020996,9.063518524169922,-0.051312681287527084,0.1160992980003357,0.019425515085458755
0.2637452483177185,3.6898093223571777,8.955865859985352,-0.024155355989933014,0.17030923068523407,0.03644247353076935
0.365498811006546,3.835961103439331,8.87971019744873,-0.06206390634179115,0.21148154139518738,0.04057890549302101
0.3821624517440796,3.9745852947235107,9.085458755493164,-0.10349802672863007,0.1760164499282837,0.022287854924798012
0.5008190870285034,3.892071485519409,9.247748374938965,-0.036791540682315826,0.1235518604516983,-0.01507964450865984
0.3149237036705017,3.828242063522339,8.887286186218262,0.012967796064913273,0.08501498401165009,-0.03841469809412956
0.15810349583625793,3.8326475620269775,8.81383228302002,-0.05103342607617378,0.08384561538696289,-0.05209807679057121
0.17611746490001678,3.7098824977874756,9.02936840057373,-0.13503612577915192,0.14678218960762024,-0.035674531012773514
0.2307339906692505,3.761108875274658,9.210552215576172,-0.133622407913208,0.16252505779266357,-0.03406882658600807
0.0847260057926178,3.801273822784424,8.895435333251953,-0.023265238851308823,-0.02295107953250408,0.01507964450865984
0.2512570917606354,3.5586071014404297,9.047295570373535,0.03768165782094002,-0.017662731930613518,0.002722713630646467
0.19214904308319092,3.663099765777588,9.338717460632324,0.1154884397983551,-0.033719759434461594,-0.019861847162246704
0.1482585370540619,3.850268840789795,9.316518783569336,0.16294394433498383,-0.11760028451681137,-0.01802925020456314
0.22895270586013794,3.6907191276550293,8.81339168548584,0.14550809562206268,-0.0921708345413208,-0.00012217304902151227
0.37832215428352356,3.704864263534546,8.98259449005127,0.16545721888542175,-0.043423790484666824,-0.003228859044611454
0.48615700006484985,3.8775627613067627,9.097219467163086,0.2197544127702713,0.0036477381363511086,-0.010855947621166706
0.5464238524436951,3.8823606967926025,8.884978294372559,0.29078930616378784,0.09726719558238983,-0.0063355453312397
0.5061342120170593,3.902644395828247,8.601035118103027,0.29134780168533325,0.18713420629501343,0.018168877810239792
0.511267364025116,3.891200065612793,7.92084264755249,0.156119704246521,0.42500513792037964,0.0829380452632904
-0.24837447702884674,4.393331050872803,8.94754409790039,-0.0774926170706749,0.4392295479774475,0.11025244742631912
-0.7004092931747437,4.716970920562744,10.06790542602539,-0.16720254719257355,0.073164202272892,0.07566002011299133
-0.47500959038734436,4.01527738571167,9.871792793273926,-0.15002849698066711,-0.20233601331710815,-0.051225412636995316
-0.42216476798057556,3.847414970397949,9.36071491241455,-0.26017624139785767,-0.3012089133262634,-0.16439256072044373
-0.4580394923686981,3.9224109649658203,9.734421730041504,-0.3136705756187439,-0.4192979037761688,-0.22115066647529602
0.8910739421844482,3.909166097640991,9.1476411819458,0.2820277512073517,-0.7264758348464966,-0.12782791256904602
1.4341363906860352,4.112318992614746,7.942591667175293,0.2071007639169693,-0.27033403515815735,-0.004590216092765331
1.070026159286499,3.8504891395568848,7.58039665222168,-0.06663667410612106,0.29647907614707947,-0.0007504915702156723
0.23562774062156677,3.8018581867218018,8.489513397216797,-0.33571407198905945,0.6752155423164368,0.040631264448165894
0.18826085329055786,3.8242294788360596,9.382617950439453,-0.2595653533935547,0.46699774265289307,0.03330088034272194
0.23783041536808014,3.773597002029419,9.694650650024414,-0.041748274117708206,0.16924457252025604,-0.00045378561480902135
0.19682252407073975,3.8260586261749268,9.294032096862793,0.1054353415966034,0.01012290921062231,0.04096287861466408
-0.04604528471827507,3.66180682182312,9.035880088806152,0.17247343063354492,0.3066892623901367,0.030002210289239883
-0.26513388752937317,4.126684188842773,9.806429862976074,0.09471901506185532,-0.12285372614860535,-0.003089232835918665
0.12706506252288818,4.070794105529785,9.269449234008789,-0.00031415926059708,-0.07742280513048172,0.04715879634022713
0.45802992582321167,3.9043970108032227,9.099595069885254,-0.09829694032669067,0.036023594439029694,0.05251695588231087
0.4504450857639313,3.9212520122528076,8.714109420776367,-0.11714649945497513,0.19427259266376495,0.057194437831640244
0.4684973657131195,3.7898967266082764,9.184770584106445,0.04387757554650307,0.15385077893733978,0.045727625489234924
0.1757056713104248,3.829946756362915,8.916611671447754,0.16491615772247314,0.1028173491358757,0.08943066745996475
0.3748074769973755,3.7544145584106445,8.302027702331543,0.1860695481300354,0.3000919222831726,0.13145819306373596
0.0508241131901741,3.720417022705078,8.522150993347168,0.1924050897359848,0.3640407621860504,0.12322024255990982
-0.06916369497776031,3.8332126140594482,9.034463882446289,0.35360369086265564,0.275988906621933,0.1123119369149208
0.07060979306697845,4.303318977355957,9.065184593200684,0.4761781692504883,0.1057145893573761,0.11065387725830078
0.2743946611881256,4.427644729614258,8.573723793029785,0.37463492155075073,0.16882570087909698,0.12063715606927872
0.4016129672527313,4.157923698425293,8.511597633361816,0.2168571650981903,0.44631558656692505,0.18453365564346313
-0.7356998324394226,4.293128967285156,9.059342384338379,0.05886995419859886,0.6721786260604858,0.05311036854982376
-0.9236446619033813,4.431389331817627,9.307669639587402,0.07382743060588837,0.6006376147270203,0.10201449692249298
-0.6582426428794861,4.464822292327881,9.582112312316895,0.2286555916070938,0.4055446982383728,0.2269277125597
-0.3068983256816864,4.325814723968506,9.165846824645996,0.36849135160446167,0.2474178671836853,0.1800132542848587
-0.45160388946533203,4.4214677810668945,8.667776107788086,0.3033033311367035,0.37512362003326416,0.06089453771710396
-0.8893117904663086,4.522215843200684,8.60143756866455,0.10468484461307526,0.45008552074432373,0.04288274049758911
-1.1100188493728638,4.5225510597229,8.648076057434082,-0.035011306405067444,0.3775845170021057,0.07867944240570068
-0.6010212302207947,4.593639850616455,8.831586837768555,0.02148500271141529,-0.1080009713768959,-0.04469788074493408
-0.8155704140663147,4.539243221282959,8.170816421508789,-0.11676252633333206,0.03387684002518654,-0.06871361285448074
-1.0310580730438232,4.493772983551025,8.401895523071289,-0.20038124918937683,0.04553563892841339,-0.08445648103952408
-1.0230615139007568,4.738306999206543,8.888378143310547,-0.24459044635295868,-0.15276867151260376,-0.08541641384363174
-1.339804768562317,4.855996131896973,9.005559921264648,-0.2601413130760193,-0.22621212899684906,-0.0717330351471901
-0.5384654998779297,4.2900261878967285,8.97201156616211,-0.2180614322423935,-0.21013763546943665,-0.05045747011899948
-0.693657636642456,4.02487325668335,8.820879936218262,-0.10332348942756653,-0.16748179495334625,-0.04584980010986328
-0.6526593565940857,4.084546089172363,8.838033676147461,-0.025150194764137268,-0.21495474874973297,-0.057997290045022964
-0.6165643930435181,4.3267436027526855,8.634554862976074,-0.029967302456498146,-0.25478315353393555,-0.047682393342256546
-0.4558655619621277,4.365079402923584,8.6265869140625,-0.0982271283864975,-0.2615375816822052,-0.049183379858732224
-0.48461514711380005,4.159886837005615,8.709080696105957,-0.3163060247898102,-0.18997909128665924,-0.026860617101192474
-0.43520838022232056,4.038185119628906,9.003079414367676,-0.264365017414093,-0.15283848345279694,-0.034033920615911484
-0.3875254690647125,3.9631218910217285,9.271172523498535,-0.10124655067920685,-0.16859880089759827,-0.057072266936302185
-0.2237333506345749,4.01409912109375,9.12336540222168,0.025045474991202354,-0.18945549428462982,-0.07986626774072647
-0.20861157774925232,4.167538642883301,8.868439674377441,-0.0008203047327697277,-0.16980308294296265,-0.07134906202554703
-0.24039699137210846,4.199927806854248,8.835474967956543,-0.1419999897480011,-0.14812609553337097,-0.03995058685541153
-0.33164480328559875,4.019653797149658,8.839200973510742,-0.21762509644031525,-0.09286896884441376,-0.024015730246901512
-0.46932098269462585,3.980637788772583,8.963603019714355,-0.2249380350112915,-0.03960151970386505,-0.032044246792793274
-0.2902730107307434,3.932868719100952,9.20052433013916,-0.16109389066696167,-0.025883233174681664,-0.02715732343494892
-0.20800822973251343,3.9069156646728516,9.242307662963867,-0.10971139371395111,-0.030403634533286095,-0.02045525796711445
-0.23063823580741882,3.9349756240844727,9.21306037902832,-0.011187560856342316,-0.055658549070358276,0.0033684854861348867
-0.3301699757575989,4.0247392654418945,9.272302627563477,-0.06174974888563156,-0.039758600294589996,-0.0012042771559208632
-0.19694702327251434,3.852184295654297,9.103137969970703,-0.0012915435945615172,-0.07958701252937317,0.0009250245057046413
-0.1320928931236267,3.8575663566589355,9.033879280090332,0.022113321349024773,-0.07710864394903183,-0.01710422709584236
-0.14305832982063293,3.9138684272766113,8.930123329162598,0.020629791542887688,-0.04122467711567879,-0.023003440350294113
-0.3087179362773895,3.8547794818878174,9.188725471496582,0.0033684854861348867,-0.07463027536869049,0.00930260494351387
-0.2970055043697357,3.8784725666046143,9.121515274047852,0.05466371029615402,-0.11129964888095856,0.011379546485841274
-0.1274002492427826,3.9821319580078125,9.005138397216797,0.08733627200126648,-0.08330456167459488,-0.010821041651070118
-0.0414675734937191,3.9543209075927734,9.121908187866211,0.061278510838747025,-0.08445648103952408,-0.018971728160977364
-0.12614569067955017,3.998354911804199,8.99349308013916,0.01855284906923771,-0.07553785294294357,-0.026982789859175682
-0.12444102019071579,3.940443992614746,8.855720520019531,-0.03331833705306053,-0.03335324302315712,-0.0032114058267325163
-0.12587754428386688,3.9188101291656494,9.140573501586914,-0.03741985931992531,-0.03619812801480293,0.002809980185702443
-0.036315251141786575,3.933443307876587,9.221229553222656,0.025883233174681664,-0.05000368133187294,-0.011536626145243645
-0.038259342312812805,3.978004217147827,9.190834045410156,0.06731735169887543,-0.07237880676984787,-0.032707471400499344
-0.05386953428387642,4.072546482086182,8.808966636657715,0.057910025119781494,-0.023003440350294113,-0.007120943162590265
-0.005707776639610529,3.996295928955078,8.812156677246094,0.024434609338641167,0.010698867961764336,0.005829399451613426
-0.033997662365436554,4.023025035858154,8.79605770111084,0.013247049413621426,0.015865042805671692,0.003543018363416195
-0.0764324888586998,3.926720380783081,8.948606491088867,0.011833332479000092,-0.006352998316287994,0.010821041651070118
-0.13583742082118988,3.92179799079895,9.092248916625977,0.020612338557839394,-0.03995058685541153,0.006579891312867403
-0.14470554888248444,3.976519823074341,9.074837684631348,0.05124286562204361,-0.07243116199970245,0.01516691129654646
-0.03160346299409866,3.9648265838623047,9.042573928833008,0.06960373371839523,-0.09264207631349564,0.004747295752167702
-0.03958094120025635,4.055691242218018,9.004400253295898,0.057875119149684906,-0.08531169593334198,-1.7453292457503267e-05
-0.009184157475829124,4.078139305114746,8.928494453430176,0.022165682166814804,-0.05665338784456253,-0.006702064536511898
-0.12042833864688873,4.102723121643066,9.08388900756836,0.017732545733451843,-0.07534586638212204,0.0020769417751580477
-0.03336559236049652,4.046880722045898,9.058950424194336,0.04740314185619354,-0.15214034914970398,0.007278022821992636
-0.06556281447410583,4.047311782836914,9.053079605102539,0.06323327869176865,-0.2171887755393982,0.005916666239500046
0.028596343472599983,4.0383477210998535,9.147506713867188,0.08752825856208801,-0.2883283793926239,-0.0036826448049396276
0.15108369290828705,4.000289440155029,9.284339904785156,0.1540951132774353,-0.32883748412132263,-0.05607742816209793
-0.08204449713230133,4.1501665115356445,8.935908317565918,0.1733984649181366,-0.36053267121315,-0.06138322874903679
-0.10196425765752792,4.065066814422607,8.602693557739258,0.11271335929632187,-0.37313392758369446,0.015097098425030708
0.3625395894050598,3.9089457988739014,8.743040084838867,0.03954916074872017,-0.34203216433525085,0.007225662935525179
0.5541810393333435,4.062414169311523,9.24986457824707,0.10128145664930344,-0.3516489267349243,-0.06178465485572815
0.4766184985637665,4.235466957092285,9.061047554016113,0.22537437081336975,-0.4913800060749054,-0.0918915867805481
0.5086337924003601,4.385420799255371,8.592713356018066,0.23633503913879395,-0.6684785485267639,-0.07482226192951202
1.0521079301834106,4.355493068695068,8.01512622833252,0.11826351284980774,-0.5400572419166565,-0.07967428117990494
1.1351006031036377,4.24826192855835,8.413886070251465,-0.010070549324154854,-0.2721841037273407,-0.12482594698667526
1.0376278162002563,4.327442646026611,8.773905754089355,-0.055867988616228104,-0.11079350113868713,-0.1189616397023201
0.7185669541358948,4.4690165519714355,9.054508209228516,-0.04331907257437706,-0.08854055404663086,-0.021851522848010063
0.67514568567276,4.261544704437256,8.988590240478516,-0.03324852138757706,-0.10384708642959595,0.03330088034272194
0.7671405076980591,4.20233154296875,8.968104362487793,0.006946410518139601,-0.1149299293756485,0.026912976056337357
0.9176591634750366,4.204419136047363,8.95167064666748,0.04256857931613922,-0.09049531817436218,-0.0036651913542300463
0.9633884429931641,4.4102630615234375,8.358569145202637,0.01532399095594883,-0.24041910469532013,-0.05930628627538681
0.8925870656967163,4.1530680656433105,9.067482948303223,0.04968952387571335,-0.10407398641109467,-0.05297074094414711
0.8405850529670715,4.497096061706543,8.996376991271973,0.032882001250982285,0.0809483677148819,0.00989601667970419
0.8642876148223877,4.202245235443115,9.029272079467773,0.051574479788541794,0.13329079747200012,0.041434116661548615
0.551193118095398,4.356594562530518,8.794103622436523,0.08745844662189484,0.08011060953140259,0.039095375686883926
0.9287299513816833,4.385698318481445,8.678760528564453,0.06981316953897476,0.07134906202554703,0.023265238851308823
0.8777047395706177,4.389395236968994,9.002265930175781,0.06749188154935837,0.1457349956035614,-0.007714355364441872
1.0447721481323242,4.338149547576904,8.710613250732422,0.019966566935181618,0.2119876891374588,-0.030752701684832573
0.8389186859130859,4.431149959564209,8.527332305908203,-0.0918741300702095,0.3096039593219757,-0.02897246554493904
0.6786603927612305,4.349900245666504,8.721301078796387,-0.14353588223457336,0.3525564968585968,-0.020315632224082947
0.5177029967308044,4.215777397155762,8.974808692932129,-0.08449138700962067,0.30312877893447876,-0.021676989272236824
0.5146192908287048,4.211554050445557,9.083715438842773,0.05656611919403076,0.19594810903072357,-0.0131772356107831
0.5138244032859802,4.2194929122924805,8.790244102478027,0.129608154296875,0.14447835087776184,0.004433136433362961
0.47905102372169495,4.332805633544922,8.668112754821777,0.07232644408941269,0.20292943716049194,0.011554080061614513
0.45471635460853577,4.442977428436279,8.689668655395508,-0.03675663471221924,0.28099802136421204,0.0011519172694534063
0.07455543428659439,4.360339164733887,8.819244384765625,-0.2497042566537857,0.5204920768737793,0.0010646508308127522
-0.11887689679861069,4.162510871887207,8.82313060760498,-0.28967228531837463,0.3931528627872467,0.05941100791096687
-0.005200205836445093,3.989515542984009,9.182931900024414,-0.26225316524505615,0.29773572087287903,0.0792204961180687
0.141449436545372,4.008315086364746,9.31003475189209,-0.12777554988861084,0.22167426347732544,0.04583234712481499
0.07961199432611465,4.122106552124023,8.870920181274414,-0.029304077848792076,0.13946926593780518,0.007871435023844242
-0.024133551865816116,4.0876970291137695,8.662201881408691,-0.024504423141479492,0.12283626943826675,-0.006911503616720438
-0.17385734617710114,4.0141377449035645,8.946910858154297,-0.048520151525735855,0.12086404860019684,-0.03185226023197174
-0.27006593346595764,4.1117730140686035,9.150179862976074,-0.05324999615550041,0.011850785464048386,-0.018901916220784187
-0.11741164326667786,4.0564093589782715,9.026351928710938,-0.034487705677747726,-0.09175195544958115,0.0020769417751580477
-0.05909847095608711,3.9899752140045166,8.84605884552002,-0.0154810706153512,-0.13789846003055573,-0.010629055090248585
0.009117119945585728,4.042130470275879,8.63329029083252,-0.06766641139984131,-0.08552113175392151,-0.017016960307955742
0.14002248644828796,3.9922258853912354,8.818219184875488,-0.11213740706443787,0.00062831852119416,-0.02914699912071228
0.06748775392770767,4.041536808013916,9.204575538635254,-0.09250245243310928,-0.007120943162590265,-0.030805060639977455
-0.04201345145702362,3.984104633331299,9.132692337036133,-0.0031415927223861217,-0.07550293952226639,0.006387905217707157
0.047500960528850555,3.9616470336914062,8.909963607788086,0.0034732052590698004,-0.017592918127775192,0.010768681764602661
-0.020149599760770798,3.9936814308166504,9.184013366699219,-0.0067369709722697735,-0.002914699725806713,-0.00029670598451048136
0.10307516902685165,3.9962384700775146,9.024197578430176,-0.018709929659962654,-0.12320279330015182,-0.01855284906923771
0.013139378279447556,4.10366153717041,8.93752670288086,0.003944444004446268,-0.3286105990409851,-0.03537782281637192
0.27807214856147766,3.863618850708008,9.014466285705566,0.10758209228515625,-0.21963223814964294,-0.02453932911157608
0.25868868827819824,3.965707540512085,9.302450180053711,0.1417381912469864,-0.030351275578141212,-0.003176499158143997
0.27433720231056213,4.074222564697266,9.18429183959961,0.10014699399471283,0.0659734457731247,-0.01286307629197836
0.08161354064941406,4.145694255828857,9.141359329223633,-0.0057246801443398,0.13631021976470947,0.012548916973173618
0.04327758774161339,4.1366729736328125,9.199077606201172,-0.03728023171424866,0.11899654567241669,0.03885103017091751
-0.40768465399742126,4.204591274261475,9.05513858795166,-0.03258529677987099,0.04300491139292717,0.028117254376411438
0.20539376139640808,3.9686477184295654,8.87033462524414,0.030106930062174797,0.016929693520069122,-0.00839503388851881
0.16464444994926453,3.96486496925354,8.928208351135254,0.13292427361011505,-0.007033676840364933,-0.019984019920229912
0.14133450388908386,4.050663471221924,8.828561782836914,0.229842409491539,-0.057194437831640244,-0.021711895242333412
0.38957491517066956,4.040310859680176,8.57227611541748,0.24176301062107086,-0.039933133870363235,-0.01226966455578804
-0.016864756122231483,4.480997085571289,9.067530632019043,0.31810370087623596,0.23488640785217285,0.06579891592264175
-0.02706405520439148,4.401653289794922,8.78423023223877,0.2862688899040222,0.22818434238433838,0.043249256908893585
-0.12352164834737778,4.566633224487305,8.783559799194336,0.16468927264213562,0.2330014556646347,0.05169665068387985
-0.17337849736213684,4.278811931610107,8.983409881591797,0.12203341722488403,0.18682004511356354,0.03644247353076935
-0.24399787187576294,4.415156841278076,8.818553924560547,0.19158479571342468,0.12658873200416565,0.013788101263344288
-0.08063670992851257,4.520415306091309,8.655048370361328,0.2123018503189087,0.08532914519309998,0.013910274021327496
-0.3370940089225769,4.773741245269775,8.799544334411621,0.103131502866745,0.2249554842710495,0.10381218045949936
-0.1611585021018982,4.632646083831787,7.339444160461426,0.0751713290810585,0.34403929114341736,0.06932447850704193
-0.5755085945129395,4.851160049438477,9.201166152954102,-0.0656592845916748,-0.049183379858732224,-0.0659734457731247
-0.5758150815963745,4.7702741622924805,8.267475128173828,-0.04352851212024689,-0.09604547172784805,-0.04789183288812637
-0.5825954675674438,4.690221786499023,8.313453674316406,-0.060562923550605774,-0.08772024512290955,-0.04640830308198929
-0.20909041166305542,4.605007171630859,8.940350532531738,-0.09894271194934845,-0.2581341862678528,-0.06073745712637901
-0.10431057214736938,4.717352867126465,8.742992401123047,-0.08339183032512665,-0.3156428039073944,-0.05695009231567383
-0.12716083228588104,4.693133354187012,8.40918254852295,-0.08864527195692062,-0.16599826514720917,-0.02905973233282566
-0.13667060434818268,4.608301639556885,8.574507713317871,-0.0815068781375885,-0.1172337681055069,-0.02370157092809677
-0.03409343212842941,4.532577991485596,8.415801048278809,-0.0875631719827652,-0.05084143951535225,-0.020717058330774307
-0.13514789938926697,4.484148025512695,8.532637596130371,-0.10913543403148651,0.0010122909443452954,-0.026476643979549408
-0.1971481293439865,4.506040573120117,8.757894515991211,-0.11740829795598984,0.022916173562407494,-0.023527037352323532
-0.3478679060935974,4.59113073348999,8.900004386901855,-0.10231120139360428,-0.05274384841322899,-0.025848325341939926
-0.2438254952430725,4.538208961486816,9.074024200439453,-0.06487388908863068,-0.05935864895582199,-0.032934363931417465
-0.050297386944293976,4.5069122314453125,8.932929992675781,-0.07480481266975403,-0.10070549696683884,-0.04029965400695801
0.012248734943568707,4.553953170776367,8.588882446289062,-0.15212289988994598,-0.07564257085323334,-0.024382250383496284
-0.012804190628230572,4.435938358306885,8.235546112060547,-0.27371999621391296,0.0031066860537976027,0.004450589418411255
-0.15383224189281464,4.374675750732422,8.348965644836426,-0.3673045337200165,0.08557349443435669,-0.00012217304902151227
-0.19166062772274017,4.231732368469238,8.51128101348877,-0.4121769666671753,0.12480849772691727,-0.006981316953897476
-0.09153511375188828,4.147791385650635,8.688126564025879,-0.44193482398986816,0.08108799904584885,-0.03867649659514427
-0.13022541999816895,4.08294677734375,8.864005088806152,-0.4314453899860382,0.03626793995499611,-0.045378562062978745
-0.13366349041461945,3.9674794673919678,9.23829460144043,-0.3255039155483246,-0.004817108623683453,-0.04213224723935127
-0.3059598207473755,3.9478564262390137,9.427237510681152,-0.16168729960918427,-0.05195845291018486,-0.029565878212451935
-0.32611897587776184,3.935512065887451,9.415217399597168,-0.045989423990249634,-0.13226105272769928,-0.0035953782498836517
-0.0469263531267643,4.024767875671387,9.163117408752441,0.0023911010939627886,-0.11184069514274597,-0.009983283467590809
0.31436824798583984,4.045271873474121,9.210905075073242,0.05057964101433754,0.02494075521826744,-0.052604224532842636
0.08310752362012863,4.186069965362549,9.219639778137207,0.09580112248659134,0.07122688740491867,-0.08274605870246887
-0.42499950528144836,4.2185258865356445,9.03718376159668,0.08482300490140915,-0.02755874954164028,-0.03490658476948738
-0.37344756722450256,4.040033340454102,8.82962417602539,0.017784904688596725,-0.08422958850860596,-0.0038920841179788113
-0.20361247658729553,3.9405014514923096,8.846240043640137,-0.04007275775074959,-0.08086110651493073,0.005759586580097675
-0.16042108833789825,3.9003171920776367,8.93272876739502,-0.061592668294906616,-0.12580333650112152,-0.044488441199064255
-0.20126616954803467,3.9150941371917725,8.843252182006836,-0.0550127774477005,-0.1740093231201172,-0.057560957968235016
-0.2582673132419586,3.8545210361480713,8.889527320861816,-0.02932153083384037,-0.10903071612119675,-0.02914699912071228
-0.20005948841571808,3.820801019668579,8.804685592651367,-0.03614576905965805,-0.036337755620479584,0.02782054804265499
-0.12107956409454346,3.9046554565429688,8.795750617980957,-0.08339183032512665,0.007627088576555252,0.04035201296210289
-0.06239289417862892,4.102052688598633,8.97392749786377,-0.11629128456115723,-0.00724311638623476,0.02949606440961361
0.12919111549854279,3.9970717430114746,8.872872352600098,0.033405601978302,-0.04455825686454773,-0.027785642072558403
0.019910180941224098,3.9850432872772217,8.819472312927246,-0.02857103943824768,0.05291838198900223,-0.02640683203935623
-0.09503065049648285,3.97159743309021,8.924233436584473,-0.055344391614198685,0.09599310904741287,-0.0009250245057046413
-0.06319734454154968,3.8660225868225098,8.986137390136719,-0.019949113950133324,0.05785766616463661,-0.005305801052600145
-0.08321286737918854,3.853266477584839,8.926101684570312,0.0224623866379261,-0.03555235639214516,-0.019058994948863983
-0.11757445335388184,3.9281952381134033,8.808478355407715,0.04043927788734436,-0.01202531810849905,0.04986405745148659
-0.06660668551921844,3.819594383239746,8.819376945495605,0.026686083525419235,0.06871361285448074,0.10327113419771194
-0.14140154421329498,3.880617618560791,9.065234184265137,0.0303861815482378,0.08344419300556183,0.11198032647371292
-0.045087605714797974,3.975447177886963,9.14051628112793,0.022776545956730843,0.010070549324154854,0.07963937520980835
0.12200850993394852,3.950681686401367,8.921294212341309,0.005375613924115896,0.04354596510529518,0.05408775433897972
0.2936727702617645,3.9532291889190674,9.026092529296875,0.12288863211870193,-0.00296705961227417,-0.0005235987482592463
-0.004817133769392967,4.205989837646484,9.144922256469727,0.1650383323431015,0.10384708642959595,-0.00815068744122982
-0.13754209876060486,4.312943458557129,8.621586799621582,0.04708898440003395,0.2777516841888428,0.0483805276453495
-0.15566140413284302,4.050940990447998,9.129559516906738,-0.0636521577835083,0.377951055765152,0.05145230516791344
-0.28865453600883484,4.05307674407959,9.553592681884766,-0.053564153611660004,0.3530800938606262,0.03441789373755455
-0.732520341873169,4.092926025390625,9.518503189086914,0.022479841485619545,0.19078193604946136,0.0691150352358818
-0.47486594319343567,3.9695959091186523,9.291963577270508,0.08478809148073196,0.10449286550283432,0.0645073652267456
-0.19851762056350708,3.923722982406616,9.064074516296387,0.24411919713020325,-0.019024088978767395,0.02007128670811653
-0.11638692766427994,4.015038013458252,8.648449897766113,0.35641369223594666,-0.020315632224082947,0.01811651699244976
0.14156435430049896,4.095971584320068,8.520637512207031,0.43875831365585327,0.06428047269582748,0.09550441801548004
-0.34825098514556885,4.409726619720459,8.662269592285156,0.3643025755882263,0.05602506920695305,0.06560692936182022
-0.4725770950317383,4.352294445037842,8.630751609802246,0.30199432373046875,0.042184606194496155,0.050073496997356415
-0.2566392719745636,4.171494007110596,8.348956108093262,0.18928095698356628,0.1215447261929512,0.030490901321172714
-0.1566765457391739,4.295044422149658,8.160693168640137,0.08206538110971451,0.32492795586586,0.04070107638835907
-0.4112759530544281,4.567485332489014,8.372504234313965,-0.03710569813847542,0.4579220414161682,0.07737044245004654
-0.6576967835426331,4.455197334289551,9.224074363708496,-0.04640830308198929,0.3470238149166107,0.08042477071285248
-0.4995070695877075,4.170718193054199,9.185977935791016,0.014556045643985271,0.2698977291584015,0.06038839370012283
-0.8763831257820129,4.720609188079834,9.055052757263184,-0.18584266304969788,0.24113468825817108,-0.019512781873345375
-0.7467610836029053,4.822535037994385,9.554235458374023,-0.2954493463039398,0.03920009359717369,-0.07672467082738876
-1.0160512924194336,4.238100528717041,9.415973663330078,-0.25654593110084534,-0.02998475730419159,-0.10098475217819214
-1.0865652561187744,4.263891220092773,9.081388473510742,-0.13465215265750885,-0.20034635066986084,-0.12863077223300934
-0.7664796710014343,4.341568470001221,9.145639419555664,-0.012723450548946857,-0.48061132431030273,-0.055571284145116806
-0.8786336779594421,4.333179473876953,9.004937171936035,0.03574434295296669,-0.49003610014915466,-0.05283111706376076
-0.10904151946306229,4.162166118621826,8.535970687866211,0.02822197414934635,-0.3134611248970032,-0.060178954154253006
-0.09639055281877518,4.048029899597168,8.187575340270996,-0.053040556609630585,-0.0015882495790719986,-0.023806290701031685
-0.24140256643295288,4.10652494430542,8.713994026184082,-0.0866905003786087,0.05143485218286514,-0.035639625042676926
-0.42629238963127136,4.3121867179870605,9.04771614074707,-0.01679006777703762,-0.10304424166679382,-0.05670574679970741
-0.4093222916126251,4.310443878173828,8.940073013305664,0.0131772356107831,-0.24010494351387024,-0.02436479553580284
-0.3636983633041382,4.136251449584961,8.845848083496094,0.013945180922746658,-0.25157174468040466,-0.02258456125855446
-0.44897982478141785,4.17725944519043,8.800759315490723,-0.01745329238474369,-0.20240582525730133,-0.054332099854946136
-0.4084603786468506,4.10990571975708,8.94814682006836,-0.06174974888563156,-0.19167205691337585,-0.05780530348420143
-0.2709087133407593,4.065919399261475,9.000082015991211,-0.04155628755688667,-0.19956094026565552,-0.07637561112642288
-0.03289632871747017,4.214809894561768,8.994039535522461,-0.025883233174681664,-0.17900097370147705,-0.06525786221027374
0.028385654091835022,4.257474422454834,8.833406448364258,-0.051225412636995316,-0.13121385872364044,-0.053791046142578125
-0.024612393230199814,4.212185859680176,8.582781791687012,-0.1546536237001419,0.0027925267349928617,-0.031154127791523933
-0.16981592774391174,4.205760955810547,8.587560653686523,-0.20179496705532074,0.054105207324028015,-0.010663961991667747
-0.36629369854927063,4.0907135009765625,8.746506690979004,-0.24027948081493378,0.090425506234169,0.026738444343209267
-0.4071866571903229,4.041891098022461,8.876492500305176,-0.21498966217041016,0.06284930557012558,0.02750638872385025
-0.3015066087245941,4.052722454071045,8.986865997314453,-0.13702580332756042,-0.0794997438788414,0.00874409917742014
-0.035041533410549164,4.008697986602783,8.851105690002441,-0.09848892688751221,-0.07812093943357468,0.02661627158522606
-0.1012076884508133,4.040531158447266,9.083677291870117,-0.07351326942443848,-0.09662142395973206,0.012147491797804832
-0.23037007451057434,4.113104343414307,9.227300643920898,-0.05736897140741348,-0.17334610223770142,-0.00954695139080286
-0.12426864355802536,3.968848943710327,9.158003807067871,-0.0610690712928772,-0.1771160066127777,-0.0190066359937191
0.09067320078611374,3.928511381149292,8.908509254455566,-0.08176867663860321,-0.09105382859706879,-0.01860520988702774
-0.11428003013134003,3.963514566421509,9.098770141601562,0.12592551112174988,-0.018081611022353172,0.023317597806453705
-0.03121081180870533,4.093472003936768,9.118671417236328,0.11887437850236893,-0.08223991096019745,-5.2359879191499203e-05
-0.08301176130771637,3.9798622131347656,8.912731170654297,0.07639306038618088,-0.042987458407878876,0.023579398170113564
-0.06069779768586159,3.9267492294311523,8.87740421295166,0.048956483602523804,0.02254965342581272,0.049898963421583176
-0.003591302316635847,3.964118003845215,8.771875381469727,0.04141666367650032,0.09382890164852142,0.07120943069458008
0.06938396394252777,3.965947151184082,8.744611740112305,0.041172318160533905,0.1535540670156479,0.09407324343919754
-0.19219692051410675,4.143070220947266,8.920490264892578,0.04824090003967285,0.1569574624300003,0.10611601918935776
-0.4046679437160492,4.178676605224609,9.32310676574707,0.06991788744926453,-0.004188789986073971,0.0650833249092102
-0.2298433482646942,4.044783115386963,9.162599563598633,0.0918741300702095,-0.12725195288658142,-0.01021017599850893
-0.05223190039396286,4.055279731750488,9.006392478942871,0.0630587488412857,-0.1514596790075302,-0.03850196301937103
-0.17875109612941742,4.246279239654541,8.949640274047852,-0.006702064536511898,-0.13747958838939667,-0.025167647749185562
-0.13597150146961212,4.088635444641113,8.856554985046387,-0.033824481070041656,-0.03553490340709686,0.0063355453312397
0.09285671263933182,4.015899658203125,8.710920333862305,0.058259088546037674,-0.17823302745819092,-0.017592918127775192
0.07363606244325638,4.145646095275879,8.73738956451416,0.04014257341623306,-0.1938188076019287,-0.0142593402415514
0.1968991458415985,4.11298942565918,8.625916481018066,-0.008098327554762363,-0.16755160689353943,-0.00411897711455822
0.30924466252326965,4.093347549438477,8.768821716308594,-0.07360053062438965,-0.070266954600811,-0.017086774110794067
0.22299593687057495,4.154533386230469,9.05962085723877,-0.10557496547698975,-0.007347836159169674,-0.017418386414647102
0.053926996886730194,4.1293559074401855,9.323643684387207,-0.047280970960855484,-0.01302015595138073,0.009686577133834362
-0.060774412006139755,4.052952289581299,9.306876182556152,0.055920347571372986,-0.08829620480537415,0.027838001027703285
-0.08893022686243057,4.063764572143555,9.117923736572266,0.09951867163181305,-0.17692402005195618,0.024644048884510994
-0.029630638659000397,4.030839443206787,9.126046180725098,0.10334094613790512,-0.20521581172943115,0.018308503553271294
0.04713704064488411,4.119175910949707,9.252123832702637,0.12793263792991638,-0.267244815826416,-0.00251327408477664
0.043995849788188934,4.1830244064331055,9.192977905273438,0.13868385553359985,-0.3191508948802948,-0.019634954631328583
0.08529103547334671,4.176225185394287,8.934356689453125,0.14653784036636353,-0.4180237948894501,-0.03192207217216492
0.34629732370376587,4.0490546226501465,8.772067070007324,0.15776030719280243,-0.42474332451820374,-0.07227408140897751
0.26065194606781006,4.145885467529297,8.8041410446167,0.1759815514087677,-0.42292818427085876,-0.05811946466565132
0.3359639346599579,4.176138877868652,8.812481880187988,0.22170917689800262,-0.43792057037353516,-0.0045378562062978745
0.9061574339866638,4.058497428894043,8.896384239196777,0.2837556302547455,-0.43512803316116333,-0.04841543361544609
0.8540117144584656,4.55832052230835,8.637369155883789,0.07826056331396103,-0.31691688299179077,-0.09236282110214233
0.7123324275016785,4.550400257110596,8.488966941833496,-0.04214970022439957,-0.20935223996639252,-0.007435102481395006
0.8237873315811157,4.348904609680176,8.249710083007812,-0.1900838017463684,-0.04375540465116501,0.019250981509685516
0.9629383087158203,4.239958763122559,9.060722351074219,-0.07318165898323059,0.09604547172784805,-0.006806783843785524
0.8167579174041748,4.316573143005371,9.109142303466797,-0.031869713217020035,0.1345299780368805,-0.006998770404607058
0.802000105381012,4.359161376953125,8.955406188964844,-0.011780972592532635,0.14447835087776184,-0.007033676840364933
1.022486925125122,4.521200656890869,8.841958999633789,-0.0036128314677625895,0.2607347369194031,-0.08333947509527206
0.7136731743812561,4.561854362487793,8.814148902893066,-0.05996951460838318,0.29185396432876587,-0.07510151714086533
0.4920275807380676,4.363758087158203,8.952417373657227,-0.07902850955724716,0.14789919555187225,-0.03747221827507019
0.2079795002937317,4.2841267585754395,8.979654312133789,-0.08255407214164734,0.04317944496870041,-0.015411256812512875
0.30538520216941833,4.060776710510254,8.759090423583984,-0.06789331138134003,0.013194689527153969,0.00502654816955328
0.4631630778312683,4.163105010986328,8.556809425354004,-0.07621853053569794,0.06068509817123413,-0.0008028514566831291
0.5049658417701721,4.094142436981201,8.417036056518555,-0.10143853724002838,0.15936601161956787,-0.007120943162590265
0.39972633123397827,4.035273551940918,8.658975601196289,-0.09286896884441376,0.1852143406867981,-0.01401499379426241
0.2785126864910126,4.158594131469727,9.172971725463867,-0.04960225895047188,0.0319744311273098,-0.0013089969288557768
0.2590143084526062,4.138099670410156,9.162313461303711,0.04310963302850723,-0.10550515353679657,-0.020559977740049362
0.30240681767463684,4.156257152557373,8.651074409484863,0.06089453771710396,-0.057595863938331604,0.002600540639832616
0.41072049736976624,4.047637462615967,8.453341484069824,-0.006824237294495106,0.08833111077547073,0.019879300147294998
0.2556145489215851,4.244852542877197,8.776721954345703,-0.1618967354297638,0.31408944725990295,0.0057072266936302185
0.07615476101636887,4.267702579498291,9.415035247802734,-0.16598081588745117,0.20987583696842194,0.01021017599850893
0.163370743393898,4.088817596435547,9.330204010009766,-0.05136504024267197,0.12943361699581146,0.018273597583174706
0.01819593273103237,4.01145601272583,9.187690734863281,-0.00663225119933486,0.07787659019231796,-0.014817845076322556
-0.05771941319108009,4.074519157409668,8.995820045471191,-0.09925687313079834,0.04721115529537201,0.006126105785369873
0.29465916752815247,3.8561203479766846,8.936338424682617,-0.10929251462221146,-0.05651376023888588,0.0029321531765162945
0.28801286220550537,3.872802972793579,8.988015174865723,-0.042935099452733994,-0.01021017599850893,0.007260569836944342
0.25039517879486084,3.951524496078491,8.870383262634277,-0.006911503616720438,0.007819075137376785,-0.006352998316287994
0.23600123822689056,3.917584180831909,8.722604751586914,-0.01516691129654646,0.07932521402835846,-0.012566370889544487
0.054875101894140244,3.8781373500823975,8.85197639465332,-0.02768092229962349,0.06536258012056351,-0.008918632753193378
0.017458518967032433,3.871586799621582,8.996280670166016,-0.02972295694053173,0.012915436178445816,-0.007120943162590265
0.12570516765117645,3.7659738063812256,8.686287879943848,-0.025795966386795044,0.10726793855428696,-0.015446163713932037
0.04471410810947418,4.142486095428467,9.379610061645508,-0.0619242824614048,-0.04445353522896767,-0.01661553420126438
0.1199207678437233,4.051381587982178,9.395230293273926,-0.016144296154379845,-0.05611233413219452,0.007435102481395006
0.17163552343845367,3.828136920928955,8.703219413757324,0.05359905958175659,-0.047019168734550476,0.024905849248170853
0.2475508749485016,3.7589826583862305,8.945694923400879,0.08004079759120941,-0.029827676713466644,0.011257373727858067
0.5959359407424927,3.792616367340088,9.121275901794434,0.05921902135014534,-0.08911651372909546,-0.022689281031489372
0.4260242283344269,4.036154747009277,9.152746200561523,-0.02626720443367958,-0.04021238535642624,-0.011187560856342316
0.18028338253498077,3.8822362422943115,8.73477554321289,-0.0823969915509224,0.15339699387550354,0.013875367119908333
0.15452177822589874,3.6931421756744385,8.816618919372559,-0.05251695588231087,0.2223723977804184,0.011972958222031593
0.14729128777980804,3.816433906555176,9.121716499328613,0.17266541719436646,0.1221032366156578,0.015498523600399494
0.3474465310573578,3.8694798946380615,8.87477970123291,0.25326472520828247,0.09032078832387924,0.027454029768705368
0.4493725001811981,3.8557562828063965,8.34457778930664,0.21762509644031525,0.328907310962677,0.01473057921975851
0.35725319385528564,3.838383913040161,8.222339630126953,0.16709782183170319,0.4700346291065216,0.020717058330774307
0.25046220421791077,3.8397438526153564,8.340105056762695,0.08808676898479462,0.6745697259902954,0.05089380219578743
0.12287042289972305,3.9104015827178955,8.64200496673584,0.10295697301626205,0.7471754550933838,0.0783303752541542
0.16428053379058838,3.9307332038879395,8.700797080993652,0.1526290476322174,0.784071683883667,0.09813986718654633
0.32560184597969055,3.951763868331909,8.5206298828125,0.3349112272262573,0.9973858594894409,0.1517912894487381
0.20139066874980927,4.03983211517334,8.657127380371094,0.5582086443901062,1.1985175609588623,0.24602161347866058
-0.2181500792503357,4.194085597991943,8.79980182647705,0.6718993782997131,1.1797378063201904,0.2826386094093323
-0.9750434160232544,4.793430805206299,9.275606155395508,0.5978625416755676,0.964818000793457,0.23350760340690613
-1.7185962200164795,5.178073883056641,9.705719947814941,0.5612978935241699,0.6730164289474487,0.17292721569538116
-1.8496547937393188,4.643219947814941,9.010348320007324,0.5903750658035278,0.5048015713691711,0.13889330625534058
-1.9866318702697754,4.427022457122803,8.424448013305664,0.4144284427165985,0.6400645971298218,0.038205258548259735
-2.5828359127044678,5.545172214508057,8.33027172088623,-0.07621853053569794,-0.0045553091913461685,0.012932890094816685
-2.124011278152466,5.363605499267578,8.688519477844238,-0.03719296678900719,-0.23408356308937073,-0.019809486344456673
-2.0041861534118652,5.097743511199951,8.329025268554688,0.06131341680884361,-0.16067500412464142,-0.04988151043653488
-2.116455078125,5.210845947265625,7.994593620300293,0.07853981852531433,-0.0714188739657402,-0.057299159467220306
