accX,accY,accZ,gyroX,gyroY,gyroZ
1.2859500646591187,4.809000015258789,6.3949503898620605,-0.09322500228881836,0.4226749837398529,-0.6380000114440918
2.0380501747131348,5.143950462341309,7.954050540924072,-0.2975499927997589,0.4343625009059906,-0.6029375195503235
1.5750000476837158,5.419950485229492,9.043050765991211,-0.15496249496936798,0.5812125205993652,-0.6402000188827515
1.3480501174926758,5.319000244140625,7.494000434875488,-0.035750001668930054,0.5003625154495239,-0.5326749682426453
0.9649500250816345,5.1469502449035645,6.814050197601318,-0.23375000059604645,0.20446249842643738,-0.45278748869895935
0.505050003528595,5.014950275421143,7.758000373840332,-0.3922874927520752,0.11618749797344208,-0.43793749809265137
0.5410500168800354,4.627050399780273,8.599950790405273,-0.3338499963283539,0.07356250286102295,-0.42198750376701355
0.687000036239624,4.2970499992370605,9.907950401306152,-0.21133749186992645,-0.047712501138448715,-0.49321249127388
-0.5929500460624695,3.544950246810913,11.338950157165527,-0.05389999970793724,-0.04138749837875366,-0.47519999742507935
-1.7419500350952148,3.7699501514434814,11.347050666809082,0.17806249856948853,0.10339999943971634,-0.2825624942779541
-1.8739501237869263,3.7390501499176025,10.324050903320312,0.5707625150680542,0.39393749833106995,-0.05912499874830246
-1.974000096321106,4.938000202178955,8.839950561523438,0.7761874794960022,0.4599374830722809,0.04413750022649765
-1.2780001163482666,5.293050289154053,7.948950290679932,0.6335999965667725,0.21408750116825104,0.035612501204013824
-1.0260000228881836,4.503000259399414,9.366000175476074,0.2536875009536743,-0.2903999984264374,0.050462499260902405
-0.361050009727478,3.6190502643585205,12.438000679016113,0.00989999994635582,-0.2829749882221222,0.09624999761581421
-0.16905000805854797,4.258049964904785,12.22800064086914,0.10573749989271164,0.12787500023841858,0.04729999974370003
-0.7840500473976135,4.816050052642822,10.168950080871582,0.2451625019311905,0.49390000104904175,0.060087498277425766
-0.595050036907196,4.840050220489502,9.088950157165527,0.2952125072479248,0.5163124799728394,0.179299995303154
-0.6570000052452087,4.831050395965576,8.78700065612793,0.32491248846054077,0.10339999943971634,0.17393749952316284
-0.909000039100647,4.270050048828125,8.890050888061523,0.30469998717308044,-0.42336249351501465,0.16967499256134033
-0.22905001044273376,3.8610002994537354,8.602950096130371,0.2377374917268753,-0.6213625073432922,0.26551249623298645
0.025950001552700996,3.6690001487731934,8.277000427246094,0.15248750150203705,-0.37014999985694885,0.36121249198913574
0.30900001525878906,3.4990501403808594,7.9710001945495605,0.13227500021457672,-0.08607500046491623,0.47093749046325684
0.6180000305175781,3.52305006980896,7.923000335693359,0.20363749563694,-0.09350000321865082,0.4996750056743622
0.5580000281333923,3.7960500717163086,7.825050354003906,0.3334375023841858,-0.26372501254081726,0.43683749437332153
0.3330000042915344,4.069050312042236,7.180950164794922,0.43133750557899475,-0.4446749985218048,0.4006749987602234
0.4909500181674957,4.190999984741211,6.781050205230713,0.4292750060558319,-0.3573625087738037,0.4422000050544739
0.6390000581741333,4.4599504470825195,6.784950256347656,0.38458749651908875,-0.13928750157356262,0.4974749982357025
0.9240000247955322,4.753950119018555,7.008000373840332,0.3590124845504761,-0.12223749607801437,0.49431249499320984
0.7590000629425049,4.876049995422363,7.279050350189209,0.3653374910354614,-0.25946250557899475,0.4581499993801117
0.7969500422477722,5.17995023727417,7.425000190734863,0.38981249928474426,-0.3647874891757965,0.4123624861240387
1.2330000400543213,5.5849504470825195,7.579950332641602,0.4281750023365021,-0.11797499656677246,0.3548874855041504
1.4490001201629639,5.772000312805176,7.2360005378723145,0.46970000863075256,0.2311374992132187,0.2782999873161316
0.9460500478744507,5.937000274658203,7.389000415802002,0.4441249966621399,0.25671249628067017,0.18988749384880066
0.16005000472068787,5.713950157165527,7.603950500488281,0.34622499346733093,0.06503749638795853,0.21972499787807465
0.49800002574920654,5.6449503898620605,7.698000431060791,0.16101250052452087,-0.24997499585151672,0.31130000948905945
1.8169500827789307,6.516000270843506,8.425950050354004,-0.020899999886751175,-0.5244249701499939,0.36121249198913574
4.171050071716309,7.033050537109375,10.398000717163086,-0.029424998909235,-0.4914250075817108,0.23787499964237213
2.5480501651763916,7.038000106811523,9.502950668334961,0.15262499451637268,-0.23182499408721924,-0.0005499999970197678
2.121000051498413,6.283950328826904,8.827950477600098,0.23127499222755432,0.14698749780654907,-0.022962499409914017
2.245950222015381,6.175950527191162,9.280050277709961,0.16321249306201935,0.3737249970436096,-0.014437500387430191
2.143050193786621,6.243000507354736,8.947050094604492,0.014162499457597733,0.23003749549388885,-0.09735000133514404
2.205000162124634,5.428950309753418,9.532050132751465,-0.18053749203681946,-0.053075000643730164,-0.0728750005364418
2.4370501041412354,5.08905029296875,10.291050910949707,-0.2656500041484833,-0.13598750531673431,-0.011137500405311584
2.725050210952759,5.080050468444824,9.220050811767578,-0.1518000066280365,0.020349999889731407,-0.04839999973773956
2.7079501152038574,5.08905029296875,7.651950359344482,0.01209999993443489,0.24818749725818634,-0.18466250598430634
2.370000123977661,5.058000087738037,7.000950336456299,0.14079999923706055,0.319412499666214,-0.33687499165534973
2.0350501537323,5.142000198364258,7.140000343322754,0.24722500145435333,0.15771250426769257,-0.4538874924182892
1.7929500341415405,5.331000328063965,7.528050422668457,0.2770625054836273,0.02461249940097332,-0.4433000087738037
1.9900500774383545,5.211000442504883,7.927950382232666,0.20047499239444733,0.028875000774860382,-0.3209249973297119
1.683000087738037,4.957950115203857,7.884000301361084,0.07067500054836273,0.15125000476837158,-0.23897500336170197
1.3819500207901,4.717950344085693,7.615950584411621,-0.08799999952316284,0.12155000120401382,-0.195250004529953
1.2910500764846802,4.450050354003906,7.623000144958496,-0.14327499270439148,-0.043449997901916504,-0.1942874938249588
1.4490001201629639,4.495950222015381,7.173000335693359,-0.08470000326633453,-0.2307250052690506,-0.22302499413490295
1.7260501384735107,4.764000415802002,6.661050319671631,-0.028324998915195465,-0.2147749960422516,-0.23361249268054962
2.449050188064575,5.283000469207764,6.433050155639648,-0.0518375001847744,-0.0658624991774559,-0.2591874897480011
2.6070001125335693,5.842950344085693,8.152950286865234,-0.0017874999903142452,0.3162499964237213,-0.3357749879360199
1.546950101852417,5.374050140380859,6.352050304412842,0.15674999356269836,0.2204124927520752,-0.37619999051094055
0.7780500650405884,5.178000450134277,5.665050506591797,0.10353749990463257,-0.06792499870061874,-0.34540000557899475
0.5410500168800354,5.659050464630127,6.454950332641602,-0.035750001668930054,0.08002500236034393,-0.15386250615119934
1.2229501008987427,6.010950088500977,6.7950005531311035,-0.1825999915599823,0.2363625019788742,-0.030387500301003456
1.3720500469207764,6.38700008392334,7.743000507354736,-0.2656500041484833,0.4035624861717224,-0.01966249942779541
1.0770000219345093,6.4110002517700195,8.064000129699707,-0.19016249477863312,0.4599374830722809,-0.07933750003576279
0.013950000517070293,6.148050308227539,7.276050567626953,-0.09968750178813934,0.4482499957084656,-0.1251250058412552
-0.07605000585317612,6.064050197601318,7.8510003089904785,-0.11769999563694,0.3683624863624573,-0.07617499679327011
0.04800000041723251,6.103950500488281,9.088950157165527,-0.14011250436306,0.2246749997138977,-0.035612501204013824
0.013950000517070293,5.970000267028809,10.023000717163086,-0.16664999723434448,0.15344999730587006,0.014299999922513962
-0.2770500183105469,6.13800048828125,10.567950248718262,-0.170912504196167,0.273624986410141,0.035612501204013824
-1.0720500946044922,6.306000232696533,9.682950019836426,-0.11137499660253525,0.5748875141143799,0.0611874982714653
-1.0519500970840454,6.703050136566162,9.157950401306152,-0.054999999701976776,0.6663249731063843,0.08772499859333038
-0.9589500427246094,6.816000461578369,9.04800033569336,-0.052799999713897705,0.4961000084877014,0.03451250120997429
-0.89205002784729,5.52495002746582,9.28695011138916,-0.147537499666214,0.18535000085830688,0.03135000169277191
-1.2580500841140747,4.6080002784729,10.231050491333008,-0.3390749990940094,0.2662000060081482,0.12718750536441803
-1.8520500659942627,4.330049991607666,10.429950714111328,-0.408237487077713,0.8046500086784363,0.29315000772476196
-1.858950138092041,4.335000038146973,9.225000381469727,-0.2656500041484833,1.140974998474121,0.43683749437332153
-1.6609500646591187,4.915050029754639,8.140950202941895,-0.116737499833107,0.992062509059906,0.4314749836921692
-1.2940500974655151,5.259000301361084,7.678950309753418,-0.11990000307559967,0.5513749718666077,0.38046249747276306
-1.4160000085830688,5.187000274658203,7.591950416564941,-0.25189998745918274,0.35667499899864197,0.3665750026702881
-1.4880000352859497,4.60605001449585,8.014050483703613,-0.439175009727478,0.32257500290870667,0.4729999899864197
-1.1149500608444214,3.957000255584717,8.67495059967041,-0.5658124685287476,0.37578749656677246,0.6411625146865845
-0.820050060749054,3.832050085067749,9.345000267028809,-0.5487625002861023,0.4801499843597412,0.7539125084877014
-0.6450000405311584,3.775050163269043,9.418950080871582,-0.3880249857902527,0.37482500076293945,0.7603750228881836
-0.8149500489234924,3.586050271987915,9.144000053405762,-0.18369999527931213,0.16197499632835388,0.7294374704360962
-0.5860500335693359,3.7270500659942627,8.016000747680664,0.040837500244379044,0.0012374999932944775,0.7911750078201294
-0.23100000619888306,4.278000354766846,7.020000457763672,0.22068749368190765,0.002337499987334013,0.8241750001907349
0.24705001711845398,4.969950199127197,6.4960503578186035,0.3057999908924103,0.05238749831914902,0.8156499862670898
0.20595000684261322,5.283000469207764,6.414000511169434,0.31542500853538513,0.10449999570846558,0.7188500165939331
-0.2939999997615814,5.211000442504883,6.505050182342529,0.29301249980926514,-0.04235000163316727,0.6391000151634216
-0.4849500358104706,5.16795015335083,7.273950576782227,0.28132501244544983,-0.30841249227523804,0.5879499912261963
-0.18300001323223114,5.322000026702881,7.780950546264648,0.3334375023841858,-0.37014999985694885,0.5730999708175659
0.15105000138282776,5.896050453186035,7.807950496673584,0.494174987077713,-0.3265624940395355,0.553849995136261
0.49800002574920654,6.432000160217285,7.729050159454346,0.6549124717712402,-0.32862499356269836,0.49321249127388
0.49605002999305725,6.579000473022461,8.080950736999512,0.7389249801635742,-0.49252501130104065,0.3293125033378601
0.4210500121116638,6.193050384521484,7.91295051574707,0.6643999814987183,-0.6723750233650208,0.21656249463558197
0.5869500041007996,6.195000171661377,8.308050155639648,0.40369999408721924,-0.6276875138282776,0.171875
0.8689500689506531,6.343950271606445,9.520050048828125,0.17489999532699585,-0.3180375099182129,0.14313749969005585
1.128000020980835,6.306000232696533,10.123050689697266,0.19827499985694885,-0.09129999577999115,0.07823749631643295
0.8880000710487366,6.805950164794922,8.830050468444824,0.37716248631477356,-0.09886249899864197,-0.02928750030696392
1.0489500761032104,6.8680500984191895,7.224000453948975,0.4185499846935272,-0.23292499780654907,-0.14313749969005585
1.1710500717163086,6.601950168609619,7.513050556182861,0.219587504863739,-0.39352500438690186,-0.21449999511241913
1.3789501190185547,6.660000324249268,8.421000480651855,-0.015537500381469727,-0.4712125062942505,-0.2857249975204468
1.8870000839233398,6.088050365447998,8.707950592041016,-0.15496249496936798,-0.5340499877929688,-0.33687499165534973
2.0899500846862793,5.476950168609619,9.164999961853027,-0.2827000021934509,-0.49678748846054077,-0.3059374988079071
2.571000099182129,5.235000133514404,10.159050941467285,-0.22206249833106995,-0.11687500029802322,-0.2899875044822693
2.02305006980896,5.161050319671631,9.082050323486328,0.002474999986588955,0.2311374992132187,-0.3059374988079071
0.675000011920929,4.648950099945068,6.321000099182129,0.18548749387264252,0.25561249256134033,-0.28476250171661377
0.5080500245094299,4.4760003089904785,5.145000457763672,0.09184999763965607,-0.1190750002861023,-0.2059749960899353
1.2190500497817993,5.356950283050537,6.615000247955322,-0.14121249318122864,-0.08277499675750732,-0.16128750145435333
1.4440500736236572,5.688000202178955,7.384050369262695,-0.3156999945640564,-0.005087499972432852,-0.17613749206066132
1.4719500541687012,5.45805025100708,7.494000434875488,-0.4030124843120575,0.06613750010728836,-0.1835625022649765
0.9360000491142273,5.122950077056885,7.566000461578369,-0.45196250081062317,0.06929999589920044,-0.15482500195503235
0.675000011920929,4.680000305175781,7.534950256347656,-0.5018749833106995,-0.14024999737739563,-0.11756250262260437
0.7090500593185425,4.390050411224365,7.734000205993652,-0.551925003528595,-0.2583625018596649,-0.09308750182390213
0.9910500645637512,4.354050159454346,8.290950775146484,-0.5263500213623047,-0.1839749962091446,-0.07507500052452087
1.4770500659942627,4.668000221252441,8.41604995727539,-0.39448750019073486,0.028875000774860382,-0.10903749614953995
1.4610000848770142,5.230950355529785,7.647000312805176,-0.20817500352859497,0.24488750100135803,-0.18576249480247498
1.0320000648498535,5.503950119018555,7.128000259399414,-0.05816249921917915,0.27582499384880066,-0.2560249865055084
0.5940000414848328,5.512950420379639,6.916950225830078,-0.008112499490380287,0.10876250267028809,-0.25066250562667847
0.5749500393867493,5.547000408172607,7.279050350189209,-0.03478749841451645,-0.15207499265670776,-0.1985500007867813
0.9030000567436218,5.749950408935547,7.615950584411621,-0.04853750020265579,-0.22866250574588776,-0.1835625022649765
0.6199500560760498,5.797950267791748,7.683000564575195,-0.06132499873638153,-0.1083500012755394,-0.1835625022649765
0.675000011920929,5.728950500488281,7.9110002517700195,-0.04963750019669533,-0.027499999850988388,-0.15798750519752502
0.8880000710487366,5.668950080871582,8.45895004272461,0.007837500423192978,-0.11261250078678131,-0.15592500567436218
0.5410500168800354,5.934000492095947,8.694000244140625,0.11316250264644623,-0.2690874934196472,-0.18039999902248383
0.35895001888275146,6.234000205993652,8.430000305175781,0.18232500553131104,-0.2796750068664551,-0.15798750519752502
0.13905000686645508,6.11400032043457,8.52405071258545,0.15468749403953552,-0.13598750531673431,-0.10064999759197235
0.15600000321865082,5.911050319671631,9.22800064086914,0.12484999746084213,-0.005087499972432852,-0.0005499999970197678
0.3139500021934509,5.817000389099121,9.496050834655762,0.196212500333786,-0.10518749803304672,0.11013749986886978
0.2970000207424164,6.190950393676758,9.430950164794922,0.3484250009059906,-0.3414124846458435,0.17723749577999115
0.004950000438839197,6.5400004386901855,8.377950668334961,0.48454999923706055,-0.3031874895095825,0.17820000648498535
-0.34095001220703125,6.234000205993652,7.549050331115723,0.48028749227523804,-0.18713749945163727,0.29631251096725464
0.453000009059906,6.423000335693359,7.5010504722595215,0.24199999868869781,-0.1722874939441681,0.4442625045776367
1.8079501390457153,6.034950256347656,8.47605037689209,-0.14011250436306,-0.2424124926328659,0.5145249962806702
1.3260000944137573,5.439000129699707,8.868000030517578,-0.49018749594688416,-0.2190375030040741,0.5655375123023987
0.3829500079154968,5.086950302124023,9.685050010681152,-0.6605499982833862,0.17682500183582306,0.6954749822616577
0.5820000171661377,5.07705020904541,10.947000503540039,-0.4295499920845032,0.7919999957084656,0.7731624841690063
0.6919500231742859,5.092050075531006,11.148000717163086,0.11962500214576721,1.0857000350952148,0.608162522315979
-0.07800000160932541,4.948050022125244,9.541050910949707,0.6102250218391418,0.7451124787330627,0.3932499885559082
-0.9880500435829163,4.809000015258789,7.8100504875183105,0.6558749675750732,0.23003749549388885,0.36024999618530273
-0.934950053691864,4.870950222015381,7.216050148010254,0.3026374876499176,-0.021175000816583633,0.5176874995231628
-0.1980000138282776,4.846950054168701,7.53000020980835,-0.19222499430179596,0.11618749797344208,0.6678375005722046
0.3520500063896179,4.785000324249268,8.539950370788574,-0.49334999918937683,0.4045250117778778,0.7167875170707703
0.8280000686645508,4.5169501304626465,9.07395076751709,-0.34127500653266907,0.46736249327659607,0.6474875211715698
0.5820000171661377,4.2270002365112305,8.683950424194336,0.12168750166893005,0.30882498621940613,0.5326749682426453
0.09300000220537186,4.339950084686279,7.377000331878662,0.4973374903202057,0.06929999589920044,0.5378999710083008
0.3060000240802765,4.6369500160217285,6.2989501953125,0.5069624781608582,0.022549999877810478,0.6443250179290771
0.8689500689506531,5.170950412750244,6.148950099945068,0.3111625015735626,0.20239999890327454,0.7347999811172485
1.4989501237869263,5.331000328063965,6.241950511932373,0.21326249837875366,0.2619374990463257,0.6986374855041504
1.4800500869750977,5.440950393676758,6.490950107574463,0.2110625058412552,0.2129874974489212,0.553849995136261
1.068000078201294,5.379000186920166,6.960000514984131,0.2611125111579895,0.10656250268220901,0.46131250262260437
0.7900500297546387,5.118000030517578,7.698000431060791,0.3398999869823456,0.08635000139474869,0.48688748478889465
1.1680500507354736,4.969950199127197,7.63800048828125,0.39201250672340393,0.15028749406337738,0.5592125058174133
2.6170501708984375,6.270000457763672,7.113000392913818,0.39311251044273376,0.18108749389648438,0.48785001039505005
3.229950189590454,7.096050262451172,7.25700044631958,0.39943748712539673,0.26936250925064087,0.1601874977350235
1.9440001249313354,6.8680500984191895,8.871000289916992,0.3983374834060669,0.43326249718666077,-0.020762499421834946
1.0870500802993774,7.3690505027771,9.052950859069824,0.3536500036716461,0.21188749372959137,-0.004812499973922968
2.143050193786621,6.916050434112549,8.006999969482422,0.23980000615119934,-0.1849374920129776,0.04839999973773956
1.6980000734329224,7.551000595092773,8.433000564575195,0.11852499842643738,-0.07535000145435333,0.01759999990463257
2.4280500411987305,7.558050155639648,8.119050025939941,0.020624998956918716,0.27898749709129333,-0.03135000169277191
2.31000018119812,7.146000385284424,8.251049995422363,-0.03258749842643738,0.3651999831199646,-0.18892499804496765
1.9800001382827759,6.901950359344482,8.19105052947998,-0.16142499446868896,0.2704625129699707,-0.3400374948978424
2.2290000915527344,6.127950191497803,8.47095012664795,-0.41786250472068787,0.09377499669790268,-0.41772499680519104
2.0970001220703125,5.269050121307373,9.460050582885742,-0.6285125017166138,0.27898749709129333,-0.3975124955177307
1.9180500507354736,5.013000011444092,9.550950050354004,-0.5902875065803528,0.5216749906539917,-0.2899875044822693
1.9870500564575195,4.948050022125244,8.513999938964844,-0.40617498755455017,0.6153125166893005,-0.27293750643730164
1.603950023651123,4.837950229644775,7.942050457000732,-0.2433750033378601,0.5641624927520752,-0.31872498989105225
1.3650000095367432,4.792050361633301,7.870050430297852,-0.15716250240802765,0.3396250009536743,-0.29534998536109924
1.759950041770935,5.199000358581543,7.654950141906738,-0.13474999368190765,0.1023000031709671,-0.24639999866485596
1.9420500993728638,5.27400016784668,7.449000358581543,-0.18053749203681946,0.08002500236034393,-0.1985500007867813
1.8840000629425049,5.062950134277344,7.26900053024292,-0.2784374952316284,0.2363625019788742,-0.14313749969005585
1.7740501165390015,4.744950294494629,7.197000503540039,-0.42102500796318054,0.37152498960494995,-0.15482500195503235
1.3980001211166382,4.384950160980225,7.377000331878662,-0.5094375014305115,0.3843125104904175,-0.2176624983549118
1.0390501022338867,4.1770501136779785,7.497000217437744,-0.491287499666214,0.3460874855518341,-0.28792500495910645
0.687000036239624,4.479000091552734,7.972950458526611,-0.36355000734329224,0.26936250925064087,-0.3059374988079071
0.8160000443458557,4.740000247955322,7.6620001792907715,-0.17627499997615814,0.1788875013589859,-0.2857249975204468
1.0339500904083252,5.038950443267822,7.2709503173828125,-0.09652499854564667,0.09487500041723251,-0.28049999475479126
1.0530000925064087,5.1469502449035645,6.868950366973877,-0.1358499974012375,0.056512501090765,-0.3209249973297119
0.62295001745224,4.978950023651123,7.044000148773193,-0.23058749735355377,0.0448249988257885,-0.34966251254081726
0.5239500403404236,5.061000347137451,7.389000415802002,-0.26042500138282776,-0.005087499972432852,-0.33041250705718994
0.9150000214576721,5.334000110626221,7.687950134277344,-0.20074999332427979,-0.0849749967455864,-0.32945001125335693
1.0699501037597656,5.488950252532959,7.903950214385986,-0.09858749806880951,-0.08923749625682831,-0.36134999990463257
0.6319500207901001,5.616000175476074,8.113950729370117,-0.0017874999903142452,-0.05829999968409538,-0.38362500071525574
0.4069500267505646,5.695050239562988,8.380050659179688,0.0705375000834465,-0.07218749821186066,-0.36877501010894775
0.21495001018047333,5.776050090789795,8.562000274658203,0.1153625026345253,-0.053075000643730164,-0.3591499924659729
-0.032999999821186066,5.913000106811523,8.800950050354004,0.0812624990940094,-0.004124999977648258,-0.32945001125335693
-0.1380000114440918,5.608950138092041,9.61500072479248,0.025849999859929085,0.08524999767541885,-0.22618749737739563
-0.595050036907196,5.074950218200684,10.0489501953125,0.03231250122189522,0.14066250622272491,-0.10064999759197235
-1.5480000972747803,5.44605016708374,10.257000923156738,0.055687498301267624,0.24818749725818634,-0.020762499421834946
-1.828050136566162,6.088050365447998,9.297000885009766,0.1695374995470047,0.49816250801086426,0.02502499893307686
-1.9000500440597534,6.028050422668457,8.14995002746582,0.234437495470047,0.5982624888420105,-0.01966249942779541
-1.9669500589370728,6.034950256347656,8.418000221252441,0.14932499825954437,0.40246251225471497,-0.11123749613761902
-1.7899501323699951,5.062950134277344,10.207050323486328,0.025849999859929085,0.040562499314546585,-0.17077499628067017
-1.7880001068115234,4.8670501708984375,11.377950668334961,-0.04427500069141388,-0.16266250610351562,-0.07713750004768372
-1.864050030708313,5.107950210571289,10.65000057220459,0.016362499445676804,0.11192499846220016,0.11866249889135361
-1.6870501041412354,5.041050434112549,9.388050079345703,0.172837495803833,0.42377498745918274,0.3144625127315521
-1.6459500789642334,4.945950031280518,8.578950881958008,0.28984999656677246,0.4534749984741211,0.3474625051021576
-1.8379501104354858,4.933950424194336,8.224050521850586,0.27816250920295715,0.16830000281333923,0.3293125033378601
-1.3039500713348389,5.049000263214111,8.305950164794922,0.13337500393390656,-0.021175000816583633,0.3825249969959259
-1.3830000162124634,4.828050136566162,7.767000198364258,0.015262499451637268,-0.05829999968409538,0.49431249499320984
-0.7990500330924988,4.735050201416016,7.075050354003906,-0.12732499837875366,-0.1615625023841858,0.6315374970436096
-0.544950008392334,4.539000034332275,6.862050533294678,-0.22316250205039978,-0.2297624945640564,0.6571124792098999
-0.43995001912117004,4.002000331878662,7.699950218200684,-0.17847499251365662,-0.27541249990463257,0.6209499835968018
0.1770000010728836,4.102950096130371,8.362950325012207,-0.1060125008225441,-0.017875000834465027,0.599637508392334
-0.0010500000789761543,4.600950241088867,7.678950309753418,0.008937500417232513,0.20666250586509705,0.4889499843120575
-0.612000048160553,4.372950077056885,5.791950225830078,0.09515000134706497,-0.14135000109672546,0.4581499993801117
-0.0010500000789761543,4.725000381469727,6.2659502029418945,0.13653749227523804,-0.26688748598098755,0.5347374677658081
0.51705002784729,5.359950065612793,7.324050426483154,0.20679999887943268,-0.32862499356269836,0.4305124878883362
0.14400000870227814,5.259000301361084,7.099050521850586,0.2387000024318695,-0.4563624858856201,0.3059374988079071
0.4600500166416168,5.074950218200684,6.019050121307373,0.15468749403953552,-0.6990500092506409,0.2176624983549118
0.3139500021934509,5.512950420379639,7.446000576019287,0.08442500233650208,-0.6393749713897705,0.15482500195503235
0.6850500106811523,5.866950511932373,8.551950454711914,0.2217874974012375,-0.5670499801635742,0.08030000329017639
0.025950001552700996,6.217050075531006,9.043050765991211,0.44206249713897705,-0.48083749413490295,0.03355000168085098
0.025950001552700996,5.938950061798096,8.338950157165527,0.5761250257492065,-0.5564625263214111,0.05472499877214432
0.7129500508308411,6.2719502449035645,8.22195053100586,0.5037999749183655,-0.706475019454956,0.050462499260902405
1.870050072669983,6.4519500732421875,9.201000213623047,0.39311251044273376,-0.7947499752044678,-0.07823749631643295
1.8580501079559326,6.198000431060791,9.790050506591797,0.37812501192092896,-0.7011125087738037,-0.21876250207424164
1.4050500392913818,6.487950325012207,9.199050903320312,0.4877125024795532,-0.4244624972343445,-0.25382500886917114
1.0320000648498535,6.978000164031982,7.882050514221191,0.5983999967575073,-0.20624999701976776,-0.2644124925136566
1.2709500789642334,6.4710001945495605,8.148000717163086,0.5218124985694885,-0.3265624940395355,-0.23471249639987946
1.7790000438690186,6.49500036239624,8.445000648498535,0.38032498955726624,-0.38609999418258667,-0.30703750252723694
2.01104998588562,6.12600040435791,8.029950141906738,0.1685750037431717,-0.4819374978542328,-0.3665750026702881
2.1859500408172607,5.800050258636475,8.22195053100586,-0.12416250258684158,-0.38513749837875366,-0.28476250171661377
2.6389501094818115,5.752950191497803,8.18595027923584,-0.18053749203681946,-0.33508750796318054,-0.21546250581741333
2.920950174331665,5.544000148773193,6.502950191497803,-0.12416250258684158,-0.21793749928474426,-0.2293500006198883
2.2870500087738037,5.535000324249268,6.60105037689209,-0.24227499961853027,0.12993749976158142,-0.24323749542236328
2.389050006866455,5.842950344085693,7.647000312805176,-0.44866248965263367,0.25561249256134033,-0.164450004696846
2.947050094604492,5.731050491333008,6.4069504737854,-0.5806624889373779,-0.04235000163316727,-0.171875
3.718050241470337,6.078000068664551,7.309950351715088,-0.7860875129699707,0.027775000780820847,-0.2751374840736389
2.3460001945495605,5.431950092315674,9.385950088500977,-0.8051999807357788,0.5620999932289124,-0.30703750252723694
0.32100000977516174,4.146000385284424,9.295050621032715,-0.6062374711036682,0.9186375141143799,-0.11013749986886978
0.05505000427365303,3.5880000591278076,6.121950149536133,-0.6093999743461609,0.7684875130653381,0.148499995470047
0.22005000710487366,3.90405011177063,5.91195011138916,-0.8776624798774719,0.6067875027656555,0.2675749957561493
1.659000039100647,4.8349504470825195,7.32705020904541,-1.0010000467300415,0.42899999022483826,0.23883749544620514
2.0590500831604004,4.9960503578186035,8.770050048828125,-0.8328375220298767,0.4567750096321106,-0.020762499421834946
0.7969500422477722,4.761000156402588,8.926050186157227,-0.45196250081062317,0.57378751039505,-0.15592500567436218
0.4740000367164612,5.068050384521484,8.373000144958496,-0.09226249903440475,0.5535749793052673,-0.09308750182390213
0.843000054359436,5.599050045013428,8.044950485229492,0.13227500021457672,0.39077499508857727,-0.09955000132322311
1.1059499979019165,5.635050296783447,8.19795036315918,0.22811250388622284,0.24598750472068787,-0.171875
0.8239500522613525,5.484000205993652,8.1739501953125,0.26963749527931213,0.2087250053882599,-0.23251250386238098
0.5869500041007996,5.85105037689209,7.6620001792907715,0.23127499222755432,0.1821874976158142,-0.21972499787807465
0.6540000438690186,6.090000152587891,7.333950519561768,0.13227500021457672,0.2311374992132187,-0.164450004696846
0.6660000085830688,6.085050106048584,7.582950592041016,0.06421250104904175,0.21188749372959137,-0.13887499272823334
0.2939999997615814,5.90595006942749,8.089950561523438,0.048262499272823334,0.15234999358654022,-0.13144999742507935
0.18195000290870667,5.974950313568115,8.992950439453125,0.08442500233650208,0.1788875013589859,-0.07397499680519104
-0.043950002640485764,5.772000312805176,9.325950622558594,0.18878750503063202,0.14602500200271606,-0.015399999916553497
-0.14505000412464142,5.511000156402588,9.486000061035156,0.234437495470047,0.033137500286102295,0.06655000150203705
-0.030000001192092896,5.986950397491455,9.357000350952148,0.19401249289512634,0.0672374963760376,0.07713750004768372
-0.6169500350952148,6.2820000648498535,8.657999992370605,0.12484999746084213,0.3205125033855438,0.014299999922513962
-1.0999500751495361,6.424950122833252,8.70300006866455,0.05252499878406525,0.42157500982284546,-0.023924998939037323
-1.495050072669983,6.327000141143799,8.959050178527832,-0.025162499397993088,0.3205125033855438,-0.09638749808073044
-1.6770000457763672,5.259000301361084,9.148950576782227,-0.18796250224113464,0.07672499865293503,-0.028187500312924385
-1.171950101852417,4.231950283050537,10.14900016784668,-0.3891249895095825,-0.12856249511241913,0.16967499256134033
-0.595050036907196,4.323000431060791,10.140000343322754,-0.4030124843120575,0.006599999964237213,0.30277499556541443
-0.5640000104904175,4.488000392913818,9.072000503540039,-0.25286251306533813,0.31308749318122864,0.35708749294281006
-0.7870500087738037,4.761000156402588,8.290950775146484,-0.008112499490380287,0.5333625078201294,0.3676750063896179
-1.1149500608444214,5.046000003814697,7.683000564575195,0.20679999887943268,0.4525125026702881,0.3283500075340271
-1.4479501247406006,5.350050449371338,7.341000556945801,0.24199999868869781,0.2895750105381012,0.3452624976634979
-1.4520000219345093,5.2860002517700195,6.9910502433776855,0.06311249732971191,0.18314999341964722,0.4283125102519989
-1.3950001001358032,4.945950031280518,7.405950546264648,-0.23594999313354492,0.16940000653266907,0.5113624930381775
-1.287000060081482,4.4070000648498535,8.482950210571289,-0.44440001249313354,0.19593749940395355,0.5666375160217285
-1.227000117301941,4.201050281524658,9.498000144958496,-0.43697500228881836,0.20019999146461487,0.5922124981880188
-0.7750500440597534,4.261050224304199,9.53895092010498,-0.19965000450611115,0.12787500023841858,0.5773624777793884
-0.7339500188827515,4.330049991607666,8.263050079345703,0.045099999755620956,0.05224999785423279,0.5081999897956848
-0.9280500411987305,4.471950054168701,7.396050453186035,0.057887498289346695,0.1023000031709671,0.5006374716758728
-0.6430500149726868,4.660950183868408,7.185000419616699,0.016362499445676804,0.18645000457763672,0.5187875032424927
-0.4129500091075897,4.873950004577637,6.984000205993652,0.04399999976158142,0.1555124968290329,0.5124624967575073
-0.24795001745224,5.251950263977051,7.069950103759766,0.11852499842643738,0.002337499987334013,0.47093749046325684
-0.19095000624656677,5.403000354766846,7.0819501876831055,0.14726249873638153,-0.09350000321865082,0.3964124917984009
-0.018000001087784767,5.16795015335083,7.470000267028809,0.10147500038146973,-0.10724999755620956,0.33041250705718994
-0.16395001113414764,5.187000274658203,7.71405029296875,0.05362499877810478,-0.05623750016093254,0.27719998359680176
-0.2959500253200531,5.403000354766846,7.89900016784668,0.045099999755620956,-0.04138749837875366,0.24213749170303345
0.013950000517070293,5.692950248718262,8.160000801086426,0.1046374961733818,-0.10944999754428864,0.1835625022649765
0.1579500138759613,5.86305046081543,8.290950775146484,0.19827499985694885,-0.1307625025510788,0.08566249907016754
0.28005000948905945,5.776050090789795,8.91195011138916,0.27390000224113464,-0.16898749768733978,0.010037500411272049
0.18405000865459442,5.464950084686279,9.355050086975098,0.3185875117778778,-0.2913624942302704,-0.0037124999798834324
0.3450000286102295,5.26200008392334,9.856950759887695,0.29411250352859497,-0.4595249891281128,0.04633750021457672
0.7999500632286072,5.925000190734863,9.62505054473877,0.2536875009536743,-0.45210000872612,0.0611874982714653
0.8380500674247742,6.235950469970703,8.425950050354004,0.23237499594688416,-0.24461250007152557,-0.037812501192092896
1.276050090789795,5.769000053405762,8.434950828552246,0.1504250019788742,-0.16472500562667847,-0.11866249889135361
1.0939500331878662,5.949000358581543,9.204000473022461,0.08758749812841415,-0.22866250574588776,-0.3283500075340271
1.068000078201294,5.344950199127197,9.642000198364258,0.015262499451637268,-0.38087499141693115,-0.3975124955177307
1.264050006866455,4.768050193786621,10.0489501953125,-0.11563749611377716,-0.3254624903202057,-0.33687499165534973
1.1560500860214233,4.756050109863281,9.685050010681152,-0.20184999704360962,-0.015812499448657036,-0.254925012588501
1.2160500288009644,4.812000274658203,8.659950256347656,-0.20391249656677246,0.2012999951839447,-0.2176624983549118
1.264050006866455,4.98900032043457,8.13794994354248,-0.1060125008225441,0.113987497985363,-0.2623499929904938
1.350000023841858,5.086950302124023,8.047050476074219,-0.017737500369548798,-0.0658624991774559,-0.31556248664855957
0.895050048828125,5.092050075531006,7.966050148010254,-0.014574999921023846,-0.15303750336170197,-0.29961249232292175
1.0579500198364258,4.972050189971924,8.092950820922852,-0.0752125009894371,-0.07438749819993973,-0.18150000274181366
1.0080000162124634,4.909950256347656,8.074049949645996,-0.13048750162124634,-0.004124999977648258,-0.11659999936819077
0.7489500641822815,4.713000297546387,7.693050384521484,-0.19112500548362732,0.0012374999932944775,-0.1069749966263771
0.690000057220459,4.405050277709961,7.863000392913818,-0.2050125002861023,-0.043449997901916504,-0.11013749986886978
0.7399500608444214,4.315950393676758,7.972950458526611,-0.10078749805688858,-0.04455000162124634,-0.12086249887943268
0.8790000677108765,4.534049987792969,7.057950496673584,0.0004124999977648258,-0.04881250113248825,-0.09638749808073044
1.5370501279830933,5.022000312805176,7.125000476837158,0.0471624992787838,-0.1498750001192093,-0.11866249889135361
1.26705002784729,4.974000453948975,7.600050449371338,0.1270499974489212,0.2129874974489212,-0.15798750519752502
0.4410000145435333,4.90500020980835,6.052950382232666,0.1344749927520752,0.16513749957084656,-0.17407499253749847
0.19200000166893005,4.857000350952148,5.914050102233887,-0.05389999970793724,-0.018975000828504562,-0.10161250084638596
1.0080000162124634,5.422050476074219,7.31505012512207,-0.19442500174045563,-0.09239999949932098,-0.06228749826550484
1.3530000448226929,5.683050155639648,8.1739501953125,-0.15070000290870667,0.016087500378489494,-0.1377750039100647
0.6390000581741333,6.001950263977051,8.73705005645752,-0.018837500363588333,0.24818749725818634,-0.14959999918937683
0.31095001101493835,5.920050144195557,8.116950035095215,0.17173749208450317,0.17998750507831573,-0.11659999936819077
0.7519500255584717,6.016050338745117,8.140950202941895,0.2387000024318695,0.021449999883770943,-0.09212499856948853
0.5290500521659851,5.998950481414795,8.398950576782227,0.26001250743865967,0.056512501090765,-0.15702499449253082
0.13199999928474426,5.908050060272217,8.542950630187988,0.21752500534057617,0.07782500237226486,-0.13144999742507935
-0.10005000233650208,5.614050388336182,9.333000183105469,0.09721250087022781,0.06187500059604645,-0.015399999916553497
0.31800001859664917,5.779050350189209,10.069950103759766,0.06104999780654907,0.1779250055551529,0.0952875018119812
-0.05400000140070915,6.343950271606445,9.466950416564941,0.15152500569820404,0.4875749945640564,0.07919999957084656
-0.5860500335693359,6.342000484466553,8.278950691223145,0.20473749935626984,0.4599374830722809,0.07177499681711197
-0.8610000610351562,6.648000240325928,7.65000057220459,0.0695749968290329,0.3470500111579895,0.01966249942779541
-0.7240500450134277,6.066000461578369,7.918050289154053,-0.26042500138282776,0.2619374990463257,0.014299999922513962
-0.6169500350952148,4.873950004577637,9.193950653076172,-0.5913875102996826,0.2886124849319458,0.07177499681711197
-1.194000005722046,4.2970499992370605,9.86205005645752,-0.6776000261306763,0.5695250034332275,0.17297500371932983
-1.120050072669983,4.242000102996826,9.733050346374512,-0.476437509059906,0.769587516784668,0.30387499928474426
-1.2780001163482666,4.570050239562988,8.959050178527832,-0.13901250064373016,0.779212474822998,0.3091000020503998
-1.689000129699707,4.909950256347656,8.026050567626953,0.06641250103712082,0.622737467288971,0.2569875121116638
-1.9810501337051392,5.269050121307373,7.908000469207764,0.02488750033080578,0.37908750772476196,0.21546250581741333
-1.9789501428604126,5.367000102996826,8.513999938964844,-0.11879999935626984,0.1970375031232834,0.2441999912261963
-1.5739500522613525,5.119950294494629,8.908950805664062,-0.2209624946117401,0.06833750009536743,0.31872498989105225
-1.3570500612258911,4.689000129699707,8.991000175476074,-0.3114374876022339,0.03849999979138374,0.3730374872684479
-1.3470001220703125,4.311000347137451,8.822999954223633,-0.4147000014781952,0.07672499865293503,0.41552498936653137
-1.162950038909912,3.9900002479553223,8.634000778198242,-0.46254998445510864,0.10339999943971634,0.45704999566078186
-0.8800500631332397,3.945000171661377,8.566950798034668,-0.4104374945163727,0.13103750348091125,0.45925000309944153
-0.7440000176429749,4.1579999923706055,7.99500036239624,-0.2827000021934509,0.2129874974489212,0.4442625045776367
-0.8680500388145447,4.588950157165527,7.420050144195557,-0.13474999368190765,0.3587374985218048,0.469837486743927
-0.9019500613212585,4.833000183105469,7.164000511169434,0.0471624992787838,0.3854124844074249,0.5369374752044678
-0.9469500184059143,4.929000377655029,6.783000469207764,0.19731250405311584,0.1671999990940094,0.5890499949455261
-0.7800000309944153,5.299950122833252,6.643950462341309,0.20679999887943268,-0.11687500029802322,0.590149998664856
-0.45600003004074097,5.443950176239014,6.904950141906738,0.05458749830722809,-0.20624999701976776,0.553849995136261
-0.14295001327991486,5.392950057983398,7.699950218200684,-0.07947500050067902,-0.10628750175237656,0.4954124987125397
-0.22200001776218414,5.401050090789795,8.277000427246094,-0.06132499873638153,0.07039999961853027,0.4123624861240387
-0.5520000457763672,5.419950485229492,8.755949974060059,0.059950001537799835,0.20666250586509705,0.3665750026702881
-0.544950008392334,5.419950485229492,8.878050804138184,0.2494249939918518,0.09913749992847443,0.3283500075340271
-0.41100001335144043,5.523000240325928,8.584050178527832,0.3398999869823456,-0.1541374921798706,0.22618749737739563
-0.3439500033855438,5.640000343322754,8.449049949645996,0.20899999141693115,-0.2381500005722046,0.15482500195503235
-0.10695000737905502,5.623050212860107,8.940000534057617,0.02914999984204769,-0.16376249492168427,0.13144999742507935
0.1579500138759613,5.590050220489502,9.631950378417969,0.0705375000834465,-0.07864999771118164,0.12402500212192535
0.32100000977516174,5.554050445556641,9.559950828552246,0.30896249413490295,-0.08813749998807907,0.0728750005364418
0.0070500001311302185,5.901000499725342,8.821050643920898,0.48358750343322754,-0.2116124927997589,-0.0728750005364418
-0.05895000323653221,5.3359503746032715,8.253000259399414,0.40053749084472656,-0.2829749882221222,-0.15908749401569366
0.325950026512146,5.479950428009033,8.18595027923584,0.1046374961733818,-0.16898749768733978,-0.17077499628067017
0.5890500545501709,5.500950336456299,8.430000305175781,-0.1634874939918518,-0.17544999718666077,-0.2793999910354614
0.45705002546310425,4.89300012588501,8.887950897216797,-0.3338499963283539,-0.19772499799728394,-0.3081375062465668
0.49800002574920654,4.609950065612793,9.496050834655762,-0.37427499890327454,-0.1317249983549118,-0.2910875082015991
0.6300000548362732,4.5169501304626465,9.534000396728516,-0.3082749843597412,0.11082500219345093,-0.29961249232292175
0.6030000448226929,4.510050296783447,9.256050109863281,-0.14327499270439148,0.18424999713897705,-0.2782999873161316
0.5440500378608704,4.291950225830078,8.883000373840332,0.06847500056028366,-0.0009624999947845936,-0.29218751192092896
0.42600002884864807,4.371000289916992,8.311050415039062,0.18658749759197235,-0.09129999577999115,-0.3016749918460846
0.51705002784729,4.764000415802002,7.663950443267822,0.12911249697208405,0.005499999970197678,-0.2708750069141388
0.5989500284194946,4.960050106048584,7.693050384521484,-0.04427500069141388,0.1363999992609024,-0.22824999690055847
0.18195000290870667,4.736999988555908,8.22195053100586,-0.1634874939918518,0.15125000476837158,-0.18892499804496765
-0.009000000543892384,4.342050075531006,8.422950744628906,-0.2167000025510788,-0.06792499870061874,-0.12828749418258667
0.2179500162601471,4.22504997253418,8.320050239562988,-0.2241249978542328,-0.3297249972820282,-0.11976250261068344
0.6490500569343567,4.278000354766846,8.047050476074219,-0.16458749771118164,-0.3020874857902527,-0.15798750519752502
0.9220500588417053,4.4160003662109375,7.875000476837158,-0.05926249921321869,-0.09776250272989273,-0.23361249268054962
0.9120000600814819,4.543050289154053,7.839000225067139,0.020624998956918716,-0.05197500064969063,-0.2825624942779541
0.5820000171661377,4.843050003051758,8.047050476074219,0.05362499877810478,-0.1317249983549118,-0.25066250562667847
0.46905001997947693,5.073000431060791,7.753050327301025,0.07906249910593033,-0.10408750176429749,-0.18039999902248383
0.48405003547668457,5.215950012207031,7.33905029296875,0.06847500056028366,0.056512501090765,-0.13255000114440918
0.47895002365112305,5.298000335693359,7.393950462341309,0.06737499684095383,0.1438249945640564,-0.11013749986886978
0.5359500050544739,5.269050121307373,7.7500505447387695,0.1461624950170517,-0.009349999949336052,-0.12182500213384628
0.21300001442432404,5.266050338745117,7.6710004806518555,0.20679999887943268,-0.22550000250339508,-0.14313749969005585
0.1770000010728836,5.635050296783447,7.132950305938721,0.14506250619888306,-0.33934998512268066,-0.09308750182390213
0.364050030708313,6.013050079345703,7.686000347137451,0.048262499272823334,-0.568149983882904,-0.04743750020861626
0.5700000524520874,5.403000354766846,9.412050247192383,0.06847500056028366,-0.16692499816417694,0.030249999836087227
0.4020000100135803,4.953000068664551,9.934050559997559,0.19511249661445618,0.13323749601840973,0.12072499841451645
-0.527999997138977,5.341050148010254,9.208050727844238,0.2759625017642975,-0.09776250272989273,0.19634999334812164
-0.3840000033378601,5.709000110626221,9.295050621032715,0.24406249821186066,-0.15523749589920044,0.31652501225471497
-0.17595000565052032,6.081000328063965,9.370950698852539,0.22591249644756317,0.1597750037908554,0.26977500319480896
-0.781950056552887,6.166950225830078,8.296050071716309,0.21216249465942383,0.4386250078678131,0.21546250581741333
-1.0879501104354858,6.432000160217285,7.630950450897217,-0.026262499392032623,0.46309998631477356,0.20913749933242798
-0.6190500259399414,6.037050247192383,8.742000579833984,-0.41359999775886536,0.33646249771118164,0.2186249941587448
-0.6360000371932983,4.929000377655029,10.908000946044922,-0.6668750047683716,0.11824999749660492,0.19841249287128448
-1.519050121307373,4.052999973297119,11.550000190734863,-0.5583875179290771,0.23319999873638153,0.255887508392334
-1.636950135231018,4.207950115203857,10.293000221252441,-0.23375000059604645,0.5141124725341797,0.44536250829696655
-0.9280500411987305,5.235000133514404,8.797050476074219,0.10889999568462372,0.6876375079154968,0.49114999175071716
-1.1670000553131104,5.91795015335083,7.939050197601318,0.2876499891281128,0.6620625257492065,0.3932499885559082
-1.6939500570297241,5.920050144195557,7.935000419616699,0.3004375100135803,0.5024250149726868,0.32298749685287476
-2.0029501914978027,5.566050052642822,8.002050399780273,0.1695374995470047,0.1788875013589859,0.3315125107765198
-1.821000099182129,5.182950019836426,7.7719502449035645,-0.08057499676942825,-0.004124999977648258,0.4464625120162964
-1.3920000791549683,4.828050136566162,8.116950035095215,-0.3242250084877014,-0.03396249935030937,0.561412513256073
-1.0810500383377075,4.420950412750244,8.806050300598145,-0.38279998302459717,0.11824999749660492,0.6166874766349792
-0.8610000610351562,4.122000217437744,8.785050392150879,-0.20391249656677246,0.3577750027179718,0.6326375007629395
-0.5070000290870667,4.384950160980225,8.088000297546387,0.1344749927520752,0.49293750524520874,0.6315374970436096
-0.3439500033855438,4.744950294494629,6.867000102996826,0.45374998450279236,0.4844124913215637,0.6294749975204468
-0.4230000078678131,4.924050331115723,5.695950508117676,0.6133875250816345,0.4758875072002411,0.6135249733924866
-0.5500500202178955,5.278050422668457,5.458950042724609,0.5983999967575073,0.3651999831199646,0.5506874918937683
-0.6769500374794006,5.662050247192383,5.533050060272217,0.5101249814033508,0.14066250622272491,0.5048999786376953
-0.09495000541210175,6.034950256347656,5.725050449371338,0.37290000915527344,-0.1073874980211258,0.5113624930381775
0.22305001318454742,5.901000499725342,5.904000282287598,0.1621125042438507,-0.22550000250339508,0.48688748478889465
0.20805001258850098,5.371950149536133,6.2749505043029785,-0.04963750019669533,-0.28187498450279236,0.41552498936653137
0.13905000686645508,4.885950088500977,7.219050407409668,-0.20391249656677246,-0.45210000872612,0.28036248683929443
-0.10695000737905502,4.675050258636475,8.17199993133545,-0.21353749930858612,-0.5021499991416931,0.16651250422000885
-0.11400000751018524,4.8949503898620605,8.236050605773926,-0.18479999899864197,-0.489362508058548,0.09624999761581421
0.3570000231266022,5.209050178527832,8.44005012512207,-0.24227499961853027,-0.5319874882698059,0.025987500324845314
1.0249500274658203,5.2260003089904785,9.738000869750977,-0.27101248502731323,-0.4713499844074249,-0.11756250262260437
1.7239500284194946,5.476950168609619,11.113950729370117,-0.16458749771118164,-0.47657498717308044,-0.34113749861717224
1.6519501209259033,6.243000507354736,11.098050117492676,-0.0006874999962747097,-0.4754749834537506,-0.5741999745368958
0.9670500755310059,6.246000289916992,10.020000457763672,0.06421250104904175,-0.30951249599456787,-0.6624749898910522
0.8620500564575195,5.958000183105469,9.838050842285156,-0.037950001657009125,-0.17008750140666962,-0.5677375197410583
1.5610500574111938,5.785950183868408,10.068000793457031,-0.17943750321865082,-0.12856249511241913,-0.5295125246047974
1.738050103187561,5.17995023727417,10.329000473022461,-0.29438748955726624,-0.2307250052690506,-0.6209499835968018
1.543950080871582,4.572000026702881,10.549050331115723,-0.3348124921321869,-0.37014999985694885,-0.6848874688148499
0.9220500588417053,4.654050350189209,10.390950202941895,-0.2092749923467636,-0.48730000853538513,-0.6721000075340271
1.111050009727478,4.515000343322754,9.48900032043457,0.08758749812841415,-0.6148999929428101,-0.6274124979972839
1.237950086593628,4.527000427246094,8.457000732421875,0.4185499846935272,-0.6478999853134155,-0.5667750239372253
1.6780500411987305,4.717950344085693,7.504050254821777,0.6632999777793884,-0.6213625073432922,-0.4772624969482422
1.7650500535964966,5.025000095367432,6.409950256347656,0.7207750082015991,-0.606374979019165,-0.45704999566078186
1.4050500392913818,5.269050121307373,5.775000095367432,0.5867124795913696,-0.6447374820709229,-0.5667750239372253
1.0939500331878662,4.969950199127197,5.851950168609619,0.3451249897480011,-0.8267874717712402,-0.6092625260353088
1.1779500246047974,4.8949503898620605,5.7270002365112305,-0.0006874999962747097,-0.8075374960899353,-0.5028374791145325
1.602000117301941,4.699050426483154,6.067050457000732,-0.36684998869895935,-0.5937250256538391,-0.41772499680519104
1.8649500608444214,4.776000022888184,6.643950462341309,-0.597712516784668,-0.45319998264312744,-0.49857500195503235
1.2280501127243042,4.600950241088867,7.470000267028809,-0.6850249767303467,-0.39256250858306885,-0.6146249771118164
1.9699500799179077,4.7659502029418945,9.103050231933594,-0.5806624889373779,-0.12430000305175781,-0.6624749898910522
2.1859500408172607,5.392950057983398,9.529050827026367,-0.35186249017715454,0.07039999961853027,-0.7837499976158142
0.8620500564575195,5.428950309753418,8.46405029296875,-0.1816374957561493,0.2545124888420105,-0.7816874980926514
0.07905000448226929,5.338050365447998,7.129950523376465,-0.2730749845504761,0.39077499508857727,-0.4464625120162964
0.5940000414848328,5.676000118255615,6.880950450897217,-0.5020124912261963,0.4067249894142151,-0.13255000114440918
1.0890001058578491,5.908050060272217,8.029950141906738,-0.5391374826431274,0.22357499599456787,-0.11013749986886978
1.0579500198364258,5.914950370788574,8.974050521850586,-0.25712499022483826,-0.043449997901916504,-0.20803749561309814
0.5719500184059143,6.094950199127197,8.857050895690918,0.07163749635219574,-0.2340250015258789,-0.18150000274181366
0.5910000205039978,6.492000102996826,8.269950866699219,0.23127499222755432,-0.1264999955892563,-0.058024998754262924
0.8880000710487366,6.472950458526611,7.525050163269043,0.19511249661445618,0.33329999446868896,0.043037500232458115
0.4600500166416168,6.234000205993652,7.6210503578186035,0.03863750025629997,0.7866374850273132,0.09844999760389328
-0.527999997138977,6.097050189971924,8.493000030517578,-0.05389999970793724,0.9079124927520752,0.16335000097751617
-1.1359500885009766,6.279000282287598,8.758049964904785,-0.0635249987244606,0.8122124671936035,0.2601499855518341
-1.27305006980896,6.631050109863281,7.9800004959106445,-0.14217500388622284,0.8930624723434448,0.30483749508857727
-1.0380001068115234,6.555000305175781,7.309950351715088,-0.36465001106262207,1.3230249881744385,0.2942500114440918
-1.024049997329712,6.5809502601623535,7.261950492858887,-0.6221874952316284,1.7965749502182007,0.22824999690055847
-1.4830501079559326,6.190950393676758,8.326950073242188,-0.791450023651123,1.9944374561309814,0.1611499935388565
-1.5619500875473022,4.735050201416016,9.832950592041016,-0.7158250212669373,1.7954750061035156,0.202674999833107
-0.7270500063896179,4.102950096130371,11.065950393676758,-0.5009124875068665,1.8550125360488892,0.13997499644756317
-1.4880000352859497,5.15595006942749,9.445050239562988,-0.3870624899864197,2.4244000911712646,0.016499999910593033
-3.1549501419067383,4.800000190734863,6.388050079345703,-0.5339124798774719,2.176487445831299,-0.004812499973922968
-4.440000057220459,4.096050262451172,6.711000442504883,-0.5126000046730042,0.7994250059127808,0.21972499787807465
-5.383950233459473,5.233050346374512,7.923000335693359,-0.028324998915195465,-0.7022125124931335,0.4815250039100647
-4.219950199127197,6.025050163269043,6.23205041885376,0.35475000739097595,-1.375825047492981,0.49211248755455017
-4.050000190734863,3.985950231552124,5.482950210571289,-0.0635249987244606,-1.0257500410079956,0.30483749508857727
-2.956050157546997,2.9629502296447754,7.1010003089904785,-0.7020750045776367,0.2928749918937683,0.7006999850273132
-2.4460501670837402,3.436950206756592,7.827000141143799,-0.9372000098228455,1.2548249959945679,1.129699945449829
-2.7720000743865967,4.966950416564941,7.723950386047363,-0.6711375117301941,1.4059374332427979,1.36166250705719
-1.327950119972229,5.920050144195557,6.478950500488281,-0.36781248450279236,1.1548625230789185,1.195562481880188
0.226950004696846,4.776000022888184,5.731950283050537,-0.5774999856948853,1.2612874507904053,0.6730625033378601
0.04500000178813934,4.156050205230713,6.172950267791748,-1.0797874927520752,1.2495999336242676,0.544362485408783
-0.39900001883506775,4.486050128936768,6.826050281524658,-1.3074874877929688,0.9121749997138977,0.8338000178337097
0.09600000083446503,4.639050006866455,7.408050537109375,-1.2585375308990479,0.5237374901771545,0.8753250241279602
0.12195000797510147,4.243950366973877,8.302950859069824,-1.3447500467300415,0.4162124991416931,0.5730999708175659
-1.1050500869750977,3.406050205230713,9.766050338745117,-1.294837474822998,0.5333625078201294,0.33783748745918274
-2.1730501651763916,2.7169501781463623,10.992000579833984,-0.8754624724388123,0.23319999873638153,0.35378751158714294
-2.1949501037597656,2.884050130844116,11.22705078125,-0.25712499022483826,-0.032862499356269836,0.5964750051498413
-1.327950119972229,3.5710501670837402,10.069950103759766,0.19401249289512634,-0.15950000286102295,0.7422249913215637
-0.13305000960826874,3.6190502643585205,8.875950813293457,0.23553749918937683,-0.23718750476837158,0.4496249854564667
-0.9589500427246094,3.555000066757202,8.887950897216797,0.028049999848008156,-0.8171625137329102,-0.13461250066757202
-3.085050106048584,2.5320000648498535,9.892950057983398,-0.0411125011742115,-1.5015000104904175,-0.6624749898910522
-3.085050106048584,1.6200001239776611,10.213950157165527,0.0929500013589859,-2.2006874084472656,-0.888112485408783
-0.527999997138977,0.6690000295639038,9.928950309753418,0.055687498301267624,-2.659250020980835,-1.1903375387191772
1.3240500688552856,0.5190000534057617,9.261000633239746,-0.25189998745918274,-2.8859875202178955,-1.8363125324249268
1.4839500188827515,-0.89805006980896,10.120950698852539,-0.8967750072479248,-1.861199975013733,-2.5705626010894775
-1.0330500602722168,-2.5879502296447754,11.731950759887695,-1.6545374393463135,0.2704625129699707,-2.883512496948242
-4.507050037384033,-2.1720001697540283,12.726000785827637,-1.9790375232696533,1.6560499668121338,-2.439662456512451
-3.9970502853393555,-1.1970000267028809,12.163050651550293,-1.6438125371932983,1.9369624853134155,-1.2839750051498413
-1.596000075340271,0.21900001168251038,12.094050407409668,-1.153212547302246,1.056962490081787,-0.4815250039100647
-0.3730500042438507,0.2959500253200531,12.355051040649414,-0.849887490272522,0.5259374976158142,-0.6699000000953674
-2.009999990463257,-1.4410500526428223,12.622950553894043,-0.8372374773025513,0.7056499719619751,-1.4489749670028687
-4.5769500732421875,-2.5759501457214355,12.121950149536133,-0.7402999997138977,1.2132999897003174,-1.6288249492645264
-5.4340500831604,-2.8159501552581787,11.007000923156738,-0.4657124876976013,1.1643500328063965,-0.9615374803543091
-4.5960001945495605,-1.6399500370025635,10.731000900268555,-0.1518000066280365,0.8685874938964844,-0.13461250066757202
-3.145050048828125,-0.44805002212524414,10.743000984191895,0.10037499666213989,0.8962249755859375,0.254925012588501
-2.4100501537323,0.12105000764131546,9.86205005645752,0.31212499737739563,1.4218875169754028,0.164450004696846
-3.009000062942505,0.4300500154495239,8.2339506149292,0.4643374979496002,1.8870500326156616,0.002612499985843897
-3.8869502544403076,1.0690500736236572,6.922050476074219,0.4717625081539154,1.8870500326156616,0.08249999582767487
-3.8970000743865967,1.6200001239776611,6.450000286102295,0.35048750042915344,1.5815249681472778,0.19951249659061432
-3.684000253677368,1.8330000638961792,6.358950138092041,0.2110625058412552,1.3708750009536743,0.1611499935388565
-4.25100040435791,2.0650501251220703,6.418950080871582,0.1695374995470047,1.2197624444961548,0.08882500231266022
-4.60605001449585,1.8709501028060913,6.619950294494629,0.26317501068115234,0.8504375219345093,0.08992499858140945
-4.942950248718262,1.7040001153945923,6.9310503005981445,0.3515875041484833,0.4258374869823456,0.08139999955892563
-5.793000221252441,1.6609500646591187,7.300050258636475,0.31638750433921814,0.31088748574256897,0.04729999974370003
-6.6220502853393555,1.8139500617980957,7.755000591278076,0.1993750035762787,0.3651999831199646,0.050462499260902405
-6.6220502853393555,1.4119501113891602,8.143050193786621,0.08236250281333923,0.620537519454956,0.11756250262260437
-6.930000305175781,1.3639500141143799,8.631000518798828,0.05458749830722809,0.7471749782562256,0.3335750102996826
-7.110000133514404,1.4910000562667847,8.566950798034668,0.15248750150203705,0.7673875093460083,0.6092625260353088
-6.504000186920166,1.5529500246047974,8.101950645446777,0.3185875117778778,0.6184750199317932,0.830637514591217
-5.616000175476074,1.9240500926971436,7.558950424194336,0.3866499960422516,0.4620000123977661,0.8571749925613403
-5.161050319671631,2.061000108718872,7.276050567626953,0.2866874933242798,0.3003000020980835,0.6283749938011169
-5.57295036315918,1.8229501247406006,7.329000473022461,0.1461624950170517,-0.02213750034570694,0.2633124887943268
-7.069050312042236,2.4340500831604004,8.224050521850586,-0.06888750195503235,-0.3254624903202057,0.020762499421834946
-7.528950214385986,1.981950044631958,9.156000137329102,-0.1742125004529953,-0.2616625130176544,-0.03987500071525574
-7.144050121307373,0.9880500435829163,8.845050811767578,-0.052799999713897705,0.11508750170469284,-0.022962499409914017
-6.715050220489502,0.5710500478744507,7.438950538635254,0.06627500057220459,0.5205749869346619,0.03135000169277191
-7.029000282287598,0.6220500469207764,6.2440505027771,-0.009212499484419823,0.668524980545044,0.05376249924302101
-8.056050300598145,0.595050036907196,5.8660502433776855,-0.25616249442100525,0.7302625179290771,0.15262499451637268
-8.712000846862793,0.8059500455856323,6.0169501304626465,-0.5561875104904175,0.7556999921798706,0.5017374753952026
-8.01300048828125,1.5600000619888306,6.541050434112549,-0.7999749779701233,0.5971624851226807,0.9838125109672546
-6.322050094604492,2.2710001468658447,7.033950328826904,-0.8722999691963196,0.40136250853538513,1.1913000345230103
-5.322000026702881,2.5849502086639404,7.42995023727417,-0.8073999881744385,0.21408750116825104,0.9997624754905701
-5.263950347900391,2.518050193786621,7.693050384521484,-0.6765000224113464,0.22783750295639038,0.6815875172615051
-5.85105037689209,2.3910000324249268,7.71405029296875,-0.5328124761581421,0.39393749833106995,0.5816249847412109
-5.869950294494629,2.448000192642212,6.960000514984131,-0.37537500262260437,0.3854124844074249,0.7167875170707703
-5.488950252532959,2.527050018310547,6.1080002784729,-0.2741749882698059,0.1597750037908554,0.8241750001907349
-5.821950435638428,2.281050205230713,5.7370500564575195,-0.2656500041484833,-0.3297249972820282,0.8007999658584595
-7.43595027923584,1.1239500045776367,6.160950183868408,-0.34443750977516174,-0.7522624731063843,0.7752249836921692
-8.187000274658203,0.27195000648498535,7.165950298309326,-0.3231250047683716,-1.1151249408721924,1.0614999532699585
-7.0000505447387695,0.4440000355243683,8.232000350952148,-0.10284999758005142,-1.4375624656677246,1.5904624462127686
-4.82295036315918,1.467000126838684,8.590950012207031,0.15358750522136688,-1.2810875177383423,1.799049973487854
-3.2700002193450928,2.5660500526428223,8.13794994354248,0.227012500166893,-0.7788000106811523,1.5415124893188477
-2.4940500259399414,3.1519501209259033,7.72605037689209,0.1504250019788742,-0.37757501006126404,1.0679625272750854
-2.527050018310547,3.1120500564575195,7.8409504890441895,0.09927500039339066,-0.14135000109672546,0.5783249735832214
-3.6979501247406006,2.058000087738037,8.47095012664795,0.0695749968290329,0.24392500519752502,0.255887508392334
-4.663050174713135,2.0029501914978027,8.710050582885742,-0.0017874999903142452,0.7334250211715698,0.3091000020503998
-4.651050090789795,2.218950033187866,8.835000038146973,-0.01979999989271164,0.8930624723434448,0.454987496137619
-3.9469501972198486,2.070000171661377,8.518950462341309,0.10889999568462372,0.8897625207901001,0.40383750200271606
-3.8869502544403076,2.3839499950408936,7.780950546264648,0.2153249979019165,0.8897625207901001,0.15798750519752502
-3.9210002422332764,2.7960002422332764,7.0219502449035645,0.18232500553131104,0.8823375105857849,-0.12086249887943268
-4.41195011138916,3.277050256729126,6.8020501136779785,-0.0038499999791383743,0.7121124863624573,-0.4815250039100647
-5.683050155639648,3.406050205230713,7.0660505294799805,-0.1625249981880188,0.2055625021457672,-0.8986999988555908
-7.171950340270996,2.6730000972747803,8.3899507522583,-0.1625249981880188,-0.6319500207901001,-1.211650013923645
-7.303950309753418,1.8139500617980957,10.044000625610352,0.0471624992787838,-1.1842875480651855,-1.184975028038025
-6.684000492095947,0.5760000348091125,10.561050415039062,0.2611125111579895,-0.64267498254776,-0.9179499745368958
-6.616950511932373,0.8320500254631042,9.562950134277344,0.3195500075817108,0.30236250162124634,-0.38788750767707825
-5.857950210571289,1.9069501161575317,7.975050449371338,0.2387000024318695,0.7855374813079834,0.1494625061750412
-5.086950302124023,2.8939502239227295,6.9120001792907715,0.10353749990463257,0.6599999666213989,0.28036248683929443
-5.038950443267822,3.367950201034546,7.489050388336182,0.01209999993443489,-0.10628750175237656,0.12925000488758087
-4.531050205230713,2.997000217437744,8.806050300598145,0.02694999985396862,-0.4819374978542328,0.02186249941587448
-4.108050346374512,2.578050136566162,9.402000427246094,0.09927500039339066,-0.1307625025510788,-0.016499999910593033
-4.39995002746582,2.5920000076293945,8.872950553894043,0.2642749845981598,0.48647499084472656,-0.030387500301003456
-5.005050182342529,2.8909502029418945,7.509000301361084,0.45471251010894775,0.7727500200271606,-0.01223750039935112
-5.307000160217285,3.1020002365112305,6.169950485229492,0.534600019454956,0.7269625067710876,0.06324999779462814
-5.353050231933594,3.2890501022338867,5.181000232696533,0.43779999017715454,0.6269999742507935,0.25808748602867126
-4.986000061035156,3.6190502643585205,5.245950222015381,0.24722500145435333,0.341825008392334,0.553849995136261
-4.375950336456299,3.813000202178955,5.634000301361084,0.1993750035762787,0.040562499314546585,0.7954375147819519
-4.1170501708984375,4.123950004577637,5.835000514984131,0.26221248507499695,-0.39682498574256897,0.8273375034332275
-4.314000129699707,4.384950160980225,6.4170002937316895,0.3291749954223633,-1.0268499851226807,0.6656374931335449
-5.295000076293945,4.135950088500977,7.827000141143799,0.45045000314712524,-1.6919374465942383,0.3485625088214874
-5.7019500732421875,3.492000102996826,9.268050193786621,0.6632999777793884,-1.8728874921798706,0.15592500567436218
-5.677950382232666,2.884050130844116,9.26400089263916,0.8421875238418579,-1.2821874618530273,0.23883749544620514
-5.380950450897217,3.2410502433776855,7.932000160217285,0.953837513923645,-1.0598499774932861,0.515625
-4.660950183868408,4.4670000076293945,7.9200005531311035,0.9261999726295471,-1.7153124809265137,0.6294749975204468
-3.973950147628784,5.140050411224365,9.058050155639648,0.7719249725341797,-2.130424976348877,0.3750999867916107
-4.427999973297119,4.450050354003906,10.057950019836426,0.6665999889373779,-1.9995249509811401,-0.026124998927116394
-4.801950454711914,3.4110002517700195,10.366950035095215,0.824037492275238,-1.7983624935150146,0.08346249908208847
-3.970950126647949,3.2860500812530518,9.22800064086914,1.0741499662399292,-1.9463125467300415,0.6124249696731567
-2.451000213623047,5.685000419616699,9.546000480651855,0.9123125076293945,-2.1771750450134277,0.7997000217437744
-0.6360000371932983,5.781000137329102,9.630000114440918,0.2503874897956848,-1.2651374340057373,0.17613749206066132
-1.7200500965118408,4.234950065612793,10.312050819396973,-0.5157625079154968,-0.0668250024318695,-0.6411625146865845
-4.1509504318237305,3.1879501342773438,10.342950820922852,-0.653124988079071,0.4577375054359436,-0.7870500087738037
-4.885950088500977,3.069000244140625,8.75100040435791,-0.21147499978542328,0.3097875118255615,-0.23251250386238098
-4.594050407409668,4.102950096130371,8.17199993133545,0.2983750104904175,-0.5468375086784363,0.36973750591278076
-3.078000068664551,4.843050003051758,8.52405071258545,0.6165499687194824,-1.082124948501587,0.47093749046325684
-2.4529500007629395,4.938000202178955,7.942050457000732,0.534600019454956,-0.64267498254776,0.1601874977350235
-2.9320502281188965,4.764000415802002,7.683000564575195,0.10573749989271164,-0.09982500225305557,-0.05912499874830246
-3.274050235748291,4.230000019073486,7.369950294494629,-0.1634874939918518,-0.08071249723434448,-0.03891250118613243
-3.3169500827789307,3.9180002212524414,7.285950183868408,-0.1751749962568283,-0.40424999594688416,0.10477499663829803
-2.3170502185821533,4.243950366973877,7.317000389099121,-0.062424998730421066,-0.7904874682426453,0.2857249975204468
-0.8940000534057617,4.534049987792969,7.125000476837158,0.05142499879002571,-0.8640499711036682,0.31872498989105225
-0.3340500295162201,4.279950141906738,7.195050239562988,0.2961750030517578,-0.7713750004768372,0.3409999907016754
-1.1430000066757202,3.9589502811431885,6.3760504722595215,0.31212499737739563,-0.8342124819755554,0.2069374918937683
-2.1010501384735107,4.335000038146973,6.301950454711914,0.2525874972343445,-0.9426999688148499,0.3984749913215637
-1.5940500497817993,5.034000396728516,5.9070000648498535,0.196212500333786,-0.8043749928474426,0.7273749709129333
-0.31995001435279846,5.508000373840332,6.067050457000732,0.023787500336766243,-0.7565249800682068,0.867900013923645
1.9350000619888306,6.243000507354736,9.508050918579102,0.1120624989271164,-0.6458374857902527,0.6507874727249146
-0.2550000250339508,6.085050106048584,9.699000358581543,0.6261749863624573,-0.21051250398159027,0.2186249941587448
-1.3420500755310059,6.315000534057617,6.733050346374512,0.8282999992370605,0.03203750029206276,0.08992499858140945
-1.3609501123428345,6.136050224304199,6.714000225067139,0.5909749865531921,0.029975000768899918,0.17297500371932983
-1.0290000438690186,6.1620001792907715,7.675950527191162,0.42391249537467957,-0.1424500048160553,0.2761000096797943
-0.5430000424385071,6.379950523376465,8.077950477600098,0.44728749990463257,-0.36162498593330383,0.28146249055862427
-0.5430000424385071,6.499950408935547,7.099050521850586,0.4185499846935272,-0.6478999853134155,0.19415000081062317
-0.6049500107765198,5.731050491333008,6.903000354766846,0.10353749990463257,-0.6117374897003174,0.19415000081062317
-0.12105000764131546,5.6260504722595215,8.433000564575195,-0.23485000431537628,-0.27761250734329224,0.25905001163482666
0.2939999997615814,6.516000270843506,9.460050582885742,-0.2167000025510788,0.17572499811649323,0.23567499220371246
0.520050048828125,6.625950336456299,9.22800064086914,0.02488750033080578,0.16087499260902405,0.11866249889135361
0.4810500144958496,6.456000328063965,8.22705078125,0.17063750326633453,-0.12017499655485153,0.04729999974370003
0.4930500090122223,6.1620001792907715,7.647000312805176,0.03437500074505806,-0.2722499966621399,-0.005912499967962503
1.1830500364303589,5.419950485229492,7.762050151824951,-0.27211248874664307,-0.3063499927520752,-0.09102500230073929
1.225950002670288,4.711050033569336,8.196000099182129,-0.5541250109672546,-0.07328750193119049,-0.21449999511241913
0.8910000324249268,4.732950210571289,8.560050010681152,-0.682824969291687,0.19813749194145203,-0.29218751192092896
0.8500500321388245,5.046000003814697,8.655000686645508,-0.559487521648407,0.2864125072956085,-0.2985124886035919
1.065000057220459,5.068050384521484,8.557050704956055,-0.25712499022483826,0.00976249948143959,-0.28049999475479126
1.1850000619888306,4.945950031280518,8.538000106811523,0.08648750185966492,-0.382937490940094,-0.28888750076293945
1.2139500379562378,5.19195032119751,7.82205057144165,0.2653749883174896,-0.596887469291687,-0.35708749294281006
1.0440000295639038,5.128050327301025,7.16895055770874,0.1461624950170517,-0.39256250858306885,-0.39434999227523804
0.9240000247955322,5.0530500411987305,7.069950103759766,-0.11563749611377716,-0.03396249935030937,-0.32298749685287476
0.8880000710487366,4.957950115203857,7.303050518035889,-0.34443750977516174,0.11082500219345093,-0.201712504029274
0.7399500608444214,4.776000022888184,8.1739501953125,-0.4987125098705292,0.10656250268220901,-0.14423750340938568
0.4410000145435333,4.527000427246094,8.641050338745117,-0.47327500581741333,0.11508750170469284,-0.19744999706745148
0.24705001711845398,4.5,8.449049949645996,-0.3231250047683716,0.14272500574588776,-0.2517625093460083
0.5509500503540039,4.657950401306152,7.8409504890441895,-0.10395000129938126,0.14588749408721924,-0.25808748602867126
0.7729500532150269,4.903050422668457,7.348050117492676,0.06421250104904175,0.08415000140666962,-0.2708750069141388
0.5389500260353088,5.407950401306152,7.200000286102295,0.10573749989271164,-0.012649999931454659,-0.2517625093460083
0.19200000166893005,5.535000324249268,7.485000133514404,0.057750001549720764,0.018287500366568565,-0.21656249463558197
0.11295000463724136,5.568000316619873,7.852950572967529,0.04399999976158142,-0.005224999971687794,-0.19318750500679016
0.1290000081062317,5.653950214385986,7.947000503540039,0.09721250087022781,-0.045649997889995575,-0.18466250598430634
0.30900001525878906,5.707050323486328,7.992000579833984,0.18342499434947968,0.011824999935925007,-0.1377750039100647
0.21300001442432404,5.986950397491455,8.077950477600098,0.21312500536441803,0.1373624950647354,-0.10491249710321426
0.06195000186562538,6.259950160980225,8.169000625610352,0.24406249821186066,0.13420000672340393,-0.0952875018119812
-0.032999999821186066,6.207000255584717,8.232000350952148,0.27816250920295715,-0.08181250095367432,-0.12182500213384628
-0.17595000565052032,5.767050266265869,8.619000434875488,0.21848750114440918,-0.12966249883174896,-0.11659999936819077
-0.5070000290870667,5.53695011138916,9.541050910949707,0.07163749635219574,-0.008387500420212746,-0.050599999725818634
-1.024049997329712,5.781000137329102,10.456050872802734,0.08648750185966492,0.1289750039577484,0.06324999779462814
-1.38795006275177,6.160050392150879,9.84795093536377,0.3291749954223633,0.2630375027656555,0.15482500195503235
-1.6219500303268433,6.010950088500977,8.586000442504883,0.5676000118255615,0.3279374837875366,0.202674999833107
-2.1660001277923584,6.849000453948975,7.045950412750244,0.5451874732971191,0.3843125104904175,0.23993749916553497
-1.5310500860214233,6.247950077056885,6.568050384521484,0.15895000100135803,0.2886124849319458,0.3207874894142151
-1.002000093460083,5.086950302124023,7.9710001945495605,-0.3870624899864197,0.2172500044107437,0.38046249747276306
-1.3609501123428345,4.563000202178955,9.771000862121582,-0.6147624850273132,0.30662500858306885,0.43367499113082886
-1.7440500259399414,4.654050350189209,9.76395034790039,-0.3529624938964844,0.20019999146461487,0.4624125063419342
-1.6609500646591187,4.938000202178955,8.872950553894043,0.10037499666213989,0.13420000672340393,0.4954124987125397
-1.287000060081482,5.1660003662109375,8.074049949645996,0.3792249858379364,0.09267500042915344,0.48042500019073486
-0.9379500150680542,5.611050128936768,7.698000431060791,0.3525499999523163,0.10023749619722366,0.43367499113082886
-1.0260000228881836,5.647050380706787,7.398000240325928,0.12484999746084213,0.18108749389648438,0.40603750944137573
-1.2510000467300415,5.281050205230713,7.3720502853393555,-0.19126249849796295,0.20446249842643738,0.4815250039100647
-1.3609501123428345,4.942950248718262,8.038050651550293,-0.4104374945163727,0.26510000228881836,0.5720000267028809
-1.480950117111206,4.491000175476074,8.550000190734863,-0.40617498755455017,0.34072500467300415,0.6432250142097473
-1.215000033378601,4.495950222015381,8.347050666809082,-0.24969999492168427,0.32999998331069946,0.6912124752998352
-0.7560000419616699,4.567049980163574,7.758000373840332,-0.060362499207258224,0.21504999697208405,0.6730625033378601
-0.6000000238418579,4.717950344085693,7.192050457000732,0.08442500233650208,0.14162500202655792,0.6124249696731567
-0.7080000042915344,4.930950164794922,6.6660003662109375,0.12278749793767929,0.24914999306201935,0.5740625262260437
-0.625950038433075,5.104050159454346,6.412050247192383,0.014162499457597733,0.35983750224113464,0.5720000267028809
-0.47805002331733704,5.134950160980225,6.56505012512207,-0.11990000307559967,0.2895750105381012,0.562375009059906
-0.45900002121925354,5.0370001792907715,7.108950138092041,-0.16458749771118164,0.09377499669790268,0.4954124987125397
-0.30105000734329224,5.022000312805176,7.498950481414795,-0.09006249904632568,0.059812501072883606,0.3708375096321106
0.034050002694129944,5.494050025939941,7.663950443267822,-0.09652499854564667,0.11935000121593475,0.2569875121116638
0.3139500021934509,5.673000335693359,7.942050457000732,-0.1518000066280365,0.26083749532699585,0.17393749952316284
0.14595000445842743,5.911050319671631,8.006999969482422,-0.10711249709129333,0.24172499775886536,0.1303499937057495
-0.013050000183284283,6.166950225830078,8.2339506149292,0.031212499365210533,-0.025437500327825546,0.06655000150203705
0.013950000517070293,6.2220001220703125,8.824950218200684,0.18342499434947968,-0.38087499141693115,-0.002612499985843897
0.24900001287460327,6.066000461578369,9.510000228881836,0.2887499928474426,-0.6234250068664551,-0.04207500070333481
0.5890500545501709,5.985000133514404,9.547950744628906,0.3100624978542328,-0.5820375084877014,-0.03244999796152115
0.48405003547668457,6.444000244140625,9.019050598144531,0.2759625017642975,-0.3871999979019165,-0.01966249942779541
0.7159500122070312,6.315000534057617,8.457000732421875,0.21422499418258667,-0.23292499780654907,-0.05376249924302101
0.8089500665664673,6.325050354003906,8.22705078125,0.17806249856948853,-0.3946250081062317,-0.1303499937057495
0.6540000438690186,6.625950336456299,7.963050365447998,0.15152500569820404,-0.6532624959945679,-0.2708750069141388
0.7300500273704529,5.9730000495910645,7.6710004806518555,0.05362499877810478,-0.9853249788284302,-0.38472500443458557
0.9310500621795654,5.271000385284424,7.573050498962402,-0.13378749787807465,-1.1108624935150146,-0.4390375018119812
1.585050106048584,4.684950351715088,8.224050521850586,-0.31033748388290405,-1.0874874591827393,-0.46873748302459717
2.1880500316619873,4.797000408172607,9.211050033569336,-0.2656500041484833,-1.0448625087738037,-0.5549499988555908
2.041949987411499,5.2759504318237305,9.370950698852539,-0.08579999953508377,-1.1054999828338623,-0.6411625146865845
1.8270001411437988,5.392950057983398,8.361000061035156,-0.009212499484419823,-1.2439625263214111,-0.5699374675750732
1.9470001459121704,5.122950077056885,7.698000431060791,-0.01347499992698431,-1.2716000080108643,-0.4729999899864197
1.8679500818252563,5.07705020904541,7.852950572967529,0.02914999984204769,-0.9906874895095825,-0.4166249930858612
1.771950125694275,5.218950271606445,7.73805046081543,0.11426249891519547,-0.8277499675750732,-0.28146249055862427
1.984950065612793,5.535000324249268,7.132950305938721,0.0705375000834465,-0.819225013256073,-0.21546250581741333
2.1090002059936523,5.194950103759766,6.658950328826904,-0.2656500041484833,-0.8129000067710876,-0.1985500007867813
2.502000093460083,4.703999996185303,7.62600040435791,-0.5754374861717224,-0.6159999966621399,-0.1601874977350235
2.7270002365112305,4.788000106811523,8.596050262451172,-0.4349125027656555,-0.37661248445510864,-0.27719998359680176
3.121950149536133,5.371950149536133,8.164950370788574,-0.04853750020265579,-0.44577500224113464,-0.492249995470047
2.245950222015381,5.6419501304626465,7.354950428009033,0.09075000137090683,-0.28929999470710754,-0.5794249773025513
1.4680501222610474,5.314050197601318,6.745050430297852,0.030112499371170998,-0.31171250343322754,-0.49431249499320984
1.6279500722885132,5.359950065612793,7.092000484466553,-0.04853750020265579,-0.36162498593330383,-0.36877501010894775
1.6930500268936157,5.764050483703613,6.9120001792907715,0.06421250104904175,-0.5872625112533569,-0.32298749685287476
1.4580000638961792,5.761950492858887,6.517050266265869,0.13653749227523804,-0.8820624947547913,-0.23154999315738678
0.7399500608444214,5.677950382232666,6.984000205993652,0.10257499665021896,-1.0353749990463257,-0.03244999796152115
1.1400001049041748,5.776050090789795,8.20995044708252,0.15578749775886536,-0.9426999688148499,0.20803749561309814
3.226950168609619,5.680950164794922,8.77695083618164,0.4111250042915344,-0.8639125227928162,0.2718375027179718
4.6210503578186035,6.1120500564575195,7.546950340270996,0.6995999813079834,-0.8533250093460083,0.06324999779462814
3.412050247192383,5.877000331878662,6.582000255584717,0.7984625101089478,-0.7415375113487244,-0.13255000114440918
2.1690001487731934,5.832000255584717,6.484050273895264,0.6080250144004822,-0.49156248569488525,-0.05582499876618385
2.290950059890747,5.989950180053711,7.051050186157227,0.3482874929904938,-0.44577500224113464,0.07493750005960464
2.8440001010894775,6.7510504722595215,7.9710001945495605,0.2579500079154968,-0.7001500129699707,0.08676250278949738
3.2509500980377197,7.2900004386901855,6.256050109863281,0.4185499846935272,-0.4265249967575073,0.05472499877214432
2.5690500736236572,7.455000400543213,8.421000480651855,0.3877499997615814,0.26936250925064087,0.10271249711513519
2.1289501190185547,7.335000514984131,7.908000469207764,0.2759625017642975,0.25657498836517334,0.3357749879360199
2.871000051498413,6.954000473022461,6.553050518035889,-0.2391124963760376,0.29919999837875366,0.6465250253677368
4.168050289154053,6.12600040435791,7.855950355529785,-0.9872499704360962,0.44068750739097595,0.7880125045776367
3.5080502033233643,5.797950267791748,10.554000854492188,-1.2160500288009644,0.947237491607666,0.6986374855041504
2.449050188064575,5.322000026702881,11.562000274658203,-0.6754000186920166,1.2377749681472778,0.516587495803833
1.6500000953674316,5.326050281524658,10.104000091552734,0.12168750166893005,1.382562518119812,0.34636250138282776
1.4770500659942627,5.403000354766846,7.609050273895264,0.5112249851226807,1.3719749450683594,0.22288750112056732
1.1059499979019165,5.761950492858887,6.289950370788574,0.26963749527931213,1.1431750059127808,0.2974124848842621
0.7279500365257263,6.058950424194336,6.637050151824951,-0.24021250009536743,0.964287519454956,0.5039374828338623
0.41700002551078796,5.7960004806518555,7.9110002517700195,-0.6179249882698059,0.8791750073432922,0.720912516117096
0.8880000710487366,4.98900032043457,8.812950134277344,-0.7009750008583069,0.7673875093460083,0.8401250243186951
1.5109500885009766,4.354050159454346,9.529050827026367,-0.5700749754905701,0.817437469959259,0.784850001335144
1.7310000658035278,3.954000234603882,9.769050598144531,-0.2901250123977661,0.8856375217437744,0.7145875096321106
1.3189500570297241,4.096050262451172,8.914050102233887,0.007837500423192978,0.8366875052452087,0.6571124792098999
0.9769500494003296,4.5960001945495605,7.396050453186035,0.18658749759197235,0.7078499794006348,0.6752625107765198
0.9510000348091125,4.912050247192383,6.5560503005981445,0.17806249856948853,0.6056874990463257,0.7422249913215637
1.3309500217437744,5.085000038146973,6.6850504875183105,0.1120624989271164,0.4599374830722809,0.7720624804496765
1.5679501295089722,5.128050327301025,7.197000503540039,0.06421250104904175,0.3513124883174896,0.7294374704360962
1.599000096321106,5.314050197601318,7.291050434112549,0.06104999780654907,0.32999998331069946,0.6667374968528748
1.6810500621795654,5.45805025100708,7.06095027923584,0.015262499451637268,0.42377498745918274,0.6624749898910522
2.5759501457214355,5.85105037689209,7.396050453186035,-0.08799999952316284,0.6238374710083008,0.6252124905586243
2.6050500869750977,5.884050369262695,8.281949996948242,-0.10175000131130219,0.7280625104904175,0.4729999899864197
2.344050168991089,5.604000091552734,9.229950904846191,-0.0644875019788742,0.9121749997138977,0.33783748745918274
2.1670501232147217,5.958000183105469,10.14900016784668,0.059950001537799835,1.1175999641418457,0.19634999334812164
1.0579500198364258,5.17995023727417,10.023000717163086,0.2844874858856201,1.1930874586105347,0.1451999992132187
1.0339500904083252,5.247000217437744,9.472050666809082,0.45691248774528503,0.9983875155448914,0.179299995303154
1.1539500951766968,5.475000381469727,9.187050819396973,0.5451874732971191,0.6088500022888184,0.11550000309944153
0.7900500297546387,5.842950344085693,8.076000213623047,0.44948750734329224,0.5088874697685242,0.010037500411272049
1.1130000352859497,5.695050239562988,6.445050239562988,0.062150001525878906,0.5982624888420105,0.01759999990463257
1.204050064086914,5.893950462341309,6.999000549316406,-0.415800005197525,0.5982624888420105,-0.058024998754262924
1.4149500131607056,5.506050109863281,8.66295051574707,-0.5317124724388123,0.30236250162124634,-0.25382500886917114
1.855950117111206,4.761000156402588,9.442950248718262,-0.37207499146461487,-0.4020499885082245,-0.38692501187324524
2.0020501613616943,4.3090500831604,9.481050491333008,-0.2124374955892563,-0.8342124819755554,-0.4507249891757965
2.0280001163482666,4.017000198364258,9.484050750732422,-0.11247500032186508,-0.6990500092506409,-0.4729999899864197
2.1289501190185547,4.006950378417969,8.986050605773926,-0.018837500363588333,-0.21381250023841858,-0.47203749418258667
2.01104998588562,4.354050159454346,8.67495059967041,0.045099999755620956,0.06503749638795853,-0.4740999937057495
1.852950096130371,4.663050174713135,8.14995002746582,0.15358750522136688,0.022549999877810478,-0.44852501153945923
1.4560500383377075,4.909950256347656,7.377000331878662,0.22384999692440033,-0.10408750176429749,-0.3793624937534332
1.072950005531311,4.861950397491455,7.120950222015381,0.1280124932527542,-0.11687500029802322,-0.31130000948905945
1.0060499906539917,4.60605001449585,7.549050331115723,-0.10078749805688858,0.01924999989569187,-0.24213749170303345
1.2709500789642334,4.551000118255615,8.077950477600098,-0.2689499855041504,0.02461249940097332,-0.2441999912261963
1.264050006866455,4.531050205230713,8.112000465393066,-0.29768750071525574,-0.2488749921321869,-0.33041250705718994
0.8689500689506531,4.348950386047363,8.071050643920898,-0.29768750071525574,-0.5436750054359436,-0.36877501010894775
1.0890001058578491,4.414050102233887,8.13794994354248,-0.32532501220703125,-0.4978874921798706,-0.3283500075340271
1.3789501190185547,4.444950103759766,8.100000381469727,-0.2732124924659729,-0.30098751187324524,-0.28792500495910645
1.5109500885009766,4.651050090789795,7.606950283050537,-0.11027500033378601,-0.13186250627040863,-0.31872498989105225
1.141950011253357,5.010000228881836,6.319050312042236,0.04179999977350235,-0.15729999542236328,-0.3431999981403351
1.1830500364303589,5.026950359344482,6.421950340270996,-0.04647500067949295,0.113987497985363,-0.23993749916553497
1.0249500274658203,5.281050205230713,6.32295036315918,-0.3891249895095825,0.6546375155448914,-0.11233749985694885
0.6580500602722168,4.845000267028809,6.57705020904541,-0.6030749678611755,1.0749750137329102,0.03671250119805336
0.39705002307891846,4.51200008392334,8.257950782775879,-0.6210874915122986,1.3230249881744385,0.2069374918937683
0.08400000631809235,4.861950397491455,10.807950973510742,-0.34869998693466187,1.055862545967102,0.28036248683929443
0.2179500162601471,5.5489501953125,11.42595100402832,0.3792249858379364,0.5715875029563904,0.2782999873161316
0.08100000023841858,5.755050182342529,9.955050468444824,0.9623624682426453,0.43216249346733093,0.2303124964237213
0.09600000083446503,5.3359503746032715,7.942050457000732,1.0698875188827515,0.34595000743865967,0.3207874894142151
0.031050002202391624,5.187000274658203,7.309950351715088,0.7569375038146973,0.4076874852180481,0.4740999937057495
-0.8320500254631042,5.5320000648498535,8.682000160217285,0.295074999332428,0.7110124826431274,0.5592125058174133
-1.158000111579895,5.92995023727417,10.288050651550293,0.08758749812841415,0.7642250061035156,0.45278748869895935
-1.5889500379562378,5.5849504470825195,9.559950828552246,0.15895000100135803,0.678012490272522,0.2942500114440918
-1.5700501203536987,5.91795015335083,8.365950584411621,0.07273750007152557,0.7504749894142151,0.3964124917984009
-1.5510001182556152,5.334000110626221,8.884950637817383,-0.2433750033378601,0.4258374869823456,0.4581499993801117
-0.973050057888031,4.828050136566162,10.039050102233887,-0.44123750925064087,-0.12333749979734421,0.455949991941452
-0.3460500240325928,4.692000389099121,10.458000183105469,-0.4380750060081482,-0.1999250054359436,0.3367374837398529
-0.8269500136375427,4.243950366973877,10.192950248718262,-0.25189998745918274,0.48647499084472656,0.2675749957561493
-2.187000036239624,4.285050392150879,9.754050254821777,-0.015537500381469727,1.1016499996185303,0.2899875044822693
-2.808000087738037,4.427999973297119,9.08595085144043,0.2503874897956848,1.0367499589920044,0.45704999566078186
-1.8229501247406006,5.314050197601318,7.864950180053711,0.4047999978065491,0.05224999785423279,0.4624125063419342
-1.88100004196167,4.915050029754639,7.188000202178955,0.38885000348091125,-0.6756749749183655,0.34636250138282776
-1.5070500373840332,4.857000350952148,7.297950267791748,0.14726249873638153,-1.1885499954223633,0.3793624937534332
-0.820050060749054,4.713000297546387,7.81695032119751,-0.13474999368190765,-1.486512541770935,0.37193748354911804
0.20100000500679016,4.480950355529785,7.825050354003906,-0.2199999988079071,-1.7238374948501587,0.2835249900817871
0.8809500336647034,4.359000205993652,8.083050727844238,-0.030524998903274536,-1.9494749307632446,0.1601874977350235
0.6919500231742859,4.515000343322754,7.9009504318237305,0.27390000224113464,-1.98027503490448,0.1335124969482422
1.0369499921798706,4.831050395965576,7.729050159454346,0.4133250117301941,-1.8004249334335327,0.2666124999523163
2.221950054168701,5.2759504318237305,7.882050514221191,0.39201250672340393,-1.4801875352859497,0.2868250012397766
2.401050090789795,5.448000431060791,7.675950527191162,0.3610749840736389,-1.349287509918213,0.1451999992132187
1.6279500722885132,5.2759504318237305,6.960000514984131,0.3834874927997589,-1.1991374492645264,0.1835625022649765
1.686000108718872,5.452950477600098,6.594000339508057,0.38554999232292175,-1.1002750396728516,0.41772499680519104
2.479950189590454,6.174000263214111,7.06095027923584,0.3004375100135803,-1.0385375022888184,0.49211248755455017
2.908950090408325,6.045000076293945,7.798050403594971,0.3057999908924103,-1.0949125289916992,0.41442498564720154
3.1440000534057617,5.737950325012207,7.273950576782227,0.4632374942302704,-1.2439625263214111,0.2686749994754791
2.761050224304199,5.697000503540039,6.402000427246094,0.49953749775886536,-1.30239999294281,0.12815000116825104
3.309000253677368,5.665950298309326,3.9600002765655518,0.27059999108314514,-0.37661248445510864,0.13571250438690186
3.95805025100708,6.01800012588501,6.429000377655029,-0.2997500002384186,0.6301624774932861,0.15262499451637268
4.858050346374512,6.516000270843506,9.778050422668457,-0.4647499918937683,0.5673249959945679,0.06435000151395798
4.096950054168701,6.853950500488281,9.241950035095215,-0.09652499854564667,0.23746250569820404,-0.03987500071525574
3.8929502964019775,6.370050430297852,7.813050270080566,0.02694999985396862,0.18314999341964722,-0.05912499874830246
4.012950420379639,5.914950370788574,7.354950428009033,-0.33274999260902405,0.19910000264644623,-0.08139999955892563
4.353000164031982,6.073050498962402,8.430000305175781,-0.7977749705314636,0.5715875029563904,-0.21656249463558197
4.522950172424316,5.4559502601623535,10.35105037689209,-0.8701000213623047,1.0835000276565552,-0.4092000126838684
3.709050178527832,5.050950050354004,11.004000663757324,-0.6892874836921692,1.392187476158142,-0.524150013923645
3.328050136566162,4.792050361633301,10.141950607299805,-0.5274500250816345,1.2420375347137451,-0.5592125058174133
3.1459500789642334,4.717950344085693,9.141000747680664,-0.4295499920845032,0.9494374990463257,-0.5836874842643738
2.698050022125244,4.708950042724609,8.17905044555664,-0.45086249709129333,0.9952250123023987,-0.5326749682426453
2.143050193786621,4.488000392913818,7.990050315856934,-0.4241875112056732,1.114437460899353,-0.42625001072883606
1.9369500875473022,4.656000137329102,8.17905044555664,-0.24969999492168427,1.038812518119812,-0.39531248807907104
1.0699501037597656,4.812000274658203,8.038050651550293,-0.05609999969601631,0.7897999882698059,-0.3730374872684479
1.7670000791549683,4.716000080108643,7.549050331115723,-0.03684999793767929,0.6003249883651733,-0.2569875121116638
2.599950075149536,4.701000213623047,7.516050338745117,-0.18906250596046448,0.7141749858856201,-0.2708750069141388
1.4629501104354858,4.5169501304626465,7.549050331115723,-0.3156999945640564,0.8205999732017517,-0.31130000948905945
0.6490500569343567,4.219950199127197,7.734000205993652,-0.37853750586509705,0.585474967956543,-0.21546250581741333
0.8880000710487366,4.222949981689453,8.253000259399414,-0.34869998693466187,0.16830000281333923,-0.1527625024318695
1.432050108909607,4.147950172424316,8.631000518798828,-0.2667500078678131,0.033137500286102295,-0.20803749561309814
1.2090001106262207,4.198950290679932,8.301000595092773,-0.20295000076293945,0.25657498836517334,-0.2899875044822693
0.30900001525878906,4.33305025100708,7.16895055770874,-0.2465374916791916,0.4109874963760376,-0.23787499964237213
0.16005000472068787,4.444950103759766,6.772950172424316,-0.3583250045776367,0.32903748750686646,-0.09418749809265137
0.5719500184059143,4.572000026702881,7.783950328826904,-0.3455374836921692,0.18741250038146973,-0.06228749826550484
0.661050021648407,4.795050144195557,8.827950477600098,-0.1358499974012375,0.08855000138282776,-0.1601874977350235
0.5269500017166138,4.888050079345703,8.68695068359375,0.08868750184774399,-0.15303750336170197,-0.2708750069141388
0.5440500378608704,5.086950302124023,7.659000396728516,0.16321249306201935,-0.20624999701976776,-0.3176249861717224
0.5770500302314758,5.250000476837158,7.803000450134277,0.1270499974489212,-0.055137500166893005,-0.2623499929904938
0.7540500164031982,5.494050025939941,8.473050117492676,0.13337500393390656,0.2012999951839447,-0.19634999334812164
0.3139500021934509,5.535000324249268,8.812950134277344,0.196212500333786,0.28751251101493835,-0.15908749401569366
-0.1469999998807907,5.371950149536133,8.821050643920898,0.28984999656677246,0.17366249859333038,-0.1303499937057495
-0.492000013589859,5.247000217437744,9.016950607299805,0.3823874890804291,0.09377499669790268,-0.07081250101327896
-0.41100001335144043,5.137050151824951,9.745050430297852,0.4675000011920929,0.10339999943971634,0.015399999916553497
-0.9660000205039978,5.8030500411987305,9.333000183105469,0.49623748660087585,0.304562509059906,0.037812501192092896
-1.5289500951766968,6.078000068664551,8.904000282287598,0.3866499960422516,0.3950375020503998,0.08249999582767487
-1.5769500732421875,6.207000255584717,8.755949974060059,0.25891250371932983,0.2917749881744385,0.12402500212192535
-1.636950135231018,5.920050144195557,9.247050285339355,0.14822499454021454,0.27898749709129333,0.10903749614953995
-0.8149500489234924,4.960050106048584,10.30305004119873,0.11948750168085098,0.07466249912977219,0.1451999992132187
-1.324950098991394,4.393050193786621,9.796950340270996,0.11852499842643738,-0.25093749165534973,0.15056249499320984
-1.8760501146316528,3.925950288772583,8.659950256347656,0.09927500039339066,-0.5724124908447266,0.2985124886035919
-0.6360000371932983,4.183950424194336,9.208050727844238,0.19085000455379486,-0.45746248960494995,0.4251500070095062
0.14805001020431519,4.222949981689453,8.52405071258545,0.16431249678134918,0.22261250019073486,0.432574987411499
-0.3630000054836273,4.540950298309326,7.975050449371338,0.02914999984204769,0.41731250286102295,0.3623124957084656
-1.4689500331878662,4.189050197601318,8.803950309753418,-0.04221250116825104,0.38005000352859497,0.37193748354911804
-1.3780500888824463,3.8710501194000244,9.08595085144043,-0.03368749842047691,0.17572499811649323,0.544362485408783
-0.7630500197410583,4.183950424194336,8.623950004577637,-0.07411249727010727,0.1597750037908554,0.6550499796867371
-0.8179500102996826,4.393050193786621,7.54395055770874,-0.19552500545978546,0.26840001344680786,0.6602749824523926
-0.7129500508308411,4.060050010681152,6.963000297546387,-0.37111249566078186,0.33329999446868896,0.7220125198364258
0.036000002175569534,4.110000133514404,7.663950443267822,-0.4423374831676483,0.2810499966144562,0.739062488079071
-0.23100000619888306,4.255949974060059,7.642950534820557,-0.26785001158714294,0.04702499881386757,0.6593124866485596
-0.3559500277042389,4.744950294494629,7.336050510406494,-0.03258749842643738,-0.38087499141693115,0.6496874690055847
-0.1570500135421753,5.086950302124023,7.456050395965576,0.12911249697208405,-0.651199996471405,0.6528499722480774
0.004950000438839197,5.0560503005981445,7.042050361633301,0.24296249449253082,-0.8959500193595886,0.6975374817848206
0.6780000329017639,5.08905029296875,6.541050434112549,0.34622499346733093,-1.3151874542236328,0.7358999848365784
2.2270500659942627,5.2260003089904785,7.309950351715088,0.47712498903274536,-1.7505124807357788,0.6155874729156494
3.226950168609619,6.205050468444824,7.9830002784729,0.7559750080108643,-1.7664624452590942,0.1611499935388565
1.9750500917434692,6.51900053024292,8.006999969482422,0.9081875085830688,-1.6216750144958496,-0.2250874936580658
2.0179500579833984,6.306000232696533,7.82205057144165,0.7517125010490417,-1.4440250396728516,-0.24956250190734863
2.1640501022338867,6.037050247192383,7.651950359344482,0.4600749909877777,-1.023550033569336,-0.22082500159740448
3.330000162124634,6.547050476074219,8.679000854492188,0.25148749351501465,-0.6478999853134155,-0.19208750128746033
3.5029501914978027,6.195000171661377,10.039050102233887,0.38981249928474426,-0.550000011920929,-0.44536250829696655
2.2669501304626465,5.580000400543213,9.357000350952148,0.683650016784668,-1.042799949645996,-0.5827249884605408
1.870050072669983,6.088050365447998,8.317950248718262,0.7942000031471252,-1.479087471961975,-0.5135625004768372
3.117000102996826,7.06695032119751,7.354950428009033,0.7059249877929688,-1.3843499422073364,-0.45608749985694885
3.6610500812530518,6.568950176239014,7.012950420379639,0.5229125022888184,-1.1130625009536743,-0.5230500102043152
2.8660502433776855,6.151950359344482,6.723000526428223,0.3398999869823456,-1.041700005531311,-0.4974749982357025
3.697050094604492,6.2410502433776855,7.075050354003906,0.09184999763965607,-1.5556750297546387,-0.3517250120639801
5.038050174713135,6.466050148010254,7.618950366973877,-0.15289999544620514,-1.6728249788284302,-0.2825624942779541
5.5759501457214355,6.424950122833252,7.9110002517700195,-0.19126249849796295,-1.266237497329712,-0.3741374909877777
4.246950149536133,6.066000461578369,7.537050247192383,0.09611249715089798,-0.6564249992370605,-0.5486249923706055
3.249000072479248,5.836050510406494,6.661050319671631,0.3877499997615814,-0.5286874771118164,-0.5411999821662903
3.3139500617980957,5.761950492858887,5.57895040512085,0.3792249858379364,-0.9788625240325928,-0.4442625045776367
4.384050369262695,5.7210001945495605,2.3580000400543213,-0.029424998909235,-0.6936874985694885,-0.32615000009536743
5.08305025100708,5.599050045013428,6.474000453948975,-0.699874997138977,0.1896124929189682,-0.19208750128746033
4.774050235748291,6.59505033493042,8.835000038146973,-0.6615124940872192,0.29919999837875366,-0.11329999566078186
4.033950328826904,5.676000118255615,6.333000183105469,-0.26785001158714294,0.3726249933242798,-0.009074999950826168
3.787950277328491,5.095950126647949,4.896000385284424,-0.4816625118255615,0.4300999939441681,0.13461250066757202
4.006050109863281,4.978950023651123,5.76300048828125,-0.9765250086784363,0.5471125245094299,0.23141250014305115
4.381950378417969,4.788000106811523,7.461000442504883,-1.0777250528335571,0.779212474822998,0.210099995136261
4.089000225067139,5.242950439453125,7.908000469207764,-0.6807624697685242,0.9079124927520752,0.016499999910593033
3.751950263977051,5.755050182342529,6.595950126647949,-0.19648750126361847,0.7440124750137329,-0.18466250598430634
3.1720502376556396,5.95395040512085,5.329950332641602,-0.020899999886751175,0.5174124836921692,-0.3793624937534332
2.1259500980377197,5.842950344085693,5.002050399780273,-0.2092749923467636,0.6162750124931335,-0.3665750026702881
2.0779500007629395,5.899050235748291,6.0259504318237305,-0.607337474822998,0.9186375141143799,-0.15056249499320984
1.5420000553131104,6.054000377655029,7.054050445556641,-0.8606125116348267,1.3069374561309814,0.08676250278949738
1.9009500741958618,6.38700008392334,7.537050247192383,-0.8861874938011169,1.4357750415802002,0.22192500531673431
2.830050230026245,6.688950538635254,8.116950035095215,-0.6754000186920166,1.2047749757766724,0.11646249890327454
2.9710500240325928,6.787050247192383,8.473050117492676,-0.3242250084877014,0.7897999882698059,-0.12182500213384628
2.272050142288208,6.681000232696533,8.719950675964355,0.007837500423192978,0.5163124799728394,-0.29315000772476196
0.6150000095367432,6.258000373840332,8.554950714111328,0.2387000024318695,0.6323624849319458,-0.28476250171661377
0.3739500045776367,6.274050235748291,8.65095043182373,0.2909500002861023,0.7312250137329102,-0.10064999759197235
0.690000057220459,6.39900016784668,9.196050643920898,0.2887499928474426,0.6014249920845032,0.052662499248981476
0.9790500402450562,6.375000476837158,9.541050910949707,0.3302749991416931,0.24392500519752502,0.11219999939203262
0.6109500527381897,6.496950149536133,8.883000373840332,0.28984999656677246,0.04702499881386757,0.1143999993801117
-0.013050000183284283,6.576000213623047,8.859000205993652,0.18975000083446503,0.2320999950170517,0.13667500019073486
-0.6000000238418579,6.315000534057617,9.52500057220459,0.21326249837875366,0.48221248388290405,0.17723749577999115
0.037950001657009125,6.040050506591797,9.535950660705566,0.30896249413490295,0.4503124952316284,0.20487499237060547
0.9790500402450562,5.500950336456299,9.241950035095215,0.39943748712539673,0.1321374922990799,0.28036248683929443
1.4959501028060913,5.547000408172607,7.546950340270996,0.32711249589920044,-0.13186250627040863,0.4101625084877014
0.8449500203132629,5.419950485229492,9.109950065612793,0.24089999496936798,0.4545750021934509,0.4846875071525574
