accX,accY,accZ,gyroX,gyroY,gyroZ
-4.730808734893799,5.414420127868652,5.985619068145752,-0.33138567209243774,-0.5714207887649536,-0.6054721474647522
-4.256076812744141,2.2386744022369385,10.339120864868164,-1.0463597774505615,-0.9853954315185547,1.1491422653198242
-2.4833712577819824,1.9184355735778809,9.357382774353027,0.06831218302249908,0.12288863211870193,1.9604061841964722
-1.6803944110870361,0.6321171522140503,8.7835693359375,0.9115156531333923,1.5420682430267334,2.4554688930511475
1.0245076417922974,-5.222031593322754,17.874544143676758,1.3646904230117798,0.8106181621551514,1.915708303451538
0.5418940186500549,-1.1091474294662476,10.882230758666992,1.2590281963348389,-0.9610306620597839,0.3986506462097168
-0.9368798732757568,3.193328857421875,9.01567268371582,1.3836621046066284,0.12726940214633942,0.05265658348798752
-1.2308591604232788,1.6960619688034058,9.027030944824219,1.1093661785125732,0.0858352929353714,-0.09461429715156555
-2.2871904373168945,2.4278833866119385,9.228479385375977,0.8538848757743835,-0.4879591464996338,0.027436574921011925
-2.640976905822754,2.7719109058380127,8.492319107055664,0.6869441270828247,-0.6750933527946472,0.24268803000450134
-1.7106187343597412,3.1847574710845947,8.455631256103516,0.5383991599082947,-0.4269075393676758,0.3894004225730896
-0.9520303606987,2.9713289737701416,8.62539005279541,0.4242197275161743,-0.17748253047466278,0.5012585520744324
-0.2277173101902008,3.145051956176758,9.724356651306152,0.8828399181365967,0.3205122649669647,0.5083096623420715
-0.5284098982810974,3.3898446559906006,9.638941764831543,1.2183969020843506,0.4054923355579376,0.4401720464229584
-0.6915603876113892,3.4959940910339355,9.225041389465332,1.4711729288101196,0.48253118991851807,0.4493001103401184
-0.7567880153656006,3.629379987716675,9.203886032104492,1.5252257585525513,0.41256093978881836,0.4827231764793396
-0.644174337387085,4.116734027862549,8.52343463897705,1.5134098529815674,0.39643409848213196,0.5490806102752686
-0.5977364182472229,4.059953212738037,7.986319541931152,1.4065608978271484,0.7199134230613708,0.5932548642158508
-1.3626455068588257,4.3078484535217285,7.916801452636719,1.2178733348846436,0.7282211780548096,0.6052627563476562
-1.731046199798584,4.750718593597412,7.496800899505615,1.0413856506347656,0.7367733120918274,0.6020687818527222
-1.716135025024414,4.576267719268799,7.829125881195068,0.9443103671073914,0.704083263874054,0.6566103100776672
-1.7025551795959473,4.360990524291992,7.5298027992248535,0.9500176310539246,0.7544185519218445,0.7480131983757019
-1.8289402723312378,4.811770915985107,6.636841773986816,0.9366658329963684,0.5766567587852478,0.7995004057884216
-1.7648906707763672,5.544751167297363,7.544981956481934,0.1745154708623886,0.4231376349925995,0.5589591264724731
-1.2412019968032837,4.989200115203857,7.123784065246582,0.10201449692249298,0.3346494436264038,0.658268392086029
-1.2535561323165894,5.506692886352539,6.8980302810668945,-0.08363617956638336,0.07679449021816254,0.8000065684318542
-1.0694133043289185,5.72849178314209,7.216535568237305,-0.34585443139076233,0.1803099662065506,0.8685107231140137
-0.8835274577140808,5.535834789276123,8.009743690490723,-0.4504520297050476,0.42666319012641907,0.824912428855896
-0.8575934171676636,5.208212375640869,8.667986869812012,-0.27864181995391846,0.529410719871521,0.8349655270576477
-1.0492349863052368,5.287326335906982,8.481890678405762,0.0205948855727911,0.4717101454734802,0.9495463967323303
-0.9433537721633911,5.493419170379639,7.797685146331787,0.17781414091587067,0.44741514325141907,1.0660470724105835
-0.6058766841888428,5.6165385246276855,7.16293478012085,-0.0596204474568367,0.5155702829360962,0.9657256007194519
-0.7527273893356323,5.513300895690918,7.400669097900391,-0.04864232614636421,0.7796734571456909,0.9870360493659973
-1.009060263633728,5.5655517578125,7.36403751373291,-0.10709340125322342,0.5759412050247192,1.0150136947631836
-1.0658220052719116,5.681268215179443,7.349001884460449,-0.10625564306974411,0.5372297763824463,1.011924386024475
-1.0269975662231445,5.87372350692749,7.412869453430176,-0.1742362231016159,0.49413761496543884,0.9841213226318359
-0.7967041730880737,5.753228664398193,7.67426872253418,-0.285727858543396,0.6656860113143921,0.9095783233642578
-0.7447499632835388,5.583163738250732,7.960567474365234,-0.2652900516986847,0.6875898838043213,0.858998715877533
-1.2312325239181519,5.802778720855713,8.34017276763916,-0.11789698898792267,0.4392819106578827,0.8077034950256348
-1.209656000137329,5.762326240539551,8.229618072509766,-0.021903881803154945,0.4195946156978607,0.7940899133682251
-0.9085899591445923,5.641601085662842,7.831854820251465,0.007120943162590265,0.664848268032074,0.8984431624412537
-0.8346091508865356,5.720035076141357,7.538996696472168,-0.036582101136446,0.7549072504043579,0.9879610538482666
-0.7180306315422058,5.959541320800781,7.330575942993164,-0.14912092685699463,0.7304726243019104,1.0318909883499146
-0.4851897656917572,6.124751091003418,7.672544956207275,-0.2059663087129593,0.6602405905723572,0.9841911792755127
-0.25019407272338867,5.969597339630127,8.156518936157227,-0.09688322991132736,0.5342976450920105,0.8215613961219788
-0.2228618711233139,6.015843868255615,7.903135299682617,0.02857103943824768,0.5901132822036743,0.6787410974502563
-0.6335152983665466,5.897263526916504,8.02367877960205,0.053791046142578125,0.765675961971283,0.8010014295578003
-0.6750116348266602,5.825475692749023,8.05628776550293,0.06442010402679443,0.7968300580978394,0.8727169632911682
-0.35652536153793335,5.926376819610596,7.627208709716797,0.04982915148139,0.755221426486969,1.0180331468582153
0.35528993606567383,6.074166297912598,7.343533515930176,-0.025394540280103683,0.7961493730545044,1.0309311151504517
0.1761653572320938,6.1626176834106445,7.548602104187012,-0.059864792972803116,0.9174497723579407,0.9323199987411499
-0.41118019819259644,6.362945079803467,7.855050086975098,-0.0319744311273098,0.9685530066490173,0.8745670318603516
-0.5574946403503418,6.381696701049805,7.7191267013549805,0.06529276818037033,0.9808052182197571,0.8997172117233276
-0.4686793386936188,6.493812561035156,7.845243453979492,0.08600982278585434,0.9401739835739136,0.889524519443512
-0.564830482006073,6.537913799285889,8.040093421936035,0.11007791757583618,0.8665035963058472,0.8248775005340576
-0.5691304802894592,6.519506931304932,8.573243141174316,0.4424933195114136,0.7734600901603699,0.7140316367149353
-0.5933693647384644,6.354010105133057,8.17811393737793,0.9018115997314453,0.7405083179473877,0.5946162343025208
-0.9663381576538086,6.461270332336426,7.9545722007751465,1.009812593460083,0.7139618396759033,0.5724505186080933
-1.104148268699646,6.503992557525635,7.708831310272217,0.9900380373001099,0.6913074851036072,0.6509031057357788
-0.1311735212802887,6.231608867645264,6.779153347015381,0.8454025983810425,0.8451058864593506,0.6387381553649902
-1.6099857091903687,6.628615856170654,5.957242965698242,0.1555611938238144,0.786270797252655,0.48061132431030273
-1.553223967552185,6.476171970367432,6.045043468475342,-0.02258456125855446,0.9124406576156616,0.5252917408943176
-1.5386289358139038,6.538833141326904,6.349393844604492,-0.20807814598083496,0.9421636462211609,0.542134165763855
-2.405942916870117,6.258242130279541,6.872699737548828,-0.3092723488807678,1.340814232826233,0.6504144072532654
-2.415692090988159,6.273909568786621,6.854484558105469,-0.26035076379776,1.6956746578216553,0.7654141187667847
-3.0571274757385254,6.4682230949401855,7.022863864898682,-0.058887407183647156,1.8296111822128296,0.7950149178504944
-3.0811843872070312,6.5441389083862305,6.939536094665527,-0.008464846760034561,1.990600347518921,0.7992036938667297
-2.2833216190338135,7.144048690795898,6.941949844360352,0.24013985693454742,1.0780200958251953,0.5347339510917664
-3.1630661487579346,7.281734943389893,4.842215538024902,-0.01771509274840355,-0.5059011578559875,0.08770279586315155
-3.1086983680725098,6.611339092254639,5.417360305786133,-0.33135074377059937,0.23256511986255646,0.18900170922279358
-2.4775965213775635,6.955021858215332,7.257055282592773,-0.35470327734947205,0.7761828303337097,-0.06764896214008331
-2.408921241760254,6.942571640014648,7.617105007171631,-0.16235052049160004,0.24703389406204224,-0.29127800464630127
-2.8841512203216553,6.89265775680542,6.990666389465332,-0.053040556609630585,-0.20802579820156097,-0.3678804934024811
-3.2728066444396973,6.842484951019287,5.340965747833252,-0.08368853479623795,-1.0938327312469482,-0.4291240870952606
-2.6723122596740723,6.455188751220703,4.84478235244751,-0.42435935139656067,-0.8706575036048889,-0.35320228338241577
-2.102961540222168,6.853057384490967,6.186875820159912,-0.6831393241882324,-0.022270401939749718,0.1477246731519699
-2.305635452270508,6.682034969329834,7.049583435058594,-0.5539326071739197,-0.1264316439628601,-0.009634217247366905
-2.4767730236053467,6.25407600402832,7.557862758636475,-0.246527761220932,-0.3433586359024048,0.004363323096185923
-2.4428231716156006,6.189087867736816,6.8942952156066895,-0.07356562465429306,-0.3023433983325958,0.13285446166992188
-2.0697107315063477,6.277529716491699,6.547691345214844,-0.11653563380241394,-0.005166174378246069,0.2471037209033966
-2.28855037689209,7.158308506011963,7.452192306518555,-0.03960151970386505,-0.44402921199798584,0.009040805511176586
-1.4966729879379272,7.073754787445068,7.447681427001953,-0.05452408641576767,-0.5458866357803345,-0.14821335673332214
-1.205413579940796,6.672898769378662,7.773513317108154,0.10557496547698975,-0.42097342014312744,-0.3030240535736084
-1.3809181451797485,6.806274890899658,7.75807523727417,0.17472490668296814,-0.3563438653945923,-0.3292912542819977
-1.6597754955291748,6.822239398956299,7.626413345336914,0.25855308771133423,-0.3891560733318329,-0.31295499205589294
-2.316246509552002,7.287604808807373,6.881328105926514,0.38636353611946106,-0.7819947600364685,-0.26853635907173157
-1.8185973167419434,7.1892991065979,6.822967052459717,0.250507116317749,-0.612278938293457,-0.19605283439159393
-1.359657645225525,7.086961269378662,7.217426300048828,0.19463911652565002,-0.6678502559661865,-0.2145358771085739
-1.1949268579483032,7.065787315368652,7.543219566345215,0.2833716571331024,-0.6798755526542664,-0.24664993584156036
-1.3892403841018677,7.044162750244141,7.464287757873535,0.47078511118888855,-0.6080726981163025,-0.22170917689800262
-1.2332819700241089,6.8746724128723145,5.814107894897461,0.3073524832725525,-0.7398450970649719,-0.3766769468784332
-1.2809457778930664,6.603734970092773,6.025171279907227,-0.08676031976938248,-0.6123836636543274,-0.45207518339157104
-1.6528035402297974,6.571145057678223,6.934632778167725,-0.2911558151245117,-0.40966367721557617,-0.3862064480781555
-0.7476900815963745,6.711387634277344,6.10044527053833,-0.10691887140274048,0.06274458765983582,0.2076418250799179
-1.0369958877563477,6.674440383911133,6.481832027435303,-0.2462834119796753,0.10864674299955368,0.14816099405288696
-1.3672136068344116,6.675178050994873,6.900500774383545,-0.24525366723537445,0.13761921226978302,0.1800132542848587
-1.3299981355667114,6.633671760559082,7.097553730010986,-0.179768905043602,0.1276184767484665,0.25221753120422363
-1.4520833492279053,7.385824680328369,5.77807092666626,-0.026965336874127388,0.35215508937835693,0.4299793243408203
-1.2958760261535645,7.16351842880249,5.933377742767334,-0.24532347917556763,0.15704472362995148,0.3934321105480194
-0.6784114241600037,7.081138610839844,6.252802848815918,-0.2975786328315735,0.40566688776016235,0.30428069829940796
-1.4113914966583252,6.787657737731934,7.3994526863098145,-0.30147072672843933,0.17266541719436646,0.08110544830560684
-1.896131157875061,7.190285682678223,6.892351150512695,-0.22115066647529602,0.041399210691452026,0.1474977731704712
-1.993699550628662,7.372014999389648,6.641391277313232,-0.26888543367385864,0.3338640332221985,0.2646791934967041
-2.058180093765259,7.7133612632751465,6.586362838745117,-0.2894279360771179,0.7854679822921753,0.3084869384765625
-1.7890145778656006,7.218681335449219,7.097256660461426,-0.3036349415779114,0.815208375453949,0.20959658920764923
-1.261926293373108,7.056765556335449,6.426841735839844,-0.2934422194957733,0.6206914186477661,0.11575023829936981
-1.424377679824829,7.228583335876465,6.401022911071777,-0.579414427280426,0.19561649858951569,0.08417722582817078
-1.4875174760818481,7.01931095123291,6.909148693084717,-0.9726196527481079,-0.20699605345726013,0.03991568088531494
-0.5339931845664978,6.389683723449707,8.198321342468262,-0.8667479753494263,0.08229227364063263,-0.03300417587161064
0.05220317468047142,5.808620452880859,9.21678638458252,-0.6007946729660034,0.21132446825504303,0.05619960278272629
-0.11450030654668808,5.604510307312012,9.425809860229492,-0.3511427938938141,0.5765869617462158,0.18423695862293243
-0.42746078968048096,5.7176408767700195,9.386707305908203,-0.16749924421310425,0.787876546382904,0.3292738199234009
-0.4336761236190796,5.806360244750977,9.222800254821777,-0.09377653896808624,0.7743152976036072,0.3286280333995819
-0.6401137709617615,5.928550720214844,9.01491641998291,0.05274384841322899,0.7668627500534058,0.24493950605392456
-0.6090370416641235,5.514517307281494,8.513924598693848,0.38238418102264404,0.8037066459655762,0.2549227774143219
-0.9462076425552368,5.4803853034973145,7.818380355834961,0.6739763617515564,0.8215090036392212,0.42331215739250183
-1.3045909404754639,5.744686126708984,6.273718357086182,0.718185544013977,0.9212197065353394,0.5752081871032715
-1.4343854188919067,5.974213600158691,5.900711536407471,0.5950350761413574,0.895284116268158,0.6016673445701599
-1.4412806034088135,5.890751361846924,5.135553359985352,0.23221606016159058,0.8668875694274902,0.5108229517936707
-2.043977975845337,5.855029582977295,5.502086639404297,-0.04590215906500816,0.7486240863800049,0.3749839961528778
-2.6772825717926025,6.067452907562256,6.3016157150268555,-0.2488490492105484,0.3513696789741516,0.24469515681266785
-2.3600029945373535,5.7180047035217285,6.973227500915527,-0.31806880235671997,0.11498229205608368,0.2736501693725586
-1.5586061477661133,5.557468891143799,7.47622013092041,-0.32218778133392334,0.08567821234464645,0.22945843636989594
-1.720329761505127,5.877927780151367,7.650508880615234,-0.2961474657058716,0.0007853981805965304,0.038781214505434036
-1.848649263381958,5.912356376647949,7.684688568115234,-0.2937738299369812,-0.06344271451234818,-0.1264665573835373
-1.9527971744537354,5.8854169845581055,7.634936809539795,-0.30316367745399475,-0.09098401665687561,-0.15830136835575104
-2.4257380962371826,5.869241714477539,8.076351165771484,-0.3038967251777649,-0.2211855798959732,-0.10262536257505417
-2.350062370300293,5.650612831115723,8.104248046875,-0.2188817411661148,-0.20156808197498322,0.04625122621655464
-1.8797452449798584,5.58117151260376,8.463829040527344,-0.11124728620052338,-0.07012733072042465,0.13674654066562653
-1.7393587827682495,5.586161136627197,8.3501615524292,0.04633849114179611,0.13472196459770203,0.17114698886871338
-2.027132272720337,5.858850955963135,8.128640174865723,0.10088002681732178,0.07592181861400604,0.20458748936653137
-2.0708696842193604,5.862011432647705,7.872623443603516,0.12637929618358612,-0.09452702850103378,0.2692868411540985
-1.6353355646133423,5.9465837478637695,7.434848785400391,0.16599826514720917,-0.15919147431850433,0.33599331974983215
-1.1321030855178833,6.116964817047119,7.216152667999268,0.10843730717897415,-0.2203827202320099,0.29763099551200867
-1.001590371131897,6.043951511383057,7.1984453201293945,0.08815658092498779,-0.14090043306350708,0.20694369077682495
-1.0817099809646606,6.065164089202881,7.09871244430542,0.1114741787314415,-0.10115928202867508,0.13861404359340668
-1.2017934322357178,6.088675498962402,6.974778652191162,0.1293463557958603,-0.14213961362838745,0.10346312075853348
-1.2404742240905762,6.146844863891602,6.906927108764648,0.163066104054451,-0.2390751987695694,0.07714354991912842
-1.3861757516860962,6.324561595916748,6.75571870803833,0.1616000384092331,-0.32997193932533264,0.026563910767436028
-1.5674169063568115,6.410589694976807,6.47305965423584,0.18507471680641174,-0.2713812589645386,-0.01286307629197836
-1.6117287874221802,6.456836223602295,6.373805522918701,0.15372860431671143,-0.24445080757141113,-0.00143117003608495
-1.463058352470398,6.433756351470947,6.2263994216918945,0.0316777266561985,-0.306410014629364,0.03604104742407799
-0.9827910661697388,6.3715643882751465,6.375002384185791,-0.1344950646162033,-0.3289945721626282,0.010157816112041473
-0.8943014144897461,6.392796516418457,6.924558162689209,-0.20636773109436035,-0.19753636419773102,-0.07101744413375854
-1.1416511535644531,6.53588342666626,7.275471210479736,-0.0616450272500515,-0.1448448747396469,-0.09251990169286728
-1.2980307340621948,6.668483734130859,7.00968599319458,0.12510520219802856,-0.2468768209218979,-0.09391617029905319
-1.2148945331573486,6.639763355255127,6.460494518280029,0.09810495376586914,-0.34805354475975037,-0.12295844405889511
-1.1758308410644531,6.631038665771484,6.4369354248046875,-0.08285077661275864,-0.3032509684562683,-0.13053317368030548
-1.1682363748550415,6.692540645599365,7.0623779296875,-0.11236429959535599,-0.2583959996700287,-0.11482521146535873
-1.1759073734283447,6.696409702301025,7.357889175415039,0.05775294452905655,-0.31410691142082214,-0.12423253804445267
-0.9669988751411438,6.895483016967773,6.4047770500183105,-0.16556192934513092,-0.33834952116012573,-0.31927308440208435
-1.415212631225586,6.7927141189575195,7.005204200744629,-0.2237686663866043,-0.3061830997467041,-0.3698352575302124
-1.6442131996154785,6.817489147186279,7.243053913116455,-0.09635962545871735,-0.24466025829315186,-0.2981720566749573
-1.3185251951217651,6.914760589599609,7.043281555175781,0.02719222940504551,-0.3467969298362732,-0.2762507200241089
-1.4262354373931885,6.983541488647461,6.696409702301025,0.022183135151863098,-0.41603413224220276,-0.3214198350906372
-1.6806721687316895,7.157629013061523,6.795232772827148,-0.04171336814761162,-0.3974289298057556,-0.24668483436107635
-1.7173608541488647,7.507613182067871,7.131014823913574,-0.019547687843441963,-0.3894702196121216,-0.12807226181030273
-0.41795098781585693,7.063009738922119,7.936280727386475,-0.022444933652877808,-0.50357985496521,-0.41320669651031494
-0.8249269723892212,7.093061923980713,8.137345314025879,0.20847958326339722,-0.4309217929840088,-0.40341541171073914
-1.0599130392074585,7.120767593383789,7.432147979736328,0.5048364996910095,-0.3729768693447113,-0.3753505051136017
-1.1851394176483154,7.024032115936279,6.662574768066406,0.49244463443756104,-0.4011988341808319,-0.4288448393344879
-1.038662075996399,6.5637898445129395,6.6430768966674805,0.4087037444114685,-0.33887311816215515,-0.5036496520042419
-0.8260761499404907,6.32934045791626,6.926511764526367,0.34681436419487,-0.33513811230659485,-0.5921204090118408
-0.9460065364837646,6.410274028778076,7.234655380249023,0.3459940552711487,-0.2964616119861603,-0.6358583569526672
-0.9040601253509521,6.619747638702393,6.366929054260254,0.26542967557907104,-0.0705811157822609,-0.628423273563385
-0.09930191189050674,5.907060623168945,6.224292278289795,0.0039618974551558495,-0.014660765416920185,-0.7713657021522522
-0.9128516316413879,5.255876064300537,7.003604888916016,0.43910738825798035,0.5053600668907166,-1.818807601928711
-3.018916130065918,3.6860554218292236,6.858458995819092,0.29541441798210144,0.6373942494392395,-1.2458159923553467
-5.337920188903809,10.014323234558105,6.880830764770508,0.19366173446178436,0.9170134663581848,0.13648474216461182
-4.305473804473877,6.7640886306762695,5.681651592254639,-0.22661355137825012,1.341599702835083,1.5097795724868774
-1.2800647020339966,5.816732406616211,6.195418357849121,-0.44748497009277344,1.1888659000396729,0.5183278918266296
-0.18028338253498077,6.111448764801025,6.706820011138916,-0.45319220423698425,0.8484219908714294,-0.2526364028453827
-1.2555959224700928,6.212464809417725,6.854091644287109,-0.5556604862213135,0.34410911798477173,-0.8609185814857483
-3.3581936359405518,5.853497505187988,6.7617716789245605,-0.4638212323188782,0.06717772036790848,-0.7485891580581665
-2.7146894931793213,6.51063871383667,6.50368595123291,0.038117989897727966,0.8305149078369141,-0.05958554148674011
-2.84293270111084,6.366939067840576,6.568875312805176,0.09288642555475235,0.8940972685813904,-0.02644173800945282
-2.9062066078186035,6.396665573120117,6.084183692932129,0.11541862040758133,0.7441734671592712,-0.0114493602886796
-3.9806859493255615,7.166477680206299,5.85536527633667,-0.14301228523254395,-0.4383743405342102,-0.062029000371694565
-2.9800820350646973,6.824154853820801,5.832859516143799,-0.41008254885673523,-0.476422518491745,-0.10199704021215439
-2.3971896171569824,6.665821075439453,6.98733377456665,-0.4806811213493347,0.030176742002367973,-0.28529152274131775
-3.172508716583252,6.549281120300293,7.881261825561523,-0.3862064480781555,-0.08676031976938248,-0.27377235889434814
-3.260615587234497,6.7954630851745605,7.463684558868408,-0.16009904444217682,-0.3914948105812073,-0.10739010572433472
-3.1705455780029297,6.751850128173828,6.460714817047119,-0.13226105272769928,-0.3314554691314697,-0.06916739791631699
-2.934190034866333,6.670772552490234,6.1500244140625,-0.28469809889793396,-0.1854761391878128,-0.10958922654390335
-2.8202834129333496,6.292096138000488,6.438036918640137,-0.33592352271080017,-0.1555262953042984,-0.11307988315820694
-3.1959145069122314,6.356854438781738,6.574171543121338,-0.3403741121292114,-0.02733185514807701,-0.026197392493486404
-3.092973470687866,6.3239006996154785,6.888309955596924,-0.27063074707984924,0.3096563220024109,0.06934192776679993
-2.7605338096618652,6.613800525665283,7.256480693817139,-0.03220132365822792,0.8375136852264404,0.13901548087596893
-2.6653687953948975,5.962347507476807,6.2762274742126465,0.0806516632437706,0.8998394012451172,0.026825711131095886
-2.7158100605010986,6.093827724456787,6.256546974182129,-0.06632251292467117,0.9095783233642578,0.1025555431842804
-2.139678955078125,5.6519246101379395,6.4427103996276855,-0.11972958594560623,0.5775643587112427,-0.04588470607995987
-3.4039227962493896,6.566232204437256,6.1982340812683105,-0.292656809091568,0.628946840763092,-0.20432569086551666
-4.612707614898682,6.353847026824951,6.6126604080200195,-0.42620939016342163,0.7381870150566101,-0.18559831380844116
-4.134565830230713,5.810028553009033,8.328364372253418,-0.9749758243560791,-0.5092870593070984,0.19797269999980927
-2.911684513092041,5.509201526641846,10.481077194213867,-0.8054869174957275,-0.4704011380672455,-0.006510077975690365
-3.270019769668579,5.449902534484863,10.972415924072266,-0.5682442784309387,-0.5576850771903992,-0.09393361955881119
-4.102924346923828,5.355024814605713,10.394685745239258,-0.07883652299642563,-0.626067042350769,0.04885176569223404
-3.6040971279144287,4.917288303375244,8.818926811218262,0.2997777462005615,-0.24792401492595673,0.3608468174934387
-3.1207845211029053,5.378516674041748,7.454107284545898,0.3196395933628082,0.015114551410079002,0.46537458896636963
-3.40735125541687,5.704577922821045,7.290803909301758,0.24406683444976807,0.02324778586626053,0.43762385845184326
-3.1590723991394043,5.0551652908325195,7.226304054260254,0.29508280754089355,-0.27984610199928284,0.2970026731491089
-3.298414945602417,4.725589275360107,6.978264808654785,0.282813161611557,-0.6711140275001526,0.15543901920318604
-2.754040479660034,4.241405010223389,7.100924491882324,0.19999727606773376,-0.21539108455181122,0.42879247665405273
-2.817324161529541,4.691610813140869,7.321621894836426,0.09407324343919754,-0.09868091344833374,0.3994709551334381
-2.711174726486206,4.590182781219482,7.606512546539307,0.1253320872783661,0.00783652812242508,0.3200061023235321
-2.491741418838501,5.100070953369141,7.460227012634277,0.2281494438648224,-0.1428377479314804,0.2949082851409912
-2.5058481693267822,5.213948726654053,7.38475227355957,0.23064525425434113,-0.30284953117370605,0.19373154640197754
-2.4800100326538086,5.2029643058776855,7.409221172332764,0.2036101073026657,-0.33627259731292725,0.16201891005039215
-2.079843044281006,5.220126152038574,7.169638156890869,0.10618583112955093,-0.1880941390991211,0.08744099736213684
-2.0245752334594727,5.386254787445068,7.568473815917969,-0.01970476657152176,-0.013281955383718014,-0.00753982225432992
-2.3581833839416504,5.43507719039917,7.94420051574707,-0.07838273793458939,0.021642083302140236,-0.0895702987909317
-2.5459365844726562,5.3915510177612305,7.972174167633057,-0.0797615498304367,0.00017453292093705386,-0.09190903604030609
-2.637012004852295,5.299747467041016,7.999162197113037,-0.05513495206832886,-0.0780685767531395,0.015707964077591896
-2.250559091567993,5.4210662841796875,7.751189231872559,0.00027925267932005227,-0.11102039366960526,0.13257521390914917
-1.682903528213501,5.578068256378174,7.298034191131592,0.05553637817502022,0.016894787549972534,0.11805406957864761
-1.8847347497940063,5.704405784606934,7.236072063446045,0.10937978327274323,0.07810348272323608,0.004206243436783552
-2.3528969287872314,5.838059425354004,6.896631717681885,0.18486528098583221,0.10231120139360428,-0.03164282068610191
-2.63472318649292,5.832735061645508,6.533814907073975,0.2071007639169693,0.08068656921386719,0.05026548355817795
-2.430373191833496,5.827869892120361,6.327836990356445,0.14791665971279144,-0.09328784793615341,0.06143558770418167
-2.1023387908935547,5.8089752197265625,6.255244731903076,0.0019198621157556772,-0.2938436269760132,-0.06448991596698761
-2.1742894649505615,5.795280456542969,6.199517250061035,-0.1448797732591629,-0.24534092843532562,-0.18627898395061493
-2.4763898849487305,5.733806610107422,6.283007621765137,-0.235636904835701,0.11592476814985275,-0.2206445187330246
-2.9293439388275146,5.852712631225586,6.978140354156494,-0.26225316524505615,0.3611784279346466,-0.23692844808101654
-3.2779781818389893,5.990646839141846,7.442558288574219,-0.16844172775745392,0.19076448678970337,-0.22528709471225739
-3.1951963901519775,5.901467800140381,7.251165390014648,-0.05037020146846771,-0.2206096202135086,-0.17933258414268494
-2.9698922634124756,5.927852153778076,6.939392566680908,-0.03125884756445885,-0.527665376663208,-0.13948671519756317
-2.5409278869628906,5.763408660888672,7.064475059509277,-0.049759335815906525,-0.38147661089897156,-0.15165166556835175
-2.2378125190734863,5.872382640838623,7.103548526763916,0.00830776710063219,-0.13835224509239197,-0.17992599308490753
-2.654460906982422,6.057827949523926,7.054227828979492,-0.09555677324533463,-0.19350464642047882,-0.012130037881433964
-2.2685155868530273,6.0043416023254395,7.5462751388549805,0.007958701811730862,0.10316640883684158,0.03544763848185539
-2.232478380203247,6.017337322235107,7.3897705078125,0.2535090744495392,0.4484449028968811,0.005532693583518267
-2.697796106338501,6.209314346313477,6.802252292633057,0.3617194890975952,0.5078384280204773,-0.0625176951289177
-3.1204874515533447,6.548888683319092,6.825189113616943,0.4000294506549835,0.3867824077606201,-0.10363765060901642
-2.6930553913116455,6.59853458404541,6.36665153503418,0.35934582352638245,0.10906562209129333,-0.20868901908397675
-3.7097485065460205,7.072423934936523,6.603840351104736,0.1740093231201172,-0.6723182797431946,-0.36793285608291626
-3.4106264114379883,6.638604164123535,6.928053855895996,0.13466960191726685,-0.7464249730110168,-0.3154508173465729
-3.226569890975952,6.754723072052002,7.069982051849365,0.08859290927648544,-0.7065790891647339,-0.36281904578208923
-3.0729291439056396,6.657719135284424,7.2888689041137695,0.014765485189855099,-0.6584254503250122,-0.3873932659626007
-2.97521710395813,6.407764434814453,8.243054389953613,-0.007103490177541971,-0.637725830078125,-0.41231659054756165
-2.869680643081665,6.433038234710693,8.599225997924805,0.0742986649274826,-0.6532243490219116,-0.37508872151374817
-2.475633382797241,6.4983134269714355,8.256701469421387,0.3413514792919159,-0.6828600764274597,-0.28792697191238403
-2.4241673946380615,6.780139446258545,7.42534875869751,0.4525638818740845,-0.6936985850334167,-0.33478906750679016
-2.4269351959228516,6.795567989349365,6.971560955047607,0.4308170676231384,-0.6443580985069275,-0.3871489465236664
-2.521697759628296,6.639791488647461,6.586592197418213,0.25940829515457153,-0.4392644762992859,-0.46500808000564575
-2.6346945762634277,6.276687145233154,7.183313846588135,0.08124507963657379,-0.22739894688129425,-0.47792351245880127
-2.8476922512054443,5.840693473815918,7.839392185211182,0.06695082783699036,-0.15711453557014465,-0.4265933632850647
-3.1234562397003174,5.826768398284912,7.76522970199585,0.15001104772090912,-0.13355259597301483,-0.27782151103019714
-3.020343065261841,5.472369194030762,7.469420909881592,0.17317156493663788,0.052726395428180695,-0.1572890728712082
-2.8675448894500732,4.918332099914551,7.1911187171936035,0.2025279998779297,0.402647465467453,-0.1869073063135147
-3.390869617462158,5.33704948425293,6.501943588256836,0.0742986649274826,1.0615092515945435,0.09075712412595749
-3.2999377250671387,4.95679235458374,6.841613292694092,0.13288937509059906,1.479917049407959,0.21416935324668884
-2.7602078914642334,5.287431716918945,6.540873050689697,0.22069688141345978,1.725572109222412,0.24733060598373413
-2.760390043258667,5.156449794769287,7.152657985687256,0.28820621967315674,1.0717194080352783,0.031956978142261505
-3.201526641845703,5.706091403961182,6.335163116455078,-0.4006752371788025,-0.058311451226472855,-0.14077825844287872
-3.0783591270446777,6.040609359741211,6.34721040725708,-0.42963024973869324,0.1437104046344757,-0.27637287974357605
