accX,accY,accZ,gyroX,gyroY,gyroZ
2.305788516998291,7.698287487030029,5.2065558433532715,-0.13840460777282715,0.0010646508308127522,0.02661627158522606
2.0936434268951416,7.300715923309326,5.774326324462891,-0.22251202166080475,0.09368927031755447,0.09368927031755447
2.0629303455352783,7.275231838226318,5.771644592285156,-0.20441296696662903,0.06707300245761871,0.09049531817436218
2.236433267593384,7.46270751953125,5.935666561126709,-0.24061109125614166,0.07878416031599045,0.09901253134012222
2.190139055252075,7.462448596954346,5.978359699249268,-0.2704213261604309,0.07878416031599045,0.10433578491210938
2.1893060207366943,7.127931118011475,5.8948211669921875,-0.30661943554878235,0.12030554562807083,0.12775810062885284
2.2928502559661865,7.115653991699219,5.955471038818359,-0.3225892186164856,0.1054004356265068,0.0947539210319519
2.343090295791626,7.240304946899414,5.913744926452637,-0.3055547773838043,-0.03087487444281578,0.0031939526088535786
2.119088888168335,7.15911340713501,6.033167839050293,-0.25019294023513794,0.0010646508308127522,0.010646508075296879
2.196967363357544,7.251701831817627,6.141520023345947,-0.21293017268180847,0.05110324174165726,0.022357666864991188
2.367894172668457,7.331534385681152,6.123457908630371,-0.12562879920005798,0.07771950960159302,0.012775810435414314
2.40974497795105,7.326601982116699,6.0249128341674805,-0.08943066745996475,0.13414600491523743,0.02342231757938862
2.4557230472564697,7.2711334228515625,6.019741058349609,-0.09581857919692993,0.17460273206233978,0.022357666864991188
2.4723961353302,7.214303970336914,6.176609516143799,-0.10327113419771194,0.21186551451683044,-0.014905111864209175
2.4345009326934814,7.196893692016602,6.461509704589844,-0.10646508634090424,0.24061109125614166,-0.03300417587161064
2.4358224868774414,7.175518035888672,6.6127753257751465,-0.0947539210319519,0.23635248839855194,-0.039392080157995224
2.392554521560669,7.121504783630371,6.794102668762207,-0.047909289598464966,0.17779669165611267,-0.05110324174165726
2.2888569831848145,7.073889255523682,6.8757643699646,-0.01171115878969431,0.09155996888875961,-0.047909289598464966
2.1700947284698486,7.014206409454346,6.669613838195801,-0.05216789245605469,-0.02661627158522606,0.0010646508308127522
2.2418441772460938,6.899323463439941,6.719719886779785,-0.11711159348487854,-0.05110324174165726,0.006387905217707157
2.3185832500457764,6.921867370605469,6.761962890625,-0.1330813616514206,-0.048973940312862396,-0.02342231757938862
2.2397851943969727,6.841431140899658,6.72460412979126,-0.11285299062728882,-0.02342231757938862,-0.07559020817279816
2.187467336654663,6.984365463256836,6.799676418304443,-0.07559020817279816,0.043650683015584946,-0.0947539210319519
1.9635902643203735,7.0600409507751465,6.695385456085205,-0.03406882658600807,0.09581857919692993,-0.09049531817436218
2.0488908290863037,7.125364780426025,6.515570640563965,-0.03406882658600807,0.07878416031599045,-0.048973940312862396
1.990548849105835,7.113460540771484,6.457114219665527,-0.05429719388484955,0.05003859102725983,-0.06174974888563156
1.9850901365280151,7.354183197021484,6.291799545288086,-0.11498229205608368,0.13414600491523743,-0.02555162087082863
1.9769881963729858,7.590893268585205,6.155071258544922,-0.2736152708530426,0.30981338024139404,0.009581857360899448
1.8708292245864868,7.405936241149902,6.47768497467041,-0.35665804147720337,0.5184849500656128,-0.0031939526088535786
1.5067286491394043,6.971695423126221,6.796736240386963,-0.3023608326911926,0.558941662311554,0.06387905031442642
1.4803828001022339,6.858861446380615,6.7246809005737305,-0.19908970594406128,0.5089030861854553,0.16289158165454865
1.7315824031829834,6.523108005523682,6.819347381591797,-0.16182692348957062,0.43650683760643005,0.18099063634872437
2.2641966342926025,6.4990315437316895,6.552814960479736,-0.140533909201622,-0.39072686433792114,-0.07771950960159302
2.4735357761383057,6.617429733276367,6.275040149688721,-0.281067818403244,-0.40776127576828003,-0.39817941188812256
2.0152952671051025,6.529763698577881,6.245792388916016,-0.5291314721107483,0.41201987862586975,-0.4524766206741333
1.7683573961257935,6.593861103057861,6.313040733337402,-0.5866225957870483,0.5674588680267334,-0.4599291682243347
1.3240894079208374,6.415416717529297,6.501933574676514,-0.6004630923271179,0.41521382331848145,-0.39817941188812256
1.1905311346054077,6.394750118255615,6.507038116455078,-0.6057863235473633,0.44715335965156555,-0.30661943554878235
1.263630986213684,6.421248912811279,6.676691055297852,-0.5642649531364441,0.5557477474212646,-0.09688322991132736
1.5869247913360596,6.5582356452941895,6.954140663146973,-0.4343775510787964,0.639855146408081,0.02661627158522606
1.6078979969024658,6.345974922180176,7.1598219871521,-0.357722669839859,0.6462430357933044,0.05323254317045212
1.5247808694839478,6.237364768981934,7.284157752990723,-0.1895078420639038,0.5653296113014221,0.042586032301187515
1.2197786569595337,6.303961753845215,7.277463436126709,-0.1469218134880066,0.5451012253761292,0.05003859102725983
1.3402931690216064,6.50385856628418,7.698574542999268,-0.11285299062728882,0.5844933390617371,-0.048973940312862396
1.289727807044983,6.7250542640686035,7.925439357757568,-0.009581857360899448,0.5642649531364441,-0.22144737839698792
0.7851736545562744,6.643287181854248,7.896574974060059,0.12243484705686569,0.46525242924690247,-0.30661943554878235
0.4824795126914978,6.436887741088867,7.783607482910156,0.17034412920475006,0.41201987862586975,-0.29916688799858093
0.06774633377790451,6.078485488891602,7.58020544052124,0.23635248839855194,0.3928561508655548,-0.16927948594093323
0.15905161201953888,6.275758266448975,7.366518020629883,0.2597748041152954,0.3225892186164856,-0.043650683015584946
0.488895982503891,6.420329570770264,7.221381187438965,0.2416757345199585,0.14585717022418976,-0.024486970156431198
0.7176859378814697,6.4873480796813965,6.899734973907471,0.18737854063510895,-0.3364296555519104,-0.11285299062728882
0.7224838733673096,6.560543537139893,6.844179630279541,0.21825341880321503,-0.2629687488079071,-0.1362753063440323
0.6093435287475586,6.669479846954346,6.904389381408691,0.24274039268493652,-0.18844319880008698,-0.14798647165298462
0.5376228094100952,6.939181804656982,6.787351131439209,0.2736152708530426,-0.13840460777282715,-0.12030554562807083
0.4088243246078491,6.962242603302002,6.565629005432129,0.2384817898273468,-0.13521066308021545,-0.010646508075296879
0.34691983461380005,7.115797519683838,6.478968143463135,0.17992599308490753,-0.12243484705686569,0.0351334773004055
0.4539119303226471,6.699110507965088,6.500152111053467,0.008517206646502018,-0.05536184459924698,0.06707300245761871
0.44350191950798035,6.484158992767334,6.456462860107422,-0.2278352826833725,-0.017034413293004036,0.1756673902273178
0.7346943616867065,6.534628868103027,6.577580451965332,-0.32365384697914124,-0.05110324174165726,0.1714087873697281
1.0763468742370605,6.874241828918457,6.82892370223999,-0.4737696349620819,-0.2587101459503174,-0.013840461149811745
1.08699631690979,6.973801612854004,6.897858142852783,-0.6696653962135315,-0.10007718205451965,-0.08304276317358017
1.0869483947753906,6.881031036376953,7.039968490600586,-0.7612253427505493,-0.06494370102882385,-0.1192408949136734
0.7507642507553101,6.033531665802002,7.4602370262146,-0.7708072066307068,-0.06494370102882385,-0.18311993777751923
0.7802894711494446,5.926492214202881,7.899898529052734,-0.5993984341621399,-0.013840461149811745,-0.27893853187561035
0.5491053462028503,5.93380880355835,7.933264255523682,-0.47483426332473755,0.02661627158522606,-0.2842617630958557
0.354408860206604,6.174722671508789,7.6422247886657715,-0.2693566679954529,0.29597294330596924,-0.12456414848566055
0.5191682577133179,6.070210933685303,7.563417434692383,-0.09262461960315704,0.5898165702819824,0.05003859102725983
0.5294920802116394,5.841200828552246,7.636880874633789,-0.012775810435414314,0.6334672570228577,0.06494370102882385
0.34485122561454773,5.313796520233154,7.6872358322143555,0.08197811245918274,0.484416127204895,0.006387905217707157
0.20855411887168884,5.3603973388671875,7.458187580108643,0.02768092229962349,0.11817624419927597,-0.05003859102725983
-0.48819687962532043,5.905815601348877,7.2337164878845215,-0.26829200983047485,-0.9975778460502625,0.024486970156431198
-0.3364044725894928,5.9540252685546875,7.407985687255859,-0.2139948159456253,-1.1945382356643677,0.09581857919692993
0.7474506497383118,6.52224588394165,7.410389423370361,-0.006387905217707157,-1.0870084762573242,0.1927018016576767
1.492918848991394,6.698526382446289,7.056248664855957,0.19483110308647156,-0.4109552204608917,0.126693457365036
1.5036543607711792,6.602815628051758,6.878062725067139,0.2384817898273468,-0.03619812801480293,0.0947539210319519
0.9917740821838379,6.346004009246826,6.761646747589111,0.17034412920475006,0.38433894515037537,0.07133160531520844
0.7402775883674622,6.324676036834717,6.921541690826416,-0.047909289598464966,0.3822096586227417,0.09155996888875961
1.0599896907806396,6.058163642883301,7.534485816955566,-0.40137335658073425,0.2310292273759842,0.2246413230895996
1.0270167589187622,5.690567493438721,7.806964874267578,-0.3885975480079651,0.24274039268493652,0.18631389737129211
1.03697669506073,5.620781421661377,8.113460540771484,-0.26829200983047485,0.20441296696662903,0.11285299062728882
1.1387206315994263,5.6976637840271,8.169495582580566,-0.17673203349113464,0.18418459594249725,0.06281439960002899
1.0205906629562378,5.6675639152526855,7.833262920379639,0.02555162087082863,0.1437278687953949,-0.02768092229962349
0.7329800128936768,5.826414585113525,7.374792575836182,0.06600835174322128,-0.28532642126083374,-0.10114183276891708
0.761949896812439,5.788633823394775,7.191789150238037,0.03087487444281578,-0.2949082851409912,-0.10646508634090424
0.8196980357170105,5.838653087615967,7.368232250213623,-0.03300417587161064,-0.3151366412639618,-0.1469218134880066
0.7110396027565002,6.032171726226807,7.253386974334717,-0.05110324174165726,-0.20867156982421875,-0.09049531817436218
0.7160674333572388,6.020660877227783,7.24678897857666,-0.07771950960159302,-0.15224507451057434,-0.06281439960002899
0.8000560402870178,5.869739532470703,7.073573112487793,-0.02981022372841835,-0.13733996450901031,-0.019163714721798897
0.8280202746391296,5.825657844543457,7.530176162719727,-0.043650683015584946,0.16076228022575378,-0.05855579674243927
0.6467409133911133,5.722180366516113,7.841364860534668,0.045779984444379807,0.05642649531364441,-0.09688322991132736
0.8135114312171936,5.7989959716796875,7.89888334274292,0.2555162012577057,-0.02874557301402092,-0.09262461960315704
0.9790656566619873,5.802367210388184,7.622908115386963,0.3396236300468445,-0.018099064007401466,-0.10433578491210938
1.0513226985931396,5.937639236450195,7.594130039215088,0.3193952441215515,0.2065422683954239,-0.1852492392063141
0.6533201932907104,5.8721818923950195,8.026005744934082,0.3225892186164856,0.08730136603116989,-0.2970375716686249
0.8264688849449158,6.25236177444458,7.286724090576172,0.4982565939426422,-0.2736152708530426,-0.22996458411216736
0.9915059804916382,6.429781913757324,7.158653259277344,0.4375714957714081,-0.1852492392063141,-0.2139948159456253
1.0190871953964233,6.5870041847229,7.08649206161499,0.3151366412639618,-0.02661627158522606,-0.20547761023044586
0.79084312915802,6.497642993927002,7.130152702331543,0.19696040451526642,0.05323254317045212,-0.16289158165454865
0.7065959572792053,6.360110759735107,7.219840049743652,0.16395622491836548,0.013840461149811745,-0.14585717022418976
0.7299442291259766,6.268460273742676,7.1513848304748535,0.13840460777282715,-0.08730136603116989,-0.12243484705686569
0.6655306220054626,6.3481011390686035,7.201193809509277,0.10646508634090424,-0.140533909201622,-0.07984881103038788
0.7129454016685486,6.439645767211914,7.178008079528809,0.09794788062572479,-0.15969762206077576,-0.05003859102725983
0.8591832518577576,6.589580535888672,7.207801818847656,0.08623671531677246,-0.0596204474568367,-0.0031939526088535786
0.6018831729888916,6.5104570388793945,7.064475059509277,0.06281439960002899,0.01171115878969431,0.042586032301187515
0.46446555852890015,6.417303085327148,7.12929105758667,0.02555162087082863,-0.0021293016616255045,0.06600835174322128
0.6200503706932068,6.162196159362793,7.6327056884765625,0.022357666864991188,-0.12137019634246826,0.03193952515721321
0.6607134938240051,6.149047374725342,8.188878059387207,0.4173431396484375,-0.2725506126880646,-0.0351334773004055
0.7034164667129517,6.516604900360107,7.773120403289795,0.6483723521232605,-0.3183306157588959,0.05323254317045212
1.539548397064209,7.067520618438721,5.039315700531006,0.05216789245605469,-0.5663942694664001,0.08836601674556732
1.3592075109481812,6.790434837341309,6.591294765472412,-0.3321710526943207,-0.14905111491680145,0.022357666864991188
1.1850532293319702,6.7479424476623535,7.776797771453857,0.024486970156431198,0.17779669165611267,0.02981022372841835
1.125341773033142,6.714174747467041,7.610161781311035,0.25445154309272766,0.328977108001709,0.018099064007401466
0.9296301603317261,6.552374362945557,6.557115077972412,0.3683691918849945,0.43224823474884033,0.05216789245605469
1.1828793287277222,6.770419597625732,6.234654426574707,0.140533909201622,0.4311835765838623,0.0734609067440033
1.0107265710830688,6.6689910888671875,6.508723735809326,-0.12456414848566055,0.3151366412639618,-0.010646508075296879
0.8457661271095276,6.419266700744629,6.990983009338379,-0.23741713166236877,0.14479251205921173,-0.02555162087082863
0.8346091508865356,6.432348728179932,7.199680805206299,-0.21825341880321503,0.06494370102882385,-0.014905111864209175
0.8401541113853455,6.450965881347656,7.333123683929443,-0.16182692348957062,0.020228365436196327,-0.0031939526088535786
0.9106968641281128,6.492509841918945,7.208290100097656,-0.022357666864991188,-0.02555162087082863,-0.0021293016616255045
0.9862099885940552,6.595096588134766,6.965671539306641,0.06387905031442642,0.05749114602804184,-0.008517206646502018
0.9378949999809265,6.670504570007324,6.805154323577881,0.0841074138879776,0.15543901920318604,-0.010646508075296879
0.8326938152313232,6.524716854095459,6.710324764251709,0.041521381586790085,0.2139948159456253,-0.0021293016616255045
0.7994909882545471,6.672582626342773,6.679928302764893,-0.05855579674243927,0.1895078420639038,0.0
0.8113949298858643,6.764098644256592,6.745739936828613,-0.14905111491680145,0.2001543641090393,0.02768092229962349
0.8286619186401367,6.643651485443115,7.042180061340332,-0.19483110308647156,0.23741713166236877,0.03619812801480293
0.7257687449455261,6.4662885665893555,7.319984436035156,-0.11604694277048111,0.22357667982578278,0.004258603323251009
0.5702317953109741,6.415627479553223,7.443802833557129,0.02768092229962349,0.19163715839385986,-0.024486970156431198
0.4316745698451996,6.487827301025391,7.29949951171875,0.14585717022418976,0.12243484705686569,-0.03193952515721321
0.5258145928382874,6.622946262359619,7.031435012817383,0.1682148277759552,0.03619812801480293,-0.024486970156431198
0.5731335878372192,6.6274566650390625,6.822325706481934,0.10646508634090424,-0.012775810435414314,-0.008517206646502018
0.5715342164039612,6.635051250457764,6.73327112197876,0.05749114602804184,-0.03726277872920036,-0.005323254037648439
0.5256230235099792,6.630186080932617,6.679104328155518,-0.045779984444379807,-0.047909289598464966,0.013840461149811745
0.5359755754470825,6.6770453453063965,6.75452184677124,-0.14159856736660004,-0.06813765317201614,0.05323254317045212
0.5218785405158997,6.676212310791016,6.879910945892334,-0.17779669165611267,-0.07665485888719559,0.07133160531520844
0.6339271068572998,6.441015720367432,7.142545223236084,-0.203348308801651,-0.10114183276891708,0.07665485888719559
0.6976608037948608,6.423413276672363,7.126887321472168,-0.1511804163455963,-0.10965903848409653,0.05323254317045212
0.7600345611572266,6.535691738128662,7.015911102294922,-0.09581857919692993,-0.05003859102725983,0.03193952515721321
0.7739974856376648,6.731709957122803,6.993760108947754,-0.10220648348331451,0.020228365436196327,0.039392080157995224
0.7923466563224792,6.729439735412598,6.953365325927734,-0.1298874020576477,0.06707300245761871,0.05855579674243927
0.8278670907020569,6.773733139038086,6.918821334838867,-0.1682148277759552,0.12137019634246826,0.08943066745996475
0.8440806269645691,6.618856906890869,6.8897175788879395,-0.2416757345199585,0.19163715839385986,0.11498229205608368
0.7719385623931885,6.5665388107299805,7.07175350189209,-0.3193952441215515,0.2661627233028412,0.13840460777282715
0.7943099141120911,6.540805816650391,7.27349853515625,-0.31407198309898376,0.29597294330596924,0.1756673902273178
0.7817930579185486,6.376199722290039,7.292862892150879,-0.26829200983047485,0.3885975480079651,0.27574455738067627
0.7189021706581116,6.161190986633301,7.095666885375977,-0.30342549085617065,0.44395941495895386,0.3257831633090973
0.552466869354248,5.9261088371276855,7.187603950500488,-0.3790156841278076,0.4098905622959137,0.28958502411842346
0.5631928443908691,6.037487506866455,7.509729385375977,-0.39179152250289917,0.39498546719551086,0.2672273516654968
0.5844821333885193,6.0379180908203125,7.625513076782227,-0.3545287251472473,0.4173431396484375,0.26083946228027344
0.6045646071434021,5.951343536376953,7.731547832489014,-0.23741713166236877,0.4141491651535034,0.24061109125614166
0.48521849513053894,5.9517364501953125,7.608217716217041,-0.15011577308177948,0.30981338024139404,0.20228366553783417
0.4791659414768219,5.966973304748535,7.565122127532959,-0.1511804163455963,0.22144737839698792,0.1788613349199295
0.3755640685558319,5.9938459396362305,7.502259731292725,-0.203348308801651,0.1054004356265068,0.15011577308177948
0.4617457389831543,5.993912696838379,7.484073162078857,-0.21825341880321503,0.043650683015584946,0.12456414848566055
0.5274139046669006,5.866694450378418,7.431305408477783,-0.2203827202320099,0.008517206646502018,0.06920230388641357
0.49909526109695435,5.771108627319336,7.496293544769287,-0.11817624419927597,-0.07984881103038788,0.05216789245605469
0.6044688820838928,6.007646083831787,7.5855302810668945,-0.06813765317201614,0.06707300245761871,0.004258603323251009
0.503242015838623,5.92636775970459,7.550057411193848,-0.06707300245761871,0.08304276317358017,-0.013840461149811745
0.4403511583805084,5.858611106872559,7.2923455238342285,-0.10114183276891708,0.0021293016616255045,-0.044715333729982376
0.32399293780326843,5.618022918701172,7.480597019195557,-0.03619812801480293,-0.09794788062572479,-0.047909289598464966
0.3924575448036194,6.003978252410889,7.8862128257751465,0.10220648348331451,-0.08304276317358017,-0.07133160531520844
0.5501300692558289,5.833481788635254,7.803134441375732,0.435442179441452,-0.0841074138879776,-0.16715018451213837
0.5471230149269104,5.691946506500244,7.686565399169922,0.5653296113014221,-0.10220648348331451,-0.22677062451839447
0.31562283635139465,5.519573211669922,7.589676856994629,0.7803890705108643,-0.18099063634872437,-0.35559338331222534
0.15445473790168762,6.0459723472595215,7.438296318054199,0.9613797068595886,-0.22889992594718933,-0.34494686126708984
0.5288121104240417,6.747722148895264,6.330700397491455,0.679247260093689,0.09581857919692993,-0.16927948594093323
0.4643123149871826,6.5287394523620605,6.333228588104248,0.3364296555519104,0.1330813616514206,-0.15011577308177948
0.3729495704174042,6.297440052032471,6.690711498260498,0.21293017268180847,0.05429719388484955,-0.17247343063354492
0.17259322106838226,6.072787284851074,7.570073127746582,0.18311993777751923,-0.19057250022888184,-0.25125759840011597
0.07046613842248917,6.073601245880127,8.103453636169434,0.4758989214897156,-0.48867473006248474,-0.30342549085617065
0.1639070361852646,6.808688640594482,7.541256427764893,0.8038113713264465,-0.6260147094726562,-0.16395622491836548
0.3122134804725647,7.090178966522217,6.588507652282715,0.8187164664268494,-0.3854036033153534,0.012775810435414314
0.23358789086341858,6.876147270202637,6.255244731903076,0.659018874168396,-0.41840776801109314,0.03300417587161064
0.3748745024204254,7.08450984954834,6.449672698974609,0.5674588680267334,-0.7484495639801025,-0.0734609067440033
0.3797970116138458,7.129817962646484,6.851860523223877,0.5738468170166016,-1.0667800903320312,-0.07239625602960587
0.6518261432647705,7.106335639953613,6.86503791809082,0.6217560768127441,-1.0912671089172363,-0.06707300245761871
1.0164152383804321,7.143857479095459,6.516940593719482,0.7473849058151245,-0.9837373495101929,-0.070266954600811
1.277766227722168,7.397499084472656,5.780187129974365,0.8048760294914246,-0.7122514247894287,-0.11391764134168625
1.2275358438491821,7.525435447692871,5.446531295776367,0.7420616149902344,-0.5259374976158142,-0.13840460777282715
1.210594654083252,7.616559028625488,5.145666122436523,0.5248728394508362,-0.3534640669822693,-0.15330971777439117
1.1203044652938843,7.285594463348389,6.299805641174316,0.05642649531364441,0.015969762578606606,-0.19908970594406128
1.080618143081665,7.201998233795166,6.4844465255737305,0.09901253134012222,-0.02342231757938862,-0.19589576125144958
1.1335874795913696,7.286992073059082,6.609078884124756,0.23422318696975708,-0.15863297879695892,-0.1895078420639038
1.2609494924545288,7.435107231140137,6.383238792419434,0.3193952441215515,-0.2778738737106323,-0.19057250022888184
1.200433611869812,7.458867073059082,6.324073314666748,0.3151366412639618,-0.3545287251472473,-0.21293017268180847
0.8982661962509155,7.639591217041016,6.203970432281494,0.2629687488079071,-0.56107097864151,-0.22144737839698792
0.8124388456344604,7.7474164962768555,5.6821208000183105,0.22996458411216736,-0.716509997844696,-0.12030554562807083
0.9332981705665588,7.786250591278076,5.523930549621582,0.20760691165924072,-0.661148190498352,-0.02661627158522606
1.2233126163482666,7.8458662033081055,5.809875011444092,0.15011577308177948,-0.659018874168396,0.02661627158522606
1.1698548793792725,7.675600051879883,6.046555995941162,0.15863297879695892,-0.8091346621513367,0.02555162087082863
1.1610153913497925,7.950339317321777,5.921550273895264,0.19163715839385986,-0.8176518678665161,0.06387905031442642
2.0221140384674072,8.969034194946289,3.7512543201446533,0.14159856736660004,-0.17034412920475006,0.18737854063510895
1.5890796184539795,8.316584587097168,4.747424125671387,-0.21293017268180847,0.3928561508655548,0.070266954600811
1.3958195447921753,8.10265827178955,5.5176005363464355,-0.2704213261604309,0.4695110321044922,0.06068509817123413
1.518900752067566,8.132604598999023,5.85849666595459,-0.12882275879383087,0.6803118586540222,0.15969762206077576
1.6435045003890991,7.669355869293213,5.153720378875732,-0.140533909201622,0.8208457827568054,0.21505947411060333
1.7398568391799927,7.459661960601807,5.163938999176025,-0.27893853187561035,0.8463973999023438,0.1852492392063141
1.6158466339111328,7.320233345031738,5.875055313110352,-0.483351469039917,0.7250272035598755,0.06068509817123413
1.3062859773635864,7.241933822631836,6.579831600189209,-0.4812221825122833,0.5866225957870483,0.02342231757938862
1.1681214570999146,7.287164688110352,6.692770481109619,-0.3960501253604889,0.5110324025154114,0.0351334773004055
1.0531423091888428,7.2585015296936035,6.57366418838501,-0.21825341880321503,0.4109552204608917,0.06600835174322128
1.2189455032348633,7.236810207366943,6.163929462432861,-0.15224507451057434,0.3396236300468445,0.02555162087082863
1.1107850074768066,7.333966255187988,6.186712741851807,-0.18099063634872437,0.30023154616355896,-0.05003859102725983
1.0779558420181274,7.478365898132324,6.271754741668701,-0.18737854063510895,0.21505947411060333,-0.11178833991289139
0.8635310530662537,7.40155029296875,6.3112592697143555,-0.1714087873697281,0.2065422683954239,-0.12349949777126312
0.618632972240448,7.4607253074646,6.367072582244873,-0.15650367736816406,0.23315852880477905,-0.08091346174478531
0.7699753046035767,7.540595531463623,6.462898254394531,-0.126693457365036,0.16395622491836548,-0.08091346174478531
0.6323661208152771,7.265118598937988,6.442155361175537,-0.08304276317358017,0.16608552634716034,-0.07771950960159302
0.7359967827796936,7.337050437927246,6.38736629486084,-0.009581857360899448,0.10646508634090424,-0.0947539210319519
0.6142755150794983,7.363443851470947,6.240285873413086,0.0,0.1192408949136734,-0.08091346174478531
0.6872603893280029,7.565303802490234,6.022212028503418,-0.05216789245605469,0.16715018451213837,-0.014905111864209175
0.6157311797142029,7.190773963928223,6.205397605895996,-0.20441296696662903,0.19908970594406128,-0.06068509817123413
0.39173927903175354,7.107944488525391,6.3108954429626465,-0.17247343063354492,0.15863297879695892,-0.05749114602804184
0.3349871337413788,7.022452354431152,6.31803035736084,-0.15543901920318604,0.10220648348331451,-0.02981022372841835
0.47592899203300476,7.0997467041015625,6.3230671882629395,-0.13201670348644257,-0.0010646508308127522,-0.005323254037648439
0.5557612180709839,7.2291388511657715,6.2133941650390625,-0.10646508634090424,-0.02874557301402092,-0.014905111864209175
0.5672534108161926,7.304556369781494,6.116495609283447,-0.10433578491210938,-0.010646508075296879,-0.005323254037648439
0.4788116216659546,7.290717601776123,6.033263683319092,-0.11178833991289139,0.0596204474568367,0.015969762578606606
0.43834003806114197,7.220146179199219,6.097255706787109,-0.12243484705686569,0.10646508634090424,0.02342231757938862
0.530411422252655,7.203176498413086,6.280038833618164,-0.12243484705686569,0.1511804163455963,0.005323254037648439
0.3737636208534241,7.173900127410889,6.387155532836914,-0.12775810062885284,0.15969762206077576,0.039392080157995224
0.43518924713134766,7.098147392272949,6.463425159454346,-0.13521066308021545,0.07771950960159302,0.06387905031442642
0.4852089285850525,7.035486221313477,6.460399150848389,-0.13521066308021545,0.06707300245761871,0.05749114602804184
0.49737146496772766,7.1761884689331055,6.549635887145996,-0.14905111491680145,0.08304276317358017,0.045779984444379807
0.5082507133483887,7.141942024230957,6.761828899383545,-0.1362753063440323,0.11498229205608368,0.041521381586790085
0.5009627938270569,7.080889701843262,6.892523288726807,-0.0841074138879776,0.16076228022575378,0.039392080157995224
0.5852482318878174,6.9970927238464355,6.932363510131836,0.08197811245918274,0.21186551451683044,0.03087487444281578
0.6011553406715393,7.020038604736328,6.579821586608887,0.15543901920318604,0.24380503594875336,0.015969762578606606
0.6333333849906921,7.146155834197998,6.296999454498291,0.13201670348644257,0.2246413230895996,0.02555162087082863
0.46292367577552795,7.237250328063965,6.001516819000244,0.05323254317045212,0.12243484705686569,0.02661627158522606
0.29861441254615784,7.317705154418945,5.882227897644043,0.008517206646502018,0.09049531817436218,0.05216789245605469
0.08535807579755783,7.360264778137207,5.707231044769287,-0.041521381586790085,0.09901253134012222,0.11498229205608368
-0.08533892780542374,7.5274658203125,5.768953800201416,-0.13095206022262573,0.14159856736660004,0.27148595452308655
-0.1285303235054016,7.21687126159668,6.2088165283203125,-0.17353808879852295,0.024486970156431198,0.39179152250289917
0.3665235638618469,6.773110389709473,6.606042861938477,-0.11817624419927597,-0.16927948594093323,0.4024380147457123
0.8649389147758484,6.882094383239746,6.661626815795898,0.021293016150593758,-0.22889992594718933,0.2831971347332001
0.8877891302108765,7.076475143432617,6.205626964569092,0.10433578491210938,-0.21505947411060333,0.20973621308803558
1.3805733919143677,6.89125919342041,5.751169204711914,-0.07239625602960587,-0.484416127204895,0.08623671531677246
0.7949898838996887,6.947236061096191,5.972135066986084,-0.405631959438324,-0.3321710526943207,-0.29916688799858093
0.4329482614994049,6.853421211242676,6.465321063995361,-0.4311835765838623,-0.17673203349113464,-0.09581857919692993
0.5672534108161926,6.899208068847656,7.067645072937012,-0.3502701222896576,-0.1852492392063141,0.042586032301187515
0.7230488657951355,6.834469318389893,7.307122707366943,-0.2203827202320099,-0.24380503594875336,0.08730136603116989
1.0143179893493652,6.547481060028076,7.4146318435668945,0.040456730872392654,-0.37369245290756226,0.12456414848566055
1.2616772651672363,6.642904281616211,7.423490524291992,0.2108008712530136,-0.3885975480079651,-0.019163714721798897
1.064730167388916,6.790080547332764,7.2788519859313965,0.28852036595344543,-0.40137335658073425,-0.07984881103038788
0.7437443733215332,7.2298665046691895,6.733356952667236,0.3545287251472473,-0.37369245290756226,0.03619812801480293
0.9643557071685791,7.422580718994141,6.3515777587890625,0.18631389737129211,-0.4460887014865875,0.17460273206233978
1.2009412050247192,7.284262657165527,6.425050735473633,0.040456730872392654,-0.5355193614959717,0.1927018016576767
1.4200584888458252,7.092545032501221,6.753746032714844,-0.11498229205608368,-0.657954216003418,0.15224507451057434
1.5567961931228638,7.233467102050781,6.973342418670654,-0.070266954600811,-0.6334672570228577,0.18099063634872437
1.5807859897613525,7.160511016845703,6.868983745574951,0.005323254037648439,-0.5280668139457703,0.20441296696662903
1.744405746459961,6.96779727935791,6.327319622039795,0.10114183276891708,-0.24699899554252625,0.19908970594406128
1.9896198511123657,6.7987380027771,6.084298610687256,0.045779984444379807,-0.03726277872920036,0.08730136603116989
1.9322644472122192,6.755641937255859,6.1862053871154785,-0.0010646508308127522,0.015969762578606606,0.010646508075296879
1.375248670578003,6.668272972106934,6.626546859741211,-0.06174974888563156,-0.13946926593780518,-0.039392080157995224
1.0284820795059204,6.922163963317871,6.870257377624512,-0.09368927031755447,-0.5663942694664001,0.05429719388484955
2.8717586994171143,7.167367935180664,5.8262038230896,-0.1714087873697281,-0.17034412920475006,0.039392080157995224
2.1402249336242676,7.175987243652344,6.534705638885498,-0.22144737839698792,-0.02342231757938862,-0.08091346174478531
1.8473851680755615,7.3091816902160645,6.5996551513671875,-0.05429719388484955,0.4620584547519684,-0.008517206646502018
1.8527770042419434,7.174819469451904,6.591544151306152,-0.021293016150593758,0.5706528425216675,0.03087487444281578
1.6898083686828613,6.653390407562256,7.108940601348877,-0.070266954600811,0.3992440700531006,-0.0031939526088535786
1.517521619796753,6.478240489959717,7.766714096069336,-0.08730136603116989,-0.1756673902273178,-0.05429719388484955
1.4940105676651,6.501186370849609,7.882190704345703,-0.03406882658600807,-0.4279896318912506,-0.05642649531364441
1.6305471658706665,6.672726631164551,7.569307327270508,0.07984881103038788,-0.7452555894851685,-0.09155996888875961
1.4962611198425293,7.143733024597168,6.675014972686768,0.19163715839385986,-0.6664714217185974,-0.06387905031442642
1.9503263235092163,7.567094802856445,5.786776065826416,0.2831971347332001,-0.28532642126083374,0.02555162087082863
2.182898998260498,7.308061122894287,5.593296051025391,0.140533909201622,0.17460273206233978,-0.041521381586790085
1.7980550527572632,7.259430408477783,6.129031658172607,0.01171115878969431,0.1650208830833435,0.009581857360899448
1.856942892074585,7.195734977722168,6.13653039932251,-0.015969762578606606,0.05429719388484955,0.07239625602960587
2.365231990814209,6.805451393127441,5.7949066162109375,-0.08304276317358017,0.05855579674243927,0.06174974888563156
2.2963171005249023,6.689743995666504,6.470789432525635,-0.15969762206077576,0.1085943877696991,-0.1054004356265068
1.5119575262069702,6.626671314239502,7.329360008239746,-0.08836601674556732,-0.13414600491523743,-0.13414600491523743
1.4129046201705933,6.931481838226318,7.17918586730957,0.06068509817123413,-0.36623987555503845,0.019163714721798897
1.9119807481765747,6.902502536773682,6.394816875457764,0.1054004356265068,-0.3704984784126282,0.08836601674556732
2.330573558807373,6.906180381774902,5.849848747253418,0.024486970156431198,-0.25445154309272766,0.012775810435414314
2.4971234798431396,7.054208755493164,5.709874153137207,-0.019163714721798897,-0.10220648348331451,-0.0074525559321045876
2.2445738315582275,7.137144088745117,6.084557056427002,-0.09794788062572479,0.10007718205451965,-0.08623671531677246
1.950891375541687,7.152543544769287,6.198521137237549,-0.041521381586790085,0.20760691165924072,-0.018099064007401466
2.0334434509277344,6.904829502105713,5.990177631378174,-0.0351334773004055,0.3747570812702179,0.03087487444281578
1.78281831741333,6.692943096160889,6.679937362670898,-0.08943066745996475,0.37262779474258423,-0.0010646508308127522
1.6526217460632324,6.560457706451416,7.0817999839782715,-0.0734609067440033,0.15011577308177948,-0.024486970156431198
1.6527652740478516,6.421555042266846,7.206240653991699,0.045779984444379807,-0.27467992901802063,-0.05323254317045212
1.639032244682312,6.613340377807617,6.868610382080078,0.07984881103038788,-0.4003087282180786,-0.06600835174322128
1.6404207944869995,7.140265941619873,5.951046943664551,0.020228365436196327,-0.3822096586227417,0.0074525559321045876
1.7389086484909058,7.266315937042236,5.817239761352539,-0.16395622491836548,-0.19908970594406128,0.10114183276891708
1.8734819889068604,7.141836643218994,5.995579242706299,-0.23315852880477905,-0.06600835174322128,0.1469218134880066
2.2739264965057373,6.92759370803833,6.49761438369751,-0.23315852880477905,0.126693457365036,0.13521066308021545
2.3676836490631104,6.995254039764404,6.900251865386963,-0.13733996450901031,0.2693566679954529,0.06387905031442642
2.0887303352355957,7.156939506530762,6.691200256347656,0.017034413293004036,0.5142263770103455,0.3790156841278076
2.429032564163208,6.649234294891357,6.882602214813232,0.024486970156431198,0.5238082408905029,0.41840776801109314
2.0673165321350098,6.671088695526123,7.145217418670654,0.013840461149811745,0.29597294330596924,0.3162012994289398
1.873194694519043,6.647730827331543,6.847263813018799,-0.15011577308177948,-0.08836601674556732,0.37369245290756226
2.3005595207214355,6.801831245422363,6.667373180389404,-0.38753291964530945,-0.1085943877696991,0.41521382331848145
2.299515962600708,6.860824108123779,6.568933010101318,-0.5855579376220703,-0.009581857360899448,0.43331289291381836
1.994647741317749,7.015997409820557,6.874490737915039,-0.811263918876648,0.06068509817123413,0.4737696349620819
1.627492070198059,6.889525890350342,6.868619918823242,-0.8836601972579956,0.07878416031599045,0.6675360798835754
1.873328685760498,6.816924095153809,6.9196929931640625,-0.9070824980735779,0.11817624419927597,0.7708072066307068
2.524245023727417,6.456233024597168,7.007962226867676,-0.7942295074462891,0.5376486778259277,0.7250272035598755
2.6930747032165527,6.073687553405762,7.704636573791504,-0.5120970606803894,1.0752973556518555,0.5110324025154114
2.4512698650360107,5.7137908935546875,7.940446853637695,-0.2565808594226837,1.1956028938293457,0.35878732800483704
2.2653648853302,5.556367874145508,8.080822944641113,-0.14159856736660004,0.9283755421638489,0.017034413293004036
1.4143123626708984,5.594780445098877,7.722985744476318,-0.047909289598464966,0.39711475372314453,-0.17247343063354492
1.5262844562530518,5.90425443649292,7.579286098480225,-0.06174974888563156,0.24274039268493652,-0.1054004356265068
1.911645531654358,6.119943141937256,7.3658576011657715,-0.12030554562807083,0.11285299062728882,-0.040456730872392654
1.6657801866531372,5.885340213775635,7.308224201202393,-0.20547761023044586,-0.09155996888875961,-0.048973940312862396
1.7487919330596924,6.024577617645264,6.969913482666016,-0.19589576125144958,0.009581857360899448,-0.03087487444281578
1.8224854469299316,6.094785213470459,6.98508358001709,-0.20121900737285614,0.13521066308021545,-0.022357666864991188
1.7369933128356934,5.792723178863525,7.296817779541016,-0.19908970594406128,0.23315852880477905,-0.041521381586790085
1.5012314319610596,5.73431396484375,7.411586284637451,-0.126693457365036,0.19589576125144958,-0.06281439960002899
1.3545053005218506,5.730100631713867,7.295256614685059,-0.05216789245605469,0.06174974888563156,-0.06387905031442642
1.337946891784668,5.7386908531188965,7.275538444519043,-0.015969762578606606,0.02981022372841835,-0.05003859102725983
1.6213629245758057,5.769164085388184,7.5454511642456055,0.042586032301187515,0.02981022372841835,-0.020228365436196327
1.7531685829162598,6.022614479064941,7.564633369445801,0.08943066745996475,-0.038327429443597794,-0.05003859102725983
1.6669198274612427,6.012012481689453,7.330471038818359,0.10114183276891708,-0.07133160531520844,-0.043650683015584946
1.8203977346420288,5.875753879547119,6.72342586517334,0.09581857919692993,-0.02661627158522606,0.024486970156431198
2.1703152656555176,5.806044578552246,6.701227188110352,0.10433578491210938,0.19163715839385986,0.05642649531364441
2.1143195629119873,5.976253032684326,7.258999347686768,-0.03406882658600807,0.7079927921295166,-0.09794788062572479
1.289727807044983,5.918322563171387,7.890810012817383,-0.09901253134012222,0.5270021557807922,-0.11178833991289139
1.1735515594482422,5.979317665100098,8.346723556518555,-0.08623671531677246,0.22889992594718933,0.0
1.2164171934127808,5.938970565795898,8.157533645629883,-0.05003859102725983,0.039392080157995224,0.038327429443597794
1.558318853378296,5.259716510772705,7.4744486808776855,0.12562879920005798,-0.2203827202320099,0.040456730872392654
2.1926674842834473,5.97868537902832,7.818869113922119,0.14266321063041687,0.022357666864991188,-0.1437278687953949
2.003918170928955,6.221007347106934,8.115893363952637,0.203348308801651,0.16182692348957062,-0.2416757345199585
1.2712253332138062,5.834133148193359,7.833703517913818,0.455670565366745,0.15863297879695892,-0.24486969411373138
1.4797602891921997,6.346023082733154,6.64708948135376,0.4727049767971039,0.34494686126708984,-0.17353808879852295
1.195788860321045,6.474534034729004,6.6146240234375,0.2171887755393982,0.558941662311554,-0.11072368919849396
0.8331438302993774,6.403062343597412,7.497969150543213,-0.05429719388484955,0.24699899554252625,-0.11285299062728882
0.7377397418022156,6.1348161697387695,7.858746528625488,-0.010646508075296879,0.0074525559321045876,-0.06707300245761871
0.8258942365646362,5.977804660797119,8.130871772766113,0.22677062451839447,-0.26190412044525146,0.08517206460237503
1.216800332069397,5.9933762550354,7.548334121704102,0.46418777108192444,-0.5419072508811951,0.022357666864991188
1.2380225658416748,6.075305938720703,7.110606670379639,0.483351469039917,-0.5493598580360413,-0.02981022372841835
1.4525909423828125,6.5137224197387695,6.501684665679932,0.3438822329044342,-0.4311835765838623,-0.039392080157995224
1.4656440019607544,6.449586868286133,6.783587455749512,0.1650208830833435,-0.2661627233028412,-0.06600835174322128
1.431770920753479,6.367072582244873,7.093291759490967,0.16289158165454865,-0.23954643309116364,-0.08836601674556732
1.2987778186798096,6.289376258850098,7.342518329620361,0.2661627233028412,-0.2693566679954529,-0.12137019634246826
1.2262144088745117,6.3808159828186035,6.916274070739746,0.31087803840637207,-0.3087487518787384,-0.0841074138879776
1.2939128875732422,6.327281475067139,6.754607677459717,0.2672273516654968,-0.3364296555519104,-0.06281439960002899
1.5356218814849854,6.470195770263672,7.021302700042725,0.15863297879695892,-0.4173431396484375,-0.07878416031599045
1.457417607307434,6.554759502410889,7.284329891204834,0.14479251205921173,-0.46418777108192444,-0.09262461960315704
1.274395227432251,6.606790065765381,7.2321271896362305,0.2171887755393982,-0.6334672570228577,-0.040456730872392654
1.7377307415008545,6.880792140960693,7.1643805503845215,0.3374943137168884,-0.3502701222896576,0.02981022372841835
2.149217367172241,6.879614353179932,6.565762996673584,0.40776127576828003,-0.10220648348331451,-0.03193952515721321
2.0940263271331787,6.884115219116211,6.340334415435791,0.328977108001709,0.13840460777282715,-0.07452555745840073
1.786419153213501,6.8927435874938965,6.592558860778809,0.21931807696819305,0.4450240433216095,-0.044715333729982376
1.6393482685089111,6.86903190612793,6.787236213684082,0.20973621308803558,0.4695110321044922,0.0010646508308127522
1.5525823831558228,6.642042636871338,6.580549716949463,0.18844319880008698,0.38753291964530945,0.004258603323251009
1.6348087787628174,6.500640392303467,6.654874801635742,-0.02768092229962349,0.4311835765838623,0.0
1.7388895750045776,7.1858229637146,6.708888053894043,-0.008517206646502018,0.23422318696975708,0.03406882658600807
1.350051999092102,6.761091232299805,6.562621593475342,0.0,0.13733996450901031,0.0351334773004055
1.4471800327301025,6.786240100860596,6.624823093414307,-0.019163714721798897,0.21293017268180847,0.04684463515877724
1.3936169147491455,6.792886734008789,6.738940238952637,-0.0031939526088535786,0.26403340697288513,0.041521381586790085
1.3095420598983765,6.729804039001465,6.783060550689697,0.05536184459924698,0.23209388554096222,0.06813765317201614
1.545868992805481,6.652078628540039,6.511615753173828,0.07239625602960587,0.19589576125144958,0.012775810435414314
1.3656909465789795,6.762154579162598,6.385805130004883,-0.06600835174322128,0.18099063634872437,-0.03193952515721321
1.2030673027038574,6.950472831726074,6.647788047790527,-0.2171887755393982,0.08730136603116989,-0.039392080157995224
1.1501840353012085,6.978762626647949,6.773292541503906,-0.24061109125614166,0.05110324174165726,-0.03300417587161064
1.169806957244873,7.010682106018066,6.762413024902344,-0.21825341880321503,0.06068509817123413,0.010646508075296879
1.3723756074905396,6.8975324630737305,6.323747634887695,-0.24593433737754822,0.1788613349199295,0.02555162087082863
1.4423246383666992,6.7588791847229,5.797865867614746,-0.4482180178165436,0.3364296555519104,0.0010646508308127522
1.4795113801956177,6.531774997711182,6.246021747589111,-0.7143807411193848,0.5451012253761292,-0.06813765317201614
1.4573698043823242,6.380652904510498,6.7781291007995605,-0.7697425484657288,0.6238853931427002,-0.13201670348644257
1.2816354036331177,6.280603885650635,7.223220348358154,-0.7399323582649231,0.6526309847831726,-0.19696040451526642
0.804470956325531,6.20224666595459,7.871110439300537,-0.5695881843566895,0.558941662311554,-0.21612411737442017
0.41351693868637085,6.086874485015869,7.8041205406188965,-0.30981338024139404,0.17673203349113464,-0.11285299062728882
0.4503301978111267,6.383315563201904,7.380299091339111,-0.08836601674556732,0.10433578491210938,0.14266321063041687
0.5720131397247314,6.430193901062012,6.799983024597168,-0.13733996450901031,0.2661627233028412,0.21186551451683044
0.6354498863220215,6.38477087020874,6.607268810272217,-0.252322256565094,0.3470761775970459,0.22251202166080475
0.6723109483718872,6.220365524291992,6.912519931793213,-0.504644513130188,0.483351469039917,0.1852492392063141
0.690909206867218,5.940052509307861,7.555018424987793,-0.6515663266181946,0.32471850514411926,0.06068509817123413
0.6219274401664734,5.8685808181762695,7.770237922668457,-0.657954216003418,0.1895078420639038,0.012775810435414314
0.6615371108055115,5.960393905639648,7.799274921417236,-0.6004630923271179,0.021293016150593758,0.015969762578606606
0.966845691204071,6.0735249519348145,7.26527214050293,-0.5525537729263306,0.09049531817436218,0.07878416031599045
1.0034960508346558,6.072452068328857,7.340201377868652,-0.660083532333374,0.36623987555503845,0.15863297879695892
0.7505630254745483,5.7868332862854,8.002762794494629,-0.6856351494789124,0.5781053900718689,0.20760691165924072
0.5428900122642517,5.467599868774414,8.252046585083008,-0.6206914186477661,0.5866225957870483,0.20760691165924072
0.3437594771385193,5.27578592300415,8.417524337768555,-0.4695110321044922,0.2949082851409912,0.15330971777439117
0.5423154234886169,5.110930919647217,8.444991111755371,-0.377951055765152,-0.07133160531520844,0.08623671531677246
0.6607900857925415,5.162904262542725,8.566319465637207,-0.37688639760017395,-0.05749114602804184,0.07133160531520844
0.7208271026611328,5.318355083465576,8.519719123840332,-0.3193952441215515,-0.08836601674556732,0.0074525559321045876
0.4227968752384186,5.115001678466797,8.312189102172852,-0.23741713166236877,-0.17460273206233978,-0.02342231757938862
0.3378697633743286,5.063813209533691,8.131006240844727,-0.27893853187561035,-0.12456414848566055,0.017034413293004036
0.5797989964485168,4.7756757736206055,8.025842666625977,-0.26190412044525146,-0.3822096586227417,0.042586032301187515
0.5539608001708984,4.755823135375977,8.020231246948242,-0.21825341880321503,-0.2672273516654968,0.07559020817279816
0.7573913335800171,5.479695796966553,7.897130966186523,-0.2842617630958557,0.23741713166236877,0.03726277872920036
0.28677746653556824,5.245274543762207,8.17435073852539,-0.38114500045776367,0.3651752471923828,0.05003859102725983
0.24305935204029083,5.173697471618652,8.48769474029541,-0.39392080903053284,0.4130845367908478,0.09155996888875961
0.20551827549934387,4.937667369842529,8.345038414001465,-0.2778738737106323,0.3406882584095001,0.16395622491836548
0.3688028156757355,4.857720375061035,8.355668067932129,-0.07878416031599045,0.12243484705686569,0.20867156982421875
0.4624352753162384,5.1396708488464355,8.6943998336792,-0.024486970156431198,0.26083946228027344,0.23422318696975708
0.7511376738548279,5.347938060760498,8.76841926574707,0.10433578491210938,0.4311835765838623,0.17992599308490753
0.45104843378067017,4.806235313415527,8.62564754486084,0.2949082851409912,0.2768092155456543,0.08304276317358017
0.46577757596969604,4.86534309387207,8.575322151184082,0.40882593393325806,0.0947539210319519,0.03300417587161064
0.40180450677871704,4.971042633056641,8.315799713134766,0.56107097864151,-0.03619812801480293,0.024486970156431198
0.37006694078445435,4.965909481048584,7.993368148803711,0.6238853931427002,-0.024486970156431198,0.06281439960002899
0.3157760500907898,5.015192031860352,7.9495158195495605,0.6515663266181946,-0.013840461149811745,0.07878416031599045
0.26338136196136475,5.183455944061279,8.175739288330078,0.7314151525497437,-0.08836601674556732,0.10114183276891708
0.24386382102966309,5.333237171173096,8.179033279418945,0.891112744808197,-0.330041766166687,0.10327113419771194
0.22308214008808136,5.383180618286133,8.013594627380371,0.9592503905296326,-0.4620584547519684,0.11604694277048111
0.5861388444900513,5.6764607429504395,7.438842296600342,0.9454099535942078,-0.5216789245605469,0.1469218134880066
1.0143370628356934,5.753085136413574,7.277846813201904,0.7825183868408203,-0.5387133359909058,0.06068509817123413
1.0714819431304932,5.7520599365234375,7.296090126037598,0.7047988772392273,-0.6100449562072754,-0.040456730872392654
0.7744572162628174,5.775810718536377,7.214629650115967,0.6345319151878357,-0.6749886274337769,-0.15330971777439117
0.6436476111412048,6.06886100769043,7.158825874328613,0.6217560768127441,-0.6728593111038208,-0.12775810062885284
0.7220625281333923,6.34865665435791,7.072960376739502,0.7644193172454834,-0.6153681874275208,-0.0734609067440033
1.0483251810073853,6.25855827331543,6.763763904571533,0.8794015645980835,-0.5248728394508362,-0.06174974888563156
1.0196713209152222,6.243628025054932,6.600680351257324,0.8815308809280396,-0.4631231129169464,-0.09368927031755447
1.2774598598480225,6.479073524475098,6.754598617553711,0.8261690735816956,-0.377951055765152,-0.14905111491680145
1.5791196823120117,6.5973663330078125,7.103299617767334,0.7995527982711792,-0.6111095547676086,-0.3502701222896576
1.3647524118423462,6.503341197967529,7.082498550415039,0.8155225515365601,-0.7825183868408203,-0.484416127204895
1.5178760290145874,6.947523593902588,6.636775016784668,0.910276472568512,-0.7846476435661316,-0.4588645100593567
1.6566725969314575,7.111995220184326,5.965555667877197,0.9549918174743652,-0.4758989214897156,-0.20760691165924072
1.8167393207550049,6.927488803863525,5.792847633361816,0.8953713774681091,-0.3704984784126282,-0.1852492392063141
2.386530876159668,7.175451278686523,5.6017327308654785,0.5717175006866455,-0.39072686433792114,-0.3321710526943207
2.510272741317749,7.0721940994262695,6.023169994354248,0.25764551758766174,-0.5025151968002319,-0.49932125210762024
2.0998871326446533,7.080842018127441,6.222357749938965,0.20121900737285614,-0.5695881843566895,-0.505709171295166
1.4365880489349365,7.201021671295166,6.545853137969971,0.19057250022888184,-0.5898165702819824,-0.3609166443347931
1.228062629699707,7.069684982299805,6.521231174468994,0.27467992901802063,-0.6238853931427002,-0.21612411737442017
1.4416254758834839,7.0548505783081055,6.394864559173584,0.32791244983673096,-0.5301961302757263,-0.15650367736816406
1.844598412513733,7.067022323608398,6.352248191833496,0.42266637086868286,-0.31407198309898376,-0.1895078420639038
1.6262279748916626,7.5393218994140625,6.459508419036865,0.49932125210762024,-0.2384817898273468,-0.22677062451839447
1.3497742414474487,7.590653896331787,6.588479042053223,0.5003858804702759,-0.31407198309898376,-0.2139948159456253
1.1201798915863037,7.454883098602295,6.8265204429626465,0.49293333292007446,-0.6132388710975647,-0.14585717022418976
1.6580612659454346,7.357649803161621,6.82385778427124,0.5429719090461731,-0.7825183868408203,-0.17247343063354492
2.0658226013183594,7.677457809448242,6.58695650100708,0.5568124055862427,-0.8027467131614685,-0.2310292273759842
2.365499973297119,8.564864158630371,4.283973693847656,0.49612727761268616,-0.17247343063354492,-0.2949082851409912
1.5029265880584717,8.569671630859375,5.036547660827637,0.09794788062572479,0.30023154616355896,-0.29277896881103516
0.849280834197998,8.338401794433594,6.101325988769531,-0.08091346174478531,0.07452555745840073,-0.09581857919692993
1.429175615310669,8.01523208618164,5.936758518218994,-0.01171115878969431,0.03406882658600807,0.13201670348644257
1.8646234273910522,7.766512870788574,5.114254474639893,-0.042586032301187515,0.26190412044525146,0.07878416031599045
1.8699097633361816,8.00935173034668,5.077680587768555,-0.21505947411060333,0.560006320476532,-0.06920230388641357
1.2875155210494995,7.6812214851379395,5.364754676818848,-0.280003160238266,0.6494370102882385,-0.11498229205608368
1.0976552963256836,7.616989612579346,5.514066696166992,-0.2491282969713211,0.7101221084594727,-0.018099064007401466
1.1550779342651367,7.519603729248047,5.448762893676758,-0.2416757345199585,0.7058635354042053,0.021293016150593758
1.0964964628219604,7.448553085327148,5.34502649307251,-0.2917143404483795,0.6813765168190002,0.02342231757938862
1.025005578994751,7.480807781219482,5.418720245361328,-0.34494686126708984,0.6451784372329712,0.014905111864209175
0.788889467716217,7.46926736831665,5.695738792419434,-0.41947242617607117,0.5429719090461731,0.005323254037648439
0.7153204083442688,7.3311028480529785,6.175268650054932,-0.43650683760643005,0.4035026729106903,0.0351334773004055
0.7390709519386292,7.322972297668457,6.271640300750732,-0.3928561508655548,0.37262779474258423,0.06068509817123413
0.8476718664169312,7.443276405334473,6.339348316192627,-0.27893853187561035,0.41840776801109314,0.11391764134168625
0.8499990701675415,7.557001113891602,6.242967128753662,-0.20228366553783417,0.4908040463924408,0.1437278687953949
0.8632533550262451,7.517314434051514,6.263337135314941,-0.20760691165924072,0.4695110321044922,0.15011577308177948
0.8912368416786194,7.282481670379639,6.571576118469238,-0.203348308801651,0.3609166443347931,0.11498229205608368
0.9338153004646301,7.25400972366333,6.8792405128479,-0.08517206460237503,0.3374943137168884,0.05003859102725983
0.742240846157074,7.567650318145752,6.490805149078369,0.1085943877696991,0.35985198616981506,0.06920230388641357
0.525738000869751,7.633835315704346,6.155961990356445,0.05429719388484955,0.37369245290756226,0.16076228022575378
0.491979718208313,7.525608062744141,5.888357162475586,-0.06068509817123413,0.31087803840637207,0.21505947411060333
0.6678769588470459,7.416815280914307,5.838586330413818,-0.3055547773838043,0.20760691165924072,0.2725506126880646
1.0330309867858887,7.3490118980407715,6.148731231689453,-0.48548078536987305,0.1469218134880066,0.26403340697288513
1.094820499420166,7.066821098327637,6.103250980377197,-0.5663942694664001,0.27148595452308655,0.24274039268493652
1.285399079322815,7.077614784240723,6.352008819580078,-0.659018874168396,0.405631959438324,0.1330813616514206
0.8434581160545349,6.800337314605713,6.682954788208008,-0.5749114751815796,0.3481408357620239,0.09368927031755447
0.6334962248802185,6.712316989898682,6.637340068817139,-0.4695110321044922,0.21612411737442017,0.17992599308490753
0.8972893357276917,6.653074741363525,6.611980438232422,-0.44289475679397583,0.12243484705686569,0.22677062451839447
1.0597598552703857,6.694695472717285,6.528413772583008,-0.44715335965156555,0.11817624419927597,0.20867156982421875
0.911233127117157,6.712939262390137,6.355820178985596,-0.5174202919006348,0.12243484705686569,0.1298874020576477
0.7731164693832397,6.755517959594727,6.334042549133301,-0.5781053900718689,0.13521066308021545,0.0947539210319519
0.7549684047698975,6.7770562171936035,6.413472652435303,-0.7026695609092712,0.14905111491680145,0.08197811245918274
0.5521986484527588,6.357524871826172,7.050368785858154,-0.7431262731552124,0.3428175747394562,0.048973940312862396
0.5204324126243591,6.323431491851807,7.579448699951172,-0.5333900451660156,0.33855897188186646,0.0
0.5218785405158997,6.342249870300293,7.78767728805542,-0.3885975480079651,0.33430036902427673,-0.02342231757938862
0.42629238963127136,6.349575996398926,8.024980545043945,-0.0841074138879776,0.2310292273759842,-0.09368927031755447
0.297187477350235,6.408693790435791,7.8028950691223145,0.16289158165454865,-0.039392080157995224,-0.15330971777439117
0.2789340913295746,6.431275844573975,7.553802013397217,0.22677062451839447,-0.13414600491523743,-0.14905111491680145
0.28134745359420776,6.4844465255737305,7.024625778198242,0.2246413230895996,-0.22144737839698792,-0.10220648348331451
0.33664393424987793,6.480126857757568,6.8663787841796875,0.17992599308490753,-0.24486969411373138,-0.07452555745840073
0.5161802768707275,6.4764018058776855,6.740415096282959,0.02874557301402092,-0.22144737839698792,-0.05855579674243927
0.6125516891479492,6.481075286865234,7.007885932922363,-0.070266954600811,-0.17034412920475006,-0.07984881103038788
0.7126485109329224,6.462343215942383,7.340421199798584,-0.06494370102882385,-0.18099063634872437,-0.11711159348487854
0.7870985865592957,6.453982353210449,7.405237197875977,-0.015969762578606606,-0.20973621308803558,-0.1330813616514206
0.7267838716506958,6.42234992980957,7.271956443786621,0.08730136603116989,-0.26403340697288513,-0.13521066308021545
0.7142382860183716,6.628778457641602,6.9432902336120605,0.12775810062885284,-0.24593433737754822,-0.12030554562807083
0.6337643265724182,6.708543300628662,6.834469318389893,0.11072368919849396,-0.17779669165611267,-0.08730136603116989
0.5849513411521912,6.701351642608643,6.652184009552002,0.040456730872392654,-0.06600835174322128,0.0031939526088535786
0.7244184017181396,6.583259582519531,6.693613052368164,-0.07452555745840073,0.005323254037648439,0.05429719388484955
0.7972021698951721,6.501607894897461,6.830915927886963,-0.13414600491523743,-0.014905111864209175,0.03193952515721321
0.8339387774467468,6.309564590454102,7.096346855163574,-0.1511804163455963,-0.11072368919849396,-0.05110324174165726
0.7715458273887634,6.2811784744262695,7.234894752502441,-0.0841074138879776,-0.3023608326911926,-0.13201670348644257
0.8471068739891052,6.4042887687683105,7.3192853927612305,-0.040456730872392654,-0.35239943861961365,-0.14159856736660004
0.7745242118835449,6.455524444580078,7.068286418914795,0.04684463515877724,-0.4141491651535034,-0.13201670348644257
0.8474228978157043,6.5564446449279785,6.8824872970581055,0.06387905031442642,-0.3055547773838043,-0.07878416031599045
0.7929787635803223,6.555161476135254,6.78527307510376,0.05536184459924698,-0.2246413230895996,-0.05110324174165726
0.8120844960212708,6.490719318389893,6.475654602050781,0.015969762578606606,-0.13946926593780518,0.012775810435414314
0.9527965188026428,6.601302623748779,6.618100166320801,-0.013840461149811745,-0.0010646508308127522,0.06707300245761871
1.0162428617477417,6.854666709899902,7.050445079803467,-0.09794788062572479,0.1469218134880066,0.039392080157995224
0.6826730966567993,6.5662994384765625,7.192813873291016,-0.07559020817279816,0.0021293016616255045,0.02874557301402092
0.6518645286560059,6.485595703125,7.0761494636535645,-0.02874557301402092,-0.010646508075296879,0.070266954600811
0.9066171050071716,6.316593647003174,7.051872253417969,0.09688322991132736,0.14905111491680145,0.11711159348487854
1.0732439756393433,6.706705093383789,7.177816867828369,0.12137019634246826,0.32791244983673096,0.06494370102882385
0.6220231652259827,6.315444469451904,7.137881278991699,0.005323254037648439,0.18631389737129211,0.022357666864991188
0.6653486490249634,6.402823448181152,7.193503379821777,-0.0351334773004055,0.006387905217707157,0.015969762578606606
0.7451043128967285,6.475760459899902,7.460485935211182,0.019163714721798897,-0.06707300245761871,0.010646508075296879
0.7939938902854919,6.21015739440918,7.654425621032715,0.21612411737442017,-0.15543901920318604,-0.0351334773004055
0.7670639157295227,6.102982997894287,7.746401309967041,0.35665804147720337,-0.2416757345199585,-0.070266954600811
0.7489159107208252,6.295151233673096,7.669374942779541,0.7069281339645386,-0.5152910351753235,-0.16927948594093323
0.6614891886711121,6.389377593994141,7.383354187011719,0.9443452954292297,-0.6888290643692017,-0.25445154309272766
0.5685941576957703,6.658169269561768,6.892906665802002,1.008224368095398,-1.0784913301467896,-0.39392080903053284
0.7691708207130432,6.975812911987305,6.537195205688477,1.0018364191055298,-1.2062493562698364,-0.41521382331848145
0.9762787818908691,7.325271129608154,6.173410415649414,0.9720262289047241,-1.2243484258651733,-0.38008034229278564
0.8413608074188232,7.4401445388793945,5.48228120803833,0.8421388268470764,-1.013547658920288,-0.3651752471923828
0.9468972086906433,7.381314277648926,5.105453014373779,0.6025923490524292,-0.8740783333778381,-0.19696040451526642
1.7616057395935059,7.5207624435424805,5.263595104217529,0.4514119625091553,-0.6483723521232605,-0.1085943877696991
1.8002960681915283,7.492855548858643,5.402841567993164,0.39711475372314453,-0.4939979910850525,-0.1054004356265068
1.9497709274291992,7.616750717163086,5.468079090118408,0.2981022298336029,-0.4311835765838623,-0.15863297879695892
1.7593169212341309,7.779603958129883,5.525032043457031,0.10114183276891708,-0.34175291657447815,-0.2278352826833725
1.325075626373291,7.717623233795166,5.708332538604736,0.044715333729982376,-0.25125759840011597,-0.22144737839698792
1.2902543544769287,7.777440071105957,6.06842041015625,0.07452555745840073,-0.1298874020576477,-0.045779984444379807
1.6895114183425903,7.919827461242676,6.282634258270264,0.1682148277759552,-0.041521381586790085,0.07984881103038788
1.6960524320602417,7.834517478942871,6.144881248474121,0.20973621308803558,-0.045779984444379807,0.11285299062728882
1.8028913736343384,7.641257286071777,5.714672565460205,0.13840460777282715,-0.024486970156431198,0.16608552634716034
1.94558584690094,7.595097064971924,5.697864532470703,0.04684463515877724,-0.042586032301187515,0.126693457365036
1.9809050559997559,7.537118911743164,5.867920398712158,-0.10220648348331451,-0.08517206460237503,0.009581857360899448
1.8299074172973633,7.52993631362915,6.285717964172363,-0.09049531817436218,-0.07133160531520844,-0.05323254317045212
1.3715327978134155,7.377358913421631,6.785694122314453,0.06707300245761871,-0.12349949777126312,-0.05110324174165726
1.3440760374069214,7.271842002868652,6.883569240570068,0.17673203349113464,-0.26829200983047485,-0.03619812801480293
1.5427756309509277,7.4338812828063965,6.421431064605713,0.3023608326911926,-0.4620584547519684,0.0
1.8792951107025146,7.77039098739624,5.2839460372924805,0.33536502718925476,-0.4035026729106903,0.03406882658600807
2.3370280265808105,8.083542823791504,4.05645751953125,0.2736152708530426,-0.10965903848409653,0.042586032301187515
2.165823459625244,7.9958577156066895,4.395783424377441,-0.07771950960159302,0.5089030861854553,-0.018099064007401466
1.3095804452896118,7.706533432006836,5.72704553604126,-0.20760691165924072,0.36943385004997253,-0.022357666864991188
1.2019658088684082,7.728377819061279,6.047868728637695,-0.16182692348957062,0.2831971347332001,0.07984881103038788
1.433398962020874,7.759521484375,5.892149448394775,-0.06920230388641357,0.14585717022418976,0.2310292273759842
1.962498426437378,7.451004981994629,5.171408653259277,-0.22996458411216736,0.2672273516654968,0.14798647165298462
1.6433035135269165,7.58742618560791,5.498867988586426,-0.3534640669822693,0.505709171295166,0.004258603323251009
1.7608875036239624,7.6846208572387695,6.480347633361816,-0.36943385004997253,0.7111867666244507,0.02874557301402092
1.6084438562393188,7.656292915344238,6.893184661865234,-0.13733996450901031,0.8538499474525452,-0.05536184459924698
0.8905760049819946,7.575024604797363,6.736412048339844,0.20441296696662903,0.8155225515365601,0.008517206646502018
0.9944747686386108,7.763639450073242,5.973447322845459,0.3012961745262146,0.7473849058151245,0.16395622491836548
1.10908043384552,7.713868618011475,5.7445902824401855,0.26083946228027344,0.7324797511100769,0.203348308801651
1.4137473106384277,7.417064666748047,5.6911420822143555,0.10114183276891708,0.6451784372329712,0.17034412920475006
1.4803828001022339,7.33323860168457,5.852348327636719,-0.006387905217707157,0.5089030861854553,0.020228365436196327
1.361228108406067,7.371699333190918,5.856734275817871,-0.03726277872920036,0.4599291682243347,-0.039392080157995224
1.206284999847412,7.401789665222168,5.942724704742432,-0.044715333729982376,0.4162784814834595,-0.09581857919692993
1.1288948059082031,7.396704196929932,5.894619941711426,-0.02661627158522606,0.377951055765152,-0.12456414848566055
1.0419087409973145,7.377320766448975,5.926089763641357,0.015969762578606606,0.32471850514411926,-0.17353808879852295
0.9026139974594116,7.496169090270996,5.99812650680542,0.09901253134012222,0.33430036902427673,-0.19696040451526642
0.864565372467041,7.500095367431641,5.860249042510986,0.1437278687953949,0.32791244983673096,-0.17779669165611267
0.7288141250610352,7.710000038146973,5.562180519104004,0.09368927031755447,0.30661943554878235,-0.1192408949136734
0.6917136311531067,7.699704647064209,5.558953285217285,-0.041521381586790085,0.26403340697288513,-0.07452555745840073
0.6290813088417053,7.613255023956299,5.842110633850098,-0.1543743759393692,0.12243484705686569,-0.039392080157995224
0.617004930973053,7.5221028327941895,5.953938961029053,-0.1756673902273178,0.05536184459924698,-0.039392080157995224
0.7200800776481628,7.575656414031982,6.135362148284912,-0.15863297879695892,0.014905111864209175,-0.048973940312862396
0.6406787633895874,7.5895233154296875,6.199948310852051,-0.07559020817279816,0.0021293016616255045,-0.0841074138879776
0.5079250931739807,7.597251892089844,6.187536716461182,-0.017034413293004036,0.05749114602804184,-0.08730136603116989
0.4811483323574066,7.689974784851074,6.013640880584717,0.06174974888563156,0.10114183276891708,-0.06813765317201614
0.3538343012332916,7.6722002029418945,5.7700066566467285,0.05323254317045212,0.1330813616514206,-0.040456730872392654
0.34222719073295593,7.6661763191223145,5.690174579620361,-0.06920230388641357,0.06813765317201614,0.006387905217707157
0.4643697738647461,7.658102989196777,5.832418918609619,-0.15011577308177948,-0.03406882658600807,0.05003859102725983
0.5045540928840637,7.641563892364502,5.987132549285889,-0.16289158165454865,-0.005323254037648439,0.08943066745996475
0.6428527235984802,7.562564849853516,6.0674147605896,-0.1298874020576477,0.018099064007401466,0.10007718205451965
0.6521039605140686,7.512392044067383,5.960661888122559,-0.10327113419771194,0.03726277872920036,0.09581857919692993
0.7271286845207214,7.408100605010986,5.838748931884766,-0.12243484705686569,0.08091346174478531,0.08197811245918274
0.8704359531402588,7.471001148223877,6.134471893310547,-0.13521066308021545,0.14159856736660004,0.03193952515721321
0.7868016958236694,7.344165802001953,6.308108329772949,-0.07771950960159302,0.13414600491523743,-0.01171115878969431
0.7176092863082886,7.301750183105469,6.3170342445373535,-0.0351334773004055,0.10007718205451965,-0.02768092229962349
0.6362447738647461,7.3057146072387695,6.107407093048096,-0.009581857360899448,0.019163714721798897,-0.03406882658600807
0.634425163269043,7.398015975952148,6.069224834442139,-0.024486970156431198,-0.017034413293004036,-0.03726277872920036
0.6477847695350647,7.493219375610352,6.024682998657227,-0.0596204474568367,-0.05003859102725983,-0.02342231757938862
0.5585960149765015,7.511597156524658,6.001354217529297,-0.08730136603116989,-0.039392080157995224,0.014905111864209175
0.5738135576248169,7.486908435821533,5.900174617767334,-0.12882275879383087,-0.03193952515721321,0.05536184459924698
0.6471335291862488,7.518003940582275,5.917728900909424,-0.16182692348957062,-0.022357666864991188,0.070266954600811
0.6643909811973572,7.37410306930542,6.159351825714111,-0.16608552634716034,0.019163714721798897,0.05749114602804184
0.5291664600372314,7.298293113708496,6.085725784301758,-0.05749114602804184,-0.013840461149811745,-0.014905111864209175
0.5111716389656067,7.43643856048584,6.237364768981934,-0.07559020817279816,0.048973940312862396,0.0010646508308127522
0.5113152861595154,7.353043556213379,6.382433891296387,-0.05536184459924698,0.05855579674243927,0.0031939526088535786
0.5873742699623108,7.328306674957275,6.602461338043213,0.02342231757938862,0.0734609067440033,0.014905111864209175
0.6150608658790588,7.3293986320495605,6.454911708831787,0.10220648348331451,0.009581857360899448,0.004258603323251009
0.6936002373695374,7.288428783416748,6.190179824829102,0.09262461960315704,-0.038327429443597794,0.008517206646502018
0.7356902956962585,7.316249370574951,6.141185283660889,0.06068509817123413,-0.05003859102725983,0.0031939526088535786
0.690401554107666,7.371239185333252,6.123869895935059,0.018099064007401466,-0.05216789245605469,-0.012775810435414314
0.6671682596206665,7.422303199768066,6.1617560386657715,0.0031939526088535786,-0.03193952515721321,-0.018099064007401466
0.6077154278755188,7.38685941696167,6.180105209350586,0.0074525559321045876,-0.012775810435414314,0.0031939526088535786
0.6990494132041931,7.423040390014648,6.040283679962158,0.0021293016616255045,-0.02981022372841835,0.015969762578606606
0.7290152311325073,7.434676170349121,5.91723108291626,-0.03726277872920036,-0.022357666864991188,0.01171115878969431
0.7018937468528748,7.449664115905762,5.908612251281738,-0.0596204474568367,-0.021293016150593758,0.006387905217707157
0.6166505813598633,7.4400105476379395,5.859387397766113,-0.10114183276891708,0.014905111864209175,0.02342231757938862
0.5781422853469849,7.365723133087158,5.869462013244629,-0.16608552634716034,0.03726277872920036,0.039392080157995224
0.6374130845069885,7.291512489318848,6.118171691894531,-0.2278352826833725,-0.038327429443597794,0.07452555745840073
0.7110491991043091,7.222674369812012,6.248320579528809,-0.2917143404483795,-0.043650683015584946,0.07239625602960587
0.7602835297584534,7.1763129234313965,6.683711051940918,-0.27148595452308655,-0.004258603323251009,0.048973940312862396
0.8132432699203491,7.194528102874756,6.34170389175415,0.02555162087082863,-0.06068509817123413,-0.006387905217707157
0.7183562517166138,7.30794620513916,6.211918830871582,-0.06707300245761871,-0.05749114602804184,-0.0031939526088535786
0.7232021689414978,7.267158508300781,6.435537815093994,-0.11498229205608368,-0.040456730872392654,0.008517206646502018
0.7359775900840759,7.221735954284668,6.480672836303711,-0.09901253134012222,-0.024486970156431198,0.017034413293004036
0.8369075655937195,7.180076599121094,6.448858737945557,-0.05429719388484955,-0.012775810435414314,-0.0074525559321045876
0.770588219165802,7.127145767211914,6.378852367401123,-0.047909289598464966,0.009581857360899448,-0.008517206646502018
0.7643823623657227,7.158404350280762,6.311948776245117,-0.05429719388484955,-0.004258603323251009,-0.008517206646502018
0.774591326713562,7.137603282928467,6.386868000030518,-0.06174974888563156,0.017034413293004036,-0.013840461149811745
0.7443094253540039,7.047811508178711,6.447604656219482,-0.03300417587161064,0.024486970156431198,-0.013840461149811745
0.7850204706192017,6.9951491355896,6.460159778594971,-0.021293016150593758,0.021293016150593758,-0.014905111864209175
0.8070566654205322,6.947648048400879,6.332912445068359,-0.008517206646502018,0.0031939526088535786,-0.03300417587161064
0.7731356024742126,7.0452351570129395,6.258213520050049,-0.04684463515877724,-0.013840461149811745,-0.042586032301187515
0.7907569408416748,7.063067436218262,6.271716594696045,-0.07665485888719559,-0.020228365436196327,-0.038327429443597794
0.7924137115478516,7.075277805328369,6.502000331878662,-0.11604694277048111,-0.02555162087082863,-0.040456730872392654
0.7647079825401306,7.08191442489624,6.625751972198486,-0.11817624419927597,-0.05216789245605469,-0.047909289598464966
0.6675609350204468,7.07082462310791,6.6561102867126465,-0.08197811245918274,-0.09262461960315704,-0.05110324174165726
0.6863027215003967,7.0824127197265625,6.615294456481934,-0.03619812801480293,-0.06920230388641357,-0.03087487444281578
0.7307103872299194,7.092889785766602,6.5409111976623535,-0.017034413293004036,-0.03300417587161064,-0.03726277872920036
0.6902675032615662,7.120039939880371,6.467313289642334,-0.022357666864991188,-0.02342231757938862,-0.040456730872392654
0.5544109344482422,7.16809606552124,6.427597999572754,-0.038327429443597794,-0.019163714721798897,-0.020228365436196327
0.595581591129303,7.180498123168945,6.429475784301758,-0.045779984444379807,-0.02555162087082863,-0.0021293016616255045
0.6583288311958313,7.167655944824219,6.401300430297852,-0.05429719388484955,-0.009581857360899448,0.017034413293004036
0.726448655128479,7.043032646179199,6.488813400268555,-0.02981022372841835,0.015969762578606606,0.009581857360899448
0.7147074937820435,6.9935302734375,6.4493184089660645,-0.0074525559321045876,0.0021293016616255045,-0.013840461149811745
0.7242938876152039,7.04364538192749,6.460772514343262,-0.004258603323251009,0.0074525559321045876,-0.024486970156431198
0.6604836583137512,7.096452236175537,6.424227714538574,-0.038327429443597794,0.024486970156431198,-0.008517206646502018
0.682941198348999,7.029261112213135,6.550995826721191,-0.10220648348331451,-0.03406882658600807,0.0074525559321045876
0.7846660614013672,6.975621700286865,6.729593276977539,-0.09688322991132736,-0.06600835174322128,0.0021293016616255045
0.8841882944107056,6.958967208862305,6.825993537902832,-0.05642649531364441,-0.09049531817436218,-0.02661627158522606
0.860677182674408,7.009581089019775,6.8598856925964355,-0.018099064007401466,-0.09368927031755447,-0.047909289598464966
0.781879186630249,7.044804096221924,6.730838298797607,0.0351334773004055,-0.09688322991132736,-0.05110324174165726
0.7732983827590942,7.086147308349609,6.5790557861328125,0.03087487444281578,-0.07984881103038788,-0.02661627158522606
0.7619020342826843,7.096414089202881,6.464583873748779,0.008517206646502018,-0.06068509817123413,-0.018099064007401466
0.7449223399162292,6.979241847991943,6.471517562866211,-0.02661627158522606,-0.044715333729982376,-0.006387905217707157
0.7482646703720093,6.969501972198486,6.590107440948486,-0.03300417587161064,-0.03300417587161064,-0.0074525559321045876
0.7702434062957764,6.939057350158691,6.6220269203186035,-0.02342231757938862,-0.03087487444281578,-0.012775810435414314
0.7556004524230957,6.954102516174316,6.598860263824463,0.019163714721798897,-0.05110324174165726,-0.02981022372841835
0.7195054888725281,7.028801918029785,6.5438127517700195,0.03087487444281578,-0.05216789245605469,-0.03300417587161064
0.7441083192825317,7.080918312072754,6.483842849731445,0.017034413293004036,-0.042586032301187515,-0.0351334773004055
0.7397029995918274,7.08600378036499,6.502412796020508,0.005323254037648439,-0.022357666864991188,-0.03193952515721321
0.7263433337211609,7.041529178619385,6.5865159034729,-0.006387905217707157,-0.024486970156431198,-0.022357666864991188
0.7386399507522583,7.0322489738464355,6.614690780639648,0.0,-0.05110324174165726,-0.022357666864991188
0.7435528635978699,7.088417053222656,6.532503128051758,0.010646508075296879,-0.08517206460237503,-0.005323254037648439
0.7985715866088867,7.090456962585449,6.4549689292907715,0.0031939526088535786,-0.08304276317358017,0.006387905217707157
0.8219007253646851,7.0241475105285645,6.44926118850708,0.0,-0.0841074138879776,0.008517206646502018
0.8193245530128479,6.988617420196533,6.588143825531006,-0.009581857360899448,-0.09155996888875961,0.012775810435414314
0.7944056987762451,6.893529415130615,6.674105644226074,-0.019163714721798897,-0.1927018016576767,-0.0031939526088535786
0.8103702664375305,6.85319185256958,6.636449337005615,-0.0031939526088535786,-0.26403340697288513,0.0010646508308127522
0.9280117154121399,6.873178482055664,6.434167861938477,-0.012775810435414314,-0.30981338024139404,0.021293016150593758
1.1344590187072754,7.018008232116699,6.448246002197266,-0.07133160531520844,-0.253386914730072,-0.010646508075296879
1.1418426036834717,7.092698097229004,6.5701398849487305,-0.08730136603116989,-0.20760691165924072,-0.02981022372841835
1.0469460487365723,6.992984294891357,6.801774024963379,-0.045779984444379807,-0.1511804163455963,-0.045779984444379807
1.1134856939315796,6.853076457977295,6.099496841430664,0.03087487444281578,-0.11604694277048111,-0.02874557301402092
1.234488606452942,6.959379196166992,6.006535053253174,0.004258603323251009,0.05855579674243927,-0.03300417587161064
0.9450775980949402,7.252103805541992,6.3814287185668945,-0.1362753063440323,0.1714087873697281,-0.09688322991132736
0.36010709404945374,7.1409077644348145,7.043798923492432,-0.11817624419927597,-0.0031939526088535786,0.017034413293004036
0.42432916164398193,7.166458606719971,7.035275459289551,-0.07771950960159302,-0.09901253134012222,0.10220648348331451
0.8038580417633057,6.966092586517334,6.56004524230957,-0.06068509817123413,-0.18737854063510895,0.16927948594093323
1.0684844255447388,6.891000747680664,6.334702968597412,-0.08730136603116989,-0.1298874020576477,0.14159856736660004
1.2843838930130005,6.949563026428223,6.285775184631348,-0.12775810062885284,0.11285299062728882,0.03406882658600807
1.1323425769805908,6.886930465698242,6.583747863769531,-0.08197811245918274,0.35878732800483704,-0.040456730872392654
1.0081504583358765,6.871742248535156,6.723751544952393,-0.045779984444379807,0.38433894515037537,-0.05003859102725983
0.6787369847297668,6.9404168128967285,7.046825408935547,-0.041521381586790085,0.27467992901802063,-0.08304276317358017
0.5259678363800049,6.885781764984131,7.011457920074463,-0.0074525559321045876,0.014905111864209175,-0.06387905031442642
0.6429197788238525,6.8424272537231445,6.834976673126221,0.02768092229962349,-0.013840461149811745,0.005323254037648439
1.0192978382110596,6.886289119720459,6.606301784515381,0.03087487444281578,0.040456730872392654,0.07665485888719559
1.0702369213104248,6.833961486816406,6.4270429611206055,-0.03726277872920036,0.08091346174478531,0.020228365436196327
0.9828006625175476,6.83198881149292,6.4957661628723145,-0.12137019634246826,0.07878416031599045,0.005323254037648439
0.9896289110183716,6.855710506439209,6.6234822273254395,-0.15650367736816406,0.06813765317201614,-0.006387905217707157
0.9705231785774231,6.87563943862915,6.926732063293457,-0.13414600491523743,0.047909289598464966,-0.047909289598464966
0.8599110841751099,6.947206974029541,7.00892972946167,-0.03087487444281578,0.08091346174478531,-0.048973940312862396
0.7662978172302246,6.952627658843994,6.8840765953063965,-0.0021293016616255045,0.0947539210319519,-0.02768092229962349
0.8444061875343323,6.971245288848877,6.690634727478027,0.024486970156431198,0.06068509817123413,-0.0031939526088535786
0.8291886448860168,6.9567742347717285,6.50821590423584,-0.005323254037648439,0.10220648348331451,-0.0031939526088535786
0.7640759348869324,6.8502702713012695,6.594982147216797,-0.03726277872920036,0.11285299062728882,0.006387905217707157
0.7610017657279968,6.777429580688477,6.635281085968018,-0.08197811245918274,0.11178833991289139,0.014905111864209175
0.8286140561103821,6.951736927032471,6.63249397277832,-0.1788613349199295,0.13840460777282715,0.015969762578606606
0.791388988494873,6.887418746948242,6.7375807762146,-0.17992599308490753,0.07878416031599045,0.013840461149811745
0.7834881544113159,6.740549087524414,6.828071594238281,-0.1788613349199295,0.09901253134012222,0.005323254037648439
0.7013382911682129,6.774020195007324,6.841498374938965,-0.1756673902273178,0.11072368919849396,-0.006387905217707157
0.6087114214897156,6.741229057312012,6.808620929718018,-0.1820552945137024,0.13521066308021545,-0.0074525559321045876
0.6274915337562561,6.565820217132568,6.6474151611328125,-0.15863297879695892,0.05642649531364441,-0.004258603323251009
0.7090763449668884,6.578059673309326,6.682916164398193,-0.09262461960315704,-0.03193952515721321,0.0010646508308127522
0.8565974831581116,6.76987361907959,6.8739542961120605,-0.070266954600811,0.05323254317045212,-0.022357666864991188
0.5446521639823914,6.752893447875977,6.964263439178467,-0.018099064007401466,0.08091346174478531,-0.06281439960002899
0.4189469814300537,6.813150882720947,7.010395050048828,0.0031939526088535786,0.08091346174478531,-0.03619812801480293
0.3119644820690155,6.886270046234131,6.899227619171143,0.03300417587161064,-0.010646508075296879,0.05855579674243927
0.5853248238563538,6.827190399169922,6.872747421264648,0.03406882658600807,0.021293016150593758,0.11498229205608368
0.6880361437797546,6.860288143157959,6.94443941116333,0.047909289598464966,0.05642649531364441,0.10327113419771194
0.7191702723503113,6.76600456237793,7.06215763092041,0.08943066745996475,0.06174974888563156,0.07452555745840073
0.7747924327850342,6.714529514312744,6.836384296417236,0.10007718205451965,-0.021293016150593758,0.03087487444281578
0.794415295124054,6.682629108428955,6.755948543548584,0.08517206460237503,-0.02661627158522606,0.010646508075296879
0.7440412640571594,6.680904865264893,6.814673900604248,0.06920230388641357,0.006387905217707157,-0.008517206646502018
0.6606943607330322,6.750738620758057,7.0248847007751465,0.15011577308177948,0.0074525559321045876,-0.006387905217707157
0.5148682594299316,6.731058597564697,6.910719871520996,0.36304593086242676,0.0010646508308127522,0.08836601674556732
0.5933502316474915,6.677677631378174,6.901937484741211,0.42266637086868286,-0.06813765317201614,0.11285299062728882
0.5845108032226562,6.535605430603027,6.906716346740723,0.4375714957714081,-0.14159856736660004,0.10433578491210938
0.7807587385177612,6.648401260375977,6.820525169372559,0.484416127204895,-0.38753291964530945,0.014905111864209175
0.8153693079948425,7.044277667999268,6.58722448348999,0.4865454435348511,-0.4375714957714081,-0.05110324174165726
0.8632916808128357,7.212752819061279,6.345706939697266,0.42586034536361694,-0.4631231129169464,-0.07771950960159302
0.8473271727561951,7.238667964935303,6.2003984451293945,0.3545287251472473,-0.4216017425060272,-0.06387905031442642
0.8946174383163452,7.306682109832764,6.297325134277344,0.19163715839385986,-0.41521382331848145,-0.014905111864209175
0.97745680809021,7.277338981628418,6.4858927726745605,0.1330813616514206,-0.43011894822120667,-0.019163714721798897
1.0612729787826538,7.107705116271973,6.793968677520752,0.15330971777439117,-0.506773829460144,-0.03619812801480293
1.0333853960037231,7.25875997543335,6.028456211090088,0.23635248839855194,-0.5142263770103455,-0.018099064007401466
1.6776171922683716,8.01388168334961,5.4394636154174805,0.08517206460237503,-0.010646508075296879,0.019163714721798897
1.5030319690704346,7.898155212402344,5.740328788757324,0.013840461149811745,0.1575683206319809,0.01171115878969431
1.0931254625320435,7.167473793029785,6.32525110244751,0.013840461149811745,0.19057250022888184,0.021293016150593758
1.22944176197052,7.128726005554199,6.137727737426758,0.07771950960159302,0.11498229205608368,0.05003859102725983
1.2985957860946655,6.998845100402832,6.022183418273926,0.08517206460237503,0.14798647165298462,0.03726277872920036
1.4307461977005005,7.137000560760498,5.921138763427734,0.05642649531364441,0.2555162012577057,-0.03619812801480293
1.0602482557296753,7.149919509887695,6.550899982452393,0.10752973705530167,0.32365384697914124,-0.14159856736660004
0.9185498952865601,7.144460678100586,6.256958961486816,0.21931807696819305,0.3044901490211487,-0.10965903848409653
0.9298504590988159,7.283075332641602,5.953718662261963,0.21293017268180847,0.330041766166687,-0.06387905031442642
0.9160598516464233,7.244566917419434,5.958976745605469,0.17992599308490753,0.32045990228652954,-0.06494370102882385
0.8513685464859009,7.251989364624023,6.246520042419434,0.15330971777439117,0.2981022298336029,-0.07133160531520844
0.7961486577987671,7.168210983276367,6.413089275360107,0.2842617630958557,0.2246413230895996,-0.1054004356265068
0.7024779319763184,7.233773708343506,6.347928524017334,0.38433894515037537,0.23741713166236877,-0.1192408949136734
0.7481209635734558,7.342183589935303,6.306576251983643,0.43011894822120667,0.2139948159456253,-0.14159856736660004
0.6928340792655945,7.617105007171631,6.129644393920898,0.4705756604671478,0.2139948159456253,-0.18418459594249725
0.47922343015670776,7.726337909698486,5.842302322387695,0.45354124903678894,0.1895078420639038,-0.14479251205921173
0.46915820240974426,7.670055389404297,5.651254177093506,0.38433894515037537,0.0947539210319519,-0.12349949777126312
0.4967298209667206,7.672525882720947,5.583144664764404,0.330041766166687,0.05536184459924698,-0.11498229205608368
0.5021407008171082,7.748584747314453,5.659490585327148,0.2672273516654968,-0.01171115878969431,-0.11604694277048111
0.44433510303497314,7.797091484069824,5.538966178894043,0.2672273516654968,-0.009581857360899448,-0.10007718205451965
0.43264180421829224,7.767441272735596,5.449701309204102,0.24806363880634308,0.012775810435414314,-0.0841074138879776
0.4154418706893921,7.681997299194336,5.617103576660156,0.203348308801651,-0.019163714721798897,-0.08091346174478531
0.29822176694869995,7.686000347137451,5.807270526885986,0.19163715839385986,-0.11604694277048111,-0.09368927031755447
0.2529905140399933,7.709300994873047,5.819461345672607,0.1927018016576767,-0.22357667982578278,-0.09901253134012222
0.2918340563774109,7.913985729217529,5.546694755554199,0.16927948594093323,-0.4482180178165436,-0.09901253134012222
0.4898536801338196,7.97720193862915,5.365023136138916,0.03406882658600807,-0.5738468170166016,-0.05110324174165726
0.5239949822425842,7.709712505340576,5.808620452880859,-0.017034413293004036,-0.6441137790679932,-0.07133160531520844
0.5498045086860657,7.759626865386963,6.048318386077881,0.0,-0.832556962966919,-0.11711159348487854
0.4707958400249481,7.829278945922852,6.023782730102539,0.017034413293004036,-0.9155997037887573,-0.11072368919849396
0.5411278605461121,7.809110164642334,5.769479751586914,0.03193952515721321,-0.986931324005127,-0.017034413293004036
1.0387674570083618,7.767393589019775,5.570483684539795,-0.005323254037648439,-1.0337759256362915,0.009581857360899448
1.1459128856658936,7.812615394592285,5.537223815917969,-0.020228365436196327,-1.0327112674713135,-0.02661627158522606
1.0137816667556763,7.948443412780762,5.53599739074707,0.018099064007401466,-0.8474620580673218,-0.01171115878969431
0.9765661358833313,8.195333480834961,5.7449541091918945,0.12456414848566055,-0.6515663266181946,0.08836601674556732
0.9928945899009705,8.116085052490234,5.597068786621094,0.1756673902273178,-0.6260147094726562,0.13733996450901031
2.030139446258545,8.416394233703613,3.4541051387786865,-0.09155996888875961,-0.2629687488079071,0.140533909201622
1.9421477317810059,8.252813339233398,3.984210252761841,-0.29597294330596924,0.006387905217707157,0.11072368919849396
1.5068148374557495,7.856994152069092,5.893499851226807,-0.24593433737754822,0.13201670348644257,0.07133160531520844
1.4768584966659546,7.968995094299316,5.416297435760498,-0.1054004356265068,0.1756673902273178,0.1756673902273178
1.7808645963668823,7.9755072593688965,4.726977348327637,-0.26083946228027344,0.3502701222896576,0.23741713166236877
1.852853536605835,7.820947170257568,4.811253547668457,-0.3822096586227417,0.50357985496521,0.2139948159456253
