accX,accY,accZ,gyroX,gyroY,gyroZ
-0.8479500412940979,5.607000350952148,8.178000450134277,0.07768750190734863,0.010174999944865704,0.021175000816583633
-0.7639500498771667,5.635050296783447,7.792050361633301,0.0019249999895691872,-0.06187500059604645,0.004124999977648258
-0.9049500226974487,5.688000202178955,7.788000583648682,-0.03959999978542328,-0.03629999980330467,0.007837500423192978
-0.9409500360488892,5.698050498962402,7.926000595092773,-0.04331250116229057,-0.011824999935925007,0.020075000822544098
-0.8740500211715698,5.56095027923584,8.365050315856934,-0.020075000822544098,0.014987500384449959,0.0518375001847744
-0.6660000085830688,5.295000076293945,8.439000129699707,0.027499999850988388,-0.017875000834465027,0.048124998807907104
-0.7930500507354736,5.37000036239624,8.134950637817383,0.07150000333786011,-0.03987500071525574,-0.004399999976158142
-1.1089500188827515,5.611050128936768,7.849950313568115,0.08744999766349792,-0.021587500348687172,-0.020349999889731407
-1.2139500379562378,5.748000144958496,7.6870503425598145,0.06173750013113022,-0.0057749999687075615,0.015124999918043613
-1.1089500188827515,5.749950408935547,7.653000354766846,0.004399999976158142,-0.010587500408291817,0.04936249926686287
-1.0750499963760376,5.716950416564941,7.974000453948975,-0.036024998873472214,-0.01677500084042549,0.07259999960660934
-1.0420500040054321,5.676000118255615,7.993050575256348,-0.04455000162124634,-0.06558749824762344,0.09817499667406082
-0.987000048160553,5.716950416564941,7.708950519561768,-0.06888750195503235,-0.07411249727010727,0.1251250058412552
-0.7879500389099121,5.659050464630127,7.740000247955322,-0.09212499856948853,-0.06435000151395798,0.1396999955177307
-0.597000002861023,5.463000297546387,8.0149507522583,-0.11659999936819077,-0.0448249988257885,0.13241249322891235
-0.6760500073432922,5.47005033493042,8.211000442504883,-0.09088750183582306,-0.03863750025629997,0.10064999759197235
-0.9649500250816345,5.6449503898620605,8.098950386047363,-0.05912499874830246,-0.04235000163316727,0.11041250079870224
-0.9820500612258911,5.704950332641602,7.978950500488281,-0.05912499874830246,-0.04235000163316727,0.133650004863739
-0.7470000386238098,5.587050437927246,8.017050743103027,-0.0835999995470047,-0.03506249934434891,0.1788875013589859
-0.42705002427101135,5.334000110626221,8.209050178527832,-0.08607500046491623,-0.028875000774860382,0.17393749952316284
-0.4410000145435333,5.298000335693359,8.269050598144531,-0.04455000162124634,-0.027775000780820847,0.1214125007390976
-0.43095001578330994,5.323950290679932,8.166000366210938,-0.028599999845027924,-0.03863750025629997,0.10188750177621841
-0.4600500166416168,5.355000019073486,7.953000545501709,-0.04455000162124634,-0.06435000151395798,0.06641250103712082
-0.5059500336647034,5.391000270843506,8.029050827026367,-0.06531249731779099,-0.06558749824762344,0.0518375001847744
-0.5700000524520874,5.428950309753418,8.211000442504883,-0.07631249725818634,-0.05829999968409538,0.04936249926686287
-0.5920500159263611,5.403000354766846,8.290050506591797,-0.05555000156164169,-0.03506249934434891,0.055412501096725464
-0.51705002784729,5.355000019073486,8.202000617980957,0.026399999856948853,0.008937500417232513,0.0541750006377697
-0.5250000357627869,5.367000102996826,8.005050659179688,0.060499999672174454,0.023649999871850014,0.045649997889995575
-0.687000036239624,5.467950344085693,7.852050304412842,0.05926249921321869,0.043175000697374344,0.028599999845027924
-0.6709500551223755,5.494050025939941,7.969950199127197,0.004399999976158142,0.014987500384449959,0.03712499886751175
-0.5080500245094299,5.326050281524658,8.203949928283691,-0.005362499970942736,0.0004124999977648258,0.038362499326467514
-0.51705002784729,5.278950214385986,8.146950721740723,0.04839999973773956,0.013887500390410423,0.0028874999843537807
-0.7350000143051147,5.512950420379639,7.978950500488281,0.08992499858140945,0.04675000160932541,-0.015399999916553497
-0.7639500498771667,5.599050045013428,7.852050304412842,0.08621250092983246,0.04675000160932541,-0.004399999976158142
-0.6439500451087952,5.6260504722595215,7.777950286865234,0.03244999796152115,0.038224998861551285,0.021175000816583633
-0.4459500312805176,5.5159502029418945,8.07705020904541,-0.018837500363588333,0.02969999983906746,0.026124998927116394
-0.47700002789497375,5.416950225830078,8.308950424194336,0.006737499963492155,0.030937500298023224,0.004124999977648258
-0.4720500111579895,5.44605016708374,8.155950546264648,0.07768750190734863,0.056512501090765,-0.010587500408291817
-0.47700002789497375,5.404950141906738,8.010000228881836,0.11797499656677246,0.10793749988079071,-0.011687500402331352
-0.5100000500679016,5.389050483703613,7.998000144958496,0.13997499644756317,0.13474999368190765,-0.025162499397993088
-0.5890500545501709,5.401050090789795,8.017050743103027,0.13378749787807465,0.14698749780654907,-0.03616249933838844
-0.7980000376701355,5.496000289916992,7.978950500488281,0.09597499668598175,0.10793749988079071,-0.043449997901916504
-0.7879500389099121,5.551950454711914,7.912050247192383,0.017737500369548798,0.03341250121593475,-0.03987500071525574
-0.7999500632286072,5.523000240325928,8.154000282287598,0.0019249999895691872,0.03341250121593475,-0.04468749836087227
-1.051050066947937,5.623050212860107,8.247000694274902,0.05197500064969063,0.038224998861551285,-0.04963750019669533
-1.0849500894546509,5.784000396728516,7.929000377655029,0.10449999570846558,0.047987498342990875,-0.021449999883770943
-0.7429500222206116,5.725950241088867,7.882950305938721,-0.0042624999769032,0.0016499999910593033,0.04441250115633011
-0.5100000500679016,5.590050220489502,7.942950248718262,0.014162499457597733,0.057750001549720764,0.055412501096725464
-0.45000001788139343,5.359950065612793,8.14905071258545,0.04839999973773956,0.08717499673366547,0.02983750030398369
-0.51705002784729,5.38200044631958,8.034000396728516,0.0789249986410141,0.056512501090765,-0.012924999929964542
-0.5800500512123108,5.3959503173828125,7.962000370025635,0.07768750190734863,0.043175000697374344,-0.04592499881982803
-0.814050018787384,5.544000148773193,7.954950332641602,0.05692499876022339,0.018699999898672104,-0.07039999961853027
-1.0039499998092651,5.74500036239624,7.930950164794922,0.027499999850988388,-0.0032999999821186066,-0.06311249732971191
-0.970050036907196,5.784000396728516,7.9360504150390625,0.018975000828504562,-0.009349999949336052,-0.04839999973773956
-0.814050018787384,5.710050106048584,7.974000453948975,0.03244999796152115,0.01746249943971634,-0.03739999979734421
-0.9250500202178955,5.736000061035156,8.020050048828125,0.08621250092983246,0.04922499880194664,-0.05211250111460686
-1.0870500802993774,5.884050369262695,7.9860005378723145,0.12402500212192535,0.050462499260902405,-0.05692499876022339
-1.111050009727478,5.968050479888916,7.735050201416016,0.13021250069141388,0.030937500298023224,-0.0411125011742115
-1.1830500364303589,6.022950172424316,7.555050373077393,0.116737499833107,0.028462499380111694,-0.027637500315904617
-1.2049500942230225,6.03795051574707,7.315950393676758,0.03739999979734421,0.021175000816583633,0.01759999990463257
-1.0390501022338867,5.961000442504883,7.44795036315918,-0.06159999966621399,0.0004124999977648258,0.055412501096725464
-0.7860000133514404,5.74500036239624,7.656000137329102,-0.11659999936819077,-0.020349999889731407,0.07741250097751617
-0.6060000061988831,5.479950428009033,8.08905029296875,-0.08978749811649323,0.0028874999843537807,0.035887498408555984
-0.6439500451087952,5.476950168609619,8.058000564575195,-0.05431250110268593,-0.0008249999955296516,0.015124999918043613
-0.6799500584602356,5.488950252532959,7.953000545501709,-0.05555000156164169,-0.008112499490380287,0.007837500423192978
-0.6490500569343567,5.503950119018555,8.008049964904785,-0.08855000138282776,-0.03135000169277191,-0.0056374999694526196
-0.5650500059127808,5.48205041885376,8.151000022888184,-0.09212499856948853,-0.05211250111460686,-0.027637500315904617
-0.673050045967102,5.508000373840332,8.332950592041016,-0.03355000168085098,-0.022824998944997787,-0.05692499876022339
-0.8550000190734863,5.635050296783447,8.215950012207031,0.05692499876022339,0.008937500417232513,-0.08016250282526016
-0.9480000734329224,5.722050189971924,7.950000286102295,0.10092499852180481,0.03698749840259552,-0.07411249727010727
-1.0630500316619873,5.81505012512207,7.948050498962402,0.027499999850988388,0.0028874999843537807,-0.026399999856948853
-0.9679500460624695,5.713950157165527,7.972050189971924,0.03492499887943268,-0.013062499463558197,-0.010587500408291817
-0.9799500703811646,5.752950191497803,7.833000183105469,0.043449997901916504,-0.009349999949336052,-0.016637500375509262
-0.9460500478744507,5.776950359344482,7.6459503173828125,0.03973750025033951,0.0004124999977648258,-0.012924999929964542
-0.8530500531196594,5.719050407409668,7.701000213623047,0.0471624992787838,0.060224998742341995,-0.011687500402331352
-1.240950107574463,5.9920501708984375,6.727050304412842,0.06792499870061874,0.11522500216960907,-0.012924999929964542
-1.3410000801086426,5.899050235748291,6.835050106048584,-0.09459999948740005,0.13722500205039978,0.055412501096725464
-0.49605002999305725,5.398050308227539,8.40000057220459,-0.16183750331401825,0.10298749804496765,0.05912499874830246
-1.0060499906539917,5.647050380706787,8.593950271606445,-0.11288750171661377,0.005224999971687794,-0.0031624999828636646
-0.9529500603675842,5.695050239562988,8.439000129699707,-0.05678749829530716,-0.021587500348687172,0.013887500390410423
-0.7830000519752502,5.587050437927246,8.23799991607666,0.0031624999828636646,0.01746249943971634,0.009074999950826168
-0.7690500617027283,5.604000091552734,8.062950134277344,0.028737500309944153,0.028462499380111694,0.0016499999910593033
-0.7879500389099121,5.668950080871582,7.846950531005859,0.006737499963492155,0.0004124999977648258,-0.0056374999694526196
-0.8650500178337097,5.7019500732421875,7.858950138092041,-0.048124998807907104,-0.030112499371170998,0.004124999977648258
-0.8100000619888306,5.595000267028809,8.00100040435791,-0.07878749817609787,-0.06063750013709068,0.012649999931454659
-0.7470000386238098,5.5320000648498535,8.068050384521484,-0.06531249731779099,-0.05335000157356262,0.0004124999977648258
-0.8410500288009644,5.499000072479248,8.104050636291504,-0.02736249938607216,-0.0411125011742115,-0.026399999856948853
-1.0039499998092651,5.632950305938721,7.8760504722595215,0.017737500369548798,-0.019112499430775642,-0.043449997901916504
-1.055999994277954,5.700000286102295,7.8070502281188965,0.026399999856948853,0.016224998980760574,-0.03135000169277191
-1.0780500173568726,5.7019500732421875,7.9170002937316895,0.014162499457597733,0.021175000816583633,-0.020349999889731407
-1.0900501012802124,5.764950275421143,7.938000202178955,-0.0005499999970197678,-0.011824999935925007,-0.016637500375509262
-1.0660500526428223,5.773950099945068,7.855050563812256,-0.006599999964237213,-0.020349999889731407,0.0016499999910593033
-0.9199500679969788,5.724000453948975,7.777950286865234,-0.0017874999903142452,0.007699999958276749,0.016362499445676804
-0.8650500178337097,5.635050296783447,7.938000202178955,0.0056374999694526196,0.050462499260902405,0.016362499445676804
-0.9799500703811646,5.63100004196167,7.993050575256348,0.015399999916553497,0.03698749840259552,0.009074999950826168
-0.9630000591278076,5.671050071716309,7.953000545501709,0.004399999976158142,0.0028874999843537807,0.020075000822544098
-0.7780500650405884,5.56095027923584,7.857000350952148,-0.007837500423192978,-0.004537499975413084,0.01759999990463257
-0.7069500088691711,5.503950119018555,7.893000602722168,-0.0042624999769032,0.010174999944865704,0.0028874999843537807
-0.7590000629425049,5.484000205993652,7.780050277709961,0.03244999796152115,0.04675000160932541,-0.03368749842047691
-0.843000054359436,5.544000148773193,7.749000549316406,0.04839999973773956,0.07741250097751617,-0.04839999973773956
-0.8380500674247742,5.554050445556641,7.689000129699707,0.05926249921321869,0.1237500011920929,-0.05211250111460686
-0.9679500460624695,5.63100004196167,7.948050498962402,0.03368749842047691,0.14451250433921814,-0.055687498301267624
-1.051050066947937,5.619000434875488,8.211000442504883,-0.005362499970942736,0.04675000160932541,-0.03987500071525574
-0.9600000381469727,5.587050437927246,8.07194995880127,-0.023787500336766243,-0.022824998944997787,-0.03987500071525574
-0.9460500478744507,5.653950214385986,7.881000518798828,-0.04455000162124634,-0.05335000157356262,-0.06063750013709068
-1.0990500450134277,5.776950359344482,8.151000022888184,0.03244999796152115,0.06751249730587006,-0.055687498301267624
-1.0369499921798706,5.665950298309326,8.058000564575195,0.1106875017285347,0.1237500011920929,-0.04963750019669533
-1.1569499969482422,5.692950248718262,7.950000286102295,0.12773749232292175,0.12251249700784683,-0.06063750013709068
-1.3669500350952148,5.829000473022461,7.8259501457214355,0.09226249903440475,0.060224998742341995,-0.04468749836087227
-1.2019500732421875,5.83905029296875,7.6870503425598145,0.006737499963492155,-0.026537500321865082,-0.0056374999694526196
-1.0630500316619873,5.7330002784729,7.717950344085693,-0.031075000762939453,-0.04606249928474426,0.005362499970942736
-0.9480000734329224,5.608950138092041,7.926000595092773,-0.038362499326467514,-0.027775000780820847,-0.0031624999828636646
-0.8790000677108765,5.520000457763672,7.857000350952148,0.031212499365210533,0.02969999983906746,-0.030112499371170998
-0.8860500454902649,5.542050361633301,7.759050369262695,0.07026249915361404,0.07369999587535858,-0.04235000163316727
-0.9360000491142273,5.575050354003906,7.7059502601623535,0.09844999760389328,0.113987497985363,-0.05211250111460686
-1.2090001106262207,5.665950298309326,7.828050136566162,0.1106875017285347,0.15674999356269836,-0.05444999784231186
-1.3530000448226929,5.809950351715088,8.119950294494629,0.08744999766349792,0.113987497985363,-0.03616249933838844
-1.284000039100647,5.833950042724609,8.02695083618164,0.029975000768899918,0.007699999958276749,-0.019112499430775642
-1.207050085067749,5.833950042724609,7.699050426483154,-0.022549999877810478,-0.07906249910593033,-0.017875000834465027
-1.1740500926971436,5.779050350189209,7.708950519561768,-0.0017874999903142452,-0.007012499962002039,-0.014162499457597733
-1.2960000038146973,5.820000171661377,7.858950138092041,0.05816249921917915,0.07975000143051147,-0.010587500408291817
-1.5349500179290771,5.844000339508057,6.994950294494629,0.03616249933838844,-0.06929999589920044,0.013887500390410423
-1.01295006275177,5.881950378417969,7.34505033493042,-0.1313125044107437,0.03946249932050705,0.03712499886751175
-1.4440500736236572,5.671050071716309,8.307000160217285,-0.09955000132322311,0.06270000338554382,0.03712499886751175
-1.3150500059127808,5.899050235748291,8.191950798034668,-0.06778749823570251,-0.018012499436736107,0.043175000697374344
-1.221000075340271,5.788950443267822,8.08395004272461,-0.057887498289346695,-0.04853750020265579,0.048124998807907104
-1.0900501012802124,5.7330002784729,7.9770002365112305,-0.040837500244379044,-0.05706249922513962,0.040837500244379044
-1.1539500951766968,5.781000137329102,7.789950370788574,-0.03959999978542328,-0.0448249988257885,0.04688749834895134
-1.1089500188827515,5.716950416564941,7.785000324249268,-0.06283749639987946,-0.04977500066161156,0.07136250287294388
-0.987000048160553,5.604000091552734,7.9170002937316895,-0.089649997651577,-0.06435000151395798,0.08236250281333923
-0.8770500421524048,5.487000465393066,8.118000030517578,-0.089649997651577,-0.07411249727010727,0.07493750005960464
-0.8809500336647034,5.503950119018555,8.080050468444824,-0.060362499207258224,-0.08635000139474869,0.04936249926686287
-0.9150000214576721,5.506050109863281,7.98900032043457,-0.05678749829530716,-0.09858749806880951,0.038362499326467514
-1.0750499963760376,5.575050354003906,7.950000286102295,-0.050599999725818634,-0.10106249898672104,0.016362499445676804
-1.1059499979019165,5.7019500732421875,7.849950313568115,-0.03478749841451645,-0.09129999577999115,0.018837500363588333
-1.0950000286102295,5.695050239562988,7.873950481414795,-0.018837500363588333,-0.04729999974370003,0.031075000762939453
-1.1209501028060913,5.752950191497803,7.888050556182861,-0.011549999937415123,-0.04729999974370003,0.03959999978542328
-0.9630000591278076,5.677950382232666,7.737000465393066,-0.04455000162124634,-0.0728750005364418,0.06283749639987946
-0.8809500336647034,5.56095027923584,7.729950428009033,-0.06888750195503235,-0.08387500047683716,0.06517499685287476
-0.8839500546455383,5.57295036315918,7.771050453186035,-0.10312499850988388,-0.0826374962925911,0.0518375001847744
-0.8500500321388245,5.53695011138916,7.978950500488281,-0.1093124970793724,-0.06187500059604645,0.0541750006377697
-0.6919500231742859,5.425050258636475,8.28795051574707,-0.0775500014424324,-0.03753750026226044,0.050599999725818634
-0.5580000281333923,5.305050373077393,8.308950424194336,-0.009074999950826168,-0.026537500321865082,0.018837500363588333
-0.6079500317573547,5.3460001945495605,8.211000442504883,0.026399999856948853,-0.019112499430775642,-0.0056374999694526196
-0.8100000619888306,5.431950092315674,7.962000370025635,0.06916250288486481,0.012649999931454659,-0.0411125011742115
-1.0080000162124634,5.568000316619873,7.914000511169434,0.07026249915361404,0.03698749840259552,-0.05087500065565109
-1.059000015258789,5.668950080871582,7.978950500488281,0.03973750025033951,0.016224998980760574,-0.03863750025629997
-0.931950032711029,5.6569504737854,8.002950668334961,0.022687500342726707,-0.010587500408291817,-0.03368749842047691
-0.8770500421524048,5.6260504722595215,7.990950584411621,0.06544999778270721,0.016224998980760574,-0.0471624992787838
-0.999000072479248,5.695050239562988,7.713000297546387,0.1264999955892563,0.10298749804496765,-0.03863750025629997
-0.7879500389099121,5.556000232696533,7.561950206756592,0.10449999570846558,0.12498749792575836,-0.03863750025629997
-0.8790000677108765,5.602050304412842,7.4569501876831055,0.08249999582767487,0.1714625060558319,-0.06916250288486481
-0.9649500250816345,5.6260504722595215,7.5360002517700195,0.027499999850988388,0.19580000638961792,-0.06311249732971191
-0.8890500664710999,5.488950252532959,7.912050247192383,-0.031075000762939453,0.17270000278949738,-0.07039999961853027
-0.9250500202178955,5.476950168609619,8.187000274658203,-0.028599999845027924,0.16403749585151672,-0.09239999949932098
-1.1179500818252563,5.520000457763672,8.227950096130371,0.03973750025033951,0.1457500010728836,-0.12540000677108765
-1.4080500602722168,5.83905029296875,8.226000785827637,0.1326874941587448,0.1970375031232834,-0.11797499656677246
-1.6000500917434692,5.9730000495910645,8.04900074005127,0.15344999730587006,0.17270000278949738,-0.06421250104904175
-1.492050051689148,5.959050178527832,8.062950134277344,0.08621250092983246,0.07122500240802765,-0.009349999949336052
-1.152000069618225,5.75700044631958,7.938000202178955,0.03849999979138374,-0.015537500381469727,0.004124999977648258
-0.987000048160553,5.653950214385986,7.795050144195557,0.07397499680519104,0.02722499892115593,-0.025162499397993088
-1.1759999990463257,5.662050247192383,7.725000381469727,0.10573749989271164,0.0882750004529953,-0.05321250110864639
-1.2310500144958496,5.6569504737854,7.8349504470825195,0.10944999754428864,0.09817499667406082,-0.05692499876022339
-1.2960000038146973,5.659050464630127,7.713000297546387,0.09844999760389328,0.06146249920129776,-0.05692499876022339
-1.1350500583648682,5.653950214385986,7.464000225067139,0.05926249921321869,0.012649999931454659,-0.06668750196695328
-1.068000078201294,5.7019500732421875,7.129050254821777,0.006737499963492155,0.005224999971687794,-0.08992499858140945
-1.3870500326156616,5.81505012512207,7.159950256347656,-0.06778749823570251,0.02474999986588955,-0.10339999943971634
-1.8079501390457153,6.0420002937316895,7.510050296783447,-0.16788749396800995,-0.011824999935925007,-0.07411249727010727
-1.9350000619888306,6.097050189971924,7.764000415802002,-0.20336249470710754,-0.03753750026226044,-0.03863750025629997
-1.5640500783920288,5.925000190734863,8.178000450134277,-0.1788875013589859,-0.018012499436736107,0.023649999871850014
-1.1470500230789185,5.683050155639648,8.25195026397705,-0.06407500058412552,0.052937500178813934,0.011412499472498894
-1.068000078201294,5.662050247192383,8.197050094604492,-0.010312499478459358,0.082225002348423,-0.006874999962747097
-1.1899501085281372,5.614050388336182,8.038949966430664,0.0752125009894371,0.13227500021457672,-0.043449997901916504
-1.6210501194000244,5.788950443267822,7.948050498962402,0.07273750007152557,0.11151249706745148,-0.04839999973773956
-1.6309500932693481,5.81505012512207,7.789950370788574,-0.010312499478459358,-0.002062499988824129,-0.009349999949336052
-1.321950078010559,5.659050464630127,7.9860005378723145,-0.026124998927116394,-0.013062499463558197,0.0028874999843537807
-1.2930001020431519,5.662050247192383,7.845000267028809,0.022687500342726707,0.02241249941289425,-0.008112499490380287
-1.2930001020431519,5.640000343322754,7.737000465393066,0.026399999856948853,0.02241249941289425,-0.010587500408291817
-1.4059500694274902,5.674050331115723,7.788000583648682,0.0019249999895691872,0.012649999931454659,-0.010587500408291817
-1.4800500869750977,5.736000061035156,7.948050498962402,0.0006874999962747097,-0.0008249999955296516,0.0016499999910593033
-1.390950083732605,5.736000061035156,7.972050189971924,0.011687500402331352,-0.002062499988824129,0.009074999950826168
-1.1950500011444092,5.668950080871582,7.9360504150390625,0.04839999973773956,0.008937500417232513,0.004124999977648258
-1.1500500440597534,5.664000034332275,7.845000267028809,0.06544999778270721,0.01993750035762787,-0.009349999949336052
-1.297950029373169,5.692950248718262,7.681950569152832,0.07644999772310257,0.038224998861551285,-0.04235000163316727
-1.4610000848770142,5.7330002784729,7.5859503746032715,0.06792499870061874,0.03946249932050705,-0.04963750019669533
-1.7770501375198364,5.82705020904541,7.420950412750244,0.016637500375509262,0.010174999944865704,-0.03368749842047691
-1.67205011844635,5.90595006942749,7.26300048828125,-0.09583749622106552,-0.04235000163316727,0.0028874999843537807
-1.3669500350952148,5.6449503898620605,8.40000057220459,-0.0798875018954277,0.06270000338554382,0.026124998927116394
-1.6690500974655151,5.772000312805176,8.046000480651855,-0.007837500423192978,-0.026537500321865082,0.013887500390410423
-1.5210000276565552,5.908050060272217,7.7059502601623535,-0.006599999964237213,-0.024062499403953552,0.03464999794960022
-1.3030500411987305,5.6860504150390625,7.837950229644775,-0.015124999918043613,-0.04606249928474426,0.02983750030398369
-1.3270500898361206,5.628000259399414,7.657950401306152,-0.014024999924004078,-0.03506249934434891,0.03341250121593475
-1.336050033569336,5.623050212860107,7.885950565338135,-0.028599999845027924,-0.002062499988824129,0.038362499326467514
-1.4250000715255737,5.64300012588501,8.05305004119873,-0.01759999990463257,-0.014299999922513962,0.03464999794960022
-1.492050051689148,5.712000370025635,7.930950164794922,-0.018837500363588333,-0.06077500060200691,0.03341250121593475
-1.4820001125335693,5.75700044631958,7.864050388336182,-0.03712499886751175,-0.09129999577999115,0.04688749834895134
-1.4899500608444214,5.785950183868408,7.882950305938721,-0.0518375001847744,-0.09377499669790268,0.06764999777078629
-1.4730000495910645,5.845950126647949,7.861950397491455,-0.04207500070333481,-0.09858749806880951,0.09941250085830688
-1.3000500202178955,5.785950183868408,7.677000522613525,-0.04455000162124634,-0.07782500237226486,0.12264999747276306
-1.336050033569336,5.773950099945068,7.761000156402588,-0.07383749634027481,-0.06558749824762344,0.13241249322891235
-1.4130001068115234,5.788950443267822,8.005050659179688,-0.12636250257492065,-0.11453749984502792,0.1434125006198883
-1.144950032234192,5.647050380706787,8.08905029296875,-0.15207499265670776,-0.18906250596046448,0.15193749964237213
-0.9130500555038452,5.47005033493042,8.14905071258545,-0.1251250058412552,-0.20487499237060547,0.12870000302791595
-0.8620500564575195,5.386050224304199,7.881000518798828,-0.06778749823570251,-0.19139999151229858,0.0835999995470047
-1.015950083732605,5.530050277709961,7.564950466156006,-0.08236250281333923,-0.18411250412464142,0.055412501096725464
-1.0489500761032104,5.650050163269043,7.845000267028809,-0.16307500004768372,-0.21216249465942383,0.07136250287294388
-0.8260500431060791,5.5489501953125,8.10105037689209,-0.22893749177455902,-0.29768750071525574,0.09941250085830688
-0.6760500073432922,5.407950401306152,7.912050247192383,-0.27665001153945923,-0.38692501187324524,0.08236250281333923
-0.6970500349998474,5.404950141906738,7.656000137329102,-0.3291749954223633,-0.4039750099182129,0.055412501096725464
-0.7399500608444214,5.338050365447998,7.881000518798828,-0.31817498803138733,-0.2843500077724457,0.0518375001847744
-0.6990000605583191,5.295000076293945,8.40000057220459,-0.18741250038146973,-0.09735000133514404,0.07012499868869781
-0.5650500059127808,5.20395040512085,8.53695011138916,-0.02736249938607216,0.010174999944865704,0.08483749628067017
-0.5130000114440918,5.170950412750244,8.40000057220459,0.018975000828504562,0.014987500384449959,0.0798875018954277
-0.5530500411987305,5.218950271606445,8.05305004119873,0.010449999943375587,-0.021587500348687172,0.0518375001847744
-0.5629500150680542,5.247000217437744,8.104050636291504,-0.07012499868869781,-0.06077500060200691,0.035887498408555984
-0.5059500336647034,5.161050319671631,8.28795051574707,-0.11288750171661377,-0.0826374962925911,0.023649999871850014
-0.48900002241134644,5.19195032119751,8.439000129699707,-0.0873124971985817,-0.06311249732971191,-0.0031624999828636646
-0.6319500207901001,5.271000385284424,8.458050727844238,-0.014024999924004078,-0.021587500348687172,-0.022687500342726707
-0.7950000166893005,5.367000102996826,8.278050422668457,0.04468749836087227,0.005224999971687794,-0.023924998939037323
-0.8380500674247742,5.391000270843506,8.230050086975098,0.055687498301267624,0.010174999944865704,-0.020349999889731407
-0.7930500507354736,5.449050426483154,8.173049926757812,0.04592499881982803,-0.013062499463558197,-0.0056374999694526196
-0.7639500498771667,5.428950309753418,8.151000022888184,0.031212499365210533,-0.03382499888539314,0.0004124999977648258
-0.7110000252723694,5.394000053405762,8.107950210571289,0.015399999916553497,-0.05706249922513962,0.004124999977648258
-0.6319500207901001,5.341050148010254,7.926000595092773,0.029975000768899918,-0.03629999980330467,0.006599999964237213
-0.7380000352859497,5.403000354766846,7.795050144195557,0.04468749836087227,0.02969999983906746,0.015124999918043613
-0.7140000462532043,5.365050315856934,7.849950313568115,0.0031624999828636646,0.045512501150369644,0.04207500070333481
-0.5820000171661377,5.185050010681152,8.14905071258545,-0.07259999960660934,-0.015537500381469727,0.050599999725818634
-0.4600500166416168,5.0970001220703125,8.215950012207031,-0.11412499845027924,-0.09129999577999115,0.016362499445676804
-0.5730000138282776,5.190000057220459,8.226000785827637,-0.10188750177621841,-0.08387500047683716,-0.015399999916553497
-0.5800500512123108,5.227950096130371,8.254050254821777,-0.0798875018954277,-0.05335000157356262,-0.020349999889731407
-0.6949500441551208,5.3359503746032715,8.434050559997559,-0.01759999990463257,0.02722499892115593,-0.014162499457597733
-0.7999500632286072,5.398050308227539,8.431950569152832,0.03492499887943268,0.03698749840259552,0.006599999964237213
-0.6559500098228455,5.329050064086914,8.27595043182373,0.025162499397993088,-0.0032999999821186066,0.023649999871850014
-0.5509500503540039,5.247000217437744,8.26395034790039,-0.005362499970942736,-0.03753750026226044,0.012649999931454659
-0.534000039100647,5.271000385284424,8.271000862121582,-0.0030249999836087227,-0.0448249988257885,0.0016499999910593033
-0.49605002999305725,5.239950180053711,8.178000450134277,0.014162499457597733,-0.03382499888539314,0.0028874999843537807
-0.7110000252723694,5.479950428009033,7.35705041885376,0.029975000768899918,0.05169999971985817,0.0016499999910593033
-0.661050021648407,5.158950328826904,8.197050094604492,0.03616249933838844,0.13227500021457672,0.03341250121593475
-0.5749500393867493,5.278950214385986,8.3860502243042,-0.02983750030398369,-0.024062499403953552,-0.0031624999828636646
-0.6660000085830688,5.295000076293945,8.247000694274902,-0.11288750171661377,-0.1083500012755394,-0.012924999929964542
-0.6799500584602356,5.467950344085693,8.36205005645752,-0.08112499862909317,-0.05087500065565109,-0.016637500375509262
-0.6160500049591064,5.416950225830078,8.331000328063965,0.004399999976158142,0.03217500075697899,0.016362499445676804
-0.34005001187324524,5.032050132751465,8.314050674438477,0.011687500402331352,-0.024062499403953552,-0.028875000774860382
-0.5890500545501709,5.209050178527832,8.122950553894043,0.020212499424815178,-0.014299999922513962,-0.055687498301267624
-0.6469500064849854,5.281050205230713,8.131950378417969,0.027637500315904617,0.028462499380111694,-0.043449997901916504
-0.6319500207901001,5.212050437927246,8.199000358581543,0.03492499887943268,0.038224998861551285,-0.03492499887943268
-0.6919500231742859,5.307000160217285,8.02500057220459,0.03739999979734421,0.028462499380111694,-0.05211250111460686
-0.7590000629425049,5.398050308227539,8.050950050354004,0.03368749842047691,0.043175000697374344,-0.05087500065565109
-0.7669500112533569,5.365050315856934,8.080050468444824,0.022687500342726707,0.045512501150369644,-0.03368749842047691
-0.7980000376701355,5.4150004386901855,8.06505012512207,0.007974999956786633,0.043175000697374344,-0.028875000774860382
-0.7230000495910645,5.404950141906738,7.972050189971924,-0.009074999950826168,0.052937500178813934,-0.014162499457597733
-0.5770500302314758,5.26200008392334,8.282999992370605,-0.0005499999970197678,0.09679999947547913,-0.0056374999694526196
-0.6679500341415405,5.20395040512085,8.428950309753418,0.026399999856948853,0.09075000137090683,-0.028875000774860382
-0.8290500640869141,5.343000411987305,8.482049942016602,0.0494999997317791,0.056512501090765,-0.03368749842047691
-0.775950014591217,5.3620500564575195,8.254050254821777,0.07397499680519104,0.03698749840259552,-0.020349999889731407
-0.6760500073432922,5.350050449371338,8.226000785827637,0.10216250270605087,0.06875000149011612,-0.026399999856948853
-0.7069500088691711,5.398050308227539,8.226000785827637,0.12168750166893005,0.08470000326633453,-0.03987500071525574
-0.7279500365257263,5.401050090789795,8.131950378417969,0.12044999748468399,0.07603749632835388,-0.03863750025629997
-0.9360000491142273,5.451000213623047,8.070000648498535,0.05816249921917915,0.014987500384449959,-0.028875000774860382
-1.051050066947937,5.47005033493042,8.155950546264648,-0.026124998927116394,-0.08277499675750732,-0.0031624999828636646
-0.8860500454902649,5.419950485229492,8.158950805664062,-0.06407500058412552,-0.1303499937057495,0.023649999871850014
-0.6679500341415405,5.371950149536133,8.25195026397705,-0.036024998873472214,-0.09735000133514404,0.02736249938607216
-0.6010500192642212,5.329050064086914,8.122950553894043,0.03973750025033951,-0.029012499377131462,0.011412499472498894
-0.690000057220459,5.398050308227539,7.8349504470825195,0.025162499397993088,0.02474999986588955,-0.004399999976158142
-0.6760500073432922,5.314050197601318,8.08905029296875,-0.009074999950826168,0.033275000751018524,-0.0056374999694526196
-0.8100000619888306,5.331000328063965,8.28795051574707,-0.009074999950826168,0.008937500417232513,-0.011687500402331352
-0.8460000157356262,5.416950225830078,8.257050514221191,-0.004124999977648258,-0.026537500321865082,-0.011687500402331352
-0.8290500640869141,5.431950092315674,8.146950721740723,0.0056374999694526196,-0.03629999980330467,0.0016499999910593033
-0.7189500331878662,5.440950393676758,7.282050132751465,-0.022549999877810478,-0.05953750014305115,0.0016499999910593033
-0.42195001244544983,5.245050430297852,8.38800048828125,-0.06531249731779099,0.1200374960899353,0.020075000822544098
-0.8839500546455383,5.173050403594971,8.890950202941895,-0.0042624999769032,0.035750001668930054,-0.03135000169277191
-0.8620500564575195,5.404950141906738,8.56605052947998,0.029975000768899918,-0.05582499876618385,-0.023924998939037323
-0.7639500498771667,5.419950485229492,8.046000480651855,0.023924998939037323,-0.01677500084042549,-0.0056374999694526196
-0.8359500169754028,5.523000240325928,8.038949966430664,0.007974999956786633,0.007699999958276749,-0.008112499490380287
-0.856950044631958,5.48205041885376,8.104050636291504,-0.0005499999970197678,0.006462499964982271,0.012649999931454659
-0.7350000143051147,5.410050392150879,8.050950050354004,-0.0005499999970197678,-0.0032999999821186066,0.02241249941289425
-0.5920500159263611,5.329050064086914,8.032050132751465,-0.007837500423192978,-0.014299999922513962,0.015124999918043613
-0.7159500122070312,5.367000102996826,8.07705020904541,-0.011549999937415123,0.005224999971687794,0.0028874999843537807
-0.6559500098228455,5.334000110626221,8.12505054473877,-0.014024999924004078,-0.002062499988824129,0.006599999964237213
-0.7519500255584717,5.353050231933594,8.178000450134277,-0.009074999950826168,0.006462499964982271,0.010312499478459358
-0.597000002861023,5.251950263977051,8.178000450134277,-0.014024999924004078,-0.015537500381469727,0.007837500423192978
-0.6640500426292419,5.322000026702881,8.02500057220459,-0.0017874999903142452,-0.008249999955296516,-0.015399999916553497
-0.7140000462532043,5.407950401306152,8.04900074005127,-0.0042624999769032,0.010174999944865704,-0.019112499430775642
-0.7470000386238098,5.3620500564575195,8.178000450134277,-0.016362499445676804,0.012649999931454659,-0.012924999929964542
-0.7519500255584717,5.365050315856934,8.155950546264648,-0.014024999924004078,0.008937500417232513,-0.015399999916553497
-0.817050039768219,5.404950141906738,8.199000358581543,-0.015124999918043613,0.006462499964982271,-0.015399999916553497
-0.7900500297546387,5.394000053405762,8.254050254821777,-0.006599999964237213,0.0004124999977648258,-0.0019249999895691872
-0.7159500122070312,5.371950149536133,8.167950630187988,0.0056374999694526196,-0.0057749999687075615,-0.0019249999895691872
-0.6799500584602356,5.377050399780273,8.074950218200684,0.012924999929964542,0.005224999971687794,-0.0031624999828636646
-0.7710000276565552,5.343000411987305,8.211000442504883,0.010449999943375587,0.01746249943971634,-0.004399999976158142
-0.7380000352859497,5.322000026702881,8.191950798034668,0.014162499457597733,-0.009349999949336052,-0.008112499490380287
-0.7450500130653381,5.314050197601318,8.070000648498535,0.017737500369548798,-0.014299999922513962,-0.014162499457597733
-0.8410500288009644,5.389050483703613,8.068050384521484,0.004399999976158142,0.0016499999910593033,-0.019112499430775642
-0.9049500226974487,5.47005033493042,8.190000534057617,-0.0017874999903142452,0.010174999944865704,-0.0056374999694526196
-0.7230000495910645,5.386050224304199,8.209050178527832,0.011687500402331352,0.006462499964982271,0.012649999931454659
-0.6199500560760498,5.365050315856934,8.086950302124023,0.03368749842047691,0.023512499406933784,0.0028874999843537807
-0.7279500365257263,5.307000160217285,8.281050682067871,0.020212499424815178,0.03698749840259552,-0.023924998939037323
-0.8839500546455383,5.37000036239624,8.28600025177002,0.022687500342726707,0.002749999985098839,-0.019112499430775642
-0.8550000190734863,5.413050174713135,8.254050254821777,0.027637500315904617,-0.0057749999687075615,-0.010449999943375587
-0.6420000195503235,5.3580002784729,8.10105037689209,0.0471624992787838,0.013749999925494194,-0.004399999976158142
-0.5749500393867493,5.254950046539307,8.25,0.07150000333786011,0.07122500240802765,-0.020349999889731407
-0.6130500435829163,5.27400016784668,8.428950309753418,0.10092499852180481,0.10422500222921371,-0.03492499887943268
-0.7620000243186951,5.311950206756592,8.479050636291504,0.19126249849796295,0.14698749780654907,-0.05087500065565109
-0.9100500345230103,5.4340500831604,8.26200008392334,0.23649999499320984,0.1237500011920929,-0.05444999784231186
-0.987000048160553,5.640000343322754,7.833000183105469,0.20350000262260437,0.09075000137090683,-0.04592499881982803
-0.9169500470161438,5.632950305938721,7.864050388336182,0.15468749403953552,0.08346249908208847,-0.027637500315904617
-0.8119500279426575,5.539950370788574,8.010000228881836,0.14973749220371246,0.07975000143051147,-0.028875000774860382
-0.843000054359436,5.530050277709961,7.990950584411621,0.1522125005722046,0.07246249914169312,-0.03616249933838844
-1.0270500183105469,5.616000175476074,7.713000297546387,0.1350249946117401,0.03698749840259552,-0.043449997901916504
-1.1899501085281372,5.752950191497803,7.576950550079346,0.06916250288486481,0.008937500417232513,-0.030112499371170998
-0.9940500259399414,5.652000427246094,7.90500020980835,0.025162499397993088,0.02227500081062317,0.0005499999970197678
-0.9130500555038452,5.556000232696533,8.044050216674805,0.031212499365210533,0.02474999986588955,0.0005499999970197678
-0.8380500674247742,5.508000373840332,8.020050048828125,0.06916250288486481,0.01993750035762787,-0.026399999856948853
-0.9529500603675842,5.602050304412842,7.833000183105469,0.10216250270605087,0.03946249932050705,-0.043449997901916504
-1.0300500392913818,5.700000286102295,7.788000583648682,0.10216250270605087,0.060224998742341995,-0.03244999796152115
-0.9600000381469727,5.722050189971924,7.926000595092773,0.09116250276565552,0.06751249730587006,-0.017875000834465027
-0.8260500431060791,5.563050270080566,8.05305004119873,0.0789249986410141,0.04193750023841858,-0.010449999943375587
-0.9460500478744507,5.671050071716309,7.966950416564941,0.06297499686479568,0.0002749999985098839,-0.03863750025629997
-1.1779500246047974,5.824050426483154,7.990950584411621,0.0471624992787838,-0.020487500354647636,-0.03244999796152115
-1.0750499963760376,5.809950351715088,7.881000518798828,0.06792499870061874,-0.007012499962002039,-0.0031624999828636646
-0.9199500679969788,5.773950099945068,7.870950222015381,0.0812624990940094,0.011274999938905239,0.0028874999843537807
-1.1710500717163086,5.772000312805176,7.776000499725342,0.08621250092983246,0.013749999925494194,-0.03135000169277191
-1.5280500650405884,6.178950309753418,6.217050075531006,0.010449999943375587,-0.0448249988257885,0.005362499970942736
-1.2310500144958496,5.949000358581543,6.624000549316406,-0.22288750112056732,0.01251249946653843,0.089649997651577
-0.5989500284194946,5.17995023727417,8.55405044555664,-0.2363625019788742,0.02474999986588955,0.08483749628067017
-0.9559500217437744,5.563050270080566,8.950950622558594,-0.09336250275373459,-0.026537500321865082,-0.008112499490380287
-1.1809500455856323,5.7019500732421875,8.463000297546387,-0.004124999977648258,-0.020349999889731407,0.006599999964237213
-1.0440000295639038,5.716950416564941,8.371950149536133,0.017737500369548798,0.003987499978393316,0.02488750033080578
-1.111050009727478,5.817000389099121,8.163000106811523,0.022687500342726707,-0.0032999999821186066,0.02736249938607216
-1.1059499979019165,5.884050369262695,8.056050300598145,0.0019249999895691872,-0.03135000169277191,0.03464999794960022
-1.0920000076293945,5.8560004234313965,7.813950538635254,-0.06407500058412552,-0.12182500213384628,0.05664999783039093
-1.0800000429153442,5.869950294494629,7.669950485229492,-0.10436250269412994,-0.14135000109672546,0.07383749634027481
-1.051050066947937,5.788950443267822,7.789950370788574,-0.09583749622106552,-0.09487500041723251,0.10683749616146088
-1.071000099182129,5.674050331115723,7.869000434875488,-0.07383749634027481,-0.06806249916553497,0.1373624950647354
-1.0009500980377197,5.575050354003906,7.764000415802002,-0.0873124971985817,-0.1023000031709671,0.1471250057220459
-0.8479500412940979,5.499000072479248,7.591050148010254,-0.12388750165700912,-0.1438249945640564,0.1494625061750412
-0.6559500098228455,5.530050277709961,7.498050212860107,-0.1568875014781952,-0.13158750534057617,0.1373624950647354
-0.7380000352859497,5.508000373840332,8.167950630187988,-0.17407499253749847,-0.08277499675750732,0.14588749408721924
-0.3360000252723694,5.353050231933594,8.668950080871582,-0.1373624950647354,-0.16830000281333923,0.15565000474452972
-0.22095000743865967,5.254950046539307,8.452950477600098,-0.09212499856948853,-0.24158750474452972,0.10312499850988388
-0.1579500138759613,5.2669501304626465,8.35004997253418,-0.07507500052452087,-0.2611125111579895,0.04936249926686287
-0.23295001685619354,5.245050430297852,8.617950439453125,-0.031075000762939453,-0.23058749735355377,0.0028874999843537807
-0.24000000953674316,5.26200008392334,8.463000297546387,0.03739999979734421,-0.19263750314712524,-0.030112499371170998
-0.41895002126693726,5.314050197601318,8.347949981689453,0.08621250092983246,-0.14258749783039093,-0.06311249732971191
-2.4190502166748047,7.963050365447998,3.205050230026245,0.0019249999895691872,0.47808748483657837,0.04207500070333481
-0.8839500546455383,4.455000400543213,8.986950874328613,-0.11412499845027924,0.47066250443458557,0.30951249599456787
0.5370000004768372,4.198950290679932,10.129050254821777,-0.1313125044107437,-0.20611250400543213,-0.012924999929964542
-0.5389500260353088,5.499000072479248,8.934000015258789,-0.13983750343322754,-0.55673748254776,-0.20350000262260437
-0.7519500255584717,5.962950229644775,8.038949966430664,-0.09583749622106552,-0.33563750982284546,-0.08139999955892563
-0.33105000853538513,5.781000137329102,8.42400074005127,0.04097500070929527,0.005224999971687794,0.03231250122189522
-0.07500000298023224,5.491950035095215,8.506050109863281,0.17902499437332153,0.10670000314712524,0.038362499326467514
-0.364050030708313,5.638050079345703,7.981050491333008,0.18273749947547913,-0.0057749999687075615,-0.019112499430775642
-0.49605002999305725,5.707050323486328,7.612950325012207,0.08744999766349792,-0.09253749996423721,-0.027637500315904617
-0.40995001792907715,5.283000469207764,7.8259501457214355,0.027637500315904617,-0.029012499377131462,-0.0019249999895691872
-0.5700000524520874,5.326050281524658,7.954950332641602,0.06421250104904175,0.023512499406933784,-0.020349999889731407
-0.4740000367164612,5.580000400543213,7.9170002937316895,-0.028599999845027924,-0.027775000780820847,-0.025162499397993088
-0.5800500512123108,5.688000202178955,8.0149507522583,-0.03712499886751175,-0.014299999922513962,-0.03244999796152115
-0.7189500331878662,5.832000255584717,7.969950199127197,-0.020075000822544098,0.01993750035762787,-0.006874999962747097
-0.6280500292778015,5.75700044631958,7.9960503578186035,-0.016362499445676804,0.050462499260902405,0.04207500070333481
-0.47700002789497375,5.640000343322754,8.278050422668457,-0.03478749841451645,0.03946249932050705,0.06283749639987946
-0.3829500079154968,5.431950092315674,8.446050643920898,-0.028599999845027924,-0.029012499377131462,0.048124998807907104
-0.41895002126693726,5.488950252532959,8.23799991607666,0.0019249999895691872,-0.05953750014305115,0.018837500363588333
-0.42705002427101135,5.464950084686279,8.01300048828125,0.021449999883770943,-0.03258749842643738,0.02241249941289425
-0.37095001339912415,5.394000053405762,7.974000453948975,0.021449999883770943,-0.0032999999821186066,0.02983750030398369
-0.38100001215934753,5.4150004386901855,7.954950332641602,0.012924999929964542,-0.002062499988824129,0.02488750033080578
-0.25394999980926514,5.355000019073486,8.02500057220459,0.0006874999962747097,-0.007012499962002039,0.018837500363588333
-0.24900001287460327,5.307000160217285,8.13705062866211,0.0019249999895691872,-0.020487500354647636,-0.008112499490380287
-0.3910500109195709,5.4340500831604,7.990950584411621,0.022687500342726707,-0.022824998944997787,-0.03863750025629997
-0.4620000123977661,5.542050361633301,7.930950164794922,0.031212499365210533,-0.0057749999687075615,-0.0411125011742115
-0.5800500512123108,5.662050247192383,7.924050331115723,0.03492499887943268,0.03217500075697899,-0.021449999883770943
-0.5370000004768372,5.664000034332275,8.104050636291504,0.012924999929964542,0.02969999983906746,-0.004399999976158142
-0.4819500148296356,5.620950222015381,8.166000366210938,-0.012787500396370888,-0.030249999836087227,-0.006874999962747097
-0.5389500260353088,5.632950305938721,8.151000022888184,-0.01759999990463257,-0.05224999785423279,-0.012924999929964542
-0.6280500292778015,5.688000202178955,8.02500057220459,0.007974999956786633,-0.03272499889135361,0.004124999977648258
-0.5269500017166138,5.619000434875488,7.90500020980835,0.018975000828504562,0.010037500411272049,0.038362499326467514
-0.43095001578330994,5.511000156402588,8.034000396728516,-0.0017874999903142452,0.011274999938905239,0.055412501096725464
-0.4050000309944153,5.45805025100708,8.068050384521484,-0.015124999918043613,-0.009487500414252281,0.05431250110268593
-0.27105000615119934,5.425050258636475,8.056050300598145,-0.02983750030398369,-0.04729999974370003,0.04331250116229057
-0.2569500207901001,5.383950233459473,7.945950508117676,-0.018837500363588333,-0.03753750026226044,0.01759999990463257
-0.3520500063896179,5.449050426483154,7.9069504737854,-0.0030249999836087227,-0.0009624999947845936,0.0016499999910593033
-0.45000001788139343,5.559000492095947,7.821000576019287,-0.005362499970942736,0.025987500324845314,-0.0019249999895691872
-0.46695002913475037,5.620950222015381,7.974000453948975,-0.026124998927116394,0.035750001668930054,0.010312499478459358
-0.3450000286102295,5.56095027923584,8.122950553894043,-0.035887498408555984,0.02969999983906746,0.023649999871850014
-0.25200000405311584,5.425050258636475,8.233050346374512,-0.03355000168085098,0.005224999971687794,0.010312499478459358
-0.21105000376701355,5.386050224304199,8.190000534057617,-0.02488750033080578,-0.007012499962002039,-0.0031624999828636646
-0.38805001974105835,5.487000465393066,8.08395004272461,-0.0005499999970197678,0.01746249943971634,-0.03616249933838844
-0.51705002784729,5.556000232696533,8.215950012207031,0.0056374999694526196,0.03203750029206276,-0.023924998939037323
-0.26805001497268677,5.422050476074219,7.98900032043457,0.10216250270605087,0.0002749999985098839,-0.06792499870061874
-0.5269500017166138,5.583000183105469,7.950000286102295,0.1106875017285347,0.04922499880194664,-0.08016250282526016
-0.6679500341415405,5.659050464630127,8.197050094604492,0.1106875017285347,0.06270000338554382,-0.0471624992787838
-0.39795002341270447,5.499000072479248,8.07705020904541,0.10326249897480011,-0.002062499988824129,-0.027637500315904617
-0.37095001339912415,5.527950286865234,7.797000408172607,0.0849749967455864,-0.03629999980330467,-0.06187500059604645
-0.6679500341415405,5.760000228881836,7.609950542449951,0.06421250104904175,-0.013062499463558197,-0.0728750005364418
-0.690000057220459,5.800950050354004,7.885950565338135,0.03973750025033951,0.023512499406933784,-0.03368749842047691
-0.47700002789497375,5.599050045013428,8.110950469970703,0.04468749836087227,0.014987500384449959,-0.009349999949336052
-0.3550500273704529,5.547000408172607,7.993050575256348,0.05939999967813492,-0.004537499975413084,-0.031212499365210533
-0.6349500417709351,5.692950248718262,7.327950477600098,0.05321250110864639,0.003987499978393316,-0.05087500065565109
-0.687000036239624,5.689950466156006,7.63200044631958,0.0006874999962747097,0.050462499260902405,-0.017875000834465027
-0.7309500575065613,5.7019500732421875,7.882950305938721,-0.06283749639987946,-0.022824998944997787,0.005362499970942736
-0.5100000500679016,5.64300012588501,8.10105037689209,-0.089649997651577,-0.0387750007212162,0.018837500363588333
-0.5869500041007996,5.620950222015381,8.257050514221191,-0.03478749841451645,-0.002062499988824129,0.005362499970942736
-0.5509500503540039,5.6569504737854,8.08905029296875,0.017737500369548798,0.005224999971687794,0.004124999977648258
-0.5029500126838684,5.664000034332275,7.788000583648682,0.021449999883770943,0.01993750035762787,0.021312499418854713
-0.40995001792907715,5.596950054168701,7.833000183105469,-0.016362499445676804,0.023512499406933784,0.028599999845027924
-0.3550500273704529,5.428950309753418,8.29800033569336,-0.018837500363588333,-0.0057749999687075615,-0.0056374999694526196
-0.34800001978874207,5.407950401306152,8.245050430297852,0.0494999997317791,0.01993750035762787,-0.020349999889731407
-0.37605002522468567,5.398050308227539,8.01300048828125,0.08373750001192093,0.021175000816583633,-0.04221250116825104
-0.7230000495910645,5.748000144958496,7.768050193786621,0.020212499424815178,0.007699999958276749,-0.0411125011742115
-0.6850500106811523,5.728950500488281,7.864050388336182,0.0031624999828636646,0.0015124999918043613,-0.028875000774860382
-0.5770500302314758,5.707050323486328,7.819050312042236,-0.007837500423192978,-0.021587500348687172,-0.03492499887943268
-0.6370500326156616,5.85105037689209,7.708950519561768,-0.020075000822544098,-0.007012499962002039,-0.03863750025629997
-0.6490500569343567,5.805000305175781,7.890000343322754,-0.031075000762939453,0.03451250120997429,-0.014162499457597733
-0.5770500302314758,5.653950214385986,8.138999938964844,-0.014024999924004078,0.050462499260902405,0.004124999977648258
-0.5850000381469727,5.620950222015381,8.163000106811523,0.0006874999962747097,0.025987500324845314,0.009074999950826168
-0.49800002574920654,5.587050437927246,8.122950553894043,-0.012787500396370888,-0.025299999862909317,0.01759999990463257
-0.3930000066757202,5.556000232696533,8.056050300598145,-0.014024999924004078,-0.04001250118017197,0.015124999918043613
-0.28005000948905945,5.487000465393066,7.993050575256348,0.0056374999694526196,-0.007012499962002039,-0.004399999976158142
-0.40005001425743103,5.467950344085693,8.062950134277344,0.03616249933838844,0.02969999983906746,-0.03492499887943268
-0.5869500041007996,5.551950454711914,8.094000816345215,0.055687498301267624,0.023512499406933784,-0.05211250111460686
-0.7350000143051147,5.728950500488281,7.921950340270996,0.05444999784231186,0.003987499978393316,-0.04839999973773956
-0.7350000143051147,5.761950492858887,7.882950305938721,0.04468749836087227,0.002749999985098839,-0.03616249933838844
-0.7570500373840332,5.824050426483154,7.704000473022461,0.027637500315904617,0.01251249946653843,-0.015399999916553497
-0.5560500025749207,5.712000370025635,8.110950469970703,0.022687500342726707,0.06393750011920929,0.011412499472498894
-0.4339500069618225,5.595000267028809,8.098950386047363,0.07644999772310257,0.07603749632835388,-0.0056374999694526196
-1.1710500717163086,6.01800012588501,6.9970502853393555,0.05444999784231186,0.052937500178813934,-0.009349999949336052
-0.520050048828125,5.559000492095947,8.295000076293945,-0.02736249938607216,0.08703749626874924,0.04331250116229057
-0.5269500017166138,5.620950222015381,8.194950103759766,-0.0017874999903142452,-0.015537500381469727,0.004124999977648258
-0.5770500302314758,5.755050182342529,8.050950050354004,0.0019249999895691872,0.005224999971687794,0.009074999950826168
-0.5869500041007996,5.671050071716309,8.221050262451172,0.022687500342726707,0.01993750035762787,0.013887500390410423
-0.43800002336502075,5.571000099182129,8.002950668334961,0.03973750025033951,-0.021587500348687172,-0.0019249999895691872
-0.5029500126838684,5.619000434875488,7.6870503425598145,0.022687500342726707,-0.020487500354647636,-0.019112499430775642
-0.6060000061988831,5.653950214385986,7.696950435638428,0.0019249999895691872,-0.014299999922513962,-0.016637500375509262
-0.6829500198364258,5.724000453948975,7.729950428009033,-0.03231250122189522,-0.018012499436736107,0.0005499999970197678
-0.534000039100647,5.64300012588501,7.974000453948975,-0.035887498408555984,-0.0008249999955296516,0.021312499418854713
-0.39795002341270447,5.512950420379639,8.056050300598145,-0.012787500396370888,-0.0032999999821186066,0.0028874999843537807
-0.6850500106811523,5.707050323486328,8.0149507522583,0.014162499457597733,-0.0057749999687075615,-0.0411125011742115
-0.859950065612793,5.829000473022461,7.938000202178955,0.010449999943375587,-0.009487500414252281,-0.025162499397993088
-0.7380000352859497,5.8030500411987305,7.8259501457214355,0.0056374999694526196,-0.015537500381469727,0.0028874999843537807
-0.6589500308036804,5.776950359344482,7.8070502281188965,-0.009074999950826168,-0.0008249999955296516,0.015124999918043613
-0.5869500041007996,5.7330002784729,7.945950508117676,-0.022549999877810478,0.006462499964982271,0.023649999871850014
-0.4429500102996826,5.583000183105469,8.08395004272461,-0.015124999918043613,0.0015124999918043613,0.021312499418854713
-0.45000001788139343,5.500950336456299,8.034000396728516,-0.005362499970942736,-0.014299999922513962,-0.0019249999895691872
-0.5850000381469727,5.563050270080566,7.9770002365112305,-0.0017874999903142452,-0.025299999862909317,-0.020349999889731407
-0.6850500106811523,5.674050331115723,7.9170002937316895,-0.0017874999903142452,-0.026537500321865082,-0.016637500375509262
-0.6280500292778015,5.7019500732421875,7.8949503898620605,0.0019249999895691872,-0.011824999935925007,-0.0031624999828636646
-0.5730000138282776,5.740950107574463,7.819050312042236,-0.0017874999903142452,-0.013062499463558197,-0.0006874999962747097
-0.6160500049591064,5.785950183868408,7.716000556945801,-0.026124998927116394,-0.020487500354647636,-0.0006874999962747097
-0.5560500025749207,5.677950382232666,7.855050563812256,-0.06407500058412552,-0.024062499403953552,0.0016499999910593033
-0.5560500025749207,5.635050296783447,8.002950668334961,-0.06655000150203705,-0.015537500381469727,-0.0006874999962747097
-0.5320500135421753,5.571000099182129,8.221050262451172,-0.028599999845027924,0.007699999958276749,-0.010449999943375587
-0.6010500192642212,5.619000434875488,8.25,0.03863750025629997,0.03698749840259552,-0.017875000834465027
-0.5940000414848328,5.640000343322754,8.116050720214844,0.08868750184774399,0.04675000160932541,-0.016637500375509262
-0.5730000138282776,5.63100004196167,8.046000480651855,0.09968750178813934,0.04427500069141388,-0.016637500375509262
-0.6130500435829163,5.700000286102295,7.897950172424316,0.08373750001192093,0.01746249943971634,-0.021449999883770943
-0.5290500521659851,5.664000034332275,7.960050582885742,0.05444999784231186,0.003987499978393316,-0.019112499430775642
-0.5440500378608704,5.695050239562988,7.858950138092041,0.055687498301267624,-0.002062499988824129,-0.026399999856948853
-0.6439500451087952,5.760000228881836,7.764000415802002,0.05321250110864639,0.018699999898672104,-0.025162499397993088
-0.661050021648407,5.752950191497803,7.90500020980835,0.04839999973773956,0.030937500298023224,-0.014162499457597733
-0.597000002861023,5.695050239562988,7.837950229644775,0.055687498301267624,0.014987500384449959,-0.015399999916553497
-0.6060000061988831,5.692950248718262,7.741950511932373,0.05197500064969063,0.007699999958276749,-0.021449999883770943
-0.7090500593185425,5.755050182342529,7.693950176239014,0.027637500315904617,0.005224999971687794,-0.031212499365210533
-0.8100000619888306,5.812950134277344,7.73205041885376,-0.0017874999903142452,0.0015124999918043613,-0.015399999916553497
-0.7090500593185425,5.781000137329102,7.840050220489502,-0.02488750033080578,-0.004537499975413084,0.004124999977648258
-0.690000057220459,5.725950241088867,7.9360504150390625,-0.022549999877810478,0.005224999971687794,0.009074999950826168
-0.6420000195503235,5.6860504150390625,7.938000202178955,-0.020075000822544098,-0.008249999955296516,0.007837500423192978
-0.687000036239624,5.737950325012207,7.881000518798828,-0.015124999918043613,-0.0057749999687075615,0.005362499970942736
-0.6160500049591064,5.7430500984191895,7.819050312042236,-0.009074999950826168,0.003987499978393316,0.012649999931454659
-0.4429500102996826,5.662050247192383,7.870950222015381,-0.012787500396370888,0.025987500324845314,0.015124999918043613
-0.4549500346183777,5.596950054168701,8.07194995880127,-0.009074999950826168,0.025987500324845314,-0.004399999976158142
-0.5100000500679016,5.607000350952148,8.131950378417969,0.006874999962747097,0.003987499978393316,-0.022687500342726707
-0.5490000247955322,5.611050128936768,7.9770002365112305,0.03368749842047691,0.008937500417232513,-0.03616249933838844
-0.6520500183105469,5.713950157165527,7.972050189971924,0.05073750019073486,0.035750001668930054,-0.04592499881982803
-0.6850500106811523,5.736000061035156,7.776000499725342,0.05321250110864639,0.03451250120997429,-0.04221250116825104
-0.7690500617027283,5.710050106048584,8.175000190734863,0.09597499668598175,0.1480875015258789,-0.05692499876022339
-1.055999994277954,5.887050151824951,8.10105037689209,0.148499995470047,0.12251249700784683,-0.04963750019669533
-1.0990500450134277,6.0420002937316895,7.663050174713135,0.08744999766349792,0.025987500324845314,-0.017875000834465027
-0.999000072479248,6.073050498962402,7.609950542449951,-0.028599999845027924,-0.06929999589920044,0.012649999931454659
-0.9010500311851501,6.057000160217285,7.72005033493042,-0.06531249731779099,-0.06077500060200691,0.03231250122189522
-0.8719500303268433,5.937000274658203,7.783050537109375,-0.03959999978542328,-0.03272499889135361,0.05431250110268593
-0.7189500331878662,5.841000080108643,7.7440505027771,-0.023787500336766243,-0.015537500381469727,0.06407500058412552
-0.661050021648407,5.772000312805176,7.783050537109375,-0.02736249938607216,-0.011962499469518661,0.060362499207258224
-0.687000036239624,5.74500036239624,7.893000602722168,-0.03355000168085098,-0.025299999862909317,0.04331250116229057
-0.6559500098228455,5.781000137329102,7.881000518798828,-0.038362499326467514,-0.04001250118017197,0.04207500070333481
-0.48405003547668457,5.650050163269043,7.759050369262695,-0.05555000156164169,-0.06077500060200691,0.045649997889995575
-0.36900001764297485,5.52495002746582,7.7659502029418945,-0.0518375001847744,-0.0387750007212162,0.021312499418854713
-0.32805001735687256,5.475000381469727,7.881000518798828,-0.010312499478459358,0.008937500417232513,-0.011687500402331352
-0.36900001764297485,5.473050117492676,7.924050331115723,0.015399999916553497,0.030799999833106995,-0.030112499371170998
-0.5530500411987305,5.595000267028809,7.8070502281188965,0.05444999784231186,0.043037500232458115,-0.06063750013709068
-0.7230000495910645,5.812950134277344,7.713000297546387,0.03616249933838844,0.03946249932050705,-0.05939999967813492
-0.8119500279426575,5.893950462341309,7.864050388336182,-0.021312499418854713,0.007699999958276749,-0.04839999973773956
-0.9360000491142273,5.968050479888916,7.990950584411621,-0.057887498289346695,-0.03148749843239784,-0.03987500071525574
-0.9750000238418579,5.977950096130371,8.118000030517578,-0.048124998807907104,-0.027775000780820847,-0.020212499424815178
-0.9340500235557556,5.914950370788574,7.771050453186035,0.004399999976158142,0.006462499964982271,-0.0006874999962747097
-1.3120501041412354,6.157050132751465,7.452000141143799,-0.03712499886751175,0.17256249487400055,0.0518375001847744
-0.687000036239624,5.374050140380859,8.728050231933594,-0.0518375001847744,0.005224999971687794,0.07012499868869781
-0.7669500112533569,5.707050323486328,8.13705062866211,-0.02736249938607216,-0.1597750037908554,0.023649999871850014
-0.5080500245094299,5.748000144958496,7.752000331878662,-0.023787500336766243,-0.08277499675750732,0.03712499886751175
-0.5059500336647034,5.74500036239624,8.005050659179688,0.0056374999694526196,0.02227500081062317,0.03341250121593475
-0.4650000333786011,5.671050071716309,8.00100040435791,0.031212499365210533,0.018699999898672104,0.023649999871850014
-0.5290500521659851,5.692950248718262,7.813950538635254,0.011687500402331352,-0.03629999980330467,0.013887500390410423
-0.49605002999305725,5.671050071716309,7.668000221252441,-0.01759999990463257,-0.04977500066161156,0.005362499970942736
-0.4909500181674957,5.599050045013428,7.90500020980835,-0.018837500363588333,-0.009487500414252281,-0.014162499457597733
-0.690000057220459,5.632950305938721,8.094000816345215,0.018975000828504562,0.01979999989271164,-0.03492499887943268
-0.7900500297546387,5.676000118255615,8.094000816345215,0.03973750025033951,0.01746249943971634,-0.04097500070929527
-0.9270000457763672,5.824050426483154,7.902000427246094,0.05444999784231186,-0.004537499975413084,-0.026399999856948853
-0.8290500640869141,5.805000305175781,7.546050548553467,0.03244999796152115,-0.020487500354647636,0.0005499999970197678
-0.7900500297546387,5.860050201416016,7.407000541687012,-0.03355000168085098,0.02474999986588955,0.007837500423192978
-0.7519500255584717,5.736000061035156,7.929000377655029,-0.06159999966621399,-0.007012499962002039,0.0005499999970197678
-0.9100500345230103,5.8720502853393555,7.771050453186035,-0.05664999783039093,-0.03272499889135361,0.0017874999903142452
-0.931950032711029,5.880000114440918,7.729950428009033,-0.05431250110268593,-0.010724999941885471,0.015124999918043613
-0.7950000166893005,5.901000499725342,7.900050163269043,-0.048124998807907104,0.02956249937415123,0.040837500244379044
-0.5370000004768372,5.748000144958496,8.116050720214844,-0.045787498354911804,0.03203750029206276,0.053075000643730164
-0.41505002975463867,5.640000343322754,8.178000450134277,-0.03959999978542328,0.01979999989271164,0.04331250116229057
-0.4459500312805176,5.5849504470825195,8.175000190734863,-0.011549999937415123,-0.007012499962002039,0.006599999964237213
-0.5770500302314758,5.628000259399414,8.04104995727539,0.004399999976158142,-0.013199999928474426,-0.0031624999828636646
-0.6250500082969666,5.707050323486328,7.855050563812256,0.012924999929964542,0.003987499978393316,0.011549999937415123
-0.5149500370025635,5.580000400543213,7.929000377655029,-0.006599999964237213,0.005224999971687794,0.022549999877810478
-0.5410500168800354,5.535000324249268,7.941000461578369,0.020212499424815178,0.011274999938905239,0.040837500244379044
-0.42900002002716064,5.464950084686279,7.8349504470825195,-0.021312499418854713,-0.013199999928474426,0.02983750030398369
-0.3550500273704529,5.3959503173828125,8.044050216674805,-0.048124998807907104,-0.01677500084042549,0.010312499478459358
-0.43605002760887146,5.407950401306152,8.202000617980957,-0.021312499418854713,-0.02419999986886978,-0.015399999916553497
-0.5370000004768372,5.494050025939941,7.938000202178955,0.009212499484419823,-0.02419999986886978,-0.03739999979734421
-0.7710000276565552,5.676000118255615,7.740000247955322,0.0031624999828636646,-0.009487500414252281,-0.03739999979734421
-0.8620500564575195,5.800950050354004,7.795050144195557,-0.03478749841451645,-0.007012499962002039,-0.022687500342726707
-0.9079500436782837,5.836050510406494,7.890000343322754,-0.0518375001847744,-0.009487500414252281,-0.014162499457597733
-0.9390000700950623,5.937000274658203,8.01300048828125,-0.05912499874830246,-0.024062499403953552,0.009074999950826168
-0.9580500721931458,5.92995023727417,8.002950668334961,-0.048124998807907104,-0.029012499377131462,0.03341250121593475
-0.8910000324249268,5.887050151824951,7.9860005378723145,-0.03231250122189522,-0.027775000780820847,0.05664999783039093
-0.8479500412940979,5.853000164031982,7.870950222015381,-0.028599999845027924,-0.029012499377131462,0.07136250287294388
-0.6280500292778015,5.736000061035156,7.761000156402588,-0.04688749834895134,-0.022824998944997787,0.09941250085830688
-0.43095001578330994,5.554050445556641,7.957950592041016,-0.06778749823570251,-0.007012499962002039,0.10683749616146088
-0.36705002188682556,5.473050117492676,8.092050552368164,-0.06531249731779099,-0.007012499962002039,0.10436250269412994
-0.22500000894069672,5.298000335693359,8.175000190734863,-0.05555000156164169,-0.04001250118017197,0.08841250091791153
-0.14205001294612885,5.233050346374512,8.034000396728516,-0.03959999978542328,-0.06077500060200691,0.04936249926686287
-0.08895000070333481,5.245050430297852,7.9170002937316895,-0.02983750030398369,-0.04235000163316727,0.009074999950826168
-0.18195000290870667,5.329050064086914,7.941000461578369,-0.031075000762939453,0.0015124999918043613,-0.030112499371170998
-0.5440500378608704,5.503950119018555,8.403000831604004,-0.006599999964237213,-0.009487500414252281,-0.0789249986410141
-0.7069500088691711,5.688000202178955,8.25,0.020212499424815178,-0.04606249928474426,-0.08139999955892563
-0.7230000495910645,5.785950183868408,8.082000732421875,0.05197500064969063,-0.01924999989569187,-0.06297499686479568
-0.7620000243186951,5.853000164031982,7.98900032043457,0.07644999772310257,0.013749999925494194,-0.04592499881982803
-0.7780500650405884,5.892000198364258,7.981050491333008,0.08016250282526016,0.023512499406933784,-0.03616249933838844
-0.8689500689506531,6.040050506591797,6.604950428009033,0.05939999967813492,0.040699999779462814,-0.008112499490380287
-1.4149500131607056,6.169050216674805,6.745950222015381,-0.04455000162124634,0.36684998869895935,0.10917499661445618
-0.5029500126838684,4.939050197601318,8.941950798034668,-0.09459999948740005,0.1335124969482422,0.12870000302791595
-0.3330000042915344,5.1469502449035645,8.520000457763672,-0.12388750165700912,-0.25011250376701355,-0.0006874999962747097
-0.597000002861023,5.788950443267822,8.046000480651855,-0.1788875013589859,-0.2525874972343445,-0.0019249999895691872
-0.40995001792907715,5.6569504737854,8.257050514221191,-0.11783749610185623,-0.05224999785423279,0.06888750195503235
-0.32805001735687256,5.575050354003906,8.472000122070312,-0.06655000150203705,0.02227500081062317,0.07864999771118164
-0.2760000228881836,5.427000045776367,8.568000793457031,0.015399999916553497,0.02969999983906746,0.048124998807907104
-0.46995002031326294,5.539950370788574,8.122950553894043,0.03739999979734421,-0.03753750026226044,0.005362499970942736
-0.6420000195503235,5.650050163269043,7.845000267028809,0.010449999943375587,-0.06077500060200691,0.004124999977648258
-0.661050021648407,5.619000434875488,7.752000331878662,-0.026124998927116394,-0.05348749831318855,0.038362499326467514
-0.4429500102996826,5.371950149536133,7.882950305938721,-0.048124998807907104,-0.0009624999947845936,0.03959999978542328
-0.5610000491142273,5.3959503173828125,8.029050827026367,-0.06888750195503235,-0.014299999922513962,0.02983750030398369
-0.43605002760887146,5.503950119018555,8.166000366210938,-0.06407500058412552,-0.011824999935925007,0.016362499445676804
-0.4740000367164612,5.551950454711914,8.175000190734863,-0.03355000168085098,0.014987500384449959,0.020075000822544098
-0.5440500378608704,5.640000343322754,8.194950103759766,-0.03478749841451645,0.0015124999918043613,0.028599999845027924
-0.42900002002716064,5.566050052642822,8.407950401306152,-0.04936249926686287,-0.009487500414252281,0.04688749834895134
-0.2880000174045563,5.367000102996826,8.539050102233887,-0.018837500363588333,-0.026537500321865082,0.03712499886751175
-0.3739500045776367,5.317050457000732,7.785000324249268,-0.004124999977648258,-0.08030000329017639,0.0005499999970197678
-0.4429500102996826,5.535000324249268,7.828050136566162,-0.057887498289346695,-0.0644875019788742,-0.017875000834465027
-0.534000039100647,5.571000099182129,8.07194995880127,-0.031075000762939453,-0.013062499463558197,-0.021449999883770943
-0.5650500059127808,5.6860504150390625,8.010000228881836,0.009212499484419823,0.006462499964982271,-0.006874999962747097
-0.5290500521659851,5.719050407409668,7.879050254821777,0.009212499484419823,0.008937500417232513,0.004124999977648258
-0.4069500267505646,5.668950080871582,7.902000427246094,-0.022549999877810478,0.02227500081062317,0.026124998927116394
-0.38100001215934753,5.608950138092041,8.06505012512207,-0.04331250116229057,0.021037500351667404,0.03231250122189522
-0.3360000252723694,5.463000297546387,8.3860502243042,-0.053075000643730164,-0.0009624999947845936,0.03231250122189522
-0.2880000174045563,5.407950401306152,8.496000289916992,-0.03712499886751175,-0.0057749999687075615,0.02983750030398369
-0.22305001318454742,5.233050346374512,8.544000625610352,0.031212499365210533,0.0015124999918043613,0.011549999937415123
-0.23295001685619354,5.202000141143799,8.443950653076172,0.06792499870061874,0.005224999971687794,-0.004399999976158142
-0.3450000286102295,5.271000385284424,8.105999946594238,0.116737499833107,0.013749999925494194,-0.03244999796152115
-0.4240500330924988,5.389050483703613,7.8070502281188965,0.10092499852180481,0.016224998980760574,-0.043449997901916504
-0.30900001525878906,5.427000045776367,7.90500020980835,0.060499999672174454,0.03451250120997429,-0.043449997901916504
-0.4720500111579895,5.587050437927246,7.752000331878662,0.08992499858140945,0.0845625028014183,-0.12773749232292175
-0.8020500540733337,5.737950325012207,7.969950199127197,0.05321250110864639,0.10532499849796295,-0.12044999748468399
-1.0969500541687012,5.974950313568115,8.518050193786621,0.05444999784231186,0.113987497985363,-0.06544999778270721
-0.9340500235557556,5.829000473022461,8.532000541687012,0.08249999582767487,0.03203750029206276,-0.004399999976158142
-0.6010500192642212,5.707050323486328,8.010000228881836,0.09844999760389328,-0.03506249934434891,-0.011687500402331352
-0.6760500073432922,5.674050331115723,7.804050445556641,0.12044999748468399,0.005224999971687794,-0.03368749842047691
-0.8790000677108765,5.761950492858887,7.728000164031982,0.14121249318122864,0.060224998742341995,-0.025162499397993088
-0.8790000677108765,5.7430500984191895,7.648950576782227,0.11316250264644623,0.06146249920129776,0.015124999918043613
-0.7570500373840332,5.659050464630127,7.621950149536133,0.08373750001192093,0.04675000160932541,0.028599999845027924
-0.5320500135421753,5.5489501953125,7.336950302124023,0.021449999883770943,0.023512499406933784,0.028599999845027924
-0.6709500551223755,5.616000175476074,7.843050479888916,-0.03355000168085098,0.008937500417232513,0.010312499478459358
