accX,accY,accZ,gyroX,gyroY,gyroZ
0.1099500060081482,0.13095000386238098,9.78795051574707,-0.0,-0.0019249999895691872,-0.0006874999962747097
0.1099500060081482,0.07800000160932541,9.802050590515137,0.0010999999940395355,0.0002749999985098839,-0.0017874999903142452
0.12495000660419464,0.09495000541210175,9.78795051574707,0.0010999999940395355,0.0002749999985098839,-0.0006874999962747097
0.13199999928474426,0.10695000737905502,9.793050765991211,0.002062499988824129,0.0002749999985098839,0.002474999986588955
0.14595000445842743,0.15495000779628754,9.782999992370605,0.0010999999940395355,-0.0008249999955296516,0.0004124999977648258
0.15300001204013824,0.17100000381469727,9.795000076293945,0.002062499988824129,-0.0019249999895691872,0.0015124999918043613
0.15600000321865082,0.1860000044107437,9.781050682067871,0.002062499988824129,-0.0008249999955296516,0.0004124999977648258
0.17205001413822174,0.21495001018047333,9.79995059967041,0.002062499988824129,-0.0008249999955296516,-0.0006874999962747097
0.18405000865459442,0.26205000281333923,9.793050765991211,0.002062499988824129,-0.0008249999955296516,0.002474999986588955
0.20100000500679016,0.25995001196861267,9.796950340270996,-0.0,0.0002749999985098839,0.0015124999918043613
0.20400001108646393,0.23400001227855682,9.793050765991211,-0.0,-0.0019249999895691872,0.0004124999977648258
0.18405000865459442,0.22200001776218414,9.79995059967041,-0.0,-0.0008249999955296516,0.002474999986588955
0.1579500138759613,0.2050500065088272,9.807000160217285,-0.0010999999940395355,0.0002749999985098839,0.002474999986588955
0.13395000994205475,0.22605000436306,9.81195068359375,-0.0,0.0012374999932944775,0.0015124999918043613
0.11295000463724136,0.21705001592636108,9.808950424194336,-0.0010999999940395355,0.0012374999932944775,-0.0006874999962747097
0.09105000644922256,0.16905000805854797,9.790050506591797,0.0010999999940395355,0.0012374999932944775,-0.0038499999791383743
0.09600000083446503,0.1570500135421753,9.790050506591797,-0.0010999999940395355,0.0002749999985098839,-0.002749999985098839
0.11505000293254852,0.16395001113414764,9.778050422668457,-0.0010999999940395355,0.0002749999985098839,-0.00494999997317791
0.1270500123500824,0.12105000764131546,9.793050765991211,0.0010999999940395355,0.002337499987334013,-0.002749999985098839
0.15600000321865082,0.05700000375509262,9.77400016784668,0.0010999999940395355,-0.0008249999955296516,-0.00494999997317791
0.18000000715255737,0.010950000956654549,9.808950424194336,-0.0,0.0012374999932944775,-0.0006874999962747097
0.1870500147342682,0.022950001060962677,9.793050765991211,0.0010999999940395355,-0.0028874999843537807,0.0015124999918043613
0.1870500147342682,0.11205000430345535,9.796950340270996,-0.0,-0.0028874999843537807,0.004674999974668026
0.14400000870227814,0.22605000436306,9.78795051574707,0.002062499988824129,-0.0028874999843537807,0.0057749999687075615
0.15105000138282776,0.31005001068115234,9.784950256347656,0.0010999999940395355,-0.0008249999955296516,0.002474999986588955
0.12195000797510147,0.29805001616477966,9.807000160217285,0.002062499988824129,-0.0008249999955296516,0.002474999986588955
0.11295000463724136,0.31995001435279846,9.793050765991211,0.0031624999828636646,0.002337499987334013,0.0004124999977648258
0.17205001413822174,0.286050021648407,9.81195068359375,-0.0,-0.0008249999955296516,-0.0006874999962747097
0.1680000126361847,0.23400001227855682,9.771000862121582,-0.0010999999940395355,0.0012374999932944775,-0.0038499999791383743
0.20400001108646393,0.14295001327991486,9.790050506591797,0.0010999999940395355,0.0034374999813735485,-0.0038499999791383743
0.18900001049041748,0.12600000202655792,9.793050765991211,-0.0010999999940395355,0.0012374999932944775,-0.0006874999962747097
0.1870500147342682,0.18105000257492065,9.778050422668457,-0.0,0.0012374999932944775,0.0015124999918043613
0.17505000531673431,0.1860000044107437,9.790050506591797,-0.0010999999940395355,-0.0008249999955296516,0.0015124999918043613
0.1360500007867813,0.1189500093460083,9.78795051574707,-0.0010999999940395355,-0.0019249999895691872,0.0004124999977648258
0.10500000417232513,0.1469999998807907,9.795000076293945,-0.0,0.0002749999985098839,0.0015124999918043613
0.09795000404119492,0.18300001323223114,9.77595043182373,-0.0,-0.0008249999955296516,0.0015124999918043613
0.1270500123500824,0.21705001592636108,9.78795051574707,-0.0010999999940395355,0.0002749999985098839,0.0015124999918043613
0.13199999928474426,0.17595000565052032,9.790050506591797,-0.0,0.0012374999932944775,-0.0017874999903142452
0.15300001204013824,0.09000000357627869,9.820950508117676,-0.0,0.0002749999985098839,-0.0006874999962747097
0.15300001204013824,0.12600000202655792,9.795000076293945,0.002062499988824129,0.0002749999985098839,0.0004124999977648258
0.16005000472068787,0.17400000989437103,9.79995059967041,-0.0010999999940395355,0.0002749999985098839,0.0004124999977648258
0.16005000472068787,0.18300001323223114,9.769050598144531,-0.0010999999940395355,-0.0028874999843537807,-0.0006874999962747097
0.16305001080036163,0.18300001323223114,9.78795051574707,-0.0,0.0002749999985098839,0.0015124999918043613
0.17505000531673431,0.2050500065088272,9.796950340270996,0.0010999999940395355,0.0012374999932944775,0.0015124999918043613
0.14805001020431519,0.24300001561641693,9.808950424194336,-0.0010999999940395355,-0.0008249999955296516,0.002474999986588955
0.13905000686645508,0.2770500183105469,9.75,-0.0,-0.007149999961256981,0.0015124999918043613
0.15105000138282776,0.28200000524520874,9.78795051574707,0.0010999999940395355,0.008799999952316284,-0.0017874999903142452
0.15300001204013824,0.2050500065088272,9.782999992370605,-0.002199999988079071,0.008799999952316284,-0.002749999985098839
0.14805001020431519,0.1380000114440918,9.796950340270996,-0.0010999999940395355,-0.0028874999843537807,-0.0006874999962747097
0.17205001413822174,0.0970500037074089,9.80505084991455,-0.0010999999940395355,0.0002749999985098839,0.0004124999977648258
0.16305001080036163,0.10005000233650208,9.778050422668457,-0.002199999988079071,0.0002749999985098839,0.002474999986588955
0.12000000476837158,0.10200000554323196,9.77595043182373,-0.0,-0.0008249999955296516,0.0035749999806284904
0.10305000841617584,0.0880500078201294,9.782999992370605,0.002062499988824129,-0.0008249999955296516,0.004674999974668026
0.09600000083446503,0.12600000202655792,9.790050506591797,0.0010999999940395355,0.0002749999985098839,0.0035749999806284904
0.12495000660419464,0.18105000257492065,9.795000076293945,-0.0,-0.0019249999895691872,0.0035749999806284904
0.14100000262260437,0.19095000624656677,9.795000076293945,0.0010999999940395355,-0.0028874999843537807,0.0004124999977648258
0.15600000321865082,0.1860000044107437,9.808950424194336,0.0010999999940395355,-0.0008249999955296516,0.0004124999977648258
0.14595000445842743,0.19500000774860382,9.784950256347656,0.002062499988824129,0.0012374999932944775,0.0004124999977648258
0.16995000839233398,0.24105000495910645,9.78795051574707,0.002062499988824129,0.0012374999932944775,0.0015124999918043613
0.17205001413822174,0.23400001227855682,9.802050590515137,0.002062499988824129,0.0002749999985098839,0.0004124999977648258
0.18000000715255737,0.26205000281333923,9.796950340270996,-0.0,0.0002749999985098839,0.0015124999918043613
0.16305001080036163,0.24300001561641693,9.795000076293945,-0.0010999999940395355,-0.0008249999955296516,-0.0006874999962747097
0.1770000010728836,0.21000000834465027,9.814050674438477,-0.0,0.0002749999985098839,-0.0006874999962747097
0.14805001020431519,0.18300001323223114,9.781050682067871,-0.0010999999940395355,0.0012374999932944775,-0.0006874999962747097
0.14805001020431519,0.17595000565052032,9.793050765991211,-0.0010999999940395355,0.002337499987334013,0.0004124999977648258
0.14805001020431519,0.15000000596046448,9.790050506591797,-0.0,0.0002749999985098839,0.0004124999977648258
0.1270500123500824,0.09195000678300858,9.790050506591797,0.0010999999940395355,0.0002749999985098839,-0.0017874999903142452
0.11700000613927841,0.11205000430345535,9.79995059967041,-0.0010999999940395355,0.0002749999985098839,0.0004124999977648258
0.13199999928474426,0.11400000751018524,9.769050598144531,-0.0,0.0002749999985098839,-0.0006874999962747097
0.13199999928474426,0.1469999998807907,9.79995059967041,0.0010999999940395355,0.0012374999932944775,0.0004124999977648258
0.13199999928474426,0.15495000779628754,9.793050765991211,0.0010999999940395355,0.0002749999985098839,0.0004124999977648258
0.15105000138282776,0.17595000565052032,9.781050682067871,0.002062499988824129,0.0012374999932944775,0.0004124999977648258
0.14805001020431519,0.19305001199245453,9.802050590515137,-0.0,0.0002749999985098839,0.0004124999977648258
0.15600000321865082,0.21705001592636108,9.79995059967041,0.0010999999940395355,-0.0008249999955296516,0.0015124999918043613
0.17205001413822174,0.23805001378059387,9.793050765991211,-0.0010999999940395355,-0.0008249999955296516,-0.0017874999903142452
0.16305001080036163,0.1980000138282776,9.793050765991211,0.0010999999940395355,-0.0008249999955296516,-0.0006874999962747097
0.18405000865459442,0.16905000805854797,9.793050765991211,-0.002199999988079071,0.0012374999932944775,-0.0006874999962747097
0.16500000655651093,0.17100000381469727,9.80505084991455,0.0010999999940395355,0.0002749999985098839,-0.0006874999962747097
0.16305001080036163,0.1860000044107437,9.81195068359375,-0.0,-0.0008249999955296516,0.0004124999977648258
0.14805001020431519,0.2070000171661377,9.78795051574707,-0.002199999988079071,0.0012374999932944775,-0.0006874999962747097
0.12195000797510147,0.18105000257492065,9.81705093383789,-0.0,0.0002749999985098839,-0.0017874999903142452
0.15105000138282776,0.15900000929832458,9.793050765991211,-0.0,-0.0008249999955296516,-0.0017874999903142452
0.13395000994205475,0.1570500135421753,9.796950340270996,-0.0,0.0002749999985098839,0.0004124999977648258
0.14595000445842743,0.1399500072002411,9.78795051574707,0.0010999999940395355,-0.0008249999955296516,-0.0017874999903142452
0.1360500007867813,0.1380000114440918,9.78795051574707,-0.0010999999940395355,0.0012374999932944775,-0.0006874999962747097
0.13905000686645508,0.12600000202655792,9.778050422668457,-0.0,-0.0019249999895691872,-0.0006874999962747097
0.18900001049041748,0.14295001327991486,9.808950424194336,0.002062499988824129,0.00976249948143959,-0.0006874999962747097
0.08895000070333481,0.17400000989437103,9.769050598144531,0.010587500408291817,0.12264999747276306,-0.0006874999962747097
0.11295000463724136,0.19095000624656677,9.75,-0.010724999941885471,-0.14561249315738678,0.004674999974668026
0.06705000251531601,0.21495001018047333,9.703950881958008,0.011687500402331352,0.1471250057220459,-0.002749999985098839
0.2370000183582306,0.18300001323223114,9.891000747680664,-0.009624999947845936,-0.14231249690055847,0.002474999986588955
0.031050002202391624,0.19095000624656677,9.673050880432129,0.006324999965727329,0.057750001549720764,0.004674999974668026
0.14100000262260437,0.22395001351833344,9.82395076751709,0.0031624999828636646,0.025712499395012856,0.002474999986588955
0.21495001018047333,0.22395001351833344,9.88800048828125,-0.005362499970942736,-0.05939999967813492,0.0015124999918043613
0.1579500138759613,0.19095000624656677,9.814050674438477,-0.002199999988079071,-0.023237500339746475,-0.002749999985098839
0.17505000531673431,0.1570500135421753,9.826050758361816,-0.0010999999940395355,-0.008249999955296516,-0.0017874999903142452
0.15300001204013824,0.15000000596046448,9.819000244140625,-0.0,-0.0030249999836087227,-0.0017874999903142452
0.1770000010728836,0.1399500072002411,9.795000076293945,0.0010999999940395355,0.0012374999932944775,0.0004124999977648258
0.14805001020431519,0.16695000231266022,9.793050765991211,-0.0010999999940395355,-0.0008249999955296516,-0.0006874999962747097
0.15600000321865082,0.16905000805854797,9.782999992370605,-0.0,-0.0008249999955296516,0.0004124999977648258
0.11700000613927841,0.19500000774860382,9.782999992370605,-0.0,0.0002749999985098839,0.0004124999977648258
0.12495000660419464,0.19500000774860382,9.795000076293945,-0.0010999999940395355,0.0002749999985098839,0.0004124999977648258
0.14400000870227814,0.17400000989437103,9.790050506591797,0.002062499988824129,0.002337499987334013,0.0004124999977648258
0.14100000262260437,0.15195000171661377,9.819000244140625,-0.0,0.0002749999985098839,-0.0017874999903142452
0.15300001204013824,0.1789500117301941,9.79995059967041,-0.0,0.0002749999985098839,-0.0017874999903142452
0.16005000472068787,0.16695000231266022,9.790050506591797,-0.0,0.0002749999985098839,-0.0017874999903142452
0.14805001020431519,0.16200000047683716,9.807000160217285,0.0010999999940395355,0.0002749999985098839,-0.0006874999962747097
0.16305001080036163,0.1860000044107437,9.795000076293945,0.0010999999940395355,0.0002749999985098839,0.0004124999977648258
0.15300001204013824,0.21000000834465027,9.793050765991211,-0.0,0.0002749999985098839,-0.0006874999962747097
0.15600000321865082,0.2070000171661377,9.793050765991211,-0.0,0.0002749999985098839,-0.0006874999962747097
0.16005000472068787,0.18300001323223114,9.795000076293945,-0.0,0.0012374999932944775,0.0004124999977648258
0.16005000472068787,0.1879500150680542,9.807000160217285,0.002062499988824129,0.0002749999985098839,0.0015124999918043613
0.18195000290870667,0.2050500065088272,9.778050422668457,-0.0,0.0012374999932944775,0.0004124999977648258
0.16305001080036163,0.16395001113414764,9.79995059967041,-0.0,-0.0008249999955296516,0.0004124999977648258
0.14595000445842743,0.18105000257492065,9.78795051574707,-0.0010999999940395355,0.0002749999985098839,0.0004124999977648258
0.12000000476837158,0.1980000138282776,9.784950256347656,-0.002199999988079071,0.0002749999985098839,-0.0006874999962747097
0.13905000686645508,0.18105000257492065,9.782999992370605,0.0010999999940395355,0.002337499987334013,0.0004124999977648258
0.14100000262260437,0.15495000779628754,9.784950256347656,-0.0010999999940395355,0.0002749999985098839,-0.0006874999962747097
0.15300001204013824,0.1380000114440918,9.78795051574707,-0.0,0.0012374999932944775,-0.0006874999962747097
0.13905000686645508,0.17595000565052032,9.781050682067871,-0.0,-0.0008249999955296516,0.0004124999977648258
0.14100000262260437,0.16695000231266022,9.79995059967041,-0.0,-0.0008249999955296516,-0.0006874999962747097
0.1579500138759613,0.16395001113414764,9.782999992370605,-0.0010999999940395355,0.0012374999932944775,-0.0006874999962747097
0.16005000472068787,0.15195000171661377,9.784950256347656,-0.0,0.002337499987334013,0.0004124999977648258
0.14595000445842743,0.16395001113414764,9.790050506591797,-0.0,-0.0008249999955296516,0.0004124999977648258
0.15300001204013824,0.16695000231266022,9.781050682067871,0.0010999999940395355,-0.0019249999895691872,0.0004124999977648258
0.14100000262260437,0.22605000436306,9.796950340270996,-0.0,-0.0008249999955296516,0.0004124999977648258
0.14100000262260437,0.2050500065088272,9.802050590515137,-0.0,-0.0008249999955296516,-0.0006874999962747097
0.12495000660419464,0.1879500150680542,9.782999992370605,-0.0,-0.0008249999955296516,0.0004124999977648258
0.16995000839233398,0.1789500117301941,9.81195068359375,-0.0,-0.0008249999955296516,0.006737499963492155
0.14805001020431519,0.13305000960826874,9.769050598144531,-0.0,-0.0008249999955296516,-0.0006874999962747097
0.14595000445842743,0.15495000779628754,9.795000076293945,-0.0010999999940395355,0.0002749999985098839,0.0004124999977648258
0.14595000445842743,0.1879500150680542,9.802050590515137,-0.0,0.0002749999985098839,-0.0006874999962747097
0.15600000321865082,0.21900001168251038,9.78795051574707,-0.0,-0.0008249999955296516,-0.0006874999962747097
0.16005000472068787,0.1789500117301941,9.793050765991211,-0.0,0.0002749999985098839,-0.0006874999962747097
0.18405000865459442,0.17400000989437103,9.790050506591797,-0.0,0.0002749999985098839,-0.0006874999962747097
0.15600000321865082,0.19500000774860382,9.793050765991211,-0.0,0.0012374999932944775,-0.0006874999962747097
0.13395000994205475,0.1879500150680542,9.790050506591797,-0.0010999999940395355,-0.0008249999955296516,0.002474999986588955
0.15105000138282776,0.21195000410079956,9.808950424194336,-0.0,0.0002749999985098839,0.0004124999977648258
0.16500000655651093,0.1879500150680542,9.807000160217285,0.0010999999940395355,-0.0008249999955296516,-0.0006874999962747097
0.16995000839233398,0.1399500072002411,9.77595043182373,0.0010999999940395355,0.0012374999932944775,0.0004124999977648258
0.16305001080036163,0.10905000567436218,9.778050422668457,-0.0010999999940395355,0.0002749999985098839,0.0004124999977648258
0.14100000262260437,0.16395001113414764,9.795000076293945,0.0010999999940395355,0.0002749999985098839,0.0015124999918043613
0.1270500123500824,0.21900001168251038,9.784950256347656,0.0010999999940395355,-0.0008249999955296516,0.002474999986588955
0.11505000293254852,0.22200001776218414,9.807000160217285,-0.0,-0.0008249999955296516,-0.0006874999962747097
0.12000000476837158,0.13095000386238098,9.793050765991211,0.002062499988824129,0.0002749999985098839,-0.0017874999903142452
0.16005000472068787,0.15495000779628754,9.77595043182373,-0.0,0.0012374999932944775,-0.0006874999962747097
0.18195000290870667,0.16395001113414764,9.79995059967041,0.0010999999940395355,-0.0019249999895691872,0.0004124999977648258
0.17505000531673431,0.22605000436306,9.796950340270996,-0.0,0.0002749999985098839,0.0004124999977648258
0.15105000138282776,0.22605000436306,9.784950256347656,-0.0,0.0002749999985098839,-0.0006874999962747097
0.15300001204013824,0.21000000834465027,9.790050506591797,-0.0,0.0002749999985098839,-0.0006874999962747097
0.16995000839233398,0.16395001113414764,9.781050682067871,-0.0,0.0012374999932944775,-0.0017874999903142452
0.17205001413822174,0.16200000047683716,9.796950340270996,-0.0,0.0002749999985098839,0.0015124999918043613
0.15105000138282776,0.1860000044107437,9.778050422668457,-0.0,-0.0030249999836087227,-0.0006874999962747097
0.1360500007867813,0.22395001351833344,9.790050506591797,-0.0010999999940395355,-0.0008249999955296516,-0.0006874999962747097
0.11295000463724136,0.20295001566410065,9.784950256347656,-0.0,-0.0008249999955296516,-0.0006874999962747097
0.15300001204013824,0.18105000257492065,9.796950340270996,-0.0,0.0012374999932944775,0.0004124999977648258
0.14805001020431519,0.1860000044107437,9.782999992370605,-0.0010999999940395355,0.0012374999932944775,-0.0006874999962747097
0.14400000870227814,0.14505000412464142,9.784950256347656,0.0010999999940395355,0.0002749999985098839,-0.0017874999903142452
0.13395000994205475,0.1399500072002411,9.795000076293945,0.0010999999940395355,-0.003987499978393316,-0.0006874999962747097
0.1290000081062317,0.16200000047683716,9.829050064086914,-0.002199999988079071,0.004537499975413084,-0.0017874999903142452
0.16005000472068787,0.18105000257492065,9.781050682067871,-0.0,-0.0008249999955296516,-0.0006874999962747097
0.1870500147342682,0.15495000779628754,9.793050765991211,0.0010999999940395355,-0.0008249999955296516,0.0004124999977648258
0.17505000531673431,0.14295001327991486,9.793050765991211,-0.0010999999940395355,-0.0019249999895691872,0.0015124999918043613
0.16305001080036163,0.1860000044107437,9.793050765991211,-0.0010999999940395355,-0.0008249999955296516,0.0015124999918043613
0.10305000841617584,0.22200001776218414,9.796950340270996,-0.0,0.0002749999985098839,0.006737499963492155
0.12000000476837158,0.26205000281333923,9.793050765991211,-0.0,0.0034374999813735485,0.004674999974668026
0.1270500123500824,0.22200001776218414,9.793050765991211,0.0010999999940395355,0.002337499987334013,-0.0017874999903142452
0.13199999928474426,0.21705001592636108,9.79995059967041,-0.0,0.0012374999932944775,-0.00494999997317791
0.15600000321865082,0.16200000047683716,9.79995059967041,-0.0,0.0002749999985098839,-0.002749999985098839
0.1680000126361847,0.17595000565052032,9.790050506591797,-0.002199999988079071,0.0012374999932944775,-0.002749999985098839
0.16995000839233398,0.14505000412464142,9.790050506591797,-0.0,0.0002749999985098839,-0.0017874999903142452
0.15600000321865082,0.13095000386238098,9.795000076293945,-0.0,0.0002749999985098839,-0.0017874999903142452
0.15600000321865082,0.12405000627040863,9.78795051574707,-0.0,-0.0008249999955296516,0.0004124999977648258
0.1680000126361847,0.1279500126838684,9.790050506591797,-0.0,0.0002749999985098839,0.0004124999977648258
0.15300001204013824,0.1860000044107437,9.78795051574707,-0.0,0.0002749999985098839,0.0004124999977648258
0.13395000994205475,0.2070000171661377,9.81195068359375,-0.0010999999940395355,-0.0008249999955296516,0.0015124999918043613
0.13199999928474426,0.22905001044273376,9.790050506591797,0.0010999999940395355,0.0002749999985098839,0.0004124999977648258
0.13395000994205475,0.2050500065088272,9.808950424194336,-0.0,0.0002749999985098839,-0.0006874999962747097
0.15300001204013824,0.20295001566410065,9.781050682067871,-0.0,0.0002749999985098839,-0.0006874999962747097
0.17205001413822174,0.16695000231266022,9.795000076293945,-0.0,0.0002749999985098839,-0.002749999985098839
0.19200000166893005,0.1279500126838684,9.782999992370605,-0.0,-0.0008249999955296516,-0.0006874999962747097
0.17505000531673431,0.1469999998807907,9.78795051574707,-0.002199999988079071,-0.0008249999955296516,-0.0006874999962747097
0.1870500147342682,0.17595000565052032,9.919950485229492,0.0010999999940395355,-0.01251249946653843,0.0035749999806284904
0.14805001020431519,0.16905000805854797,9.841050148010254,-0.002199999988079071,0.007699999958276749,0.0004124999977648258
0.15105000138282776,0.19095000624656677,9.78795051574707,-0.0031624999828636646,-0.011412499472498894,0.0035749999806284904
0.14100000262260437,0.21000000834465027,9.81705093383789,-0.0,-0.0008249999955296516,0.0004124999977648258
0.12495000660419464,0.15195000171661377,9.781050682067871,-0.0,-0.0008249999955296516,0.0015124999918043613
0.1099500060081482,0.12105000764131546,9.784950256347656,-0.0,0.0002749999985098839,0.008937500417232513
0.14100000262260437,0.1380000114440918,9.79995059967041,0.0010999999940395355,0.0002749999985098839,0.0015124999918043613
0.13395000994205475,0.2070000171661377,9.80505084991455,0.0010999999940395355,-0.0008249999955296516,0.002474999986588955
0.12000000476837158,0.19995000958442688,9.793050765991211,-0.0010999999940395355,-0.0008249999955296516,-0.0006874999962747097
0.14100000262260437,0.21000000834465027,9.793050765991211,0.0010999999940395355,-0.0019249999895691872,-0.0006874999962747097
0.16500000655651093,0.19095000624656677,9.80505084991455,0.0010999999940395355,0.002337499987334013,-0.0006874999962747097
0.17205001413822174,0.19305001199245453,9.782999992370605,-0.0,0.0002749999985098839,-0.0006874999962747097
0.1870500147342682,0.21000000834465027,9.793050765991211,0.0010999999940395355,0.0002749999985098839,-0.0006874999962747097
0.17205001413822174,0.22395001351833344,9.81195068359375,-0.0,0.0012374999932944775,-0.0006874999962747097
0.16500000655651093,0.2050500065088272,9.795000076293945,-0.0,0.0002749999985098839,0.0015124999918043613
0.16995000839233398,0.21495001018047333,9.796950340270996,-0.0,0.0002749999985098839,-0.0006874999962747097
0.17505000531673431,0.1860000044107437,9.79995059967041,-0.0010999999940395355,0.0012374999932944775,-0.0006874999962747097
0.13199999928474426,0.16395001113414764,9.78795051574707,-0.0010999999940395355,-0.0008249999955296516,0.0004124999977648258
0.12495000660419464,0.1879500150680542,9.795000076293945,-0.002199999988079071,0.0002749999985098839,0.0004124999977648258
0.10500000417232513,0.16200000047683716,9.802050590515137,-0.0010999999940395355,0.0002749999985098839,0.0004124999977648258
0.1290000081062317,0.1570500135421753,9.79995059967041,-0.0,0.0002749999985098839,0.0004124999977648258
0.1290000081062317,0.11595000326633453,9.79995059967041,-0.0,0.0012374999932944775,-0.0006874999962747097
0.1579500138759613,0.11595000326633453,9.802050590515137,-0.0,0.0002749999985098839,0.0004124999977648258
0.14595000445842743,0.12600000202655792,9.784950256347656,-0.0,0.0002749999985098839,0.0004124999977648258
0.13395000994205475,0.16200000047683716,9.807000160217285,0.0010999999940395355,0.0012374999932944775,0.0015124999918043613
0.12495000660419464,0.1860000044107437,9.802050590515137,-0.0,-0.0019249999895691872,0.0015124999918043613
0.13905000686645508,0.22395001351833344,9.782999992370605,-0.0,0.0002749999985098839,0.0015124999918043613
0.13199999928474426,0.25005000829696655,9.814050674438477,0.002062499988824129,0.0012374999932944775,-0.0017874999903142452
0.13199999928474426,0.2460000067949295,9.77595043182373,-0.0,0.0002749999985098839,-0.0038499999791383743
0.12495000660419464,0.2460000067949295,9.808950424194336,0.0010999999940395355,0.002337499987334013,-0.00494999997317791
0.1579500138759613,0.27000001072883606,9.819000244140625,-0.0,0.0002749999985098839,-0.00494999997317791
0.12495000660419464,0.23805001378059387,9.796950340270996,-0.002199999988079071,0.0002749999985098839,-0.007012499962002039
0.1080000028014183,0.24105000495910645,9.77595043182373,-0.0010999999940395355,0.0002749999985098839,-0.008112499490380287
0.11700000613927841,0.21495001018047333,9.781050682067871,-0.0,0.005499999970197678,-0.008112499490380287
0.1579500138759613,0.09495000541210175,9.78795051574707,-0.0,0.004537499975413084,-0.009212499484419823
0.19905000925064087,0.06795000284910202,9.76395034790039,-0.002199999988079071,-0.0008249999955296516,-0.006049999967217445
0.20805001258850098,0.06599999964237213,9.795000076293945,-0.0,0.0002749999985098839,-0.00494999997317791
0.19395001232624054,0.037050001323223114,9.782999992370605,-0.0010999999940395355,-0.0008249999955296516,-0.0017874999903142452
0.1960500031709671,0.004050000105053186,9.79995059967041,0.0010999999940395355,-0.0008249999955296516,0.002474999986588955
0.16500000655651093,0.15000000596046448,9.784950256347656,0.0010999999940395355,-0.0030249999836087227,0.006737499963492155
0.14100000262260437,0.3630000054836273,9.814050674438477,-0.0,-0.0008249999955296516,0.004674999974668026
0.09600000083446503,0.38700002431869507,9.80505084991455,-0.0010999999940395355,-0.0019249999895691872,0.0015124999918043613
0.012000000104308128,0.3130500018596649,9.643950462341309,0.0010999999940395355,-0.010449999943375587,-0.0017874999903142452
0.14805001020431519,0.2670000195503235,9.782999992370605,0.0031624999828636646,0.0193875003606081,-0.04331250116229057
0.14100000262260437,0.10005000233650208,9.738000869750977,-0.0010999999940395355,0.03217500075697899,-0.0635249987244606
0.26295000314712524,0.025050001218914986,9.829050064086914,-0.0042624999769032,-0.008249999955296516,0.0035749999806284904
0.24705001711845398,-0.040950000286102295,9.769050598144531,-0.005362499970942736,-0.005087499972432852,0.002474999986588955
0.22500000894069672,-0.0499500036239624,9.766050338745117,-0.002199999988079071,-0.005087499972432852,0.007837500423192978
0.14400000870227814,0.14505000412464142,9.77595043182373,0.0010999999940395355,-0.0008249999955296516,0.01952499896287918
0.09795000404119492,0.2070000171661377,9.77595043182373,0.002062499988824129,-0.0030249999836087227,0.014162499457597733
0.06495000422000885,0.24300001561641693,9.807000160217285,0.002062499988824129,-0.0019249999895691872,0.00989999994635582
0.07905000448226929,0.2770500183105469,9.802050590515137,0.002062499988824129,0.0002749999985098839,0.0057749999687075615
0.06195000186562538,0.33705002069473267,9.814050674438477,0.0010999999940395355,-0.0008249999955296516,0.0057749999687075615
0.09300000220537186,0.3150000274181366,9.781050682067871,-0.0010999999940395355,-0.0030249999836087227,0.0015124999918043613
0.14805001020431519,0.2670000195503235,9.796950340270996,-0.0,0.0002749999985098839,-0.0006874999962747097
0.2179500162601471,0.15000000596046448,9.790050506591797,0.0010999999940395355,0.0012374999932944775,-0.0038499999791383743
0.2659500241279602,0.06599999964237213,9.793050765991211,0.0010999999940395355,0.002337499987334013,-0.0006874999962747097
0.21300001442432404,0.05700000375509262,9.81195068359375,-0.0,0.0002749999985098839,0.0057749999687075615
0.1579500138759613,0.19995000958442688,9.784950256347656,0.002062499988824129,-0.0008249999955296516,0.007837500423192978
0.10305000841617584,0.30300000309944153,9.784950256347656,-0.0010999999940395355,0.0002749999985098839,0.006737499963492155
0.06705000251531601,0.3169500231742859,9.795000076293945,-0.0,0.0012374999932944775,0.0004124999977648258
0.04500000178813934,0.22395001351833344,9.796950340270996,0.0010999999940395355,0.002337499987334013,0.0004124999977648258
0.1099500060081482,0.22200001776218414,9.79995059967041,-0.0,0.0002749999985098839,-0.0017874999903142452
0.15105000138282776,0.20295001566410065,9.782999992370605,-0.0,0.0012374999932944775,-0.00494999997317791
0.18000000715255737,0.09195000678300858,9.79995059967041,-0.0010999999940395355,0.0002749999985098839,-0.007012499962002039
0.19395001232624054,0.037050001323223114,9.781050682067871,0.0010999999940395355,0.002337499987334013,-0.002749999985098839
0.20595000684261322,0.07304999977350235,9.784950256347656,0.002062499988824129,0.0012374999932944775,0.0015124999918043613
0.18000000715255737,0.15195000171661377,9.802050590515137,-0.0,0.0002749999985098839,0.004674999974668026
0.15300001204013824,0.2770500183105469,9.784950256347656,0.0009624999947845936,-0.0008249999955296516,0.0057749999687075615
0.16005000472068787,0.3079500198364258,9.820950508117676,0.002062499988824129,0.011962499469518661,0.0015124999918043613
0.0690000057220459,0.22905001044273376,10.033950805664062,0.03396249935030937,0.47808748483657837,-0.010312499478459358
0.06495000422000885,0.1879500150680542,10.011000633239746,-0.03946249932050705,-0.4978874921798706,0.007837500423192978
0.2370000183582306,0.23595000803470612,9.88800048828125,0.010587500408291817,0.14066250622272491,-0.0038499999791383743
0.040950000286102295,0.17100000381469727,9.706050872802734,-0.002199999988079071,0.0034374999813735485,-0.0017874999903142452
0.40005001425743103,0.07605000585317612,10.06605052947998,-0.01924999989569187,-0.23278750479221344,0.0015124999918043613
0.012000000104308128,0.07095000147819519,9.658950805664062,0.009487500414252281,0.10876250267028809,0.006737499963492155
0.32295000553131104,0.08295000344514847,10.018050193786621,-0.011687500402331352,-0.14451250433921814,0.008937500417232513
0.04500000178813934,0.1570500135421753,9.697050094604492,0.002062499988824129,0.022549999877810478,0.0035749999806284904
0.12195000797510147,0.19305001199245453,9.808950424194336,0.002062499988824129,0.03959999978542328,-0.0006874999962747097
0.19395001232624054,0.21705001592636108,9.871950149536133,-0.006462499964982271,-0.08813749998807907,0.0035749999806284904
0.11700000613927841,0.24795001745224,9.76200008392334,-0.0,0.0002749999985098839,0.0004124999977648258
0.13199999928474426,0.2650500237941742,9.76395034790039,0.002062499988824129,0.022549999877810478,0.0015124999918043613
0.16995000839233398,0.2670000195503235,9.782999992370605,0.0009624999947845936,0.007699999958276749,-0.002749999985098839
0.15300001204013824,0.19500000774860382,9.80505084991455,-0.0010999999940395355,-0.0019249999895691872,-0.0038499999791383743
0.14805001020431519,0.16200000047683716,9.796950340270996,-0.0,-0.0019249999895691872,-0.0017874999903142452
0.17505000531673431,0.1380000114440918,9.77595043182373,-0.0010999999940395355,0.002337499987334013,0.0004124999977648258
0.17205001413822174,0.17400000989437103,9.808950424194336,0.0009624999947845936,0.0012374999932944775,0.0004124999977648258
0.17205001413822174,0.20295001566410065,9.784950256347656,-0.0,0.0012374999932944775,0.0004124999977648258
0.14805001020431519,0.1860000044107437,9.78795051574707,-0.002199999988079071,-0.0008249999955296516,0.0004124999977648258
0.12195000797510147,0.15900000929832458,9.790050506591797,-0.0010999999940395355,-0.0008249999955296516,0.0004124999977648258
0.13199999928474426,0.16395001113414764,9.795000076293945,0.0009624999947845936,0.0012374999932944775,0.0015124999918043613
0.1360500007867813,0.19995000958442688,9.81195068359375,-0.0,-0.0008249999955296516,-0.0006874999962747097
0.13395000994205475,0.1399500072002411,9.796950340270996,-0.0010999999940395355,0.0002749999985098839,-0.0006874999962747097
0.16305001080036163,0.1360500007867813,9.790050506591797,-0.0,-0.0019249999895691872,-0.0006874999962747097
0.16305001080036163,0.1399500072002411,9.778050422668457,-0.0,0.0012374999932944775,0.0004124999977648258
0.17505000531673431,0.22905001044273376,9.79995059967041,-0.0,0.0002749999985098839,0.002474999986588955
0.1680000126361847,0.25005000829696655,9.80505084991455,-0.0010999999940395355,0.0002749999985098839,-0.0006874999962747097
0.13199999928474426,0.19500000774860382,9.795000076293945,-0.0,0.0002749999985098839,-0.0006874999962747097
0.16500000655651093,0.1860000044107437,9.80505084991455,-0.0,0.002337499987334013,0.0004124999977648258
0.15300001204013824,0.19305001199245453,9.793050765991211,-0.0,-0.0008249999955296516,0.0004124999977648258
0.15105000138282776,0.2070000171661377,9.796950340270996,0.0010999999940395355,0.0002749999985098839,-0.0006874999962747097
0.14805001020431519,0.23100000619888306,9.790050506591797,-0.0,-0.0008249999955296516,-0.0006874999962747097
0.1290000081062317,0.18105000257492065,9.79995059967041,-0.0010999999940395355,0.0012374999932944775,-0.002749999985098839
0.16005000472068787,0.1399500072002411,9.793050765991211,-0.0,0.002337499987334013,-0.0006874999962747097
0.16500000655651093,0.09000000357627869,9.795000076293945,-0.0010999999940395355,0.0012374999932944775,0.0015124999918043613
0.1579500138759613,0.1279500126838684,9.793050765991211,-0.0,-0.0008249999955296516,0.002474999986588955
0.14805001020431519,0.19305001199245453,9.796950340270996,0.0010999999940395355,0.0002749999985098839,0.0004124999977648258
0.11295000463724136,0.21900001168251038,9.795000076293945,-0.0010999999940395355,-0.0008249999955296516,0.0004124999977648258
0.11505000293254852,0.21900001168251038,9.80505084991455,0.0010999999940395355,0.0012374999932944775,-0.0006874999962747097
0.1290000081062317,0.21000000834465027,9.784950256347656,-0.0,0.0002749999985098839,-0.002749999985098839
0.15300001204013824,0.16695000231266022,9.807000160217285,0.0010999999940395355,0.0034374999813735485,-0.002749999985098839
0.16305001080036163,0.10695000737905502,9.808950424194336,0.0010999999940395355,0.0002749999985098839,-0.0006874999962747097
0.17505000531673431,0.14505000412464142,9.782999992370605,-0.0,-0.0008249999955296516,-0.0006874999962747097
0.17205001413822174,0.17400000989437103,9.78795051574707,0.002062499988824129,0.0012374999932944775,0.0004124999977648258
0.17505000531673431,0.21000000834465027,9.80505084991455,-0.0,-0.0008249999955296516,0.0015124999918043613
0.1579500138759613,0.23100000619888306,9.80505084991455,-0.0,0.0002749999985098839,0.0015124999918043613
0.16005000472068787,0.22605000436306,9.793050765991211,-0.0,0.0002749999985098839,0.0004124999977648258
0.14595000445842743,0.22605000436306,9.77595043182373,-0.0,-0.0008249999955296516,0.0004124999977648258
0.1270500123500824,0.2460000067949295,9.807000160217285,0.0010999999940395355,0.0012374999932944775,-0.0006874999962747097
0.14595000445842743,0.2460000067949295,9.802050590515137,-0.002199999988079071,0.0002749999985098839,-0.0017874999903142452
0.16005000472068787,0.1879500150680542,9.796950340270996,-0.0010999999940395355,0.0002749999985098839,-0.002749999985098839
0.4429500102996826,0.06795000284910202,10.437000274658203,0.026537500321865082,0.3694624900817871,-0.009212499484419823
0.15600000321865082,0.028050001710653305,10.125000953674316,-0.023375000804662704,-0.34251248836517334,0.004674999974668026
0.0690000057220459,0.07095000147819519,9.586950302124023,-0.0031624999828636646,-0.02419999986886978,0.0035749999806284904
0.4740000367164612,0.10395000129938126,10.176000595092773,-0.023375000804662704,-0.29672500491142273,0.008937500417232513
-0.05205000191926956,0.21705001592636108,9.654000282287598,0.013749999925494194,0.17586250603199005,0.0015124999918043613
0.08400000631809235,0.24795001745224,9.856950759887695,-0.013887500390410423,-0.2125750035047531,0.010999999940395355
-0.034950003027915955,0.22605000436306,9.697050094604492,0.01484999991953373,0.18645000457763672,0.004674999974668026
0.11700000613927841,0.21000000834465027,9.829050064086914,-0.010724999941885471,-0.1541374921798706,0.0015124999918043613
0.010050000622868538,0.22605000436306,9.673050880432129,0.0085249999538064,0.12044999748468399,-0.00494999997317791
0.24900001287460327,0.2050500065088272,9.931950569152832,-0.006462499964982271,-0.08923749625682831,-0.00494999997317791
0.16500000655651093,0.15900000929832458,9.778050422668457,-0.0,-0.030662499368190765,-0.0038499999791383743
0.15105000138282776,0.1279500126838684,9.726000785827637,0.006324999965727329,0.03849999979138374,-0.00494999997317791
0.20400001108646393,0.13305000960826874,9.757050514221191,0.0042624999769032,0.021449999883770943,-0.0017874999903142452
0.2179500162601471,0.18105000257492065,9.766050338745117,0.0010999999940395355,0.004537499975413084,0.0004124999977648258
0.17205001413822174,0.19500000774860382,9.807000160217285,0.0010999999940395355,-0.003987499978393316,0.002474999986588955
0.14595000445842743,0.3169500231742859,9.793050765991211,0.002062499988824129,0.0002749999985098839,0.002474999986588955
0.1579500138759613,0.3679500222206116,9.802050590515137,0.0010999999940395355,0.0002749999985098839,-0.0006874999962747097
0.17205001413822174,0.34905001521110535,9.78795051574707,-0.002199999988079071,0.0002749999985098839,-0.002749999985098839
0.19395001232624054,0.22395001351833344,9.795000076293945,-0.0010999999940395355,0.004537499975413084,-0.0038499999791383743
0.18195000290870667,0.12600000202655792,9.796950340270996,-0.0,0.004537499975413084,-0.0017874999903142452
0.13199999928474426,0.1360500007867813,9.790050506591797,-0.002199999988079071,0.0002749999985098839,-0.0006874999962747097
0.1099500060081482,0.1399500072002411,9.790050506591797,-0.0031624999828636646,-0.0008249999955296516,-0.0006874999962747097
0.1080000028014183,0.07800000160932541,9.77595043182373,-0.0,0.0034374999813735485,-0.0017874999903142452
0.1099500060081482,0.034950003027915955,9.77400016784668,-0.0,-0.0008249999955296516,-0.0017874999903142452
0.1290000081062317,0.06105000153183937,9.781050682067871,-0.0,-0.0019249999895691872,0.0004124999977648258
0.09795000404119492,0.12405000627040863,9.75,0.0010999999940395355,-0.0030249999836087227,0.0015124999918043613
0.12000000476837158,0.1399500072002411,9.808950424194336,0.0010999999940395355,-0.0019249999895691872,0.0015124999918043613
0.1270500123500824,0.15000000596046448,9.81195068359375,0.0010999999940395355,0.01718750037252903,0.0004124999977648258
0.16005000472068787,0.14295001327991486,9.808950424194336,-0.0,-0.011549999937415123,0.0035749999806284904
0.18195000290870667,0.1879500150680542,9.802050590515137,-0.0010999999940395355,-0.005087499972432852,0.0015124999918043613
0.20805001258850098,0.2050500065088272,9.77400016784668,-0.0,-0.0030249999836087227,0.0015124999918043613
0.22005000710487366,0.2670000195503235,9.802050590515137,0.002062499988824129,0.0012374999932944775,0.00989999994635582
0.22995001077651978,0.28200000524520874,9.79995059967041,0.002062499988824129,0.0012374999932944775,0.002474999986588955
0.19395001232624054,0.29805001616477966,9.808950424194336,0.0010999999940395355,0.0012374999932944775,0.006737499963492155
0.15600000321865082,0.34095001220703125,9.80505084991455,-0.0010999999940395355,-0.0008249999955296516,0.004674999974668026
0.12000000476837158,0.3439500033855438,9.81705093383789,-0.002199999988079071,0.0002749999985098839,0.0015124999918043613
0.09795000404119492,0.2670000195503235,9.793050765991211,-0.0031624999828636646,0.0012374999932944775,-0.002749999985098839
0.09600000083446503,0.11595000326633453,9.796950340270996,-0.0010999999940395355,0.002337499987334013,-0.00494999997317791
0.15300001204013824,0.07605000585317612,9.782999992370605,-0.0010999999940395355,0.0012374999932944775,-0.0038499999791383743
0.1680000126361847,0.05700000375509262,9.77595043182373,-0.0,0.0034374999813735485,-0.0017874999903142452
0.13199999928474426,0.04005000367760658,9.784950256347656,-0.002199999988079071,-0.0008249999955296516,-0.0017874999903142452
0.12495000660419464,0.04500000178813934,9.793050765991211,-0.0,0.0012374999932944775,0.002474999986588955
0.12000000476837158,0.04500000178813934,9.802050590515137,0.0010999999940395355,0.0002749999985098839,0.0035749999806284904
0.12195000797510147,0.09195000678300858,9.769050598144531,0.0010999999940395355,0.0002749999985098839,0.0035749999806284904
0.10500000417232513,0.18300001323223114,9.790050506591797,0.0010999999940395355,-0.0008249999955296516,0.002474999986588955
0.13199999928474426,0.23595000803470612,9.802050590515137,0.0031624999828636646,0.0002749999985098839,0.0015124999918043613
0.1360500007867813,0.30105000734329224,9.796950340270996,0.0010999999940395355,-0.0019249999895691872,-0.0006874999962747097
0.19395001232624054,0.2939999997615814,9.80505084991455,-0.0,0.0002749999985098839,-0.002749999985098839
0.22305001318454742,0.24795001745224,9.793050765991211,-0.0010999999940395355,0.0012374999932944775,-0.0017874999903142452
0.2350500077009201,0.2050500065088272,9.793050765991211,0.0009624999947845936,-0.0008249999955296516,-0.0006874999962747097
0.18405000865459442,0.1980000138282776,9.796950340270996,-0.0010999999940395355,0.002337499987334013,0.0015124999918043613
0.15600000321865082,0.20295001566410065,9.796950340270996,0.0009624999947845936,-0.0008249999955296516,0.0004124999977648258
0.11700000613927841,0.1879500150680542,9.795000076293945,-0.0010999999940395355,-0.0008249999955296516,-0.0006874999962747097
0.13905000686645508,0.16905000805854797,9.79995059967041,-0.0,0.0002749999985098839,0.0004124999977648258
0.17205001413822174,0.1570500135421753,9.78795051574707,-0.0,-0.0019249999895691872,0.0004124999977648258
0.1290000081062317,0.14505000412464142,9.766050338745117,-0.0010999999940395355,0.0002749999985098839,0.0004124999977648258
0.09795000404119492,0.14505000412464142,9.795000076293945,-0.0010999999940395355,0.0002749999985098839,-0.0006874999962747097
0.08400000631809235,0.14295001327991486,9.771000862121582,-0.0010999999940395355,0.0012374999932944775,0.0004124999977648258
0.11295000463724136,0.1189500093460083,9.796950340270996,-0.0,-0.0008249999955296516,-0.0006874999962747097
0.15600000321865082,0.08295000344514847,9.795000076293945,0.0009624999947845936,-0.0030249999836087227,-0.0017874999903142452
0.16500000655651093,0.1189500093460083,9.78795051574707,0.0009624999947845936,-0.0008249999955296516,-0.0006874999962747097
0.16305001080036163,0.23805001378059387,9.802050590515137,-0.0,-0.0030249999836087227,0.0004124999977648258
0.1680000126361847,0.30300000309944153,9.790050506591797,0.0009624999947845936,-0.0008249999955296516,0.0004124999977648258
0.16005000472068787,0.28395000100135803,9.781050682067871,0.0009624999947845936,0.0012374999932944775,-0.0006874999962747097
0.18405000865459442,0.24795001745224,9.784950256347656,-0.0,0.0012374999932944775,-0.0017874999903142452
0.16005000472068787,0.16200000047683716,9.795000076293945,-0.0,0.0012374999932944775,-0.002749999985098839
0.16995000839233398,0.16905000805854797,9.793050765991211,-0.002199999988079071,0.0012374999932944775,-0.0006874999962747097
0.14595000445842743,0.16395001113414764,9.79995059967041,-0.0010999999940395355,0.0012374999932944775,0.0004124999977648258
0.14805001020431519,0.16695000231266022,9.78795051574707,-0.0,-0.0008249999955296516,-0.0006874999962747097
0.15300001204013824,0.15000000596046448,9.793050765991211,-0.0,0.0002749999985098839,-0.0017874999903142452
0.13905000686645508,0.1380000114440918,9.778050422668457,-0.0,0.0002749999985098839,0.0004124999977648258
0.13199999928474426,0.1380000114440918,9.808950424194336,-0.0010999999940395355,0.0002749999985098839,0.002474999986588955
0.14805001020431519,0.1469999998807907,9.78795051574707,-0.0,0.0002749999985098839,0.0004124999977648258
0.1099500060081482,0.17595000565052032,9.796950340270996,-0.0,0.0002749999985098839,0.0004124999977648258
0.1080000028014183,0.18300001323223114,9.807000160217285,0.0009624999947845936,-0.0008249999955296516,0.0004124999977648258
0.12495000660419464,0.2070000171661377,9.795000076293945,-0.0,0.0002749999985098839,-0.0006874999962747097
0.16305001080036163,0.17100000381469727,9.796950340270996,0.002062499988824129,-0.0008249999955296516,-0.0017874999903142452
0.19200000166893005,0.1360500007867813,9.793050765991211,-0.002199999988079071,-0.0030249999836087227,-0.0017874999903142452
0.18900001049041748,0.18300001323223114,9.802050590515137,0.0010999999940395355,0.0002749999985098839,0.0004124999977648258
0.15300001204013824,0.21705001592636108,9.795000076293945,0.0010999999940395355,-0.0008249999955296516,0.0015124999918043613
0.14400000870227814,0.21195000410079956,9.80505084991455,-0.0,0.0012374999932944775,0.0015124999918043613
0.13199999928474426,0.2050500065088272,9.766050338745117,-0.002199999988079071,-0.0008249999955296516,0.0004124999977648258
0.14100000262260437,0.19995000958442688,9.79995059967041,-0.0,0.0002749999985098839,0.0004124999977648258
0.14595000445842743,0.18105000257492065,9.808950424194336,-0.0,0.0012374999932944775,-0.0006874999962747097
0.14400000870227814,0.17400000989437103,9.793050765991211,-0.0,0.002337499987334013,-0.0006874999962747097
0.13395000994205475,0.16695000231266022,9.795000076293945,0.0010999999940395355,0.0002749999985098839,-0.0006874999962747097
0.16305001080036163,0.1399500072002411,9.781050682067871,0.0010999999940395355,0.0002749999985098839,0.0004124999977648258
0.14805001020431519,0.1879500150680542,9.784950256347656,-0.0,0.0002749999985098839,0.0004124999977648258
0.13199999928474426,0.1789500117301941,9.802050590515137,0.0010999999940395355,0.0002749999985098839,-0.0017874999903142452
0.11505000293254852,0.06599999964237213,9.796950340270996,0.002062499988824129,-0.0008249999955296516,-0.002749999985098839
0.13905000686645508,0.1789500117301941,9.793050765991211,-0.0,-0.0008249999955296516,-0.0006874999962747097
0.14400000870227814,0.2740500271320343,9.795000076293945,-0.0,-0.0030249999836087227,-0.002749999985098839
0.1290000081062317,0.2580000162124634,9.807000160217285,-0.0,-0.0019249999895691872,-0.0038499999791383743
0.1360500007867813,0.24795001745224,9.81195068359375,-0.0010999999940395355,0.0002749999985098839,-0.00494999997317791
0.16005000472068787,0.17595000565052032,9.78795051574707,-0.0010999999940395355,0.0012374999932944775,-0.006049999967217445
0.16995000839233398,0.13095000386238098,9.793050765991211,0.002062499988824129,0.004537499975413084,-0.006049999967217445
0.14805001020431519,0.08295000344514847,9.796950340270996,0.002062499988824129,0.002337499987334013,-0.0038499999791383743
0.17505000531673431,0.1469999998807907,9.793050765991211,-0.0010999999940395355,-0.0008249999955296516,-0.0038499999791383743
0.16305001080036163,0.14505000412464142,9.77595043182373,-0.002199999988079071,-0.0019249999895691872,-0.002749999985098839
0.18405000865459442,0.15900000929832458,9.802050590515137,0.0010999999940395355,0.0002749999985098839,-0.0017874999903142452
0.1579500138759613,0.17400000989437103,9.793050765991211,-0.0,0.002337499987334013,-0.0006874999962747097
0.13199999928474426,0.23595000803470612,9.814050674438477,-0.0,0.0012374999932944775,-0.0006874999962747097
0.1080000028014183,0.2460000067949295,9.790050506591797,-0.0,0.0002749999985098839,-0.002749999985098839
0.08100000023841858,0.2070000171661377,9.814050674438477,0.002062499988824129,0.002337499987334013,-0.0038499999791383743
0.06000000238418579,0.2740500271320343,9.793050765991211,-0.0,0.0012374999932944775,-0.007012499962002039
0.07905000448226929,0.32895001769065857,9.793050765991211,-0.0010999999940395355,0.0012374999932944775,-0.009212499484419823
0.1290000081062317,0.34905001521110535,9.75195026397705,-0.0010999999940395355,0.002337499987334013,-0.014574999921023846
0.17505000531673431,0.2530499994754791,9.808950424194336,-0.0031624999828636646,0.0034374999813735485,-0.018699999898672104
0.20400001108646393,0.25005000829696655,9.795000076293945,-0.0042624999769032,0.0012374999932944775,-0.017737500369548798
0.20100000500679016,0.1189500093460083,9.784950256347656,-0.0042624999769032,0.0012374999932944775,-0.017737500369548798
0.24705001711845398,-0.11205000430345535,9.739950180053711,-0.002199999988079071,0.002337499987334013,-0.011274999938905239
0.25394999980926514,-0.1099500060081482,9.80505084991455,-0.0,0.004537499975413084,-0.0017874999903142452
0.23895001411437988,-0.04305000230669975,9.784950256347656,0.0010999999940395355,-0.0008249999955296516,0.0035749999806284904
0.17505000531673431,0.09000000357627869,9.807000160217285,0.0010999999940395355,-0.0019249999895691872,0.006737499963492155
0.07200000435113907,0.23400001227855682,9.793050765991211,-0.0010999999940395355,-0.0019249999895691872,0.007837500423192978
0.06000000238418579,0.23805001378059387,9.769050598144531,0.0010999999940395355,-0.0008249999955296516,0.0035749999806284904
0.024000000208616257,0.322050005197525,9.778050422668457,0.002062499988824129,0.002337499987334013,0.002474999986588955
0.022050000727176666,0.4990500211715698,9.844950675964355,-0.0010999999940395355,0.002337499987334013,-0.00494999997317791
0.022050000727176666,0.4849500358104706,9.81705093383789,-0.0010999999940395355,0.004537499975413084,-0.01347499992698431
0.08100000023841858,0.21705001592636108,9.790050506591797,-0.002199999988079071,0.0034374999813735485,-0.01979999989271164
0.2370000183582306,0.0,9.76395034790039,-0.0031624999828636646,0.0034374999813735485,-0.016637500375509262
0.3330000042915344,-0.13395000994205475,9.871950149536133,-0.0010999999940395355,-0.006187499966472387,-0.010312499478459358
0.39705002307891846,-0.22305001318454742,9.81705093383789,-0.0010999999940395355,0.006599999964237213,0.0015124999918043613
0.3739500045776367,-0.14100000262260437,9.77595043182373,-0.0,-0.0030249999836087227,0.013199999928474426
0.24900001287460327,-0.06000000238418579,9.78795051574707,0.002062499988824129,-0.003987499978393316,0.01746249943971634
0.10095000267028809,-0.016950000077486038,9.781050682067871,0.0042624999769032,-0.005087499972432852,0.023787500336766243
0.019050000235438347,0.20295001566410065,9.778050422668457,0.006324999965727329,-0.0030249999836087227,0.025987500324845314
-0.022950001060962677,0.42795002460479736,9.796950340270996,0.0042624999769032,-0.0030249999836087227,0.020624998956918716
-0.0799500048160553,0.48705002665519714,9.808950424194336,0.0042624999769032,-0.005087499972432852,0.021724998950958252
0.010050000622868538,0.44895002245903015,9.790050506591797,0.0031624999828636646,0.002337499987334013,0.01209999993443489
0.05505000427365303,0.32505002617836,9.790050506591797,0.0010999999940395355,0.0012374999932944775,-0.00494999997317791
0.15300001204013824,0.22200001776218414,9.802050590515137,0.0010999999940395355,0.002337499987334013,-0.00494999997317791
0.25394999980926514,0.1570500135421753,9.808950424194336,-0.0,0.002337499987334013,-0.0038499999791383743
0.28995001316070557,0.07605000585317612,9.784950256347656,0.0010999999940395355,0.0012374999932944775,-0.002749999985098839
0.25095000863075256,0.05895000323653221,9.79995059967041,-0.0,0.0002749999985098839,0.002474999986588955
0.19905000925064087,0.1399500072002411,9.802050590515137,0.0010999999940395355,-0.0019249999895691872,0.0057749999687075615
0.1360500007867813,0.28200000524520874,9.796950340270996,0.0010999999940395355,-0.0019249999895691872,0.006737499963492155
0.1099500060081482,0.34905001521110535,9.790050506591797,-0.0010999999940395355,0.0002749999985098839,0.0057749999687075615
0.10500000417232513,0.3060000240802765,9.77595043182373,-0.0,0.0012374999932944775,0.004674999974668026
0.08595000207424164,0.2550000250339508,9.802050590515137,-0.0010999999940395355,0.002337499987334013,-0.0006874999962747097
0.08100000023841858,0.23400001227855682,9.796950340270996,-0.0010999999940395355,0.0012374999932944775,-0.002749999985098839
0.09600000083446503,0.1570500135421753,9.782999992370605,-0.002199999988079071,0.002337499987334013,-0.00494999997317791
0.1360500007867813,0.07605000585317612,9.79995059967041,-0.0,0.002337499987334013,-0.00494999997317791
0.17505000531673431,-0.031050002202391624,9.781050682067871,-0.0010999999940395355,0.0012374999932944775,-0.0038499999791383743
0.1870500147342682,-0.0070500001311302185,9.793050765991211,0.0010999999940395355,0.0002749999985098839,0.0015124999918043613
0.16305001080036163,0.13095000386238098,9.781050682067871,0.0010999999940395355,-0.0008249999955296516,0.002474999986588955
0.14100000262260437,0.23595000803470612,9.796950340270996,-0.0,-0.0008249999955296516,0.002474999986588955
0.1099500060081482,0.2650500237941742,9.793050765991211,-0.0,-0.0030249999836087227,0.0015124999918043613
0.09300000220537186,0.23595000803470612,9.826050758361816,-0.0,-0.017875000834465027,0.0004124999977648258
0.13395000994205475,0.14295001327991486,9.832950592041016,0.0010999999940395355,0.008799999952316284,-0.0006874999962747097
0.1680000126361847,0.15495000779628754,9.771000862121582,0.0010999999940395355,0.018287500366568565,-0.0006874999962747097
0.1770000010728836,0.16695000231266022,9.796950340270996,-0.0,-0.0019249999895691872,-0.0006874999962747097
0.17205001413822174,0.12600000202655792,9.796950340270996,-0.0,-0.0019249999895691872,0.0015124999918043613
0.1579500138759613,0.15900000929832458,9.79995059967041,0.0010999999940395355,-0.0019249999895691872,0.002474999986588955
0.14595000445842743,0.19095000624656677,9.793050765991211,-0.0,-0.0030249999836087227,0.006737499963492155
0.13395000994205475,0.18300001323223114,9.79995059967041,-0.0,0.0002749999985098839,0.0035749999806284904
0.14400000870227814,0.19500000774860382,9.782999992370605,-0.0,-0.0008249999955296516,0.002474999986588955
0.12195000797510147,0.21705001592636108,9.796950340270996,-0.0,-0.0008249999955296516,0.0004124999977648258
0.13905000686645508,0.21705001592636108,9.790050506591797,0.0010999999940395355,0.0012374999932944775,0.0004124999977648258
0.13395000994205475,0.22395001351833344,9.78795051574707,0.0010999999940395355,0.0002749999985098839,0.0004124999977648258
0.1579500138759613,0.1879500150680542,9.790050506591797,-0.0,0.0012374999932944775,-0.0006874999962747097
0.1680000126361847,0.15495000779628754,9.796950340270996,-0.0,0.0012374999932944775,-0.0006874999962747097
0.17205001413822174,0.11205000430345535,9.80505084991455,-0.0,0.0012374999932944775,-0.0006874999962747097
0.1360500007867813,0.1360500007867813,9.778050422668457,-0.0,-0.0008249999955296516,0.0004124999977648258
0.12195000797510147,0.15195000171661377,9.778050422668457,0.0010999999940395355,0.0002749999985098839,0.0004124999977648258
0.1270500123500824,0.19095000624656677,9.78795051574707,-0.0,-0.0008249999955296516,0.0004124999977648258
0.15300001204013824,0.19500000774860382,9.808950424194336,0.0010999999940395355,-0.0008249999955296516,0.0004124999977648258
0.1360500007867813,0.1789500117301941,9.79995059967041,0.0010999999940395355,0.0002749999985098839,-0.0006874999962747097
0.14595000445842743,0.20295001566410065,9.793050765991211,0.0010999999940395355,0.002337499987334013,0.0015124999918043613
0.14100000262260437,0.21705001592636108,9.78795051574707,-0.0010999999940395355,-0.0008249999955296516,-0.0006874999962747097
0.14595000445842743,0.16905000805854797,9.793050765991211,-0.0010999999940395355,0.0002749999985098839,-0.002749999985098839
0.14400000870227814,0.16200000047683716,9.77400016784668,-0.0,-0.0008249999955296516,-0.0017874999903142452
0.16005000472068787,0.15900000929832458,9.807000160217285,-0.0,0.0012374999932944775,0.0004124999977648258
0.17505000531673431,0.17100000381469727,9.78795051574707,-0.0010999999940395355,-0.0008249999955296516,-0.0006874999962747097
0.15105000138282776,0.21000000834465027,9.790050506591797,-0.0,0.0002749999985098839,-0.0006874999962747097
0.1270500123500824,0.2070000171661377,9.78795051574707,0.0010999999940395355,0.0002749999985098839,-0.0017874999903142452
0.11505000293254852,0.1879500150680542,9.795000076293945,-0.0010999999940395355,0.0002749999985098839,-0.0006874999962747097
0.13905000686645508,0.13305000960826874,9.79995059967041,-0.0,0.0002749999985098839,-0.002749999985098839
0.16305001080036163,0.1189500093460083,9.782999992370605,-0.0010999999940395355,0.0002749999985098839,-0.0017874999903142452
0.15105000138282776,0.13305000960826874,9.78795051574707,0.0009624999947845936,0.0002749999985098839,-0.0006874999962747097
0.13395000994205475,0.2070000171661377,9.802050590515137,0.0009624999947845936,0.0002749999985098839,0.0004124999977648258
0.12495000660419464,0.19095000624656677,9.795000076293945,-0.0,0.0002749999985098839,0.0004124999977648258
0.16005000472068787,0.1399500072002411,9.793050765991211,0.0009624999947845936,0.0012374999932944775,0.0004124999977648258
0.16305001080036163,0.1279500126838684,9.795000076293945,0.0009624999947845936,0.0002749999985098839,-0.0006874999962747097
0.1579500138759613,0.18105000257492065,9.796950340270996,-0.0,0.0002749999985098839,0.0015124999918043613
0.13199999928474426,0.23100000619888306,9.795000076293945,-0.0,-0.0019249999895691872,0.0004124999977648258
0.12000000476837158,0.21900001168251038,9.807000160217285,0.0009624999947845936,0.0002749999985098839,0.0004124999977648258
0.14805001020431519,0.19995000958442688,9.795000076293945,-0.0,-0.0008249999955296516,-0.0006874999962747097
0.1770000010728836,0.17400000989437103,9.78795051574707,-0.0010999999940395355,-0.0008249999955296516,0.0004124999977648258
0.15300001204013824,0.1860000044107437,9.796950340270996,0.0009624999947845936,0.0002749999985098839,0.0004124999977648258
0.1360500007867813,0.1879500150680542,9.802050590515137,-0.0010999999940395355,0.0002749999985098839,-0.0017874999903142452
0.1360500007867813,0.17100000381469727,9.781050682067871,0.0009624999947845936,-0.0008249999955296516,-0.0017874999903142452
0.15105000138282776,0.17100000381469727,9.790050506591797,-0.0,0.0002749999985098839,-0.0006874999962747097
0.1960500031709671,0.2050500065088272,9.80505084991455,-0.0,-0.0019249999895691872,-0.0006874999962747097
0.16005000472068787,0.2070000171661377,9.75,-0.0,-0.007287499960511923,0.0004124999977648258
0.12195000797510147,0.1860000044107437,9.814050674438477,0.0009624999947845936,0.004537499975413084,0.0004124999977648258
0.13395000994205475,0.16905000805854797,9.75,-0.0,0.008662499487400055,0.0004124999977648258
0.1579500138759613,0.17400000989437103,9.796950340270996,-0.0,-0.0008249999955296516,0.0015124999918043613
0.14100000262260437,0.16695000231266022,9.807000160217285,-0.0,-0.0019249999895691872,-0.0006874999962747097
0.11505000293254852,0.15495000779628754,9.769050598144531,-0.0010999999940395355,-0.0008249999955296516,0.0004124999977648258
0.11295000463724136,0.16905000805854797,9.795000076293945,-0.0,0.002337499987334013,0.00989999994635582
0.11505000293254852,0.17100000381469727,9.793050765991211,0.0009624999947845936,0.0002749999985098839,0.0015124999918043613
0.12000000476837158,0.1980000138282776,9.795000076293945,0.002062499988824129,0.0002749999985098839,-0.0006874999962747097
0.12495000660419464,0.20295001566410065,9.77595043182373,-0.0,0.0002749999985098839,-0.0017874999903142452
0.1360500007867813,0.1469999998807907,9.79995059967041,0.0009624999947845936,-0.0008249999955296516,-0.0038499999791383743
0.16995000839233398,0.14505000412464142,9.793050765991211,0.0009624999947845936,-0.0008249999955296516,-0.002749999985098839
0.18405000865459442,0.2050500065088272,9.790050506591797,0.0009624999947845936,0.0002749999985098839,-0.0006874999962747097
0.1870500147342682,0.24105000495910645,9.796950340270996,-0.0,0.0002749999985098839,-0.0006874999962747097
0.16995000839233398,0.25995001196861267,9.77400016784668,-0.0,0.0002749999985098839,-0.0017874999903142452
0.13905000686645508,0.21195000410079956,9.781050682067871,-0.0,-0.0008249999955296516,-0.0006874999962747097
0.1270500123500824,0.21195000410079956,9.790050506591797,0.002062499988824129,0.002337499987334013,-0.0006874999962747097
0.1080000028014183,0.286050021648407,9.81195068359375,-0.0,0.0012374999932944775,-0.002749999985098839
0.11295000463724136,0.25005000829696655,9.78795051574707,-0.0010999999940395355,0.0012374999932944775,-0.006049999967217445
0.1270500123500824,0.10005000233650208,9.784950256347656,-0.0,-0.0008249999955296516,-0.007012499962002039
0.13905000686645508,0.1279500126838684,9.807000160217285,-0.0010999999940395355,0.0034374999813735485,-0.00494999997317791
0.15600000321865082,0.15195000171661377,9.79995059967041,0.0009624999947845936,0.002337499987334013,-0.0038499999791383743
0.1579500138759613,0.13305000960826874,9.81195068359375,-0.0010999999940395355,0.0002749999985098839,-0.0038499999791383743
0.18000000715255737,0.08295000344514847,9.784950256347656,-0.0,0.0002749999985098839,-0.002749999985098839
0.14595000445842743,0.034950003027915955,9.784950256347656,0.002062499988824129,0.002337499987334013,-0.0017874999903142452
0.12195000797510147,0.09495000541210175,9.802050590515137,0.002062499988824129,0.002337499987334013,0.0015124999918043613
0.14595000445842743,0.27195000648498535,9.79995059967041,-0.0,-0.0019249999895691872,0.0015124999918043613
0.16005000472068787,0.3060000240802765,9.78795051574707,-0.0010999999940395355,-0.0019249999895691872,-0.0006874999962747097
0.1770000010728836,0.1980000138282776,9.782999992370605,-0.0,-0.0008249999955296516,-0.0017874999903142452
0.14805001020431519,0.2050500065088272,9.79995059967041,0.0009624999947845936,0.0012374999932944775,0.0004124999977648258
0.15105000138282776,0.3079500198364258,9.807000160217285,-0.0010999999940395355,0.0002749999985098839,-0.0006874999962747097
0.14100000262260437,0.2959500253200531,9.79995059967041,-0.0,0.002337499987334013,-0.002749999985098839
0.14100000262260437,0.2460000067949295,9.78795051574707,-0.0,0.004399999976158142,-0.006049999967217445
0.1270500123500824,0.29805001616477966,9.802050590515137,-0.0,0.0012374999932944775,-0.007012499962002039
0.13199999928474426,0.32505002617836,9.78795051574707,-0.0032999999821186066,0.002337499987334013,-0.008112499490380287
0.15300001204013824,0.24105000495910645,9.796950340270996,-0.0042624999769032,0.004399999976158142,-0.011274999938905239
0.18405000865459442,-0.019050000235438347,9.759000778198242,-0.006462499964982271,-0.013612499460577965,-0.010312499478459358
0.22305001318454742,-0.16995000839233398,9.814050674438477,-0.0010999999940395355,0.020487500354647636,-0.007012499962002039
0.23895001411437988,-0.22500000894069672,9.778050422668457,-0.0032999999821186066,-0.007287499960511923,0.004674999974668026
0.20805001258850098,-0.1270500123500824,9.782999992370605,-0.0,-0.005087499972432852,0.01209999993443489
0.13905000686645508,0.010950000956654549,9.795000076293945,0.0009624999947845936,-0.005087499972432852,0.015262499451637268
0.10500000417232513,0.09195000678300858,9.782999992370605,0.0042624999769032,-0.0030249999836087227,0.016362499445676804
0.05700000375509262,0.19305001199245453,9.790050506591797,0.005224999971687794,-0.003987499978393316,0.014162499457597733
0.040950000286102295,0.2959500253200531,9.784950256347656,0.0042624999769032,-0.003987499978393316,0.02694999985396862
0.07905000448226929,0.4350000321865082,9.795000076293945,0.0031624999828636646,-0.005087499972432852,0.013199999928474426
0.08595000207424164,0.48705002665519714,9.790050506591797,0.002062499988824129,-0.0008249999955296516,0.0035749999806284904
0.1360500007867813,0.3820500075817108,9.81195068359375,0.0009624999947845936,0.0002749999985098839,-0.0038499999791383743
0.19905000925064087,0.28200000524520874,9.796950340270996,-0.0,0.0012374999932944775,-0.002749999985098839
0.27105000615119934,0.21195000410079956,9.795000076293945,0.002062499988824129,0.0002749999985098839,-0.0006874999962747097
0.283050000667572,0.19305001199245453,9.795000076293945,-0.0010999999940395355,0.0002749999985098839,0.0015124999918043613
0.2350500077009201,0.20295001566410065,9.790050506591797,-0.002199999988079071,-0.0019249999895691872,0.0015124999918043613
0.18000000715255737,0.16200000047683716,9.802050590515137,-0.0032999999821186066,-0.0019249999895691872,0.0057749999687075615
0.11700000613927841,0.1570500135421753,9.796950340270996,-0.0010999999940395355,-0.0008249999955296516,0.007837500423192978
0.08400000631809235,0.1380000114440918,9.784950256347656,-0.0,0.0012374999932944775,0.006737499963492155
0.07695000618696213,0.22605000436306,9.782999992370605,-0.0010999999940395355,0.0002749999985098839,0.006737499963492155
0.037950001657009125,0.1879500150680542,9.781050682067871,-0.0010999999940395355,0.0012374999932944775,0.0015124999918043613
0.028950002044439316,0.14295001327991486,9.784950256347656,0.0009624999947845936,0.002337499987334013,-0.0017874999903142452
0.08400000631809235,0.05700000375509262,9.77595043182373,-0.0,0.0002749999985098839,-0.0017874999903142452
0.1290000081062317,0.046950001269578934,9.77400016784668,0.002062499988824129,0.0012374999932944775,-0.0017874999903142452
0.16500000655651093,0.10695000737905502,9.784950256347656,0.0031624999828636646,0.0002749999985098839,0.0004124999977648258
0.16500000655651093,0.1360500007867813,9.790050506591797,-0.0,0.0002749999985098839,0.0004124999977648258
0.16500000655651093,0.21195000410079956,9.782999992370605,0.002062499988824129,-0.0030249999836087227,0.0004124999977648258
0.16305001080036163,0.2550000250339508,9.790050506591797,0.0009624999947845936,0.002337499987334013,0.0015124999918043613
0.1579500138759613,0.30105000734329224,9.819000244140625,0.002062499988824129,0.0002749999985098839,0.0004124999977648258
0.18195000290870667,0.29805001616477966,9.814050674438477,-0.0,0.0002749999985098839,-0.0006874999962747097
0.20100000500679016,0.26205000281333923,9.795000076293945,-0.0010999999940395355,0.0002749999985098839,-0.0017874999903142452
0.18900001049041748,0.2050500065088272,9.782999992370605,-0.002199999988079071,0.0002749999985098839,-0.0017874999903142452
0.18000000715255737,0.17400000989437103,9.790050506591797,-0.0010999999940395355,0.0002749999985098839,0.0004124999977648258
0.1680000126361847,0.1879500150680542,9.784950256347656,-0.0,0.0012374999932944775,-0.0006874999962747097
0.13395000994205475,0.17595000565052032,9.795000076293945,-0.0010999999940395355,0.0012374999932944775,0.0004124999977648258
0.1080000028014183,0.1360500007867813,9.784950256347656,-0.0010999999940395355,0.0002749999985098839,0.0004124999977648258
0.11505000293254852,0.16695000231266022,9.814050674438477,-0.002199999988079071,0.0002749999985098839,-0.0017874999903142452
0.12495000660419464,0.12405000627040863,9.778050422668457,-0.0010999999940395355,0.0002749999985098839,-0.0017874999903142452
0.14805001020431519,0.10695000737905502,9.891000747680664,-0.002199999988079071,-0.03382499888539314,-0.00494999997317791
0.10500000417232513,0.13305000960826874,9.83595085144043,-0.0010999999940395355,0.016224998980760574,-0.015537500381469727
0.1579500138759613,0.07605000585317612,9.771000862121582,-0.0010999999940395355,-0.006187499966472387,-0.0006874999962747097
0.1960500031709671,0.009000000543892384,9.820950508117676,-0.0,-0.0019249999895691872,0.0015124999918043613
0.20100000500679016,0.1469999998807907,9.781050682067871,-0.0010999999940395355,-0.005087499972432852,0.004674999974668026
0.16995000839233398,0.23805001378059387,9.784950256347656,0.002062499988824129,-0.0019249999895691872,0.01209999993443489
0.16500000655651093,0.18300001323223114,9.81195068359375,-0.0,0.0012374999932944775,0.007837500423192978
0.10500000417232513,0.20295001566410065,9.757050514221191,0.0009624999947845936,-0.0008249999955296516,0.006737499963492155
0.13395000994205475,0.3079500198364258,9.766050338745117,-0.0,-0.0030249999836087227,0.0057749999687075615
0.1290000081062317,0.26205000281333923,9.819000244140625,-0.0010999999940395355,-0.0019249999895691872,0.002474999986588955
0.09795000404119492,0.24105000495910645,9.826050758361816,0.002062499988824129,0.0002749999985098839,0.0004124999977648258
0.1360500007867813,0.19500000774860382,9.80505084991455,-0.0010999999940395355,-0.0008249999955296516,-0.002749999985098839
0.18405000865459442,0.10395000129938126,9.850050926208496,-0.0010999999940395355,-0.0030249999836087227,-0.0006874999962747097
0.18000000715255737,0.05205000191926956,9.868950843811035,-0.0010999999940395355,-0.0019249999895691872,0.0015124999918043613
0.18000000715255737,0.05205000191926956,9.81705093383789,0.0009624999947845936,0.0002749999985098839,0.0035749999806284904
0.17505000531673431,0.07095000147819519,9.784950256347656,0.0009624999947845936,-0.0030249999836087227,0.0057749999687075615
0.20100000500679016,0.14505000412464142,9.784950256347656,0.002062499988824129,-0.0019249999895691872,0.008937500417232513
0.18000000715255737,0.23100000619888306,9.78795051574707,0.002062499988824129,0.0012374999932944775,0.00989999994635582
0.13395000994205475,0.3270000219345093,9.79995059967041,0.002062499988824129,-0.0019249999895691872,0.007837500423192978
0.09105000644922256,0.3750000298023224,9.79995059967041,0.0009624999947845936,-0.0008249999955296516,0.0035749999806284904
0.0499500036239624,0.39195001125335693,9.80505084991455,-0.0,0.0002749999985098839,0.0004124999977648258
0.08595000207424164,0.28395000100135803,10.07805061340332,-0.005362499970942736,-0.005087499972432852,-0.002749999985098839
0.13199999928474426,0.2070000171661377,9.843000411987305,-0.0010999999940395355,0.002337499987334013,-0.00494999997317791
0.1870500147342682,0.21000000834465027,9.726000785827637,0.0009624999947845936,0.004399999976158142,-0.0038499999791383743
0.2179500162601471,0.14505000412464142,9.678000450134277,-0.0,0.005499999970197678,-0.00494999997317791
0.1870500147342682,0.05205000191926956,9.730050086975098,0.002062499988824129,0.0012374999932944775,-0.0017874999903142452
0.17505000531673431,0.04500000178813934,9.77400016784668,-0.0010999999940395355,0.0012374999932944775,0.002474999986588955
0.13199999928474426,0.12405000627040863,9.796950340270996,0.0009624999947845936,-0.0019249999895691872,0.004674999974668026
0.1080000028014183,0.2460000067949295,9.820950508117676,-0.0010999999940395355,-0.0030249999836087227,0.0035749999806284904
0.09600000083446503,0.24105000495910645,9.81195068359375,-0.0010999999940395355,0.0002749999985098839,0.0004124999977648258
0.09600000083446503,0.22395001351833344,9.80505084991455,-0.0,-0.0008249999955296516,-0.0038499999791383743
0.11295000463724136,0.2070000171661377,9.79995059967041,-0.0010999999940395355,0.0012374999932944775,-0.0038499999791383743
0.12495000660419464,0.2050500065088272,9.795000076293945,0.0009624999947845936,0.0002749999985098839,-0.00494999997317791
0.1680000126361847,0.10905000567436218,9.820950508117676,-0.0010999999940395355,0.0012374999932944775,-0.006049999967217445
0.20400001108646393,0.06105000153183937,9.796950340270996,-0.0010999999940395355,-0.0008249999955296516,-0.0038499999791383743
0.21105000376701355,0.0970500037074089,9.79995059967041,-0.0,-0.0019249999895691872,0.0004124999977648258
0.21300001442432404,0.18300001323223114,9.790050506591797,-0.0,-0.0019249999895691872,0.0035749999806284904
0.16995000839233398,0.26205000281333923,9.793050765991211,-0.0,-0.0008249999955296516,0.002474999986588955
0.1099500060081482,0.28905001282691956,9.795000076293945,-0.0,0.0002749999985098839,0.0015124999918043613
0.10500000417232513,0.27900001406669617,9.784950256347656,0.0009624999947845936,0.0002749999985098839,0.0004124999977648258
0.1099500060081482,0.27900001406669617,9.81195068359375,-0.0010999999940395355,0.0002749999985098839,-0.0006874999962747097
0.1770000010728836,0.2650500237941742,9.795000076293945,-0.0010999999940395355,0.0002749999985098839,-0.0038499999791383743
0.1770000010728836,0.16905000805854797,9.796950340270996,-0.0010999999940395355,0.0012374999932944775,-0.007012499962002039
0.1960500031709671,0.034950003027915955,9.782999992370605,-0.0,0.0012374999932944775,-0.002749999985098839
0.1960500031709671,-0.004950000438839197,9.754050254821777,-0.0,-0.0008249999955296516,0.0015124999918043613
0.18195000290870667,-0.004950000438839197,9.769050598144531,0.0009624999947845936,0.007699999958276749,0.002474999986588955
0.16995000839233398,0.11400000751018524,9.831000328063965,-0.0010999999940395355,-0.005087499972432852,0.006737499963492155
0.1099500060081482,0.23595000803470612,9.850050926208496,0.0009624999947845936,-0.0019249999895691872,0.006737499963492155
0.08895000070333481,0.27900001406669617,9.807000160217285,-0.0,-0.0030249999836087227,0.0035749999806284904
0.07905000448226929,0.2550000250339508,9.814050674438477,0.0009624999947845936,0.0012374999932944775,0.0004124999977648258
0.07395000010728836,0.2650500237941742,9.829050064086914,-0.0,0.0012374999932944775,-0.0006874999962747097
0.12195000797510147,0.27195000648498535,9.802050590515137,-0.0,0.0002749999985098839,0.007837500423192978
0.14805001020431519,0.22395001351833344,9.793050765991211,0.0009624999947845936,-0.0008249999955296516,-0.0038499999791383743
0.16995000839233398,0.1399500072002411,9.778050422668457,-0.0010999999940395355,0.002337499987334013,-0.006049999967217445
0.20805001258850098,0.11205000430345535,9.802050590515137,0.0009624999947845936,0.0012374999932944775,-0.00494999997317791
0.21105000376701355,0.13305000960826874,9.78795051574707,-0.0,0.004399999976158142,-0.002749999985098839
0.18195000290870667,0.19995000958442688,9.808950424194336,0.0009624999947845936,0.0034374999813735485,-0.0006874999962747097
0.1360500007867813,0.22605000436306,9.80505084991455,-0.002199999988079071,-0.0008249999955296516,-0.0006874999962747097
0.1270500123500824,0.24795001745224,9.795000076293945,0.0009624999947845936,-0.0008249999955296516,-0.0017874999903142452
0.1270500123500824,0.27900001406669617,9.807000160217285,-0.0,0.0002749999985098839,-0.0017874999903142452
0.16305001080036163,0.23805001378059387,9.79995059967041,-0.0032999999821186066,0.0002749999985098839,-0.00494999997317791
0.16995000839233398,0.16395001113414764,9.771000862121582,-0.002199999988079071,0.0012374999932944775,-0.00494999997317791
0.16500000655651093,0.11205000430345535,9.778050422668457,-0.0010999999940395355,0.002337499987334013,-0.0038499999791383743
0.18195000290870667,0.037050001323223114,9.78795051574707,-0.0010999999940395355,0.0012374999932944775,-0.002749999985098839
0.1870500147342682,0.018000001087784767,9.766050338745117,-0.0,0.0012374999932944775,0.002474999986588955
0.14400000870227814,0.08505000174045563,9.78795051574707,-0.0,-0.0030249999836087227,0.002474999986588955
0.1270500123500824,0.17595000565052032,9.802050590515137,-0.0,-0.0008249999955296516,0.004674999974668026
0.08895000070333481,0.22395001351833344,9.781050682067871,0.002062499988824129,-0.0030249999836087227,0.0035749999806284904
0.07200000435113907,0.2530499994754791,9.784950256347656,-0.0,0.0002749999985098839,-0.0006874999962747097
0.12195000797510147,0.2550000250339508,9.795000076293945,0.0009624999947845936,0.0002749999985098839,-0.0017874999903142452
0.1270500123500824,0.2650500237941742,9.793050765991211,-0.0,0.002337499987334013,-0.002749999985098839
0.16305001080036163,0.23100000619888306,9.795000076293945,0.0009624999947845936,-0.0008249999955296516,-0.00494999997317791
0.1770000010728836,0.1879500150680542,9.796950340270996,-0.0,0.0002749999985098839,-0.0038499999791383743
0.20805001258850098,0.14295001327991486,9.790050506591797,-0.0,0.0002749999985098839,-0.0038499999791383743
0.22500000894069672,0.1279500126838684,9.781050682067871,-0.0010999999940395355,0.0012374999932944775,-0.0006874999962747097
0.21300001442432404,0.15900000929832458,9.79995059967041,-0.0,0.0002749999985098839,0.0004124999977648258
0.17205001413822174,0.2050500065088272,9.796950340270996,-0.0,0.0012374999932944775,0.002474999986588955
0.1270500123500824,0.21900001168251038,9.790050506591797,-0.0,0.0012374999932944775,0.002474999986588955
0.10305000841617584,0.24300001561641693,9.802050590515137,-0.0,0.0002749999985098839,0.0015124999918043613
0.08400000631809235,0.22905001044273376,9.793050765991211,-0.0010999999940395355,0.002337499987334013,0.0015124999918043613
0.09105000644922256,0.2070000171661377,9.79995059967041,0.0009624999947845936,0.0034374999813735485,-0.0017874999903142452
0.11505000293254852,0.13305000960826874,9.784950256347656,-0.002199999988079071,0.0002749999985098839,-0.00494999997317791
0.11295000463724136,0.08295000344514847,9.778050422668457,-0.0,-0.0008249999955296516,-0.00494999997317791
0.14100000262260437,0.07605000585317612,9.77595043182373,-0.0,0.0002749999985098839,-0.002749999985098839
0.18000000715255737,0.0880500078201294,9.796950340270996,0.0009624999947845936,0.0002749999985098839,-0.002749999985098839
0.18405000865459442,0.15000000596046448,9.808950424194336,-0.0,0.0012374999932944775,0.0004124999977648258
0.1680000126361847,0.19095000624656677,9.793050765991211,-0.0,-0.0019249999895691872,0.0004124999977648258
0.15600000321865082,0.24795001745224,9.77400016784668,-0.0,-0.0008249999955296516,-0.0006874999962747097
0.14805001020431519,0.2670000195503235,9.706050872802734,-0.0,0.002337499987334013,0.0015124999918043613
0.15105000138282776,0.24300001561641693,9.75195026397705,0.002062499988824129,-0.0019249999895691872,-0.0006874999962747097
0.18000000715255737,0.18300001323223114,9.808950424194336,-0.0010999999940395355,0.0002749999985098839,-0.0006874999962747097
0.20100000500679016,0.15495000779628754,9.778050422668457,-0.0010999999940395355,-0.0019249999895691872,0.0004124999977648258
