accX,accY,accZ,gyroX,gyroY,gyroZ
0.09285671263933182,0.26547864079475403,9.196999549865723,-8.726646046852693e-05,0.0012740903766825795,-0.0005061454721726477
0.09159258008003235,0.24271458387374878,9.298054695129395,-0.0011519172694534063,-0.0008377580670639873,0.0005585053586401045
0.08928456902503967,0.247426375746727,9.296445846557617,0.0009599310578778386,0.00020943951676599681,0.0005585053586401045
0.0988326445221901,0.26529669761657715,9.243342399597168,0.0005235987482592463,0.0,-0.0002617993741296232
0.07953538000583649,0.2619926929473877,9.256855010986328,0.0006457717972807586,-0.0008726646192371845,-0.0009948377264663577
0.10799764841794968,0.25048136711120605,9.274237632751465,-0.0008726646192371845,-0.00012217304902151227,-3.490658491500653e-05
0.09346005320549011,0.2552410364151001,9.27724552154541,0.00040142572834156454,-0.0007853981805965304,-0.00038397242315113544
0.08573157340288162,0.2644730806350708,9.280318260192871,0.0006457717972807586,-0.0007330382941290736,0.00020943951676599681
0.08607633411884308,0.24573127925395966,9.284187316894531,0.00047123889089562,-0.0009773843921720982,0.00024434609804302454
0.09232041239738464,0.2426954209804535,9.29381275177002,0.0007679448463022709,-0.0014137167017906904,-0.00020943951676599681
0.11985373497009277,0.2587270140647888,9.26075267791748,0.0008552113431505859,-0.0012391837080940604,-0.0005585053586401045
0.10039366036653519,0.251726359128952,9.314209938049316,0.0007679448463022709,-0.0006806784076616168,6.981316983001307e-05
0.09373778104782104,0.2493225783109665,9.350237846374512,-0.0008203047327697277,-0.0021642083302140236,-0.0005235987482592463
0.09236829727888107,0.2661011517047882,9.317360877990723,0.0005759586347267032,-0.0015358896926045418,-0.00041887903353199363
0.08837477117776871,0.24008095264434814,9.311126708984375,-0.0013264502631500363,-0.0008552113431505859,-0.00013962633966002613
0.10496179759502411,0.24470655620098114,9.4373779296875,-0.005619960371404886,-0.0007504915702156723,-0.00038397242315113544
0.11943235248327255,0.2476562112569809,9.131897926330566,-0.00472984230145812,-1.7453292457503267e-05,-6.981316983001307e-05
0.08621041476726532,0.2540918290615082,9.286198616027832,0.003001966280862689,0.0002617993741296232,-0.0010471974965184927
0.09962751716375351,0.24307850003242493,9.303781509399414,0.0003665191470645368,-0.0008203047327697277,-0.0004886921960860491
0.0927705243229866,0.24782860279083252,9.393678665161133,-0.00045378561480902135,-0.0007504915702156723,-6.981316983001307e-05
0.10528741031885147,0.24094286561012268,9.235461235046387,0.00022689280740451068,-0.0010646508308127522,-5.2359879191499203e-05
0.09506895393133163,0.24095244705677032,9.351167678833008,0.00027925267932005227,-0.00043633230961859226,0.00010471975838299841
0.10107361525297165,0.2534693479537964,9.272953033447266,-0.00020943951676599681,0.0007504915702156723,-5.2359879191499203e-05
0.10178229957818985,0.2507782578468323,9.307937622070312,0.0005235987482592463,-0.0018325956771150231,0.0
0.09685024619102478,0.2572425901889801,9.312352180480957,5.2359879191499203e-05,-0.00045378561480902135,-0.0005759586347267032
0.10028831660747528,0.24711033701896667,9.321115493774414,0.00062831852119416,-0.0007504915702156723,-8.726646046852693e-05
0.08949525654315948,0.2641570568084717,9.322734832763672,-0.0005235987482592463,-0.0010646508308127522,-6.981316983001307e-05
0.09351751208305359,0.24284864962100983,9.304872512817383,0.0006457717972807586,-0.00040142572834156454,-5.2359879191499203e-05
0.08390240371227264,0.2539960741996765,9.327580451965332,-0.0005410520825535059,-0.00010471975838299841,-0.00012217304902151227
0.10554598271846771,0.25016534328460693,9.310551643371582,0.0,-0.0007504915702156723,0.00041887903353199363
0.09671616554260254,0.2317970246076584,9.309221267700195,0.00020943951676599681,-0.00019198621157556772,-0.0002617993741296232
0.10050858557224274,0.2550973892211914,9.308483123779297,0.0007679448463022709,-0.00043633230961859226,-5.2359879191499203e-05
0.09237787127494812,0.25089317560195923,9.316682815551758,0.00062831852119416,-0.0008203047327697277,-0.0006981316837482154
0.11130164563655853,0.2511996328830719,9.334982872009277,0.0012740903766825795,-0.0008028514566831291,-0.0005410520825535059
0.10354442894458771,0.26042211055755615,9.310513496398926,0.0006632251315750182,-0.00040142572834156454,-1.7453292457503267e-05
0.10582371056079865,0.26217466592788696,9.305274963378906,0.00012217304902151227,-0.00043633230961859226,-5.2359879191499203e-05
0.09412085264921188,0.23585759103298187,9.326105117797852,0.00062831852119416,1.7453292457503267e-05,-0.0008028514566831291
-0.13290691375732422,0.28525474667549133,10.55361270904541,0.01111774705350399,0.07079055160284042,0.00012217304902151227
0.19593188166618347,0.23066696524620056,9.069456100463867,-0.005864306353032589,0.006422811653465033,-0.0005759586347267032
0.10102573037147522,0.2312798798084259,9.390298843383789,0.0019024088978767395,-0.009267698042094707,0.00024434609804302454
0.09261729568243027,0.24192927777767181,9.371901512145996,0.0013788101496174932,-0.0010471974965184927,-0.0005235987482592463
0.10109277069568634,0.2465548813343048,9.348917007446289,0.00020943951676599681,-0.0007330382941290736,0.00024434609804302454
0.0998956710100174,0.26219379901885986,9.302777290344238,0.00015707963029854,-0.00043633230961859226,-0.0004886921960860491
0.0976259633898735,0.25168806314468384,9.336552619934082,-0.0003316125657875091,-0.00012217304902151227,-0.00041887903353199363
0.10007762908935547,0.24546311795711517,9.315129280090332,0.00029670598451048136,-0.000715585018042475,-5.2359879191499203e-05
0.11512278765439987,0.25164973735809326,9.321785926818848,0.00038397242315113544,-0.0003490658418741077,-0.0011693706037476659
0.11207736283540726,0.25675418972969055,9.316145896911621,0.0003490658418741077,-0.00013962633966002613,-3.490658491500653e-05
0.09310571104288101,0.24114398658275604,9.338822364807129,0.0005934119690209627,1.7453292457503267e-05,-0.00022689280740451068
0.0959596037864685,0.24675598740577698,9.335097312927246,0.00024434609804302454,8.726646046852693e-05,-5.2359879191499203e-05
0.09805691987276077,0.23662373423576355,9.321967124938965,0.00013962633966002613,-0.00047123889089562,0.0
0.09749189019203186,0.2550494968891144,9.329389572143555,0.00040142572834156454,0.00031415926059708,-5.2359879191499203e-05
0.08683290332555771,0.2505100965499878,9.325032234191895,0.0003316125657875091,-6.981316983001307e-05,-0.00017453292093705386
0.09442730993032455,0.25489628314971924,9.303916931152344,0.0004886921960860491,-0.00125663704238832,0.00010471975838299841
0.1045021116733551,0.25414928793907166,9.33106517791748,-0.00012217304902151227,-3.490658491500653e-05,-0.00022689280740451068
0.11099518835544586,0.23619277775287628,9.31550407409668,0.00047123889089562,-0.00022689280740451068,6.981316983001307e-05
0.10526825487613678,0.24839362502098083,9.338257789611816,0.0009773843921720982,-0.0007330382941290736,-5.2359879191499203e-05
0.10418608039617538,0.2550112009048462,9.310409545898438,0.0002617993741296232,-0.0011868239380419254,-1.7453292457503267e-05
0.09613198041915894,0.24987803399562836,9.324227333068848,0.001117010717280209,-0.00012217304902151227,-0.0008377580670639873
0.1169423833489418,0.23862528800964355,9.319171905517578,-0.00010471975838299841,0.0005759586347267032,-5.2359879191499203e-05
0.1000201627612114,0.24892035126686096,9.321106910705566,0.0006806784076616168,-0.0003665191470645368,0.0006981316837482154
0.09261729568243027,0.2508644461631775,9.328422546386719,0.0005061454721726477,3.490658491500653e-05,-3.490658491500653e-05
0.10381258279085159,0.24394041299819946,9.325472831726074,0.0006457717972807586,-0.0007679448463022709,-0.0005410520825535059
0.09187988191843033,0.2439499944448471,9.32607650756836,0.00027925267932005227,-0.0010646508308127522,0.00010471975838299841
0.09765469282865524,0.2609679698944092,9.318893432617188,-8.726646046852693e-05,-0.00038397242315113544,-5.2359879191499203e-05
0.11445241421461105,0.25503993034362793,9.317351341247559,0.00047123889089562,-0.0008901178953237832,-6.981316983001307e-05
0.10397538542747498,0.24903526902198792,9.31336784362793,0.00015707963029854,-0.00143117003608495,-0.00012217304902151227
0.10560344159603119,0.23947761952877045,9.332473754882812,0.0006457717972807586,-0.0009250245057046413,-0.00020943951676599681
0.10405199974775314,0.2557007372379303,9.332616806030273,0.0009599310578778386,-0.0010646508308127522,-0.00017453292093705386
0.1361151486635208,0.29648834466934204,8.432225227355957,-0.02085668407380581,0.05513495206832886,-0.0016929693520069122
0.09000282734632492,0.26329514384269714,9.05531120300293,0.0012915435945615172,-0.003054326167330146,-0.00022689280740451068
0.09880391508340836,0.23281216621398926,9.334254264831543,0.016022123396396637,-0.015515976585447788,0.0
0.11004707962274551,0.2584684193134308,9.277120590209961,0.0012740903766825795,-0.001658062799833715,-0.0003316125657875091
0.08921752870082855,0.23577140271663666,9.382752418518066,0.0009250245057046413,-0.0011693706037476659,-0.00029670598451048136
0.10160034149885178,0.24302104115486145,9.352251052856445,-0.0007330382941290736,-0.00038397242315113544,-6.981316983001307e-05
0.09120950102806091,0.24739764630794525,9.31811809539795,0.00045378561480902135,-0.00029670598451048136,-5.2359879191499203e-05
0.09159258008003235,0.2553846836090088,9.297623634338379,-0.00031415926059708,0.0007330382941290736,-5.2359879191499203e-05
0.09711839258670807,0.2561221122741699,9.366413116455078,-0.00038397242315113544,-0.00029670598451048136,-5.2359879191499203e-05
0.0869574025273323,0.2701425552368164,9.33276081085205,-0.00017453292093705386,-0.0007504915702156723,-0.00022689280740451068
0.09877517819404602,0.24105779826641083,9.336629867553711,0.0006457717972807586,-0.0008377580670639873,-5.2359879191499203e-05
0.10039366036653519,0.2602880299091339,9.349318504333496,-1.7453292457503267e-05,-0.00041887903353199363,-0.0009599310578778386
0.09061574190855026,0.2433849573135376,9.341629028320312,0.00024434609804302454,-0.00010471975838299841,-0.00013962633966002613
0.08928456902503967,0.2371983379125595,9.312726974487305,0.0009075712296180427,0.0005061454721726477,-0.0006457717972807586
0.12198936194181442,0.26363033056259155,8.891912460327148,0.0021642083302140236,0.014940018765628338,-0.0008552113431505859
0.12616485357284546,0.22076454758644104,9.710125923156738,-0.01563815027475357,-0.0005235987482592463,0.0008377580670639873
0.08821196109056473,0.23664288222789764,9.447327613830566,-3.490658491500653e-05,-0.007295476272702217,-5.2359879191499203e-05
0.10621635615825653,0.2570989429950714,9.16891098022461,-0.004590216092765331,-0.0003665191470645368,-0.0003665191470645368
0.10223241150379181,0.2598283290863037,9.327425956726074,0.00031415926059708,-0.00094247778179124,0.00012217304902151227
0.10665689408779144,0.24653573334217072,9.2514066696167,0.0003316125657875091,-0.0002617993741296232,6.981316983001307e-05
0.09866983443498611,0.25102725625038147,9.385031700134277,0.00062831852119416,-0.0007330382941290736,0.00015707963029854
0.10253886878490448,0.26308444142341614,9.395431518554688,0.0003490658418741077,-0.00045378561480902135,-6.981316983001307e-05
0.09962751716375351,0.24631546437740326,9.304749488830566,-0.0005061454721726477,0.00019198621157556772,0.0
0.09062531590461731,0.25613167881965637,9.368185997009277,0.0006108652451075613,-0.00024434609804302454,0.00062831852119416
0.1071261540055275,0.2450704723596573,9.309767723083496,0.0003490658418741077,-0.0007504915702156723,0.00045378561480902135
0.09553822129964828,0.2407417595386505,9.331381797790527,-0.00029670598451048136,0.00031415926059708,-0.0008377580670639873
0.09376651048660278,0.25840139389038086,9.322456359863281,0.0002617993741296232,-0.0009250245057046413,-0.0005759586347267032
0.10236648470163345,0.24858516454696655,9.326728820800781,0.00031415926059708,-0.000715585018042475,0.0003665191470645368
0.10647493600845337,0.2509506344795227,9.316853523254395,-0.0009250245057046413,-0.0003665191470645368,-5.2359879191499203e-05
0.1012076884508133,0.24355733394622803,9.354327201843262,-0.00022689280740451068,-0.00029670598451048136,-5.2359879191499203e-05
0.10601525008678436,0.24089498817920685,9.301780700683594,-0.0021642083302140236,-0.00017453292093705386,-0.00041887903353199363
0.09594044834375381,0.24117271602153778,9.315196990966797,-0.00027925267932005227,-0.0006108652451075613,-0.00045378561480902135
0.09922529011964798,0.2592633068561554,9.3219575881958,0.0005585053586401045,-0.0006632251315750182,-0.0005061454721726477
0.09794200211763382,0.2530288100242615,9.344501495361328,-0.00020943951676599681,-0.0008377580670639873,-0.0005061454721726477
0.0998956710100174,0.2652200758457184,9.317159652709961,0.0006632251315750182,-0.0006457717972807586,-0.00013962633966002613
0.09361328184604645,0.25168806314468384,9.32431411743164,0.0010821041651070118,-5.2359879191499203e-05,-0.00015707963029854
0.09142976999282837,0.24239854514598846,9.325386047363281,0.000715585018042475,-0.0007853981805965304,0.0
0.09477207809686661,0.24604730308055878,9.323290824890137,0.00040142572834156454,-0.0003490658418741077,-8.726646046852693e-05
0.10261548310518265,0.24656446278095245,9.321011543273926,0.0005934119690209627,-0.0005061454721726477,-0.00031415926059708
0.0958734080195427,0.26250985264778137,9.329132080078125,0.0005585053586401045,-0.0009773843921720982,-5.2359879191499203e-05
0.09594044834375381,0.23820391297340393,9.312324523925781,0.00041887903353199363,-0.0006108652451075613,0.00010471975838299841
0.06109044700860977,0.28050467371940613,9.076964378356934,0.0006981316837482154,-0.014556045643985271,-8.726646046852693e-05
0.09773130714893341,0.24330835044384003,9.397529602050781,0.011239920742809772,-0.0003665191470645368,-5.2359879191499203e-05
0.09731950610876083,0.24521413445472717,9.279485702514648,-0.0023561944253742695,-0.0008552113431505859,-0.00019198621157556772
0.10073842853307724,0.2581140995025635,9.39022159576416,-0.00013962633966002613,-0.000715585018042475,-0.00012217304902151227
0.09647674858570099,0.24832658469676971,9.290642738342285,-0.0008552113431505859,-0.001029744278639555,0.00012217304902151227
0.09750146418809891,0.24475444853305817,9.35843563079834,-0.00047123889089562,-0.0006457717972807586,-0.00031415926059708
0.10175357013940811,0.24757960438728333,9.32083797454834,-8.726646046852693e-05,-0.0004886921960860491,-0.00015707963029854
0.1118571013212204,0.23804110288619995,9.330232620239258,0.0006806784076616168,-0.0006632251315750182,-0.00012217304902151227
0.08007168024778366,0.24167071282863617,9.308225631713867,0.0019198621157556772,-0.0016929693520069122,-0.0005235987482592463
0.07569507509469986,0.25027069449424744,9.375309944152832,0.00020943951676599681,-0.0008552113431505859,-0.00031415926059708
0.10344865918159485,0.25479093194007874,9.2966947555542,-0.0010122909443452954,-0.0006981316837482154,0.0003665191470645368
0.09788453578948975,0.24729229509830475,9.305083274841309,0.00062831852119416,-0.0010995573829859495,-0.0006806784076616168
0.09905290603637695,0.22712354362010956,9.319363594055176,0.00027925267932005227,-0.001658062799833715,-5.2359879191499203e-05
0.10094911605119705,0.23916158080101013,9.34164810180664,0.00045378561480902135,-0.001029744278639555,-0.00020943951676599681
0.10613016784191132,0.2477807104587555,9.308417320251465,0.0008552113431505859,-0.0009075712296180427,-0.00022689280740451068
0.0945422351360321,0.25884193181991577,9.339780807495117,0.0007504915702156723,-0.0011519172694534063,-0.00013962633966002613
0.09199479967355728,0.2555091977119446,9.340690612792969,-0.0005934119690209627,-0.0005410520825535059,0.00019198621157556772
0.10640789568424225,0.23949676752090454,9.322571754455566,0.0013089969288557768,-0.001972222002223134,0.0002617993741296232
0.10027874261140823,0.23990857601165771,9.321785926818848,0.0002617993741296232,-0.00010471975838299841,-0.00012217304902151227
0.11212524771690369,0.24320299923419952,9.315313339233398,0.0003490658418741077,-0.00029670598451048136,-6.981316983001307e-05
0.10055647045373917,0.2580566108226776,9.338786125183105,0.0006108652451075613,-0.00019198621157556772,-0.00022689280740451068
0.08595183491706848,0.2477423995733261,9.345832824707031,0.0005410520825535059,-0.0007679448463022709,-5.2359879191499203e-05
0.09326852113008499,0.24198675155639648,9.332808494567871,-8.726646046852693e-05,-0.00045378561480902135,-0.00040142572834156454
0.10313262790441513,0.2498684525489807,9.31816577911377,0.00062831852119416,-0.0006806784076616168,0.00010471975838299841
0.10109277069568634,0.25021323561668396,9.331965446472168,0.0003316125657875091,-0.0007504915702156723,-0.0006806784076616168
0.09919656068086624,0.19400694966316223,10.245784759521484,-0.0032114058267325163,0.005078908056020737,-0.0007679448463022709
0.10057561844587326,0.23773464560508728,9.566003799438477,0.005305801052600145,-0.03597123548388481,0.00024434609804302454
0.11907801032066345,0.2614564001560211,9.015471458435059,0.0003316125657875091,-0.00830776710063219,-0.00041887903353199363
0.10645578056573868,0.24354776740074158,9.384151458740234,0.00094247778179124,-0.0025307273026555777,0.00013962633966002613
0.09887094795703888,0.2620405852794647,9.326295852661133,0.0004886921960860491,-0.0003490658418741077,-3.490658491500653e-05
0.08992621302604675,0.2603454887866974,9.327885627746582,-0.0009075712296180427,3.490658491500653e-05,-0.0003665191470645368
0.09894756227731705,0.2471390664577484,9.3521728515625,0.00045378561480902135,-0.0007679448463022709,0.0003665191470645368
0.09527964890003204,0.25425463914871216,9.294560432434082,0.00010471975838299841,-0.00043633230961859226,0.00012217304902151227
0.10738473385572433,0.2541397213935852,9.322131156921387,0.0010995573829859495,-0.001483529806137085,-0.0003665191470645368
0.09453265368938446,0.2593111991882324,9.33271312713623,0.0004886921960860491,0.0009599310578778386,-5.2359879191499203e-05
0.10695377737283707,0.24855643510818481,9.34460735321045,0.00012217304902151227,-0.00029670598451048136,-0.00038397242315113544
0.09287586808204651,0.25237756967544556,9.334063529968262,0.0008377580670639873,-0.0003490658418741077,-0.00143117003608495
0.10036493092775345,0.2498684525489807,9.348849296569824,0.0006457717972807586,-0.0010471974965184927,-0.0005235987482592463
0.09550949186086655,0.2556624114513397,9.326949119567871,0.0006632251315750182,-0.000715585018042475,-0.00010471975838299841
0.09249279648065567,0.2347562611103058,9.331314086914062,0.00012217304902151227,-0.0004886921960860491,-8.726646046852693e-05
0.0867275595664978,0.2618298828601837,8.972241401672363,-0.012095131911337376,0.004258603323251009,-0.00125663704238832
0.1126711294054985,0.24532905220985413,9.444694519042969,0.013945180922746658,-0.0033859387040138245,-5.2359879191499203e-05
0.08192000538110733,0.25694572925567627,9.209823608398438,-0.0017104226863011718,-0.00020943951676599681,-0.00031415926059708
0.10869675129652023,0.2561221122741699,9.325577735900879,0.0010821041651070118,-0.0011344640515744686,-5.2359879191499203e-05
0.08671798557043076,0.24899697303771973,9.333948135375977,0.0017976891249418259,-0.0014486232539638877,3.490658491500653e-05
0.08693824708461761,0.23683442175388336,9.362793922424316,-0.001518436474725604,-0.00040142572834156454,0.0003665191470645368
0.09353666752576828,0.24934172630310059,9.28626537322998,0.00040142572834156454,-0.0003665191470645368,-0.0008726646192371845
0.08516653627157211,0.233760267496109,9.347203254699707,-0.00047123889089562,-0.00045378561480902135,-0.0004886921960860491
0.09201395511627197,0.2441989928483963,9.302708625793457,-0.00017453292093705386,-0.00041887903353199363,-0.0008377580670639873
0.08163269609212875,0.24543438851833344,9.329465866088867,0.00038397242315113544,-0.0003316125657875091,-0.00024434609804302454
0.10474152863025665,0.25767356157302856,9.342318534851074,0.00015707963029854,-0.00062831852119416,0.00020943951676599681
0.09507853537797928,0.23644177615642548,9.333039283752441,-0.0003490658418741077,-0.00013962633966002613,-0.0002617993741296232
0.1007288470864296,0.2559305727481842,9.329150199890137,0.000715585018042475,-0.0011519172694534063,-5.2359879191499203e-05
0.10895532369613647,0.24302104115486145,9.3219575881958,0.00062831852119416,-0.0017627825727686286,-0.0005410520825535059
0.12611696124076843,0.24383506178855896,9.326745986938477,0.00013962633966002613,-8.726646046852693e-05,-0.0007853981805965304
0.10050858557224274,0.23822306096553802,9.325328826904297,0.001029744278639555,-0.00029670598451048136,-5.2359879191499203e-05
0.09960836172103882,0.2597229778766632,9.323298454284668,0.0006632251315750182,-0.00027925267932005227,-8.726646046852693e-05
0.09708966314792633,0.24970565736293793,9.310178756713867,0.00031415926059708,-0.0007330382941290736,-0.00010471975838299841
0.10018297284841537,0.23788787424564362,9.31946849822998,-0.00012217304902151227,-0.00094247778179124,-5.2359879191499203e-05
0.07775408774614334,0.26233744621276855,9.348841667175293,0.0012915435945615172,-0.0012217304902151227,8.726646046852693e-05
0.09821014851331711,0.24236023426055908,9.317495346069336,-3.490658491500653e-05,1.7453292457503267e-05,-0.0007504915702156723
0.09391973912715912,0.2408662587404251,9.301464080810547,0.0010995573829859495,-0.00031415926059708,0.00010471975838299841
0.2768750488758087,0.2029421031475067,8.763956069946289,-0.02724459022283554,-0.009512044489383698,-0.00019198621157556772
0.05542097985744476,0.2764536738395691,9.220684051513672,0.012775810435414314,0.014852751977741718,-0.00022689280740451068
0.09674489498138428,0.2393627017736435,9.255036354064941,0.002687806962057948,5.2359879191499203e-05,-0.0008203047327697277
0.105689637362957,0.2471773773431778,9.35500717163086,0.0016057029133662581,-0.00047123889089562,-0.0003665191470645368
0.08901641517877579,0.25819069147109985,9.318941116333008,0.0010122909443452954,-0.0006108652451075613,0.00010471975838299841
0.10749965161085129,0.225342258810997,9.394081115722656,0.00024434609804302454,-0.0007330382941290736,-0.00062831852119416
0.09876560419797897,0.23795491456985474,9.283095359802246,-8.726646046852693e-05,-0.0011868239380419254,-0.00010471975838299841
0.09985736012458801,0.23981280624866486,9.342816352844238,0.0007679448463022709,3.490658491500653e-05,-0.0005061454721726477
0.08953355997800827,0.25639984011650085,9.333708763122559,0.0005410520825535059,-0.0009948377264663577,-5.2359879191499203e-05
0.0927705243229866,0.2602018415927887,9.308809280395508,0.0005235987482592463,-0.0009948377264663577,-0.00015707963029854
0.10132261365652084,0.25748202204704285,9.35500717163086,0.0003316125657875091,-0.0007504915702156723,-5.2359879191499203e-05
0.08615294843912125,0.23127029836177826,9.318357467651367,0.00038397242315113544,-0.0007504915702156723,-3.490658491500653e-05
0.0873309001326561,0.2444671392440796,9.689056396484375,-0.011257373727858067,0.0024260077625513077,-0.00027925267932005227
0.11964304000139236,0.2393243908882141,9.245306015014648,0.0016755161341279745,0.011571533046662807,0.0
0.07730398327112198,0.2345743030309677,9.178727149963379,-0.0007853981805965304,-0.0003665191470645368,-5.2359879191499203e-05
0.09105627238750458,0.2683038115501404,9.358753204345703,0.0007330382941290736,-0.00041887903353199363,0.00012217304902151227
0.10762415081262589,0.23530213534832,9.324380874633789,0.0003316125657875091,-0.0010821041651070118,0.00015707963029854
0.08870038390159607,0.23526382446289062,9.347509384155273,0.0014660765882581472,-0.0007679448463022709,-5.2359879191499203e-05
0.0996658205986023,0.2602688670158386,9.301894187927246,0.0006981316837482154,-0.0008028514566831291,-1.7453292457503267e-05
0.09308655560016632,0.26012521982192993,9.323586463928223,0.0009948377264663577,-0.0008901178953237832,-0.0003665191470645368
0.08203492313623428,0.2416324019432068,9.339485168457031,-0.0005759586347267032,0.0006632251315750182,0.0003665191470645368
0.20513519644737244,0.2620980441570282,8.760584831237793,-0.020263273268938065,-0.026965336874127388,-5.2359879191499203e-05
0.09072108566761017,0.2670205235481262,9.311596870422363,0.0131772356107831,0.017575465142726898,-0.00017453292093705386
0.0958734080195427,0.24508963525295258,9.31674861907959,-0.0013788101496174932,5.2359879191499203e-05,-0.00094247778179124
0.0855400338768959,0.25064417719841003,9.34896469116211,-0.0005759586347267032,-0.00038397242315113544,-1.7453292457503267e-05
0.09570102393627167,0.2446969747543335,9.267399787902832,0.0007330382941290736,-0.0005585053586401045,-0.0003316125657875091
0.08918879926204681,0.2464495301246643,9.347384452819824,-0.00045378561480902135,-0.0005934119690209627,0.00041887903353199363
0.10013508796691895,0.25193703174591064,9.264726638793945,0.0010122909443452954,-0.000715585018042475,0.0003665191470645368
0.1017918735742569,0.2382613718509674,9.374831199645996,0.00024434609804302454,-0.00012217304902151227,-0.0003665191470645368
0.10897447913885117,0.24701456725597382,9.309048652648926,0.0007330382941290736,-0.0003665191470645368,-0.00038397242315113544
0.10949162393808365,0.2557198703289032,9.33293342590332,-0.00012217304902151227,0.00029670598451048136,0.00010471975838299841
0.10018297284841537,0.24314554035663605,9.325596809387207,0.0007330382941290736,-0.0006806784076616168,3.490658491500653e-05
0.1024814024567604,0.24512793123722076,9.3338041305542,0.00047123889089562,-0.00029670598451048136,-3.490658491500653e-05
0.09970413148403168,0.24302104115486145,9.330155372619629,-0.0009250245057046413,-0.0005061454721726477,-3.490658491500653e-05
0.08130708336830139,0.25948357582092285,9.321537017822266,0.0012217304902151227,1.7453292457503267e-05,0.00043633230961859226
0.08893980085849762,0.24725398421287537,9.325721740722656,0.0009773843921720982,-0.0005585053586401045,0.00027925267932005227
0.11249874532222748,0.24610477685928345,9.325894355773926,0.0006108652451075613,-0.0007679448463022709,-5.2359879191499203e-05
0.09879433363676071,0.25112301111221313,9.323290824890137,-0.00038397242315113544,-0.00043633230961859226,-0.0005061454721726477
0.1019163727760315,0.24448628723621368,9.307851791381836,0.00038397242315113544,-0.000715585018042475,-5.2359879191499203e-05
0.08990705758333206,0.26029759645462036,9.323184967041016,-0.000715585018042475,-0.0003490658418741077,-5.2359879191499203e-05
0.10199298709630966,0.25471431016921997,9.328088760375977,0.0003316125657875091,-0.0008203047327697277,1.7453292457503267e-05
0.09788453578948975,0.24294441938400269,9.362199783325195,-0.024958208203315735,0.009162978269159794,-6.981316983001307e-05
0.09091262519359589,0.23822306096553802,9.241609573364258,0.00047123889089562,-0.00457276264205575,-5.2359879191499203e-05
0.0937090516090393,0.2393243908882141,9.426823616027832,0.007627088576555252,-0.006300638429820538,-0.00012217304902151227
0.11736376583576202,0.24193885922431946,9.362879753112793,-0.0027576202992349863,-0.0006108652451075613,0.0003665191470645368
0.09097965806722641,0.2512187957763672,9.327752113342285,-0.0005061454721726477,-0.0014660765882581472,-0.00020943951676599681
0.10432015359401703,0.25579649209976196,9.267024993896484,-0.0008028514566831291,0.0006457717972807586,0.0008203047327697277
0.0877905860543251,0.25611254572868347,9.328883171081543,0.0010821041651070118,-0.001029744278639555,0.00010471975838299841
0.10651323944330215,0.24757960438728333,9.314536094665527,0.0012915435945615172,-0.0005410520825535059,-5.2359879191499203e-05
0.08243715018033981,0.25464728474617004,9.321901321411133,0.0005235987482592463,-0.0003316125657875091,-3.490658491500653e-05
0.09253109991550446,0.2495524287223816,9.311212539672852,0.00019198621157556772,-0.0005585053586401045,-0.00020943951676599681
0.08266699314117432,0.2510080933570862,9.3338623046875,-0.00020943951676599681,-0.0007853981805965304,-0.0006981316837482154
0.07752424478530884,0.2812037765979767,9.314929008483887,0.0006806784076616168,-0.0006457717972807586,-0.0005934119690209627
0.09256941080093384,0.24696668982505798,9.321383476257324,0.0003490658418741077,-0.00040142572834156454,-0.00020943951676599681
0.10793060809373856,0.23480413854122162,9.330864906311035,0.0010995573829859495,-0.0007330382941290736,-8.726646046852693e-05
0.08909302949905396,0.24904485046863556,9.320503234863281,0.00094247778179124,-0.0007504915702156723,-0.00020943951676599681
0.1078348383307457,0.2583247721195221,9.3291597366333,0.0015533430268988013,-0.00024434609804302454,-5.2359879191499203e-05
0.10139922797679901,0.23743775486946106,9.3371000289917,3.490658491500653e-05,-0.00062831852119416,-0.0003665191470645368
0.09609367698431015,0.251678466796875,9.323797225952148,-0.00027925267932005227,-0.0013962633674964309,0.0008203047327697277
0.10263463109731674,0.2455301582813263,9.333077430725098,0.00022689280740451068,-0.000715585018042475,-0.0005585053586401045
0.090184785425663,0.24414151906967163,9.322810173034668,0.00062831852119416,-0.00031415926059708,-5.2359879191499203e-05
0.09166919440031052,0.25825774669647217,9.338468551635742,0.00047123889089562,-0.0007679448463022709,-5.2359879191499203e-05
0.1053352952003479,0.23843374848365784,9.311529159545898,0.0006632251315750182,-0.0009075712296180427,-0.00013962633966002613
0.10213664174079895,0.2623278796672821,9.328872680664062,-0.0005235987482592463,-0.001029744278639555,-5.2359879191499203e-05
0.1045212671160698,0.24851812422275543,9.30224895477295,0.000715585018042475,-0.0005759586347267032,-0.00015707963029854
0.09737696498632431,0.24630588293075562,9.325425148010254,0.0006457717972807586,-0.00031415926059708,-5.2359879191499203e-05
0.0920809954404831,0.2525116503238678,9.314766883850098,0.0012740903766825795,-0.0007504915702156723,5.2359879191499203e-05
0.10586202144622803,0.23391349613666534,9.337903022766113,0.00045378561480902135,-0.0007330382941290736,-0.0008377580670639873
0.10367850959300995,0.26283544301986694,9.320866584777832,6.981316983001307e-05,-0.000715585018042475,-3.490658491500653e-05
0.06936480849981308,0.24945665895938873,9.279839515686035,1.7453292457503267e-05,-0.01762782596051693,-5.2359879191499203e-05
0.13830824196338654,0.19159358739852905,10.003243446350098,0.020525071769952774,-0.00205948855727911,-6.981316983001307e-05
0.08461108803749084,0.2698265314102173,9.249998092651367,0.009075712412595749,0.005078908056020737,0.0003665191470645368
0.10015424340963364,0.2520998418331146,9.400795936584473,0.00040142572834156454,-0.0006806784076616168,-0.0006981316837482154
0.10464576631784439,0.24075134098529816,9.344264030456543,-0.0012217304902151227,-0.0016231562476605177,0.00013962633966002613
0.11277647316455841,0.2612169682979584,9.283870697021484,-0.0008203047327697277,-0.00047123889089562,0.00017453292093705386
0.09507853537797928,0.25594013929367065,9.355390548706055,0.0010471974965184927,-0.0010471974965184927,-3.490658491500653e-05
0.08978255838155746,0.24533863365650177,9.307737350463867,0.00017453292093705386,0.0010995573829859495,-0.0005410520825535059
0.1070016548037529,0.22856006026268005,9.32621955871582,0.00062831852119416,-0.001029744278639555,-8.726646046852693e-05
0.09005071222782135,0.24238896369934082,9.325693130493164,0.0006457717972807586,-0.0011344640515744686,-0.00047123889089562
0.08514738827943802,0.2573862373828888,9.349318504333496,0.0003490658418741077,-0.0011868239380419254,-8.726646046852693e-05
0.12151052057743073,0.24663148820400238,9.33505916595459,0.00062831852119416,-0.0014486232539638877,-0.0006457717972807586
0.10468406975269318,0.24381591379642487,9.324285507202148,-1.7453292457503267e-05,0.0,-0.0004886921960860491
0.09205226600170135,0.25012701749801636,9.318443298339844,-0.0007679448463022709,-0.0007504915702156723,-0.00038397242315113544
0.09095092862844467,0.252597838640213,9.352814674377441,0.00024434609804302454,-0.0003665191470645368,-0.0005235987482592463
0.08441954851150513,0.26375481486320496,9.326583862304688,0.0007679448463022709,3.490658491500653e-05,0.00020943951676599681
0.11080364882946014,0.25089317560195923,9.328470230102539,0.00029670598451048136,6.981316983001307e-05,-5.2359879191499203e-05
0.10963527858257294,0.23987026512622833,9.311902046203613,0.0006632251315750182,-0.0006806784076616168,-0.00017453292093705386
0.11093772202730179,0.24542482197284698,9.346829414367676,0.0006457717972807586,-0.0008726646192371845,0.0
0.11087068915367126,0.2534884810447693,9.333296775817871,0.00047123889089562,-0.000715585018042475,-0.00013962633966002613
0.10529698431491852,0.23560859262943268,9.337213516235352,0.00047123889089562,-0.00043633230961859226,0.00010471975838299841
0.1041669249534607,0.25787466764450073,9.350152015686035,0.0006457717972807586,-0.0007504915702156723,-0.00012217304902151227
0.09782707691192627,0.24593238532543182,9.301521301269531,0.0006632251315750182,-0.0011519172694534063,-6.981316983001307e-05
0.10731769353151321,0.24562592804431915,9.343754768371582,0.00020943951676599681,-0.00027925267932005227,0.00038397242315113544
0.0918319970369339,0.2271522730588913,9.3103609085083,0.0,-0.00040142572834156454,0.0003665191470645368
0.0976259633898735,0.24604730308055878,9.33919620513916,0.0006632251315750182,-0.00062831852119416,-5.2359879191499203e-05
0.10199298709630966,0.25597846508026123,9.32856559753418,0.0007330382941290736,5.2359879191499203e-05,-0.0003316125657875091
0.10478941351175308,0.23277385532855988,9.32856559753418,0.0006632251315750182,-0.0009773843921720982,-1.7453292457503267e-05
0.10419565439224243,0.22589771449565887,9.325482368469238,0.0005759586347267032,-0.00043633230961859226,-0.00022689280740451068
0.08775227516889572,0.254551500082016,9.329255104064941,-0.00015707963029854,-0.000715585018042475,-6.981316983001307e-05
0.09773130714893341,0.24258050322532654,9.336256980895996,0.0003665191470645368,-0.0007504915702156723,-5.2359879191499203e-05
0.08806831389665604,0.2608530521392822,9.32093334197998,0.0010995573829859495,-0.00040142572834156454,-5.2359879191499203e-05
0.08482177555561066,0.24576959013938904,9.351895332336426,0.0006457717972807586,-0.001117010717280209,0.00013962633966002613
0.10267294198274612,0.2659575045108795,9.340230941772461,-0.00062831852119416,-0.0007679448463022709,0.0005585053586401045
0.09080728143453598,0.2629695236682892,9.325014114379883,0.0006457717972807586,-0.0005410520825535059,0.00020943951676599681
0.08269572257995605,0.24082794785499573,9.31987190246582,0.00031415926059708,-0.00043633230961859226,0.00019198621157556772
0.1008341982960701,0.2513049840927124,9.33070182800293,0.00015707963029854,-0.0005061454721726477,0.0003490658418741077
0.10216537117958069,0.24662192165851593,9.351015090942383,0.0009599310578778386,-0.00031415926059708,-3.490658491500653e-05
0.11071746051311493,0.2640995979309082,8.92818832397461,-0.028012534603476524,0.006265731994062662,-0.0004886921960860491
0.10274955630302429,0.2612648606300354,9.180146217346191,0.010175269097089767,-0.0017976891249418259,-0.00038397242315113544
0.0950210765004158,0.2511804699897766,9.264765739440918,0.00031415926059708,-0.002373647876083851,0.0
0.08142200857400894,0.2380123734474182,9.366701126098633,0.00012217304902151227,-0.0011344640515744686,0.00017453292093705386
0.10669519752264023,0.24043530225753784,9.287481307983398,0.0019198621157556772,-0.0012740903766825795,-0.00022689280740451068
0.0931440219283104,0.24691879749298096,9.390691757202148,0.0006457717972807586,-0.0005585053586401045,-0.001117010717280209
0.08445785939693451,0.2465548813343048,9.315608978271484,0.0006632251315750182,-0.0027052604127675295,0.0003316125657875091
0.10651323944330215,0.24349987506866455,9.356606483459473,0.0015533430268988013,0.00022689280740451068,-5.2359879191499203e-05
0.1083136796951294,0.24832658469676971,9.344733238220215,-0.00188495556358248,-0.00045378561480902135,-5.2359879191499203e-05
0.1051054522395134,0.24385422468185425,9.338641166687012,0.00062831852119416,-0.00024434609804302454,-0.00022689280740451068
0.0912478119134903,0.25673502683639526,9.343688011169434,0.0006457717972807586,-0.0008552113431505859,-0.00010471975838299841
0.08516653627157211,0.23993730545043945,9.32604694366455,0.0005410520825535059,-0.001117010717280209,-0.00010471975838299841
0.11816821247339249,0.26114994287490845,9.326939582824707,-0.00012217304902151227,0.001029744278639555,-0.00010471975838299841
0.0995413288474083,0.24858516454696655,9.341907501220703,0.00047123889089562,-0.0006632251315750182,-0.0003665191470645368
0.09761638939380646,0.24612392485141754,9.324764251708984,0.0006981316837482154,3.490658491500653e-05,-0.0004886921960860491
0.09157342463731766,0.24650700390338898,9.3338623046875,0.0006632251315750182,-0.0008203047327697277,0.00024434609804302454
0.09769300371408463,0.2523009777069092,9.336993217468262,3.490658491500653e-05,-0.0007330382941290736,-0.00029670598451048136
0.08616252988576889,0.2499067634344101,9.333240509033203,0.0006457717972807586,-0.00029670598451048136,-0.0010995573829859495
0.20231960713863373,0.22363758087158203,8.800605773925781,-0.015917403623461723,-0.031101766973733902,-0.00022689280740451068
0.11880986392498016,0.22730550169944763,9.815000534057617,0.0025830871891230345,0.0020769417751580477,-0.0005934119690209627
0.11902055144309998,0.2360491305589676,9.17589282989502,0.0002617993741296232,0.01219985168427229,-0.0007330382941290736
0.10408072918653488,0.2571755647659302,9.345086097717285,-0.00022689280740451068,-0.0006632251315750182,0.00012217304902151227
0.10275913029909134,0.23738987743854523,9.288822174072266,-6.981316983001307e-05,0.0010646508308127522,-0.00040142572834156454
0.09693643450737,0.24831701815128326,9.362324714660645,0.0016929693520069122,-0.001029744278639555,0.0
0.09052955359220505,0.258765310049057,9.322734832763672,-0.00015707963029854,-0.0006806784076616168,-0.00015707963029854
0.09255983680486679,0.24202504754066467,9.333794593811035,0.0005235987482592463,-0.0007330382941290736,-3.490658491500653e-05
0.10350612550973892,0.2453673630952835,9.323748588562012,-0.00031415926059708,-0.0013613568153232336,-0.0003665191470645368
0.0912478119134903,0.23556070029735565,9.342020988464355,0.0008377580670639873,5.2359879191499203e-05,-0.0003490658418741077
0.09699389338493347,0.23614488542079926,9.307650566101074,0.00019198621157556772,-0.00038397242315113544,-0.0006806784076616168
0.1003745049238205,0.2600294351577759,9.333968162536621,-0.00015707963029854,-0.0013089969288557768,-0.00040142572834156454
0.08433336019515991,0.24378718435764313,9.333066940307617,0.0006632251315750182,-0.00038397242315113544,-0.0005759586347267032
0.09813353419303894,0.24593238532543182,9.334436416625977,-8.726646046852693e-05,-0.00029670598451048136,-0.0006806784076616168
0.07828081399202347,0.2608434855937958,9.336313247680664,0.0006632251315750182,-0.0005934119690209627,-6.981316983001307e-05
0.10061392933130264,0.2654690742492676,9.335203170776367,0.0010995573829859495,-0.0007504915702156723,6.981316983001307e-05
0.09334513545036316,0.23737072944641113,9.333114624023438,0.00043633230961859226,-0.0007504915702156723,5.2359879191499203e-05
0.09451350569725037,0.25933992862701416,9.328546524047852,0.00062831852119416,-0.00062831852119416,5.2359879191499203e-05
0.11345642805099487,0.26092007756233215,9.313923835754395,0.001029744278639555,-0.0006632251315750182,-0.0003665191470645368
0.08997409790754318,0.24510878324508667,9.334848403930664,0.0006457717972807586,-0.00038397242315113544,-0.00019198621157556772
0.08455362170934677,0.23832839727401733,9.313484191894531,0.000715585018042475,-0.0009773843921720982,0.00024434609804302454
0.0946667343378067,0.2625960409641266,9.328115463256836,0.0006632251315750182,-0.0006632251315750182,0.00024434609804302454
0.090644471347332,0.24933215975761414,9.314190864562988,-0.00031415926059708,-0.00040142572834156454,-0.0006108652451075613
0.0856645330786705,0.2523201107978821,9.33439826965332,0.0007330382941290736,-0.0008377580670639873,-0.00024434609804302454
0.08961017429828644,0.25053882598876953,9.328289031982422,0.0006632251315750182,-0.0011868239380419254,-8.726646046852693e-05
0.09488699585199356,0.23729410767555237,9.331449508666992,0.0007679448463022709,-0.0017802357906475663,-5.2359879191499203e-05
0.09675447642803192,0.2592249810695648,9.139386177062988,0.002373647876083851,0.008831365965306759,0.00040142572834156454
0.10463618487119675,0.23245781660079956,9.571070671081543,0.006213372107595205,-0.0009773843921720982,-5.2359879191499203e-05
0.09226295351982117,0.2373228371143341,9.343266487121582,0.002199114765971899,-0.004066617228090763,-1.7453292457503267e-05
0.09615113586187363,0.2531532943248749,9.299893379211426,-0.0021293016616255045,-0.0006806784076616168,-0.0005410520825535059
0.08633490651845932,0.23737072944641113,9.329351425170898,0.0006632251315750182,-0.0006806784076616168,-5.2359879191499203e-05
0.10566090792417526,0.23276427388191223,9.319774627685547,-0.00029670598451048136,-0.0008203047327697277,0.00024434609804302454
0.09303867071866989,0.2441989928483963,9.325453758239746,0.001029744278639555,-0.0007504915702156723,0.00040142572834156454
0.08896853029727936,0.2494470775127411,9.33951187133789,0.0005061454721726477,-0.0008552113431505859,-5.2359879191499203e-05
0.10220367461442947,0.24633461236953735,9.330835342407227,-8.726646046852693e-05,0.00062831852119416,0.00010471975838299841
0.08118259161710739,0.24477359652519226,9.326745986938477,0.0011519172694534063,-0.0010995573829859495,-0.00024434609804302454
0.09434112161397934,0.22982420027256012,9.327713966369629,0.0003665191470645368,-0.0002617993741296232,-5.2359879191499203e-05
0.10167695581912994,0.24612392485141754,9.326363563537598,0.0008901178953237832,-0.00040142572834156454,0.00024434609804302454
0.10537359863519669,0.2579512894153595,9.388105392456055,0.0008552113431505859,-0.00045378561480902135,-5.2359879191499203e-05
0.08755116164684296,0.24922680854797363,9.303293228149414,0.0006632251315750182,-0.00043633230961859226,-0.0003665191470645368
0.09548076242208481,0.24924595654010773,9.362688064575195,0.0005410520825535059,-0.00015707963029854,-0.0005061454721726477
0.10365935415029526,0.24535778164863586,9.330452919006348,-0.0005759586347267032,0.00045378561480902135,0.00038397242315113544
0.1197771206498146,0.25019407272338867,9.334436416625977,0.00040142572834156454,-0.0010995573829859495,0.0
0.11404061317443848,0.24853728711605072,9.322831153869629,-1.7453292457503267e-05,-0.0006108652451075613,-0.0009250245057046413
0.08735962957143784,0.23827093839645386,9.320311546325684,3.490658491500653e-05,-0.00041887903353199363,-0.00012217304902151227
0.09367074072360992,0.25941652059555054,9.325826644897461,0.0006457717972807586,-0.0007504915702156723,-5.2359879191499203e-05
0.10239521414041519,0.24994507431983948,9.329773902893066,-8.726646046852693e-05,3.490658491500653e-05,8.726646046852693e-05
0.09529879689216614,0.25776931643486023,9.314545631408691,-0.0005759586347267032,-0.0007330382941290736,-0.00031415926059708
0.09763554483652115,0.2351776361465454,9.313464164733887,-0.0006108652451075613,-0.0007330382941290736,-0.0006806784076616168
0.09547118097543716,0.24798183143138885,9.326133728027344,0.00062831852119416,0.0,0.00015707963029854
0.09291417896747589,0.2552410364151001,9.333344459533691,0.0003490658418741077,-0.0008901178953237832,-6.981316983001307e-05
0.10027874261140823,0.2398415356874466,9.325511932373047,0.0013089969288557768,-0.0023038345389068127,-0.00022689280740451068
0.09635224938392639,0.24891076982021332,9.324180603027344,3.490658491500653e-05,-0.0008552113431505859,-0.0009948377264663577
0.09680236130952835,0.2493896186351776,9.335423469543457,-5.2359879191499203e-05,0.0016929693520069122,-8.726646046852693e-05
0.10187806934118271,0.25264573097229004,9.329734802246094,0.00143117003608495,-0.0012391837080940604,0.00024434609804302454
0.21365855634212494,0.2311553806066513,8.920469284057617,-0.027803095057606697,-0.056845374405384064,0.00041887903353199363
0.1132936179637909,0.22600305080413818,9.319544792175293,0.00041887903353199363,-0.0006806784076616168,-8.726646046852693e-05
0.08173803985118866,0.2501557469367981,9.347739219665527,0.00062831852119416,-0.00017453292093705386,0.00012217304902151227
0.10489475727081299,0.24146002531051636,9.303810119628906,0.0012740903766825795,-0.00041887903353199363,0.00012217304902151227
0.0855591893196106,0.24883416295051575,9.378796577453613,-8.726646046852693e-05,0.00012217304902151227,-6.981316983001307e-05
0.09299079328775406,0.26515305042266846,9.254249572753906,0.0007504915702156723,0.00017453292093705386,-0.0003665191470645368
0.08919837325811386,0.2451375126838684,9.334436416625977,0.001029744278639555,-0.0017104226863011718,0.0003665191470645368
0.09914867579936981,0.2551835775375366,9.337213516235352,0.0006632251315750182,-0.00017453292093705386,-0.00022689280740451068
0.0779743567109108,0.25810450315475464,9.357364654541016,0.00041887903353199363,0.00125663704238832,0.0
0.09044335782527924,0.2508261501789093,9.314009666442871,-0.0007853981805965304,-0.0005585053586401045,0.0003665191470645368
0.09169792383909225,0.2437009960412979,9.323317527770996,-0.00019198621157556772,-0.00012217304902151227,-5.2359879191499203e-05
0.09459969401359558,0.2465548813343048,9.324189186096191,-0.0005410520825535059,-0.00047123889089562,0.00010471975838299841
0.10027874261140823,0.23930524289608002,9.315752983093262,0.00012217304902151227,-0.0005759586347267032,0.00029670598451048136
0.09632351994514465,0.24750298261642456,9.321057319641113,0.0006632251315750182,-0.0007504915702156723,0.00038397242315113544
0.11467268317937851,0.24428518116474152,9.342538833618164,0.0008028514566831291,0.0005759586347267032,-3.490658491500653e-05
0.09972328692674637,0.24020545184612274,9.34465503692627,0.00031415926059708,-0.0008028514566831291,-0.0003665191470645368
0.10463618487119675,0.2498014122247696,9.31275463104248,0.00040142572834156454,-0.0006806784076616168,-0.0003665191470645368
0.10438718646764755,0.2475125640630722,9.339025497436523,0.0006981316837482154,-0.00031415926059708,-0.0007504915702156723
0.10136091709136963,0.2645114064216614,8.884173393249512,0.004607669077813625,0.013281955383718014,-0.0007853981805965304
0.10176314413547516,0.20571938157081604,9.910022735595703,0.019233528524637222,-0.00945968460291624,-5.2359879191499203e-05
0.10477983951568604,0.25583481788635254,9.273059844970703,0.00019198621157556772,-0.0067369709722697735,-6.981316983001307e-05
0.09329725056886673,0.24358607828617096,9.365217208862305,-0.00012217304902151227,-0.00031415926059708,-0.00012217304902151227
0.10036493092775345,0.23491905629634857,9.359920501708984,0.0006806784076616168,-0.0009250245057046413,0.0006806784076616168
0.10862971842288971,0.253842830657959,9.270684242248535,0.0010995573829859495,-0.0011868239380419254,-0.00013962633966002613
0.08395986258983612,0.2370930016040802,9.392118453979492,0.0006108652451075613,-3.490658491500653e-05,-0.0004886921960860491
0.10338162630796432,0.24511836469173431,9.267983436584473,0.00020943951676599681,-0.000715585018042475,-0.00020943951676599681
0.10071927309036255,0.2493896186351776,9.339608192443848,0.0006108652451075613,-0.0007504915702156723,-0.00125663704238832
0.09305782616138458,0.2546185553073883,9.324899673461914,-0.0008377580670639873,-0.00062831852119416,0.0006981316837482154
0.08621041476726532,0.2437584549188614,9.320971488952637,0.0006632251315750182,-0.0007504915702156723,-0.0013089969288557768
0.10160991549491882,0.2347179502248764,9.335222244262695,0.0009599310578778386,-0.0006981316837482154,-0.00010471975838299841
0.08115385472774506,0.25719472765922546,9.338899612426758,1.7453292457503267e-05,-0.0006981316837482154,-0.0005061454721726477
0.09058701246976852,0.23563732206821442,9.317255973815918,0.0006632251315750182,-0.0012391837080940604,-5.2359879191499203e-05
0.10216537117958069,0.23583842813968658,9.324275970458984,0.0007853981805965304,-0.00045378561480902135,-6.981316983001307e-05
0.102146215736866,0.24495555460453033,9.325942039489746,-0.00012217304902151227,-0.00031415926059708,-1.7453292457503267e-05
0.08561664819717407,0.24195800721645355,9.330404281616211,-0.0005934119690209627,-0.00040142572834156454,0.0
0.1115027591586113,0.23275470733642578,9.321785926818848,0.00019198621157556772,-0.0007504915702156723,-0.00029670598451048136
0.10234732925891876,0.23383688926696777,9.360342025756836,0.0019373154500499368,-0.005218534264713526,-0.0004886921960860491
0.11135910451412201,0.22188502550125122,9.592369079589844,0.00094247778179124,0.009738937020301819,0.00027925267932005227
0.08147946745157242,0.2629695236682892,9.30496883392334,-0.004450589418411255,0.0018325956771150231,-0.00020943951676599681
0.10261548310518265,0.2390945553779602,9.361347198486328,0.00047123889089562,0.0007679448463022709,-5.2359879191499203e-05
0.09368032217025757,0.24997380375862122,9.34630298614502,-0.00012217304902151227,-0.00062831852119416,-0.00022689280740451068
0.11335108429193497,0.24760833382606506,9.310465812683105,0.0008377580670639873,0.0007504915702156723,-0.00038397242315113544
0.08898768573999405,0.24377760291099548,9.347336769104004,-0.0010646508308127522,-0.0008552113431505859,-5.2359879191499203e-05
0.11963346600532532,0.25377580523490906,9.277915000915527,0.00047123889089562,-0.0010471974965184927,-3.490658491500653e-05
0.09171707183122635,0.24044488370418549,9.344808578491211,0.000715585018042475,-0.0008203047327697277,-0.0007504915702156723
0.08977298438549042,0.2579321265220642,9.316336631774902,0.0006457717972807586,-0.0007330382941290736,-1.7453292457503267e-05
0.10017339140176773,0.2466985285282135,9.335653305053711,0.0006632251315750182,-0.00029670598451048136,0.00017453292093705386
0.08902598917484283,0.24355733394622803,9.320348739624023,0.00047123889089562,-0.0013613568153232336,-1.7453292457503267e-05
0.09343132376670837,0.2361736297607422,9.338151931762695,-8.726646046852693e-05,-0.0005759586347267032,-0.00040142572834156454
0.09884221851825714,0.2459706962108612,9.323786735534668,0.00094247778179124,-0.0005585053586401045,-0.0010122909443452954
0.09688854962587357,0.23056161403656006,9.346484184265137,0.00031415926059708,-0.0009599310578778386,-0.00094247778179124
0.09421662241220474,0.2635537087917328,9.331937789916992,0.0003490658418741077,-0.0013788101496174932,0.0
0.11628158390522003,0.24431391060352325,9.33211898803711,0.0003316125657875091,-0.00029670598451048136,-0.0005061454721726477
0.0961032509803772,0.24876712262630463,9.318299293518066,0.00038397242315113544,0.0003665191470645368,-0.00020943951676599681
0.1034390851855278,0.24120144546031952,9.317936897277832,8.726646046852693e-05,0.0005061454721726477,0.00019198621157556772
0.09642886370420456,0.22907720506191254,9.3296480178833,0.0006806784076616168,-0.0006108652451075613,0.0
0.10631212592124939,0.24558761715888977,9.32596206665039,0.0003316125657875091,-0.0003665191470645368,0.0003665191470645368
0.11393526941537857,0.23995646834373474,9.324660301208496,1.7453292457503267e-05,-0.0007330382941290736,-5.2359879191499203e-05
0.08973467350006104,0.2521190047264099,9.31760025024414,-0.00017453292093705386,-0.0008203047327697277,-5.2359879191499203e-05
0.08752243220806122,0.2575490474700928,9.323711395263672,0.00020943951676599681,-0.0007504915702156723,6.981316983001307e-05
0.09025182574987411,0.2514486312866211,9.31608772277832,0.0003490658418741077,-0.0007504915702156723,-8.726646046852693e-05
0.0957297533750534,0.24298273026943207,9.334273338317871,0.0005585053586401045,-1.7453292457503267e-05,-5.2359879191499203e-05
0.08655517548322678,0.2343444526195526,9.31485366821289,0.0010646508308127522,-0.0005585053586401045,-0.0003665191470645368
0.09798987954854965,0.24554932117462158,9.22155475616455,0.0035953782498836517,0.005811946466565132,-0.00019198621157556772
0.10711658000946045,0.22768856585025787,9.583242416381836,-0.0067544239573180676,0.002234021434560418,-0.0005410520825535059
0.09309613704681396,0.2344019114971161,9.329543113708496,0.00045378561480902135,-0.0006632251315750182,0.00010471975838299841
0.09924444556236267,0.24355733394622803,9.286323547363281,0.0005934119690209627,-0.0010646508308127522,-5.2359879191499203e-05
0.0951647236943245,0.2521573007106781,9.368099212646484,-5.2359879191499203e-05,-0.0006632251315750182,-5.2359879191499203e-05
0.09363243728876114,0.2501174509525299,9.289971351623535,0.00022689280740451068,-0.0008552113431505859,-0.0008203047327697277
0.11272858828306198,0.23833797872066498,9.354087829589844,-8.726646046852693e-05,-8.726646046852693e-05,-0.00022689280740451068
0.09942640364170074,0.25696486234664917,9.325453758239746,0.00041887903353199363,-0.00031415926059708,-0.0005061454721726477
0.09258856624364853,0.24259008467197418,9.320111274719238,0.00031415926059708,-0.0010471974965184927,1.7453292457503267e-05
0.08594226092100143,0.24039699137210846,9.331487655639648,0.00029670598451048136,-0.0010646508308127522,-5.2359879191499203e-05
0.07960241287946701,0.24213998019695282,9.322762489318848,0.00040142572834156454,-0.0007504915702156723,0.0005061454721726477
0.09617029130458832,0.2438254952430725,9.31870174407959,0.00017453292093705386,-0.00020943951676599681,0.0006806784076616168
0.09670659154653549,0.24674642086029053,9.338861465454102,0.0005934119690209627,-0.0007504915702156723,-0.00022689280740451068
0.11096645891666412,0.26554569602012634,9.112360000610352,-0.010995574295520782,-0.0004886921960860491,-5.2359879191499203e-05
0.09599790722131729,0.24425645172595978,9.33893871307373,0.00815068744122982,-0.0006981316837482154,-6.981316983001307e-05
0.09384312480688095,0.2482403963804245,9.211748123168945,0.0017802357906475663,-0.0010646508308127522,-5.2359879191499203e-05
0.08416097611188889,0.24796266853809357,9.368329048156738,-0.00024434609804302454,-0.0007504915702156723,0.0005235987482592463
0.09824845939874649,0.24012884497642517,9.307717323303223,0.0005585053586401045,0.0005759586347267032,-8.726646046852693e-05
0.10984596610069275,0.25661054253578186,9.362142562866211,6.981316983001307e-05,-0.0008028514566831291,-5.2359879191499203e-05
0.10020212829113007,0.2495141178369522,9.337348937988281,0.0009599310578778386,-0.00017453292093705386,-0.0005061454721726477
0.10499052703380585,0.24368183314800262,9.319201469421387,0.00031415926059708,-0.00043633230961859226,-6.981316983001307e-05
0.1003553569316864,0.25519317388534546,9.331707954406738,0.0005061454721726477,0.00017453292093705386,-8.726646046852693e-05
0.08973467350006104,0.24758917093276978,9.334532737731934,-0.0005410520825535059,-0.000715585018042475,-0.0008028514566831291
0.07925765216350555,0.2725367546081543,9.097755432128906,-0.024661501869559288,0.01014036312699318,-0.00017453292093705386
0.10256759822368622,0.278637170791626,9.002849578857422,0.009581857360899448,-0.004258603323251009,-0.0010122909443452954
0.10139922797679901,0.2524733543395996,9.330012321472168,0.0031241392716765404,-0.0012740903766825795,-0.00022689280740451068
0.10967358946800232,0.2457600086927414,9.293103218078613,-0.0009773843921720982,-0.00047123889089562,-0.00017453292093705386
0.09840168803930283,0.23132775723934174,9.312668800354004,0.0004886921960860491,-0.00029670598451048136,0.00029670598451048136
0.11533348262310028,0.25381410121917725,9.279178619384766,0.00031415926059708,-0.00047123889089562,-0.00040142572834156454
0.09095092862844467,0.2201899290084839,9.323136329650879,0.00047123889089562,0.0007504915702156723,-0.0005410520825535059
0.09338343888521194,0.2354266345500946,9.327512741088867,0.0,-0.00125663704238832,-5.2359879191499203e-05
0.09667786210775375,0.2528659999370575,9.330070495605469,-0.00015707963029854,-0.00012217304902151227,0.0
0.0991678312420845,0.2464495301246643,9.329533576965332,0.00012217304902151227,-0.0008203047327697277,-5.2359879191499203e-05
0.09763554483652115,0.26272052526474,9.305582046508789,-0.0006457717972807586,-0.0007504915702156723,-0.00015707963029854
0.08119216561317444,0.2398223876953125,9.298418998718262,0.0006632251315750182,-0.0007330382941290736,-5.2359879191499203e-05
0.11976753920316696,0.2426954209804535,9.317495346069336,0.0006981316837482154,-0.0009250245057046413,0.0004886921960860491
0.09908163547515869,0.24417026340961456,9.317907333374023,0.00022689280740451068,-0.0008901178953237832,-0.0005410520825535059
0.09286629408597946,0.24190054833889008,9.330730438232422,-6.981316983001307e-05,-0.0005585053586401045,-0.00029670598451048136
0.08706274628639221,0.24855643510818481,9.325119972229004,0.0003490658418741077,0.00010471975838299841,0.00029670598451048136
0.09682150930166245,0.24708160758018494,9.327399253845215,0.00040142572834156454,-0.00040142572834156454,-0.0006806784076616168
0.08450573682785034,0.2472827136516571,9.319890975952148,0.0013788101496174932,-0.000715585018042475,-5.2359879191499203e-05
0.08379705250263214,0.24224531650543213,9.316556930541992,0.0008028514566831291,-0.0007679448463022709,-0.0006632251315750182
0.10203129798173904,0.23185448348522186,9.335376739501953,0.0014137167017906904,-0.00029670598451048136,-5.2359879191499203e-05
0.08480262011289597,0.23864443600177765,9.317753791809082,0.00020943951676599681,-0.0006806784076616168,0.00024434609804302454
0.11718180030584335,0.2703053653240204,8.874347686767578,-0.007627088576555252,0.04255112633109093,-0.0011344640515744686
0.09722373634576797,0.23134690523147583,9.379582405090332,0.013473941944539547,-0.013037609867751598,-0.00043633230961859226
0.09459969401359558,0.24679429829120636,9.27702522277832,0.005602506920695305,-0.008203047327697277,-5.2359879191499203e-05
0.10588116943836212,0.2414504438638687,9.425387382507324,-0.0006806784076616168,-0.00062831852119416,-0.00043633230961859226
0.07422024756669998,0.2395925372838974,9.322983741760254,-0.00013962633966002613,-0.0011519172694534063,-0.0008901178953237832
0.0925406813621521,0.23465090990066528,9.321297645568848,-0.0003490658418741077,-0.0007504915702156723,-5.2359879191499203e-05
0.09908163547515869,0.25962722301483154,9.302593231201172,0.00047123889089562,-0.0025656339712440968,0.00038397242315113544
0.0913531556725502,0.2477423995733261,9.337663650512695,0.0007853981805965304,-0.0005410520825535059,-0.0006457717972807586
0.08004295080900192,0.2551644444465637,9.319698333740234,0.0006457717972807586,-0.0004886921960860491,-6.981316983001307e-05
0.11081323027610779,0.2564477324485779,9.328115463256836,0.00045378561480902135,-0.00017453292093705386,-0.0009599310578778386
0.09070193022489548,0.2464495301246643,9.336122512817383,0.0007504915702156723,-0.00017453292093705386,-5.2359879191499203e-05
0.09069235622882843,0.23682484030723572,9.325865745544434,0.00015707963029854,-0.0008203047327697277,0.0
0.09675447642803192,0.24914062023162842,9.32889175415039,0.00031415926059708,-0.0004886921960860491,8.726646046852693e-05
0.11732545495033264,0.24629630148410797,9.330854415893555,0.0003316125657875091,-0.0006457717972807586,-0.0005061454721726477
0.09190861135721207,0.25164973735809326,9.328815460205078,-0.00040142572834156454,-0.0012217304902151227,-0.00010471975838299841
0.09371862560510635,0.2610733211040497,9.309211730957031,0.00024434609804302454,-0.0006632251315750182,-0.0003665191470645368
0.10205044597387314,0.24107694625854492,9.327455520629883,0.0009773843921720982,1.7453292457503267e-05,6.981316983001307e-05
0.09382396936416626,0.2436339557170868,9.325674057006836,-0.00020943951676599681,-0.0006981316837482154,-8.726646046852693e-05
0.09162130951881409,0.24229320883750916,9.322264671325684,0.0006632251315750182,-0.0013264502631500363,-0.00040142572834156454
0.1195472776889801,0.2500791549682617,9.323691368103027,-0.00012217304902151227,-0.00062831852119416,0.00024434609804302454
0.10490433871746063,0.24054065346717834,9.315886497497559,0.00013962633966002613,-0.0010646508308127522,-0.00020943951676599681
0.11241255700588226,0.2513241171836853,9.327838897705078,-0.00041887903353199363,-0.0006981316837482154,-0.00038397242315113544
0.1169423833489418,0.24602815508842468,9.315196990966797,0.0005934119690209627,-0.0007679448463022709,-0.0009948377264663577
0.10088207572698593,0.1634952425956726,10.691393852233887,-0.04911356419324875,0.016580628231167793,-0.00012217304902151227
0.07756255567073822,0.27408820390701294,9.12736701965332,0.004852015525102615,-0.007714355364441872,-0.00013962633966002613
