accX,accY,accZ,gyroX,gyroY,gyroZ
-0.4340974986553192,5.851314067840576,7.53084659576416,-0.4366464614868164,0.5543165802955627,1.0763620138168335
-0.4393264353275299,5.802223205566406,7.601868152618408,-0.4930729568004608,0.577738881111145,1.124271273612976
-0.2823913097381592,5.5065107345581055,8.053404808044434,-0.46647414565086365,0.6075491309165955,1.1476936340332031
-0.10776780545711517,5.406308650970459,8.370933532714844,-0.3701319694519043,0.6311110258102417,1.154133915901184
0.023568522185087204,5.264073848724365,8.561244010925293,-0.2735803723335266,0.6159266829490662,1.1472573280334473
0.1490725725889206,5.275997161865234,8.287308692932129,-0.25876250863075256,0.6027320027351379,1.153069257736206
0.2583439350128174,5.162081241607666,8.437972068786621,-0.24895375967025757,0.5770058631896973,1.1369249820709229
0.23712173104286194,5.274110317230225,8.616693496704102,-0.19142770767211914,0.5732359290122986,1.1360173225402832
0.5568146705627441,5.500199794769287,8.686901092529297,-0.10821041464805603,0.5872509479522705,1.1403632164001465
0.7372417449951172,5.440603256225586,8.457852363586426,-0.05311036854982376,0.6815685033798218,1.1211122274398804
0.40343254804611206,5.124271392822266,8.616291046142578,-0.0313984714448452,0.7376633882522583,1.0803239345550537
0.3707277774810791,5.165480613708496,8.740636825561523,-0.012740903533995152,0.6619510054588318,1.051037311553955
0.5569487810134888,4.959531307220459,8.473377227783203,0.0,0.5485395193099976,0.9914517402648926
0.5986940860748291,4.866349220275879,8.122941970825195,-0.005235987715423107,0.5140343904495239,0.8907985687255859
0.3949187994003296,4.913668155670166,7.9724907875061035,-0.015795229002833366,0.5337216854095459,0.8102516531944275
0.19986794888973236,4.933099746704102,8.05312728881836,0.010925761424005032,0.5536708235740662,0.74771648645401
0.08790551126003265,5.1040358543396,7.921675682067871,0.041573744267225266,0.5554859638214111,0.7141014337539673
0.16978719830513,5.053374290466309,7.744428634643555,0.06204645335674286,0.5921029448509216,0.6786014437675476
0.08294472843408585,5.047590255737305,7.652318954467773,0.06241297349333763,0.6560518145561218,0.6291912198066711
-0.1891227811574936,5.1651835441589355,7.767690658569336,0.026389379054307938,0.6480581760406494,0.5979148745536804
-0.38755422830581665,5.245743751525879,7.919329643249512,-0.024731315672397614,0.5855405330657959,0.6024178266525269
-0.4814164936542511,5.182795524597168,7.933369159698486,-0.042359139770269394,0.5465498566627502,0.6317568421363831
-0.4345476031303406,5.089239597320557,7.948672771453857,-0.03267256170511246,0.5445427298545837,0.6627014875411987
-0.21136970818042755,5.024883270263672,7.982526779174805,-0.010000736452639103,0.5515938401222229,0.6535909175872803
-0.2498684674501419,4.9866814613342285,7.926646709442139,0.030613074079155922,0.5733231902122498,0.6091548204421997
-0.4398818910121918,5.3092474937438965,7.81588077545166,0.12137019634246826,0.6548300981521606,0.5783672332763672
-0.5341560244560242,5.433602333068848,7.767250061035156,0.14329153299331665,0.6815510988235474,0.553112268447876
-0.7119685411453247,5.500439167022705,7.677122592926025,0.10199704021215439,0.6614623069763184,0.5284507870674133
-0.8488211035728455,5.441187381744385,7.709779739379883,0.017261305823922157,0.5947034955024719,0.495970219373703
-0.9976733922958374,5.310023307800293,7.784152984619141,-0.07305948436260223,0.5077511668205261,0.4481481909751892
-1.2121843099594116,5.370874404907227,7.88762092590332,-0.13810789585113525,0.4113391935825348,0.4038517475128174
-1.359657645225525,5.529073715209961,7.978322982788086,-0.17503906786441803,0.34054863452911377,0.3870616555213928
-1.5061061382293701,5.6720075607299805,7.898298740386963,-0.11639600992202759,0.334125816822052,0.42212533950805664
-1.5431491136550903,5.7061872482299805,7.751726150512695,-0.09033824503421783,0.3465002179145813,0.4375540316104889
-1.5874131917953491,5.7113871574401855,7.731471061706543,-0.08808676898479462,0.3439345955848694,0.44572219252586365
-1.6403250694274902,5.608091831207275,7.987861156463623,-0.014049900695681572,0.6209706664085388,0.4467344880104065
-1.6242167949676514,5.554605484008789,8.13634967803955,-0.013369222171604633,0.4754451513290405,0.43627995252609253
-1.5879015922546387,5.549318790435791,8.18066120147705,0.014800392091274261,0.3286978602409363,0.41083306074142456
-1.6776841878890991,5.731575012207031,7.553955554962158,0.06497860699892044,0.21146409213542938,0.3821921944618225
-1.6868013143539429,5.822325229644775,7.481956958770752,0.03286454826593399,0.21073105931282043,0.38203510642051697
-1.737606167793274,5.762804985046387,7.565495491027832,0.03136356547474861,0.2347467839717865,0.3807610273361206
-1.9337775707244873,5.870917797088623,7.721223831176758,0.050160761922597885,0.22361157834529877,0.38069120049476624
-2.071788787841797,5.928454875946045,7.633461952209473,0.07274532318115234,0.18069393932819366,0.37831756472587585
-2.1211764812469482,5.995712757110596,7.27139139175415,0.15317009389400482,0.3035476505756378,0.3798709213733673
-2.5020365715026855,6.3970770835876465,5.320806503295898,-0.0751887857913971,0.18395769596099854,0.4306774437427521
-1.6128203868865967,5.545306205749512,6.812011241912842,-0.33539992570877075,-0.04113740846514702,0.34316664934158325
-1.5293776988983154,5.54456901550293,8.374601364135742,-0.335906058549881,-0.14208725094795227,0.2068040668964386
-2.1857337951660156,5.605735778808594,8.837611198425293,-0.26485371589660645,-0.3747396469116211,0.19305086135864258
-1.6625720262527466,5.8036980628967285,8.521117210388184,-0.1595754474401474,-0.43500587344169617,0.19305086135864258
-1.6131843328475952,6.126283168792725,8.047830581665039,-0.05319763720035553,-0.27518606185913086,0.19001398980617523
-1.922017216682434,6.330125331878662,8.140965461730957,-0.029338983818888664,-0.08189085125923157,0.2347467839717865
-2.0193750858306885,6.46228551864624,8.380663871765137,-0.026459190994501114,-0.04384266957640648,0.2845933735370636
-1.8438321352005005,6.366459846496582,8.647531509399414,-0.009930923581123352,-0.08522442728281021,0.39360666275024414
-1.380793571472168,6.123697757720947,8.583356857299805,-0.004502949304878712,-0.20176005363464355,0.4619886577129364
-0.8195543885231018,5.884900093078613,8.400803565979004,0.010314895771443844,-0.25218263268470764,0.5127079486846924
0.10630255937576294,5.157378196716309,8.100427627563477,0.06672393530607224,-0.03933972120285034,0.5489758849143982
0.5065843462944031,5.001180648803711,8.301529884338379,0.12674580514431,0.049759335815906525,0.5208760499954224
0.9529880285263062,4.743986129760742,8.203675270080566,0.22134265303611755,0.08047713339328766,0.4305727183818817
0.9646813273429871,4.760956287384033,7.956602573394775,0.22586305439472198,0.0962025448679924,0.33334043622016907
0.8836040496826172,4.95674467086792,7.930524826049805,0.18767525255680084,0.0794997438788414,0.2730218470096588
0.8780112266540527,5.043625354766846,7.9147138595581055,0.15800465643405914,0.06391395628452301,0.24361304938793182
0.9487934112548828,5.011312961578369,7.859072208404541,0.16432274878025055,0.10164797306060791,0.2128254473209381
1.0060243606567383,5.036212921142578,7.80210018157959,0.20210912823677063,0.1791754961013794,0.17477726936340332
0.7976235151290894,5.1204023361206055,7.767958641052246,0.22745130956172943,0.23485150933265686,0.15070918202400208
0.617215633392334,5.340803146362305,7.604454040527344,0.18043214082717896,0.18586011230945587,0.16439256072044373
0.4095712900161743,5.44589900970459,7.517879486083984,0.08653342723846436,0.13119639456272125,0.19079940021038055
0.29099127650260925,5.540709495544434,7.58693790435791,0.018186330795288086,0.10822786390781403,0.25010567903518677
0.37773796916007996,5.47307825088501,7.720122337341309,0.007435102481395006,0.12229522317647934,0.31922072172164917
0.6184989213943481,5.312963485717773,7.830801963806152,0.04078834503889084,0.15646876394748688,0.36159729957580566
0.8092114329338074,5.324972629547119,7.771042346954346,0.0587652362883091,0.1817236840724945,0.37051594257354736
0.9292279481887817,5.4471540451049805,7.733128070831299,0.025167647749185562,0.16482889652252197,0.3755599558353424
1.0368905067443848,5.485738754272461,7.824634075164795,-0.02626720443367958,0.1304459124803543,0.3819478452205658
1.1596651077270508,5.404776573181152,7.891709804534912,-0.05935864895582199,0.11365584284067154,0.3695734739303589
0.6890608668327332,5.919127464294434,6.666242599487305,0.0015533430268988013,0.42505747079849243,0.39882519841194153
0.701558530330658,5.668377876281738,7.765429973602295,0.05368632823228836,0.5401270389556885,0.46094146370887756
0.9959974884986877,5.471402168273926,7.7780046463012695,-0.046041786670684814,0.09058258682489395,0.31979668140411377
0.7188734412193298,5.7584381103515625,7.835887432098389,-0.12332496792078018,0.043161991983652115,0.2822197377681732
0.6774632930755615,5.979623794555664,7.948960304260254,-0.023998277261853218,0.12363912165164948,0.34318408370018005
0.8697273135185242,5.928321361541748,7.655239582061768,0.1189616397023201,0.28469809889793396,0.3983888626098633
0.8912176489830017,5.917460918426514,7.369621276855469,0.08883725851774216,0.36302849650382996,0.39899972081184387
0.7662020325660706,5.949093341827393,7.487099647521973,-0.011257373727858067,0.283982515335083,0.4055795967578888
0.9670276641845703,5.815793514251709,7.475943088531494,-0.08218755573034286,0.22570598125457764,0.38810884952545166
1.0393325090408325,5.715093612670898,7.453475475311279,-0.12423253804445267,0.2137330174446106,0.33712780475616455
0.6119866967201233,5.842167854309082,7.633816242218018,-0.07831292599439621,0.3303733766078949,0.2474527806043625
0.4653083086013794,5.918954849243164,7.562411785125732,-0.08169886469841003,0.3450515866279602,0.23911011219024658
0.3589674234390259,5.996000289916992,7.587704181671143,-0.08590510487556458,0.3513522446155548,0.24664993584156036
0.8149670958518982,6.889784812927246,7.967864513397217,0.08487536013126373,0.4476071298122406,0.5554510354995728
0.40393054485321045,6.245667934417725,8.240957260131836,0.056740652769804,0.49610984325408936,0.5522047281265259
0.11814906448125839,5.9984331130981445,8.565898895263672,0.03569198399782181,0.4155803322792053,0.5152561068534851
-0.07762959599494934,5.612496852874756,8.730437278747559,0.0547160729765892,0.27440065145492554,0.4646590054035187
-0.07591534405946732,5.697242259979248,7.994823932647705,0.16311846673488617,0.23141320049762726,0.3895051181316376
-0.2298433631658554,5.730157852172852,7.62613582611084,0.19338248670101166,0.3715806007385254,0.3931528627872467
-0.35090377926826477,5.820859909057617,7.6980671882629395,0.1892111450433731,0.48022735118865967,0.4035550355911255
-0.46400585770606995,5.698688507080078,7.873293876647949,0.19519762694835663,0.49668580293655396,0.41695916652679443
-0.43051576614379883,5.6050944328308105,7.6807427406311035,0.2082701325416565,0.534629225730896,0.4218809902667999
-0.565491259098053,5.408607006072998,7.440546989440918,0.20814797282218933,0.6441137790679932,0.4156676232814789
-0.8850023150444031,5.3100905418396,7.273594379425049,0.18943803012371063,0.7854854464530945,0.40676644444465637
-1.4376606941223145,5.339328289031982,7.444118976593018,0.16168729960918427,0.8743401169776917,0.4288797676563263
-1.8699194192886353,5.361489295959473,7.661637306213379,0.1281595230102539,0.8322079181671143,0.5081526041030884
-1.7502285242080688,5.293886184692383,7.649637222290039,0.07993607968091965,0.6703984141349792,0.6065368056297302
-1.204474925994873,5.136175632476807,7.344386100769043,0.04525638744235039,0.6162408590316772,0.6226985454559326
-1.0720947980880737,5.112358093261719,7.170777797698975,0.039130281656980515,0.6599962711334229,0.5966931581497192
-1.1787612438201904,5.264409065246582,7.18349552154541,0.04038691893219948,0.78581702709198,0.5366538166999817
-1.4018242359161377,5.53928279876709,7.467199325561523,0.01958259381353855,0.7692538499832153,0.5160938501358032
-1.4133450984954834,5.7111382484436035,7.621854782104492,-0.002687806962057948,0.6494195461273193,0.5034925937652588
-1.3126355409622192,5.789179801940918,7.347029209136963,-0.015027284622192383,0.6025400161743164,0.466578871011734
-1.5466351509094238,5.80747127532959,7.846612930297852,-0.36564648151397705,0.4041135311126709,0.45498988032341003
-1.7167384624481201,5.74873685836792,8.182136535644531,-0.2621484398841858,0.492025762796402,0.4559672772884369
-2.348740577697754,5.9897565841674805,8.270415306091309,-0.2108532190322876,0.3670252859592438,0.5203873515129089
-1.8920035362243652,5.81741189956665,8.001421928405762,-0.2754304111003876,0.21731095016002655,0.548417329788208
-1.8411411046981812,5.649511814117432,8.084596633911133,-0.3130073547363281,0.12278391420841217,0.5175424814224243
-1.8770158290863037,5.744484901428223,8.166363716125488,-0.33656927943229675,0.003403391921892762,0.4997226595878601
-1.7911118268966675,5.706819534301758,7.932488441467285,-0.3559249937534332,-0.08271115273237228,0.5029515027999878
-1.7645457983016968,5.6880292892456055,7.958096504211426,-0.34836772084236145,-0.035988688468933105,0.5223770141601562
-1.7463977336883545,5.649425506591797,8.130287170410156,-0.2822895646095276,0.05625196173787117,0.5732359290122986
-1.5583858489990234,5.483842372894287,8.15892219543457,-0.1241452693939209,0.1984788477420807,0.6532942056655884
-1.3347290754318237,5.506960868835449,8.11281967163086,-0.05253440886735916,0.2837032675743103,0.686525285243988
-1.1170099973678589,5.526832580566406,7.885398864746094,0.02802998758852482,0.2209412306547165,0.3499908745288849
-1.6528515815734863,5.934565544128418,7.201634407043457,-0.016406094655394554,0.2894454002380371,0.39863321185112
-1.3745495080947876,5.5090484619140625,8.107437133789062,-0.04797910153865814,0.2428102046251297,0.43104395270347595
-1.2895935773849487,5.321601390838623,8.234081268310547,-0.023177972063422203,0.165945902466774,0.389993816614151
-1.4002439975738525,5.376064777374268,8.148310661315918,-0.005864306353032589,0.1618443876504898,0.38440877199172974
-1.6198307275772095,5.56968879699707,8.161824226379395,0.03188716620206833,0.1898220032453537,0.4170813262462616
-1.61503267288208,5.616193771362305,7.979155540466309,0.07955210655927658,0.2263517528772354,0.48605674505233765
-1.3982999324798584,5.580749988555908,7.831261157989502,0.08183848857879639,0.2689552307128906,0.5287649631500244
-1.2233891487121582,5.619133949279785,7.859302043914795,0.04738568887114525,0.26307347416877747,0.5409124493598938
-1.2488347291946411,5.722937107086182,8.042813301086426,0.011431906372308731,0.2575582265853882,0.5455375909805298
-1.200663447380066,5.936700820922852,8.034672737121582,0.04071853309869766,0.2802649736404419,0.5725029110908508
-1.101859450340271,6.042629718780518,7.911065101623535,0.06408849358558655,0.30721285939216614,0.6097482442855835
-1.0328489542007446,6.081750869750977,7.784947872161865,0.07709119468927383,0.3451388478279114,0.6532243490219116
-0.9702454209327698,6.060978889465332,7.753698825836182,0.06749188154935837,0.38353610038757324,0.6976604461669922
-0.888248860836029,5.978752613067627,7.901372909545898,0.06901031732559204,0.38552576303482056,0.7404209971427917
-0.26969245076179504,5.72493839263916,7.457411766052246,0.13629275560379028,0.5564982295036316,0.8270068168640137
-0.23083935678005219,5.794686317443848,7.317418098449707,0.1448797732591629,0.6057688593864441,0.8423656821250916
-0.14771266281604767,5.75793981552124,7.193484306335449,0.13398893177509308,0.6683389544487,0.8609011173248291
-0.09294290840625763,5.7219696044921875,7.577763080596924,0.08463101834058762,0.7424455881118774,0.8893848657608032
0.07445009797811508,5.690519332885742,7.485500335693359,0.11623892933130264,0.7853632569313049,0.9050928354263306
0.14849796891212463,5.624171257019043,7.3605804443359375,0.10967648774385452,0.85135418176651,0.9110793471336365
0.05240428447723389,5.759491920471191,7.342710018157959,0.052464596927165985,0.8690866827964783,0.922179639339447
-0.0035529951564967632,5.867987155914307,7.439023971557617,-0.01523672416806221,0.8472002744674683,0.9727767109870911
0.21986433863639832,5.939066410064697,7.569737911224365,-0.045238934457302094,0.8519650101661682,1.0406177043914795
0.48155057430267334,5.939650535583496,7.631814956665039,-0.05497787147760391,0.9029111862182617,1.1031004190444946
0.6570742726325989,5.871214866638184,7.9145894050598145,-0.06700319051742554,0.9505935907363892,1.1562107801437378
0.7925573587417603,5.734371662139893,8.070077896118164,-0.06115633621811867,0.9938951730728149,1.2008737325668335
0.9186838865280151,5.531055927276611,8.071456909179688,-0.045640360563993454,1.0389596223831177,1.2249418497085571
1.2841732501983643,5.275968074798584,7.946930408477783,-0.03885103017091751,1.1951490640640259,1.1491596698760986
1.2683618068695068,5.296270847320557,8.241445541381836,0.013491394929587841,1.2296193838119507,1.0674433708190918
1.2261568307876587,5.449624538421631,8.254411697387695,0.13732250034809113,1.2652065753936768,0.9968622326850891
1.1559205055236816,5.677178859710693,7.951508045196533,0.19437731802463531,1.1845026016235352,0.9275552034378052
1.1436430215835571,5.919922351837158,7.781548500061035,0.1515120267868042,1.052520751953125,0.8826828002929688
1.2463257312774658,5.98008394241333,7.779776573181152,0.10812314599752426,0.9506983160972595,0.8168140649795532
1.0128813982009888,6.0789642333984375,7.9243669509887695,0.11156144738197327,0.8801869750022888,0.7457442879676819
0.6861974000930786,6.239941120147705,7.8712158203125,0.09751154482364655,0.7228455543518066,0.7196341753005981
0.6130496859550476,6.201825141906738,7.442979335784912,0.004345869645476341,0.5617341995239258,0.7159515023231506
0.645677924156189,6.034662246704102,7.11609411239624,-0.041573744267225266,0.6148620247840881,0.6910456418991089
0.48172295093536377,5.99354887008667,7.1698198318481445,-0.03405137360095978,0.7283259034156799,0.6650925874710083
0.16292063891887665,6.184319019317627,7.271305561065674,-0.03352777659893036,0.7571936249732971,0.6806260347366333
0.18664239346981049,6.106382846832275,7.313999176025391,-0.02954842336475849,0.7623249292373657,0.692354679107666
0.32882922887802124,6.076340198516846,7.24534273147583,-0.004293509759008884,0.7948927283287048,0.6598915457725525
0.3705745339393616,6.071187973022461,7.332817554473877,-0.010541788302361965,0.7847000360488892,0.5875999927520752
0.3836468756198883,6.164485454559326,7.4352312088012695,-0.04317944496870041,0.6914820075035095,0.49446922540664673
0.3758705258369446,6.237039089202881,7.3560028076171875,-0.0256388857960701,0.650449275970459,0.3893829584121704
-0.029486987739801407,6.511165618896484,7.391197681427002,-0.008499753661453724,0.5798332691192627,0.32070425152778625
-0.5583086609840393,7.1730475425720215,6.048366069793701,-0.4074820280075073,0.23055799305438995,0.3392745554447174
0.04130476713180542,6.612076282501221,6.626767158508301,-0.42935100197792053,0.3043854236602783,0.3678804934024811
-0.5676077604293823,6.698440074920654,7.5627946853637695,-0.22851595282554626,0.4901582598686218,0.38287287950515747
-0.8102361559867859,6.7835774421691895,7.500382900238037,-0.23181463778018951,0.44025930762290955,0.5193052887916565
-0.4173668324947357,6.489368438720703,7.423232078552246,-0.27921777963638306,0.3954916000366211,0.56107097864151
-0.22115719318389893,6.340219497680664,7.665764808654785,-0.27865925431251526,0.36252233386039734,0.54372239112854
-0.09938810020685196,6.39968204498291,7.788692474365234,-0.2384992390871048,0.29019588232040405,0.5482602715492249
0.13059890270233154,6.345218658447266,7.5330586433410645,-0.19341738522052765,0.24862214922904968,0.5586624145507812
0.3509133458137512,6.149535655975342,7.3936686515808105,-0.15891222655773163,0.28792697191238403,0.5396732687950134
0.32529541850090027,6.214390277862549,7.468540191650391,-0.10876891762018204,0.3522772490978241,0.5090776085853577
0.12354081124067307,6.362974166870117,7.558533191680908,-0.0714363232254982,0.35845571756362915,0.5037020444869995
0.1058141440153122,6.35516881942749,7.526987075805664,-0.057735491544008255,0.33915236592292786,0.5220279693603516
0.27323585748672485,6.194307327270508,7.533547401428223,-0.012880530208349228,0.39355430006980896,0.5026548504829407
0.31768181920051575,6.237642765045166,7.713801860809326,0.06647959351539612,0.4677656888961792,0.46043530106544495
0.31156226992607117,6.583278656005859,7.618972301483154,0.10030407458543777,0.4957607686519623,0.42954298853874207
-0.02990836650133133,6.371066570281982,7.622506141662598,0.03015928901731968,0.47804567217826843,0.404462605714798
-0.07411490380764008,6.2510786056518555,8.041711807250977,-0.03150319308042526,0.38751545548439026,0.35876989364624023
-0.07025545835494995,5.969242572784424,8.202353477478027,0.011693705804646015,0.2963394522666931,0.28586748242378235
-0.5826529264450073,6.424821376800537,6.959446430206299,-0.0682772770524025,0.023684117943048477,0.1290147304534912
-0.407924085855484,6.165893077850342,7.7724690437316895,0.06908012926578522,0.2862165570259094,0.14069099724292755
-0.9466865062713623,6.22011661529541,7.6848320960998535,0.20176005363464355,0.3649308979511261,0.20322613418102264
-0.9523367881774902,5.902300834655762,7.607911109924316,0.23959879577159882,0.3586302399635315,0.2128428965806961
-1.1794699430465698,5.8726606369018555,7.594235420227051,0.21036453545093536,0.26918211579322815,0.18010053038597107
-1.5896350145339966,6.050214767456055,7.445718288421631,0.1178097277879715,0.11391764134168625,0.18325957655906677
-1.7108677625656128,6.17237663269043,7.188111782073975,0.007941247895359993,0.015568336471915245,0.25277602672576904
-1.643791913986206,6.07062292098999,7.020833492279053,-0.07297221571207047,0.036163222044706345,0.34232887625694275
-1.5169566869735718,5.9463348388671875,7.072691917419434,-0.11116001754999161,0.11904890835285187,0.4006403386592865
-1.375909447669983,5.819940567016602,7.236302375793457,-0.10149089246988297,0.21999874711036682,0.4317944645881653
-1.23401939868927,5.784822463989258,7.2639312744140625,-0.09925687313079834,0.2617993950843811,0.4161912202835083
-1.2805339097976685,5.8060832023620605,7.300246715545654,-0.13957397639751434,0.22766074538230896,0.38378044962882996
-1.3570047616958618,5.8234171867370605,7.292518138885498,-0.17694148421287537,0.18006561696529388,0.3672696352005005
-1.4692449569702148,5.819662570953369,7.218681335449219,-0.15112805366516113,0.22855086624622345,0.3658210039138794
-1.4960983991622925,5.845481872558594,7.215817451477051,-0.1327672004699707,0.2821848392486572,0.3737971782684326
-1.6605513095855713,5.859951972961426,7.325701713562012,-0.1080184280872345,0.37231364846229553,0.40564942359924316
-1.68995201587677,5.888213157653809,7.450669288635254,-0.10437069088220596,0.39214056730270386,0.45521676540374756
-1.6550158262252808,5.879871845245361,7.599052906036377,-0.1172163113951683,0.3384193480014801,0.5064771175384521
-1.5435035228729248,5.782935619354248,7.582657337188721,-0.11936306953430176,0.2879618704319,0.528415858745575
-1.5014231204986572,5.755325794219971,7.74789571762085,-0.12540189921855927,0.23034855723381042,0.5453804731369019
-1.3430705070495605,5.753276348114014,7.717967987060547,-0.09974556416273117,0.1947263777256012,0.5475621223449707
-1.156610131263733,5.903191566467285,7.574966907501221,-0.09515535086393356,0.21622884273529053,0.5368458032608032
-0.8596620559692383,5.777007579803467,7.671424388885498,0.04656538367271423,0.20226620137691498,0.5175774097442627
-0.8120270371437073,5.825868606567383,7.633864402770996,0.07323401421308517,0.2030690610408783,0.47253045439720154
-0.7194288969039917,5.828339576721191,7.64927339553833,0.0751887857913971,0.17823302745819092,0.4361054301261902
-0.562455415725708,5.991595268249512,7.683290004730225,0.07436847686767578,0.1613207757472992,0.39584067463874817
-0.3983951807022095,6.311919689178467,7.648468971252441,0.07264060527086258,0.17870426177978516,0.3379131853580475
-0.707821786403656,6.3910722732543945,7.48170804977417,0.03689625859260559,0.24129176139831543,0.3061830997467041
-0.9508619904518127,6.465877056121826,7.701131820678711,-0.04286528751254082,0.292621910572052,0.322013258934021
-0.9813354015350342,6.347172260284424,8.16016674041748,-0.09672614932060242,0.2565808594226837,0.37552502751350403
1.0636863708496094,5.3564133644104,7.62402868270874,0.01532399095594883,0.23828980326652527,0.4397706091403961
1.125341773033142,5.289816379547119,7.835877418518066,0.028134707361459732,0.26427775621414185,0.39760345220565796
1.1698452234268188,5.271620273590088,7.954150676727295,0.07480481266975403,0.2771408259868622,0.3418751060962677
1.1088218688964844,5.315089225769043,8.114667892456055,0.15577062964439392,0.29363420605659485,0.2934771180152893
1.0420523881912231,5.438381195068359,7.8473310470581055,0.22218041121959686,0.3231651484966278,0.25935593247413635
0.8812195062637329,5.568079948425293,7.7313947677612305,0.2243795245885849,0.3258529603481293,0.24619615077972412
0.8349347710609436,5.6114821434021,7.659032344818115,0.21875956654548645,0.31845277547836304,0.24066345393657684
0.7686632871627808,5.65420389175415,7.571844577789307,0.19579103589057922,0.30403634905815125,0.23085470497608185
0.7444338798522949,5.766214370727539,7.482713222503662,0.13634511828422546,0.24061109125614166,0.2301740199327469
0.7714213728904724,5.856179237365723,7.441312789916992,0.05665338784456253,0.16004669666290283,0.23120376467704773
0.8457852602005005,5.875734806060791,7.555506706237793,0.011222466826438904,0.11182324588298798,0.24148374795913696
0.8697847127914429,5.983196258544922,7.084567546844482,0.015132004395127296,0.12421508133411407,0.2525666058063507
0.9398869872093201,5.8645782470703125,7.2368669509887695,-0.019826939329504967,0.18566812574863434,0.27429595589637756
1.1759551763534546,5.705468654632568,7.767901420593262,-0.022043507546186447,0.16496852040290833,0.25586527585983276
1.0767395496368408,5.789600849151611,7.825218200683594,-0.012723450548946857,0.07707373797893524,0.2203303575515747
1.1139070987701416,5.961226940155029,7.529247283935547,-0.02577851340174675,0.06257005035877228,0.20027652382850647
1.0083515644073486,6.1414337158203125,7.414421558380127,-0.056758105754852295,0.09587093442678452,0.20444786548614502
0.9345526695251465,6.164973735809326,7.5140299797058105,-0.09831439703702927,0.1088736355304718,0.2275211215019226
0.9435166120529175,6.107503414154053,7.613705158233643,-0.1062730997800827,0.0979304239153862,0.2341882735490799
1.0927902460098267,5.988309860229492,7.727612018585205,-0.09484118968248367,0.06063273921608925,0.2246762365102768
1.1364508867263794,5.910977363586426,7.58962869644165,-0.07705628871917725,0.04253367334604263,0.18725638091564178
0.9556983113288879,5.89654541015625,7.564384460449219,-0.07380997389554977,0.04171336814761162,0.15858061611652374
0.9043474793434143,6.001277446746826,7.6313934326171875,-0.06487388908863068,0.03741985931992531,0.1581617295742035
1.0094720125198364,5.982478141784668,7.6188859939575195,-0.039933133870363235,0.042725659906864166,0.15992452204227448
1.067967176437378,5.944793224334717,7.533595085144043,-0.010908307507634163,0.06274458765983582,0.1402721107006073
0.9880678653717041,5.9688215255737305,7.55653190612793,-0.0080634206533432,0.06085963174700737,0.11688470095396042
0.8962646126747131,5.989325046539307,7.493008613586426,-0.013299409300088882,0.03759439289569855,0.10817550867795944
0.8090390563011169,6.061055660247803,7.410370349884033,-0.0345749706029892,0.042725659906864166,0.11306242644786835
0.7842925786972046,6.098654270172119,7.378594398498535,-0.06283185631036758,0.06375687569379807,0.13444271683692932
0.8348485827445984,6.03181791305542,7.46033239364624,-0.07937757670879364,0.07220426946878433,0.1405688226222992
0.8685972094535828,5.9851789474487305,7.540806770324707,-0.07813838869333267,0.06407103687524796,0.12508775293827057
0.8603515625,6.039488792419434,7.449184894561768,-0.07147122919559479,0.06440264731645584,0.10667452216148376
0.7661733031272888,6.05228328704834,7.342700481414795,-0.07126179337501526,0.0944572165608406,0.09430013597011566
0.6397594213485718,6.149162292480469,7.338812351226807,-0.08491026610136032,0.12458160519599915,0.09318313002586365
0.6002933979034424,6.1514892578125,7.448840141296387,-0.09320057928562164,0.12547172605991364,0.09815731644630432
0.5686612129211426,6.113115310668945,7.495882034301758,-0.07740534842014313,0.13325588405132294,0.09553932398557663
0.5246270895004272,6.1454081535339355,7.379073143005371,-0.03857177495956421,0.17910568416118622,0.09225810319185257
0.4507036805152893,6.202993869781494,7.328516960144043,-0.024207716807723045,0.22767819464206696,0.09887290000915527
0.3239642381668091,6.247104644775391,7.3537139892578125,-0.034260813146829605,0.24403193593025208,0.1128878965973854
0.2765207290649414,6.268623352050781,7.391762733459473,-0.04881685972213745,0.2336123138666153,0.13548991084098816
0.3137936294078827,6.260176658630371,7.270654201507568,-0.05349434167146683,0.24781930446624756,0.157254159450531
0.3176147937774658,6.275097370147705,7.204392433166504,-0.06382668763399124,0.3084345757961273,0.17992599308490753
0.2731783986091614,6.220346450805664,7.400975704193115,-0.05318018049001694,0.3693291246891022,0.20212657749652863
0.24847982823848724,6.192037582397461,7.5349931716918945,-0.017819812521338463,0.38699185848236084,0.21441370248794556
0.20265480875968933,6.247017860412598,7.415838718414307,-0.013753194361925125,0.3896971046924591,0.21785199642181396
0.13662272691726685,6.279339790344238,7.430970191955566,-0.03914773464202881,0.39528217911720276,0.2344849854707718
0.14126747846603394,6.257121562957764,7.64836311340332,-0.02267182618379593,0.4082150459289551,0.25684264302253723
0.14654429256916046,6.171993255615234,7.7246904373168945,0.03420845419168472,0.4364021122455597,0.27352800965309143
0.11630074679851532,6.204908847808838,7.8365092277526855,0.08888962119817734,0.44141122698783875,0.28534388542175293
0.17284220457077026,6.221965312957764,7.609931468963623,0.12178907543420792,0.4717625081539154,0.2852216958999634
-0.042999863624572754,6.376582622528076,7.602921485900879,0.11962486803531647,0.5093219876289368,0.30531045794487
-0.1934993714094162,6.456223487854004,7.6679768562316895,0.11681488901376724,0.5269672870635986,0.363412469625473
-0.04736688733100891,6.641190052032471,7.728866100311279,0.16838936507701874,0.5938831567764282,0.41667991876602173
0.04711788892745972,6.796899318695068,7.5159735679626465,0.16460199654102325,0.6820223331451416,0.4335223436355591
-0.1509304791688919,6.645461082458496,7.552892208099365,0.0953298807144165,0.7225139737129211,0.44338345527648926
-0.33541810512542725,6.480309009552002,7.953537940979004,0.006894050631672144,0.6532418131828308,0.4329463839530945
-0.37090015411376953,6.194518089294434,8.124503135681152,0.021135937422513962,0.5700768828392029,0.41839033365249634
-0.33481472730636597,6.08355188369751,7.9927263259887695,0.1250004768371582,0.5338962078094482,0.37864917516708374
-0.22916340827941895,5.990484237670898,7.549205303192139,0.18167132139205933,0.5325348377227783,0.33365458250045776
-0.204503133893013,5.955432891845703,7.387951374053955,0.20463985204696655,0.5577199459075928,0.2949606478214264
-0.29317477345466614,5.9500603675842285,7.413732051849365,0.25183355808258057,0.5811248421669006,0.27867671847343445
-0.38953661918640137,5.943768501281738,7.294979572296143,0.3049613833427429,0.5974436402320862,0.29590311646461487
-0.3772112727165222,5.9755730628967285,7.098903656005859,0.3187843859195709,0.6461209058761597,0.3157126009464264
-0.5266382098197937,6.064101219177246,7.063852310180664,0.2620611786842346,0.6565055847167969,0.31876692175865173
-0.8872336745262146,6.206910610198975,7.266776084899902,0.17290976643562317,0.5911080837249756,0.33363714814186096
-1.0556704998016357,6.228937149047852,7.262178897857666,0.0884183794260025,0.5017821788787842,0.3761533498764038
-1.0055934190750122,6.160520553588867,7.1143798828125,0.09307841211557388,0.5361302495002747,0.3952472507953644
-1.2822961807250977,6.119828701019287,6.777688026428223,0.17922785878181458,0.7237531542778015,0.4247607886791229
-1.8837674856185913,6.570369720458984,6.082995891571045,-0.015777776017785072,0.7360751628875732,0.5264087319374084
-0.9995025992393494,6.164168834686279,6.920717716217041,-0.24575981497764587,0.44882887601852417,0.49759337306022644
-0.45087605714797974,5.871099472045898,7.862922191619873,-0.2923949956893921,0.2307325303554535,0.3386985957622528
-0.598914384841919,6.046968460083008,8.036205291748047,-0.24939009547233582,0.20619319379329681,0.2920808494091034
-1.049368977546692,6.059868335723877,7.754120349884033,-0.1506219208240509,0.22228513658046722,0.28469809889793396
-1.0653239488601685,6.307122230529785,7.549559593200684,0.0033859387040138245,0.41955968737602234,0.28475046157836914
-1.4381970167160034,6.412917137145996,7.400984764099121,0.12142255902290344,0.550616443157196,0.33937928080558777
-1.573268175125122,6.380125999450684,7.234683513641357,0.11096803098917007,0.5375788807868958,0.3850545287132263
-1.6908330917358398,6.3946733474731445,7.123889446258545,0.013055062852799892,0.4225442111492157,0.40334558486938477
-1.7842835187911987,6.377243518829346,7.1116790771484375,-0.07529350370168686,0.3177720904350281,0.44460517168045044
-1.7271292209625244,6.249622821807861,6.963956832885742,-0.0918741300702095,0.32606241106987,0.5105611681938171
-1.5898935794830322,6.183955192565918,6.952502727508545,-0.07850491255521774,0.3972369432449341,0.57365483045578
-1.4277007579803467,6.139671802520752,6.988378047943115,-0.08990190923213959,0.4450589716434479,0.6067637205123901
-1.3193296194076538,6.124894618988037,7.112685203552246,-0.12653636932373047,0.40451496839523315,0.619330108165741
-1.2360018491744995,6.1385321617126465,7.04606819152832,-0.17172294855117798,0.33775612711906433,0.629557728767395
-1.2044366598129272,6.093741416931152,6.936356544494629,-0.22019073367118835,0.33801791071891785,0.6385112404823303
-1.2807543277740479,6.080257415771484,7.095005989074707,-0.23640485107898712,0.3917042315006256,0.6505365967750549
-1.4821736812591553,6.089862823486328,7.283985137939453,-0.229859858751297,0.426349014043808,0.6895970106124878
-1.4747228622436523,5.913735866546631,7.333985805511475,-0.2341882735490799,0.44341835379600525,0.7324972152709961
-1.357033610343933,5.74873685836792,7.335527420043945,-0.25729644298553467,0.4710119962692261,0.7425852417945862
-1.5157116651535034,5.754080772399902,7.455333709716797,-0.28469809889793396,0.47937214374542236,0.7365114688873291
-1.6332956552505493,5.683260440826416,7.717469692230225,-0.3277204632759094,0.4179539978504181,0.7542614936828613
-1.5288223028182983,5.411288738250732,7.810958385467529,-0.3519107401371002,0.384880006313324,0.7529873847961426
-1.71761953830719,5.486619472503662,8.053960800170898,-0.35477307438850403,0.39481091499328613,0.7462853193283081
-1.7095844745635986,5.482645511627197,8.267024993896484,-0.3196221590042114,0.37460002303123474,0.7669326066970825
-1.0541861057281494,5.6032843589782715,8.003385543823242,-0.13149310648441315,0.3842516839504242,0.736284613609314
-0.9842180013656616,5.567237377166748,8.089375495910645,-0.080058254301548,0.39879027009010315,0.7123561501502991
-0.9199480414390564,5.629208564758301,8.065136909484863,-0.06679374724626541,0.39529961347579956,0.6963165402412415
-0.9385845065116882,5.655736446380615,7.9564971923828125,-0.08365362882614136,0.3818954825401306,0.6725800633430481
-0.9233670234680176,5.599884986877441,8.184568405151367,-0.11960741132497787,0.35643112659454346,0.6586523652076721
-0.8101499676704407,5.442183017730713,8.508332252502441,-0.08225736767053604,0.30981338024139404,0.6191206574440002
-0.8210866451263428,5.484187126159668,8.410207748413086,-0.009407324716448784,0.2764427065849304,0.5607219338417053
-0.8179454803466797,5.565053939819336,8.241512298583984,0.039217546582221985,0.27609363198280334,0.5223944783210754
-0.7339473366737366,5.557334899902344,8.330212593078613,0.08707447350025177,0.26628488302230835,0.4899488389492035
-0.5198960900306702,5.575051784515381,8.25306224822998,0.14407692849636078,0.2139773666858673,0.4426678419113159
-0.4550515413284302,5.694216251373291,8.090869903564453,0.17962928116321564,0.1632755547761917,0.3732735514640808
-0.3787722885608673,5.920841693878174,8.016630172729492,0.19851374626159668,0.09862855821847916,0.3220306932926178
-0.24643997848033905,6.0847392082214355,7.7908759117126465,0.2344849854707718,0.07974409312009811,0.2765823304653168
-0.13643118739128113,6.1877946853637695,7.474467754364014,0.25827381014823914,0.1313185691833496,0.2430720031261444
-0.22709481418132782,6.216525554656982,7.231350898742676,0.22277382016181946,0.20458748936653137,0.20144590735435486
-0.4564593434333801,6.255225658416748,7.326707363128662,0.12957324087619781,0.20635028183460236,0.163031205534935
-0.6853833794593811,6.1902852058410645,7.501838207244873,0.04447098821401596,0.13777628540992737,0.15001104772090912
-0.7330183982849121,6.0535759925842285,7.653994560241699,0.051539573818445206,0.09529497474431992,0.17067573964595795
-0.6518453359603882,6.004887580871582,7.613063335418701,0.09342747181653976,0.10892599821090698,0.18573793768882751
-0.4778155982494354,6.011294364929199,7.376602649688721,0.17292721569538116,0.1921258419752121,0.20943951606750488
-0.4215039908885956,6.224818706512451,7.382511138916016,0.17301449179649353,0.22162190079689026,0.2468419224023819
-0.26671406626701355,6.234778881072998,7.474544525146484,0.14004522562026978,0.1739918738603592,0.29312804341316223
0.5050041675567627,5.7827630043029785,7.5214996337890625,0.00038397242315113544,0.25448647141456604,0.2990097999572754
0.2033347636461258,5.9263482093811035,7.509921550750732,-0.09913469851016998,-0.003508111694827676,0.1733810007572174
0.09526050090789795,5.908334255218506,7.432779788970947,-0.13941690325737,0.005201081279665232,0.11025244742631912
-0.157576784491539,6.067491054534912,7.687800884246826,-0.031520646065473557,0.14414674043655396,0.12601277232170105
-0.2712439000606537,6.137593746185303,7.7140984535217285,0.11499974131584167,0.2906147837638855,0.17692402005195618
-0.24101950228214264,6.171572208404541,7.575464725494385,0.2053379863500595,0.37374481558799744,0.2163161039352417
-0.20842961966991425,6.198224067687988,7.425856113433838,0.19310322403907776,0.35908403992652893,0.22478094696998596
-0.2129402905702591,6.216870307922363,7.243580341339111,0.1393819898366928,0.34574973583221436,0.2209412306547165
-0.3935205638408661,6.257974147796631,7.330509185791016,0.05599016323685646,0.353638619184494,0.299515962600708
-0.34533965587615967,6.213719844818115,7.334378242492676,0.0846659243106842,0.38348373770713806,0.31499701738357544
-0.23102131485939026,6.552000999450684,7.158184051513672,-0.004345869645476341,0.2364571988582611,0.36679840087890625
-0.2269032895565033,6.54077672958374,7.190860271453857,0.01219985168427229,0.31087803840637207,0.38952258229255676
-0.3450714945793152,6.694465637207031,7.28027868270874,-0.003054326167330146,0.30836477875709534,0.41428878903388977
0.14241668581962585,6.342824935913086,7.431985378265381,-0.056007616221904755,0.25192081928253174,0.49043750762939453
0.41918641328811646,6.139317512512207,7.2940216064453125,0.03429571911692619,0.37983599305152893,0.5100899338722229
0.5568434596061707,6.083972930908203,7.2369537353515625,0.054942965507507324,0.42905429005622864,0.5037893056869507
0.5504364967346191,6.124923229217529,7.356098651885986,0.017872171476483345,0.3744080364704132,0.4780631363391876
0.6310253739356995,6.143062114715576,7.3178391456604,-0.056321773678064346,0.2364397495985031,0.4502251446247101
0.7449414730072021,6.107627868652344,7.18758487701416,-0.06806784123182297,0.2148849368095398,0.42668065428733826
0.38409698009490967,6.425031661987305,6.99546480178833,0.050160761922597885,0.7024950385093689,0.4917116165161133
-0.9366787672042847,6.928934574127197,6.195274353027344,-0.19884535670280457,0.17432348430156708,0.3741985857486725
-0.4677025079727173,6.499251842498779,7.716396808624268,-0.09499827027320862,0.36733943223953247,0.3902905285358429
0.2534980773925781,6.736297130584717,7.342633247375488,0.16255997121334076,0.4000294506549835,0.4997226595878601
0.09380482137203217,6.6482768058776855,7.0940961837768555,0.09754645079374313,0.4311137795448303,0.4795990288257599
-0.1932695358991623,6.565417766571045,7.379973411560059,0.017872171476483345,0.39440950751304626,0.4653920531272888
-0.18290744721889496,6.421239376068115,7.573702812194824,0.021868975833058357,0.2860943675041199,0.45982444286346436
-0.5778740644454956,6.93699836730957,6.171677112579346,0.00808087456971407,0.20053833723068237,0.4550073444843292
-0.35181355476379395,6.827123641967773,6.437692165374756,0.0154810706153512,0.26200881600379944,0.47919759154319763
0.1224011704325676,6.516423225402832,6.990503787994385,0.1497666984796524,0.4279547333717346,0.4580267667770386
