accX,accY,accZ,gyroX,gyroY,gyroZ
0.7313807606697083,8.424160957336426,5.426735877990723,-0.09794788062572479,-0.008517206646502018,-0.06813765317201614
0.8257888555526733,8.42674732208252,5.4875102043151855,-0.05855579674243927,-0.09049531817436218,-0.06600835174322128
1.1572229862213135,8.548640251159668,5.320260524749756,-0.06281439960002899,-0.07452555745840073,-0.10433578491210938
1.1653345823287964,8.492952346801758,5.067729949951172,-0.13521066308021545,-0.07133160531520844,-0.2065422683954239
0.6137871146202087,8.37853717803955,5.4139604568481445,-0.20228366553783417,0.013840461149811745,-0.21825341880321503
0.45709139108657837,8.125327110290527,5.794265270233154,-0.2203827202320099,-0.012775810435414314,-0.2001543641090393
0.414465069770813,8.141654968261719,6.181397914886475,-0.11711159348487854,0.06281439960002899,-0.1575683206319809
0.5374982953071594,8.1995849609375,5.833865165710449,-0.0074525559321045876,0.03087487444281578,-0.15650367736816406
0.6826347708702087,8.17708969116211,5.658044338226318,0.03406882658600807,0.021293016150593758,-0.1756673902273178
0.5422292351722717,8.07753849029541,5.434090614318848,0.03406882658600807,0.018099064007401466,-0.20760691165924072
0.2596368193626404,8.059189796447754,5.601187229156494,0.02874557301402092,0.009581857360899448,-0.19376645982265472
0.251017689704895,8.020421981811523,5.9167046546936035,0.06707300245761871,0.07878416031599045,-0.1575683206319809
0.2671163082122803,7.971235752105713,5.928464889526367,0.1085943877696991,0.1054004356265068,-0.14159856736660004
0.11099519580602646,7.927268981933594,5.60161828994751,0.19163715839385986,0.0734609067440033,-0.12243484705686569
-0.04422569274902344,7.936424255371094,5.289663314819336,0.2108008712530136,0.014905111864209175,-0.10114183276891708
-0.18861520290374756,7.960452556610107,5.308720588684082,0.19589576125144958,0.03087487444281578,-0.06813765317201614
-0.2706884443759918,8.023324012756348,5.396003723144531,0.19376645982265472,0.06068509817123413,-0.040456730872392654
-0.09126696735620499,8.20771598815918,5.224588871002197,0.20121900737285614,0.1054004356265068,0.006387905217707157
0.20009781420230865,8.37087631225586,4.927429676055908,0.1927018016576767,0.0596204474568367,-0.019163714721798897
0.08082824945449829,8.26768684387207,4.73739767074585,0.1650208830833435,-0.06068509817123413,-0.07133160531520844
-0.2905890643596649,8.112953186035156,4.877659320831299,0.12775810062885284,-0.13733996450901031,-0.06281439960002899
-0.20506815612316132,8.092794418334961,5.154926776885986,0.11072368919849396,-0.12137019634246826,-0.006387905217707157
0.09765470027923584,8.300007820129395,5.426965713500977,0.11817624419927597,-0.018099064007401466,0.02768092229962349
0.40693768858909607,8.253129005432129,5.4087982177734375,0.15650367736816406,0.1362753063440323,0.022357666864991188
0.3951677978038788,8.359871864318848,4.948192596435547,0.17779669165611267,0.12562879920005798,-0.017034413293004036
0.06327396631240845,8.360437393188477,4.7549614906311035,0.1788613349199295,0.05642649531364441,-0.05003859102725983
-0.07105033099651337,8.264640808105469,5.030447959899902,0.17247343063354492,0.0734609067440033,-0.024486970156431198
0.018598157912492752,8.27656364440918,5.220844268798828,0.1714087873697281,0.1298874020576477,-0.012775810435414314
0.03428496792912483,8.32301139831543,5.40907621383667,0.2108008712530136,0.2555162012577057,0.014905111864209175
-0.032264262437820435,8.40456771850586,5.131444931030273,0.2842617630958557,0.3183306157588959,-0.0074525559321045876
-0.10839029401540756,8.424860000610352,4.875331878662109,0.2949082851409912,0.29277896881103516,-0.014905111864209175
-0.31447359919548035,8.392107963562012,4.805315971374512,0.281067818403244,0.26509806513786316,-0.006387905217707157
-0.32076555490493774,8.299901962280273,4.910364151000977,0.2906496822834015,0.25125759840011597,0.038327429443597794
-0.3863092362880707,8.385748863220215,5.099007606506348,0.3683691918849945,0.28958502411842346,0.08517206460237503
0.022649148479104042,8.694552421569824,2.356928825378418,0.14159856736660004,-0.18418459594249725,0.1054004356265068
0.2793267071247101,8.587904930114746,3.456336736679077,-0.1714087873697281,-0.2831971347332001,0.08197811245918274
0.8177443742752075,8.704503059387207,4.29409646987915,-0.3534640669822693,-0.23315852880477905,-0.0031939526088535786
0.6510792374610901,8.56520938873291,4.722543239593506,-0.3683691918849945,-0.05749114602804184,-0.1054004356265068
0.1509304791688919,8.48392105102539,4.652403354644775,-0.3673045337200165,-0.12137019634246826,-0.12030554562807083
0.11900140345096588,8.469488143920898,4.883683204650879,-0.37688639760017395,-0.09368927031755447,-0.10752973705530167
-0.0055353944189846516,8.411654472351074,5.051411151885986,-0.3960501253604889,-0.039392080157995224,-0.07239625602960587
0.1267586201429367,8.42216968536377,6.055970191955566,-0.2565808594226837,-0.041521381586790085,-0.05855579674243927
-0.04466622695326805,8.443746566772461,5.567380905151367,-0.017034413293004036,0.042586032301187515,-0.044715333729982376
-0.40240782499313354,8.32137393951416,4.827026844024658,0.09049531817436218,-0.02874557301402092,0.018099064007401466
-0.2561604380607605,8.330836296081543,4.236817836761475,0.040456730872392654,-0.08091346174478531,0.1054004356265068
-0.2414504587650299,8.426095962524414,4.0607099533081055,-0.08304276317358017,-0.1756673902273178,0.12882275879383087
0.08226477354764938,8.589964866638184,4.408060550689697,-0.18737854063510895,-0.19483110308647156,0.15224507451057434
0.34998440742492676,8.838454246520996,5.100780010223389,-0.2555162012577057,-0.15224507451057434,0.12562879920005798
0.6606751680374146,8.846325874328613,5.579275608062744,-0.24380503594875336,-0.021293016150593758,0.04684463515877724
0.6611922979354858,8.694610595703125,5.995138645172119,-0.20867156982421875,0.02874557301402092,0.005323254037648439
0.5052627325057983,8.613121032714844,6.29207706451416,-0.05536184459924698,0.140533909201622,-0.03726277872920036
0.11679873615503311,8.535942077636719,6.060720920562744,0.09262461960315704,0.16927948594093323,-0.021293016150593758
-0.1752459853887558,8.256338119506836,6.000089645385742,0.28852036595344543,0.08304276317358017,0.019163714721798897
-0.2978578507900238,8.211853981018066,5.893576622009277,0.35665804147720337,0.08623671531677246,0.03300417587161064
-0.1807909607887268,8.166976928710938,5.582330226898193,0.39179152250289917,0.2555162012577057,0.07771950960159302
-0.19682253897190094,8.302680015563965,4.681938171386719,0.3609166443347931,0.36943385004997253,0.10433578491210938
-0.08633491396903992,8.444656372070312,3.8146719932556152,0.3268478214740753,0.15330971777439117,0.13840460777282715
0.09003156423568726,8.63415241241455,2.823568344116211,0.2416757345199585,-0.34175291657447815,0.13521066308021545
0.32762256264686584,8.509040832519531,3.504479169845581,0.05216789245605469,-0.4514119625091553,0.15650367736816406
0.8767566680908203,8.479573249816895,4.1588053703308105,-0.08091346174478531,-0.328977108001709,0.1714087873697281
1.5761891603469849,8.978677749633789,4.923302173614502,-0.2725506126880646,-0.009581857360899448,-0.004258603323251009
0.8563389182090759,8.44865894317627,4.458492279052734,-0.21505947411060333,-0.16715018451213837,-0.17034412920475006
-0.3214263617992401,8.08914566040039,4.514918327331543,-0.1927018016576767,-0.46844637393951416,-0.12775810062885284
-0.4380718767642975,7.976426601409912,4.731794834136963,-0.2352878302335739,-0.44715335965156555,-0.05642649531364441
0.04093126952648163,7.9374494552612305,5.75358247756958,-0.3502701222896576,-0.13840460777282715,0.09368927031755447
0.5246366858482361,8.277215003967285,6.384742259979248,-0.26190412044525146,0.15863297879695892,0.12243484705686569
0.8755499720573425,8.542932510375977,6.481870174407959,-0.041521381586790085,0.2203827202320099,0.043650683015584946
0.8280969262123108,8.39245319366455,6.198808670043945,0.08730136603116989,0.26829200983047485,0.006387905217707157
0.16356228291988373,8.333229064941406,4.71682596206665,0.17673203349113464,0.13733996450901031,-0.01171115878969431
0.06798575073480606,8.425463676452637,4.825226306915283,0.21186551451683044,-0.038327429443597794,0.07452555745840073
0.4805641770362854,8.526164054870605,4.2959160804748535,0.17034412920475006,-0.02981022372841835,0.05855579674243927
0.4753735363483429,8.90054988861084,2.7764599323272705,0.0021293016616255045,-0.03193952515721321,0.047909289598464966
0.9913144707679749,8.819788932800293,4.237631797790527,-0.1927018016576767,-0.2704213261604309,0.043650683015584946
0.9693835377693176,8.697224617004395,5.451472759246826,-0.36623987555503845,-0.12349949777126312,-0.0596204474568367
0.6269935369491577,8.828991889953613,5.37920618057251,-0.21825341880321503,0.048973940312862396,-0.1054004356265068
0.6496043801307678,8.873151779174805,5.190485954284668,-0.17673203349113464,-0.045779984444379807,-0.10220648348331451
1.015744924545288,8.814712524414062,5.56959342956543,-0.1469218134880066,-0.08943066745996475,-0.09581857919692993
1.0063883066177368,8.76895523071289,5.5230021476745605,-0.05110324174165726,-0.07452555745840073,-0.15330971777439117
0.4683058559894562,8.489446640014648,5.690433025360107,0.06281439960002899,-0.19376645982265472,-0.2587101459503174
-0.24472571909427643,8.096137046813965,5.821108818054199,0.15330971777439117,-0.02981022372841835,-0.24380503594875336
-0.4382442533969879,8.106690406799316,5.377434730529785,0.11711159348487854,0.19057250022888184,-0.1469218134880066
-0.2643103003501892,8.102811813354492,5.557861328125,0.09581857919692993,0.29916688799858093,-0.024486970156431198
0.16533400118350983,8.201654434204102,5.569210052490234,0.21186551451683044,0.28639107942581177,0.008517206646502018
-0.03218764811754227,8.163250923156738,5.0466132164001465,0.29277896881103516,0.27148595452308655,-0.018099064007401466
-0.3597910404205322,7.9590253829956055,4.527626991271973,0.27148595452308655,0.2981022298336029,0.044715333729982376
-0.31216558814048767,8.16977310180664,4.008563995361328,0.1756673902273178,0.30342549085617065,0.13095206022262573
0.09978074580430984,8.55107307434082,3.6246871948242188,0.06813765317201614,0.22996458411216736,0.14266321063041687
0.46473369002342224,8.733674049377441,3.477663993835449,-0.08943066745996475,0.02661627158522606,0.06813765317201614
0.4980897307395935,8.661426544189453,4.683173179626465,-0.22996458411216736,0.03087487444281578,-0.03619812801480293
0.16712486743927002,8.59119987487793,5.414496421813965,-0.18099063634872437,0.11178833991289139,-0.10114183276891708
-0.21195389330387115,8.48746395111084,4.719565391540527,-0.13521066308021545,0.09368927031755447,-0.10965903848409653
-0.002384624909609556,8.565725326538086,4.745422840118408,-0.2001543641090393,-0.21186551451683044,-0.05642649531364441
0.6159802079200745,8.763094902038574,4.893039703369141,-0.3545287251472473,-0.07452555745840073,-0.07771950960159302
0.39975506067276,8.666646957397461,5.172423839569092,-0.45460590720176697,0.06813765317201614,-0.18418459594249725
-0.4028005003929138,8.213068962097168,5.7649312019348145,-0.3641105890274048,0.09049531817436218,-0.16182692348957062
-0.6050243377685547,8.140563011169434,5.566174507141113,-0.18737854063510895,0.041521381586790085,0.02342231757938862
-0.13731226325035095,8.308895111083984,5.871693134307861,-0.01171115878969431,-0.15650367736816406,0.11498229205608368
0.12411541491746902,8.057072639465332,5.55979585647583,0.1895078420639038,-0.0947539210319519,0.07984881103038788
-0.009299078956246376,8.370551109313965,2.2338764667510986,0.1437278687953949,-0.0031939526088535786,-0.013840461149811745
0.2889801263809204,8.125642776489258,2.876997232437134,-0.6196267604827881,-0.35665804147720337,-0.043650683015584946
0.13926592469215393,8.215741157531738,7.201902389526367,0.10433578491210938,0.2555162012577057,0.08091346174478531
0.9479219317436218,8.579928398132324,5.401510715484619,0.25019294023513794,-0.126693457365036,-0.02874557301402092
0.2928108870983124,8.462247848510742,5.514095783233643,0.16927948594093323,-0.09155996888875961,-0.11285299062728882
-0.06697060912847519,8.118230819702148,6.220308780670166,0.19589576125144958,0.1511804163455963,-0.10220648348331451
-0.5939056873321533,8.160540580749512,5.30529260635376,0.2203827202320099,0.3832743167877197,-0.013840461149811745
-0.7386878728866577,8.188150405883789,4.796764373779297,0.19696040451526642,0.16395622491836548,0.09581857919692993
-0.33446037769317627,8.53347110748291,3.713167428970337,0.23209388554096222,-0.02661627158522606,0.10646508634090424
0.6633566617965698,8.257055282592773,5.01337194442749,-0.36304593086242676,0.014905111864209175,0.03087487444281578
-0.025675419718027115,8.270280838012695,6.160089492797852,-0.3534640669822693,0.1895078420639038,-0.048973940312862396
-0.44876915216445923,8.038723945617676,5.409526348114014,-0.10752973705530167,0.020228365436196327,0.038327429443597794
-0.14439909160137177,8.19185733795166,4.617802143096924,-0.07559020817279816,-0.1650208830833435,0.08943066745996475
1.054023265838623,8.570514678955078,5.167472839355469,-0.33855897188186646,0.005323254037648439,0.03300417587161064
0.8668542504310608,8.38798999786377,5.431620121002197,-0.3896622061729431,0.17460273206233978,-0.07133160531520844
0.24179521203041077,8.311442375183105,5.798430442810059,-0.26509806513786316,0.018099064007401466,-0.09155996888875961
0.032522834837436676,8.169236183166504,5.957156658172607,-0.07771950960159302,-0.18737854063510895,-0.07452555745840073
-0.11476845294237137,7.9796061515808105,5.708581447601318,0.040456730872392654,-0.12562879920005798,-0.02768092229962349
-0.17690277099609375,8.046653747558594,5.20877742767334,-0.017034413293004036,-0.10220648348331451,0.020228365436196327
0.09605537354946136,8.037717819213867,4.785587787628174,-0.005323254037648439,0.1330813616514206,0.03087487444281578
-0.02137543261051178,8.075460433959961,5.276896953582764,-0.20547761023044586,-0.27574455738067627,0.013840461149811745
0.3602028489112854,7.917395114898682,6.588498592376709,-0.203348308801651,-0.10965903848409653,-0.05216789245605469
0.0471561960875988,8.20740032196045,6.254334926605225,-0.07665485888719559,0.018099064007401466,-0.09368927031755447
-0.09813353419303894,8.021743774414062,6.864521026611328,0.039392080157995224,-0.2416757345199585,-0.06920230388641357
0.022850262001156807,8.024473190307617,6.89674711227417,0.25019294023513794,-0.010646508075296879,-0.03193952515721321
0.08394071459770203,8.131264686584473,6.275030136108398,0.3470761775970459,0.1192408949136734,-0.043650683015584946
-0.03639186546206474,8.01721477508545,5.222692489624023,0.39392080903053284,0.1895078420639038,-0.0734609067440033
-0.16531483829021454,8.053279876708984,4.617103099822998,0.357722669839859,0.16927948594093323,-0.06600835174322128
-0.27181851863861084,7.973333358764648,4.071062088012695,0.19802506268024445,0.08943066745996475,-0.0074525559321045876
-0.11661677807569504,8.085975646972656,4.415894508361816,0.03619812801480293,0.08623671531677246,0.05216789245605469
0.06444232910871506,8.136273384094238,4.878693580627441,-0.02555162087082863,0.2661627233028412,0.06600835174322128
0.03678451478481293,8.104525566101074,4.83934211730957,-0.020228365436196327,0.25445154309272766,0.06387905031442642
-0.11745953559875488,8.328575134277344,3.3819057941436768,-0.039392080157995224,0.07452555745840073,0.0596204474568367
0.7098999619483948,8.078620910644531,6.039000511169434,-0.2491282969713211,-0.2949082851409912,0.047909289598464966
0.4778347909450531,8.340402603149414,6.71549654006958,-0.09262461960315704,0.05003859102725983,-0.022357666864991188
0.32184773683547974,8.18886947631836,5.888443470001221,0.08197811245918274,0.013840461149811745,-0.0074525559321045876
0.2817975580692291,8.413415908813477,5.139919757843018,0.07452555745840073,-0.019163714721798897,-0.0010646508308127522
0.24508965015411377,8.369400978088379,5.185764312744141,0.045779984444379807,-0.06068509817123413,0.010646508075296879
0.44913309812545776,8.339578628540039,5.99888277053833,0.03087487444281578,-0.18311993777751923,-0.045779984444379807
0.3438073694705963,8.193934440612793,6.913027286529541,0.1756673902273178,0.05642649531364441,-0.1054004356265068
-0.4750670790672302,8.273488998413086,4.90505838394165,0.3055547773838043,0.07984881103038788,-0.021293016150593758
-0.25531765818595886,8.138121604919434,5.534034252166748,0.25445154309272766,0.010646508075296879,0.07878416031599045
-0.10014466941356659,8.018592834472656,6.165069103240967,0.35985198616981506,0.126693457365036,0.126693457365036
-0.4244728088378906,8.571864128112793,3.8323986530303955,0.5727821588516235,0.1469218134880066,0.06920230388641357
0.17777426540851593,8.381361961364746,3.924403190612793,0.30342549085617065,-0.4588645100593567,0.06920230388641357
0.6555611491203308,8.298638343811035,5.0016021728515625,-0.0031939526088535786,-0.07878416031599045,0.05216789245605469
0.8378939628601074,8.689410209655762,6.586458683013916,-0.0351334773004055,0.5174202919006348,0.01171115878969431
-0.027839776128530502,8.88393497467041,4.339184284210205,0.5131617188453674,-0.280003160238266,-0.02342231757938862
0.6249728202819824,8.837238311767578,4.260185241699219,0.4173431396484375,-0.17353808879852295,-0.0031939526088535786
1.1021755933761597,8.927183151245117,3.727034568786621,0.3183306157588959,-0.15543901920318604,-0.12030554562807083
2.0942466259002686,8.889201164245605,4.009100437164307,0.2587101459503174,-0.4524766206741333,-0.26083946228027344
0.5048126578330994,8.406435012817383,6.499204158782959,0.330041766166687,-0.12243484705686569,-0.46418777108192444
-0.09011775255203247,8.535233497619629,5.504547595977783,0.50357985496521,0.5163556337356567,-0.31407198309898376
-1.0715968608856201,8.58809757232666,4.387326717376709,0.716509997844696,0.14479251205921173,-0.29277896881103516
-1.5730384588241577,8.63187313079834,3.300943374633789,0.7431262731552124,-0.3119426965713501,-0.0841074138879776
-0.8217857480049133,8.537924766540527,3.5713350772857666,0.5078384280204773,-0.2246413230895996,0.0351334773004055
-0.2704394459724426,8.591564178466797,3.3033087253570557,0.280003160238266,0.019163714721798897,0.06494370102882385
0.026604369282722473,8.957704544067383,3.654432773590088,0.14585717022418976,-0.021293016150593758,0.03726277872920036
-0.06472006440162659,8.79464054107666,3.803342580795288,0.11285299062728882,-0.010646508075296879,0.010646508075296879
0.05549759790301323,8.855433464050293,3.949216604232788,0.10220648348331451,-0.041521381586790085,-0.03300417587161064
-0.08992621302604675,8.874855041503906,3.617016315460205,0.009581857360899448,0.07878416031599045,-0.06281439960002899
-0.5047647953033447,8.61507511138916,3.94753098487854,-0.07239625602960587,0.21293017268180847,-0.038327429443597794
-0.6428719162940979,8.725543975830078,4.186702251434326,-0.12243484705686569,0.281067818403244,0.047909289598464966
-0.29315564036369324,8.653861045837402,4.2475433349609375,-0.08623671531677246,0.20973621308803558,0.08517206460237503
-0.02248634211719036,8.787026405334473,4.530049800872803,0.004258603323251009,0.039392080157995224,0.10114183276891708
0.41987594962120056,8.912760734558105,5.032018184661865,0.09262461960315704,-0.02555162087082863,0.06813765317201614
-0.3379272222518921,8.811638832092285,5.116456985473633,0.19163715839385986,0.3055547773838043,0.038327429443597794
-0.2624332308769226,8.648574829101562,5.549166202545166,0.2704213261604309,0.3832743167877197,0.12456414848566055
-0.3176722824573517,8.755107879638672,4.904761791229248,0.5025151968002319,0.5259374976158142,0.11604694277048111
-1.4051377773284912,9.2617769241333,0.5229894518852234,0.4418300986289978,0.6260147094726562,0.12243484705686569
-0.41608351469039917,9.140650749206543,1.496395230293274,-0.08943066745996475,-0.20760691165924072,0.24806363880634308
1.2959431409835815,10.10651969909668,3.1008646488189697,-0.3683691918849945,-0.3119426965713501,0.05749114602804184
0.45244666934013367,8.961334228515625,2.6267266273498535,-0.5770407319068909,-0.2203827202320099,-0.21931807696819305
-1.073694109916687,8.98597526550293,3.382777214050293,-1.0039657354354858,-0.24593433737754822,-0.20547761023044586
-0.8502959609031677,9.092660903930664,4.966713905334473,-1.2147666215896606,0.09368927031755447,-0.045779984444379807
0.4462408721446991,9.19670295715332,5.36314582824707,-1.1711158752441406,0.19376645982265472,-0.12349949777126312
0.8837189674377441,8.84703540802002,5.408577919006348,-1.0050303936004639,-0.02768092229962349,-0.35239943861961365
0.2714546024799347,8.049162864685059,4.863868713378906,-0.832556962966919,-0.4418300986289978,-0.4663170576095581
-0.5029355883598328,7.8173651695251465,4.674678802490234,-0.7260918617248535,-0.8730136752128601,-0.4418300986289978
-1.1122503280639648,7.696333885192871,5.780407428741455,-0.6441137790679932,-0.8165872097015381,-0.27148595452308655
-0.7738634347915649,7.91934871673584,6.6190385818481445,-0.5216789245605469,-0.31087803840637207,-0.06281439960002899
-0.2563902735710144,8.02761459350586,6.462304592132568,-0.3790156841278076,0.24699899554252625,0.01171115878969431
-0.14750199019908905,8.103941917419434,5.946507453918457,-0.32365384697914124,0.38114500045776367,0.01171115878969431
-0.05992208048701286,8.368701934814453,4.76942253112793,-0.32152456045150757,0.2704213261604309,-0.0074525559321045876
0.02099236100912094,8.334417343139648,4.428133487701416,-0.4269249737262726,-0.09155996888875961,-0.048973940312862396
-0.002844311762601137,8.180374145507812,4.515474319458008,-0.4982565939426422,-0.2949082851409912,-0.08304276317358017
-0.14064498245716095,8.042076110839844,5.238953590393066,-0.580234706401825,-0.4620584547519684,-0.1054004356265068
-0.06832093745470047,8.118134498596191,6.375338077545166,-0.5738468170166016,-0.40776127576828003,-0.11072368919849396
0.13737928867340088,8.09908676147461,6.98121452331543,-0.4247956871986389,-0.15969762206077576,-0.14798647165298462
-0.24491725862026215,7.940293312072754,6.686957359313965,-0.280003160238266,0.013840461149811745,-0.17353808879852295
-0.5256804823875427,7.804264068603516,6.629631042480469,-0.12137019634246826,-0.039392080157995224,-0.14159856736660004
-0.6501407027244568,7.682705879211426,6.5300703048706055,0.05749114602804184,-0.2491282969713211,-0.09581857919692993
-0.34046506881713867,7.857942581176758,6.121676921844482,0.16395622491836548,-0.25445154309272766,-0.05536184459924698
-0.13072341680526733,7.897101879119873,5.805278301239014,0.15543901920318604,-0.2001543641090393,-0.05216789245605469
-0.005353434942662716,7.858258247375488,5.4691033363342285,0.070266954600811,-0.08623671531677246,-0.05429719388484955
-0.2554134428501129,7.933781147003174,5.3696770668029785,-0.03619812801480293,0.004258603323251009,-0.05429719388484955
-0.3403405547142029,7.858785152435303,5.6753692626953125,-0.1085943877696991,0.07665485888719559,-0.0021293016616255045
-0.39251500368118286,7.788491249084473,5.648592472076416,-0.08304276317358017,0.0010646508308127522,0.012775810435414314
-0.3442670702934265,7.7595601081848145,5.991068363189697,0.0074525559321045876,-0.16076228022575378,0.0010646508308127522
-0.33178848028182983,7.636928558349609,6.12904167175293,0.08836601674556732,-0.13733996450901031,-0.008517206646502018
-0.3615340292453766,7.6623358726501465,6.089958667755127,0.10220648348331451,-0.05110324174165726,0.005323254037648439
-0.2562466263771057,7.758965969085693,5.642003536224365,0.06920230388641357,0.09262461960315704,0.03087487444281578
-0.24853728711605072,7.842303276062012,5.470473289489746,0.02555162087082863,0.047909289598464966,0.02661627158522606
-0.26579469442367554,7.840292453765869,5.584590435028076,0.01171115878969431,0.02981022372841835,0.024486970156431198
-0.34396061301231384,7.749868392944336,5.784640312194824,-0.008517206646502018,0.11178833991289139,0.03300417587161064
-0.5219455361366272,7.753564834594727,5.761148452758789,0.0031939526088535786,0.1192408949136734,0.0841074138879776
0.04262636601924896,7.925401210784912,5.5171027183532715,0.15224507451057434,-0.041521381586790085,0.08836601674556732
0.22166477143764496,8.024971961975098,5.304880142211914,0.09581857919692993,-0.024486970156431198,0.03619812801480293
-0.16711528599262238,8.024683952331543,5.49692440032959,0.03726277872920036,-0.048973940312862396,-0.01171115878969431
-0.4541800618171692,7.870603084564209,5.818752765655518,0.0351334773004055,-0.02874557301402092,0.018099064007401466
-0.630211353302002,7.763821125030518,5.9985480308532715,0.12882275879383087,0.10433578491210938,0.10965903848409653
-0.4892694652080536,7.960787773132324,4.3897881507873535,0.12562879920005798,-0.13201670348644257,0.13733996450901031
-0.2059205025434494,7.909542083740234,4.770791530609131,-0.03619812801480293,-0.18418459594249725,0.14798647165298462
0.5090934634208679,8.078831672668457,5.9602885246276855,-0.26083946228027344,0.10007718205451965,0.11391764134168625
0.48688486218452454,8.228736877441406,6.544090747833252,-0.22144737839698792,0.3076840937137604,-0.005323254037648439
-0.1939590573310852,7.9195404052734375,6.070699691772461,-0.045779984444379807,0.07559020817279816,-0.08197811245918274
-0.31569942831993103,8.020087242126465,6.063469409942627,-0.012775810435414314,-0.0596204474568367,-0.04684463515877724
0.5216103792190552,8.390881538391113,6.459163665771484,-0.05855579674243927,0.06707300245761871,-0.03406882658600807
0.5667554140090942,8.132068634033203,6.795596599578857,0.05429719388484955,0.13840460777282715,-0.17353808879852295
-0.6600431203842163,7.810317039489746,6.651523590087891,0.27893853187561035,0.12137019634246826,-0.21931807696819305
-1.229863166809082,7.672995090484619,5.69093132019043,0.357722669839859,0.19908970594406128,-0.08623671531677246
-0.9994259476661682,7.596773624420166,4.9344305992126465,0.21825341880321503,0.22677062451839447,0.05536184459924698
-0.7392720580101013,7.661320686340332,5.034460544586182,0.06707300245761871,0.2938436269760132,0.16076228022575378
-0.4842991232872009,7.807865142822266,4.713321208953857,-0.06068509817123413,0.43331289291381836,0.19908970594406128
-0.24932259321212769,8.220625877380371,3.8609089851379395,-0.16715018451213837,0.2906496822834015,0.16182692348957062
-0.13768574595451355,7.891461372375488,3.979536533355713,-0.3012961745262146,0.06387905031442642,0.12456414848566055
-0.18052281439304352,7.836777687072754,5.747175693511963,-0.4939979910850525,0.06600835174322128,0.08943066745996475
-0.23748566210269928,7.908498764038086,6.67195987701416,-0.37369245290756226,0.24699899554252625,0.017034413293004036
0.14474384486675262,8.18932819366455,6.222932815551758,-0.07452555745840073,0.14905111491680145,0.048973940312862396
0.24227406084537506,8.132816314697266,6.289682388305664,0.017034413293004036,-0.06068509817123413,-0.05003859102725983
-0.2672407925128937,7.9119553565979,6.165653228759766,0.1469218134880066,-0.13733996450901031,-0.1054004356265068
-0.5959646701812744,7.81059455871582,5.949102878570557,0.1682148277759552,-0.16395622491836548,-0.08836601674556732
-1.0178613662719727,7.696170806884766,5.765572547912598,0.14905111491680145,-0.12775810062885284,0.022357666864991188
-0.6550727486610413,7.844285488128662,5.582435607910156,0.18737854063510895,-0.20441296696662903,0.15224507451057434
0.2307148575782776,8.343984603881836,5.0330810546875,0.2949082851409912,-0.4737696349620819,0.13414600491523743
0.3869125545024872,8.065433502197266,5.24349308013916,0.13521066308021545,-0.7846476435661316,-0.0021293016616255045
0.3340964913368225,7.863640785217285,6.313825607299805,-0.405631959438324,0.22677062451839447,-0.070266954600811
0.14945563673973083,8.085707664489746,6.64353609085083,-0.4876100718975067,0.5568124055862427,-0.07559020817279816
-0.7173698544502258,7.571595668792725,6.673463821411133,-0.12456414848566055,0.35559338331222534,-0.16076228022575378
-0.2702862322330475,8.001537322998047,5.3295698165893555,-0.03726277872920036,-0.27148595452308655,0.0031939526088535786
0.40843167901039124,8.031033515930176,6.190476417541504,-0.14585717022418976,-0.12030554562807083,-0.0734609067440033
0.13855724036693573,7.797608375549316,6.295007228851318,-0.12882275879383087,0.11604694277048111,-0.1927018016576767
-0.5728175640106201,7.587713241577148,5.795701503753662,-0.019163714721798897,0.10007718205451965,-0.2384817898273468
-1.4738225936889648,7.421096324920654,5.341531276702881,-0.004258603323251009,-0.06068509817123413,-0.140533909201622
-1.426896333694458,7.319811820983887,5.887246131896973,-0.05536184459924698,-0.06600835174322128,0.07984881103038788
-0.7157610058784485,7.3779144287109375,6.280996799468994,0.041521381586790085,0.018099064007401466,0.1927018016576767
-0.39150944352149963,8.040304183959961,5.349977493286133,0.2725506126880646,0.18418459594249725,0.17779669165611267
-0.11993034929037094,7.706360816955566,4.454862117767334,0.07559020817279816,-0.45354124903678894,0.11072368919849396
0.4679323434829712,7.831539154052734,5.357466697692871,-0.19589576125144958,-0.281067818403244,0.0351334773004055
0.2281099557876587,8.13913631439209,6.496100902557373,-0.15011577308177948,-0.010646508075296879,-0.10433578491210938
-0.08844181150197983,7.781930923461914,5.982008934020996,-0.09581857919692993,-0.2704213261604309,-0.1895078420639038
-0.3301125168800354,7.88568639755249,6.492347240447998,-0.09581857919692993,-0.2597748041152954,-0.1575683206319809
-0.337783545255661,7.713964939117432,6.607421875,-0.10114183276891708,0.008517206646502018,-0.10220648348331451
-0.34714967012405396,7.696937084197998,6.6255316734313965,-0.05110324174165726,0.11285299062728882,-0.040456730872392654
-0.2778902053833008,7.771080493927002,6.506664752960205,0.045779984444379807,0.0841074138879776,-0.013840461149811745
-0.4045434892177582,7.527868270874023,6.411844730377197,0.19908970594406128,-0.039392080157995224,-0.05216789245605469
-0.8212207555770874,7.582571029663086,6.544674873352051,0.3928561508655548,0.11711159348487854,-0.021293016150593758
-0.9164429306983948,7.609299659729004,4.13955545425415,0.20760691165924072,-0.18099063634872437,0.07559020817279816
-0.09862195700407028,7.805289268493652,5.003096103668213,-0.2001543641090393,-0.07665485888719559,0.1575683206319809
0.5306029915809631,8.046921730041504,6.576776504516602,-0.4003087282180786,0.29597294330596924,0.06281439960002899
-0.10133219510316849,7.908229827880859,6.5532941818237305,-0.1511804163455963,0.21505947411060333,-0.05642649531364441
-0.2189832627773285,7.983628273010254,6.6571736335754395,0.015969762578606606,-0.0947539210319519,-0.018099064007401466
0.371331125497818,8.027643203735352,6.648525714874268,0.039392080157995224,0.1788613349199295,-0.040456730872392654
-0.13654610514640808,7.8038716316223145,6.718168258666992,0.19163715839385986,0.02661627158522606,-0.1511804163455963
-0.8832018375396729,7.480807781219482,6.398839473724365,0.38433894515037537,-0.02555162087082863,-0.1298874020576477
-0.7259794473648071,7.629238605499268,5.432682991027832,0.28213247656822205,0.20121900737285614,-0.0351334773004055
-0.3782742917537689,7.754800319671631,5.46489953994751,0.10220648348331451,0.34601151943206787,0.0
-0.40624815225601196,7.697071075439453,5.724335193634033,0.10114183276891708,0.35559338331222534,-0.018099064007401466
-0.9288449287414551,7.622008323669434,5.831422805786133,0.1682148277759552,0.3023608326911926,0.012775810435414314
-1.1160809993743896,7.556866645812988,5.8735032081604,0.18311993777751923,0.28213247656822205,0.070266954600811
-1.0598077774047852,7.558648109436035,6.095608711242676,0.22996458411216736,0.405631959438324,0.21293017268180847
-0.5751351118087769,7.815478801727295,5.310243606567383,0.25125759840011597,0.46738171577453613,0.28852036595344543
-0.1512848138809204,8.614347457885742,3.273237466812134,0.3332357108592987,-0.22677062451839447,0.09155996888875961
-0.3547440767288208,8.0906400680542,3.7172374725341797,0.140533909201622,-0.50357985496521,0.020228365436196327
-0.07993760704994202,7.75736665725708,5.2541046142578125,-0.2693566679954529,-0.09688322991132736,0.0947539210319519
-0.23835714161396027,7.853891372680664,6.046364784240723,-0.24806363880634308,0.24061109125614166,-0.06174974888563156
-0.838142991065979,7.971858501434326,5.662392616271973,-0.10752973705530167,-0.13095206022262573,-0.039392080157995224
-0.7874242067337036,8.047122955322266,5.791660308837891,-0.12349949777126312,-0.19376645982265472,0.0010646508308127522
-0.20599710941314697,7.995436668395996,6.3987531661987305,-0.12456414848566055,-0.0734609067440033,0.02874557301402092
-0.11554417759180069,7.944545269012451,6.18491268157959,-0.06813765317201614,0.0351334773004055,-0.009581857360899448
-0.10883083194494247,7.920967102050781,6.008632183074951,-0.05003859102725983,0.070266954600811,-0.024486970156431198
-0.40580761432647705,7.846776008605957,5.471315860748291,-0.01171115878969431,0.03726277872920036,-0.05216789245605469
-0.6656838655471802,7.894564151763916,5.065948963165283,-0.06068509817123413,-0.05536184459924698,0.01171115878969431
-0.27044904232025146,7.958738327026367,5.11064338684082,-0.20441296696662903,-0.02342231757938862,0.06707300245761871
0.08739794045686722,7.9046196937561035,5.759203910827637,-0.21825341880321503,-0.10220648348331451,0.047909289598464966
-0.4246739149093628,7.610228538513184,5.119665145874023,-0.4279896318912506,-0.5216789245605469,0.03619812801480293
-0.03712927922606468,7.616941928863525,6.397124767303467,-0.582364022731781,-0.26083946228027344,0.041521381586790085
0.04427357763051987,7.696305274963379,7.560534477233887,-0.5259374976158142,0.22357667982578278,-0.02342231757938862
-0.07083963602781296,7.7587456703186035,7.118363857269287,-0.39392080903053284,0.14479251205921173,-0.06494370102882385
-0.41668686270713806,7.5894951820373535,6.77445125579834,-0.24699899554252625,-0.2416757345199585,-0.11391764134168625
-0.44208455085754395,7.6891608238220215,7.297603607177734,-0.19163715839385986,-0.21931807696819305,-0.10007718205451965
-0.739444375038147,7.506377696990967,7.333085536956787,-0.09262461960315704,0.0031939526088535786,-0.05216789245605469
-0.6698018908500671,7.605287075042725,6.891499042510986,0.0351334773004055,0.024486970156431198,0.05110324174165726
-0.14145901799201965,7.763926982879639,5.927794456481934,0.15330971777439117,-0.09049531817436218,0.0021293016616255045
-0.313860684633255,7.652759075164795,6.080831527709961,0.07984881103038788,-0.043650683015584946,-0.012775810435414314
-0.3674333393573761,7.61271858215332,6.030294895172119,0.08836601674556732,0.010646508075296879,-0.0010646508308127522
-0.3783892095088959,7.626327037811279,6.29116678237915,0.15543901920318604,0.05323254317045212,0.0031939526088535786
-0.42950063943862915,7.755097389221191,4.258557319641113,0.03406882658600807,-0.281067818403244,-0.008517206646502018
-0.03521391749382019,7.521614074707031,6.799829483032227,-0.25764551758766174,-0.0031939526088535786,-0.005323254037648439
-0.14817234873771667,7.614959239959717,6.775284290313721,-0.11391764134168625,0.19696040451526642,-0.02661627158522606
-0.45988786220550537,7.500123977661133,6.532349586486816,0.021293016150593758,-0.1575683206319809,-0.02874557301402092
-0.3837234675884247,7.486486911773682,6.84361457824707,0.08304276317358017,-0.19163715839385986,0.0074525559321045876
-0.16272909939289093,7.422839164733887,7.1677703857421875,0.15011577308177948,-0.08091346174478531,-0.0010646508308127522
-0.2915180027484894,7.454366207122803,6.721596717834473,0.2384817898273468,0.07984881103038788,-0.024486970156431198
-0.5738805532455444,7.4176201820373535,6.062750816345215,0.28852036595344543,0.04684463515877724,-0.013840461149811745
-0.5904963612556458,7.457277297973633,5.669766426086426,0.2587101459503174,0.021293016150593758,0.03300417587161064
-0.4830637276172638,7.540088176727295,5.641218185424805,0.1543743759393692,0.09581857919692993,0.06707300245761871
-0.4697040617465973,7.5504889488220215,5.685367107391357,0.1330813616514206,0.15543901920318604,0.10752973705530167
-0.36460819840431213,7.754627704620361,6.094018936157227,0.27467992901802063,0.13946926593780518,0.09581857919692993
-0.4045626223087311,7.660995006561279,4.607669830322266,0.2565808594226837,-0.29597294330596924,0.10646508634090424
-0.2614755630493164,7.645203113555908,4.923465251922607,0.11072368919849396,-0.2171887755393982,0.12775810062885284
0.11345642805099487,7.7999162673950195,5.272702693939209,-0.1714087873697281,0.05003859102725983,0.11817624419927597
0.20525012910366058,7.942448139190674,6.126436710357666,-0.28639107942581177,0.2555162012577057,0.06494370102882385
-0.2770186960697174,7.684554100036621,6.178199291229248,-0.11498229205608368,-0.10007718205451965,-0.0021293016616255045
-0.29315564036369324,7.895244121551514,6.190802097320557,-0.10965903848409653,-0.09901253134012222,0.0596204474568367
-0.19627664983272552,7.842705726623535,6.122117042541504,-0.16182692348957062,0.01171115878969431,0.08517206460237503
0.23616406321525574,7.940082550048828,6.30823278427124,-0.23315852880477905,0.10007718205451965,0.13521066308021545
0.5575425624847412,8.047658920288086,6.539675712585449,-0.17673203349113464,0.039392080157995224,0.09368927031755447
0.5124166011810303,7.934748649597168,6.659769058227539,-0.0021293016616255045,-0.039392080157995224,-0.03300417587161064
-0.21184854209423065,7.791297435760498,6.222089767456055,0.06174974888563156,-0.022357666864991188,-0.05642649531364441
-0.2952529489994049,7.659462928771973,6.147840976715088,0.06068509817123413,-0.009581857360899448,0.0074525559321045876
-0.10051816701889038,7.603151321411133,6.08333158493042,0.08091346174478531,-0.017034413293004036,0.015969762578606606
-0.1517828106880188,7.503169536590576,6.561923027038574,0.17779669165611267,0.11072368919849396,0.02342231757938862
-0.45191991329193115,7.535261154174805,4.282843589782715,0.10327113419771194,-0.2065422683954239,0.03193952515721321
0.10275913774967194,7.633548259735107,5.272846221923828,-0.1437278687953949,-0.22996458411216736,0.0596204474568367
0.09226295351982117,7.459604263305664,6.709232807159424,-0.30342549085617065,0.12349949777126312,0.0021293016616255045
-0.11157937347888947,7.646093845367432,6.458866596221924,-0.12349949777126312,0.20547761023044586,-0.03406882658600807
-0.3784371018409729,7.60960578918457,7.013747215270996,0.038327429443597794,-0.16927948594093323,-0.012775810435414314
-0.1721814125776291,7.7131218910217285,7.240908622741699,0.11072368919849396,-0.09901253134012222,0.009581857360899448
0.012018891982734203,7.81798791885376,6.52554988861084,0.14585717022418976,0.11498229205608368,-0.008517206646502018
-0.042023029178380966,7.75349760055542,6.199239253997803,0.1543743759393692,0.09368927031755447,-0.021293016150593758
-0.26159048080444336,7.84306001663208,5.895731449127197,0.15650367736816406,-0.03193952515721321,-0.042586032301187515
-0.2857336103916168,7.775917053222656,5.834114074707031,0.07984881103038788,0.02555162087082863,-0.02768092229962349
-0.4495544731616974,7.761216640472412,5.70971155166626,0.008517206646502018,0.13521066308021545,0.019163714721798897
-0.37167587876319885,7.6947245597839355,5.660524845123291,-0.009581857360899448,0.08623671531677246,0.08517206460237503
-0.3114377558231354,7.301290512084961,6.6654953956604,0.06387905031442642,-0.014905111864209175,0.11285299062728882
-0.34151849150657654,7.569699764251709,4.720743179321289,0.13201670348644257,-0.005323254037648439,0.1085943877696991
-0.3131137192249298,7.720170497894287,4.443216800689697,-0.06281439960002899,-0.22889992594718933,0.13521066308021545
0.010122684761881828,7.665084362030029,6.789793491363525,0.28213247656822205,0.0021293016616255045,0.15011577308177948
0.6161047220230103,8.086770057678223,6.880409240722656,0.43650683760643005,-0.10752973705530167,0.09794788062572479
0.3356192111968994,7.911457538604736,6.350935935974121,0.5003858804702759,0.021293016150593758,-0.0010646508308127522
-0.21051736176013947,7.766215801239014,5.864377021789551,0.5110324025154114,0.019163714721798897,0.0010646508308127522
-0.32541990280151367,7.803229808807373,6.2833428382873535,0.5919458866119385,0.06707300245761871,0.03406882658600807
-0.33155861496925354,7.797685146331787,6.027872085571289,0.7250272035598755,0.15330971777439117,0.08304276317358017
-0.4598974287509918,7.968688488006592,5.520760536193848,0.811263918876648,0.12882275879383087,0.1788613349199295
0.0039264908991754055,8.241206169128418,4.824143886566162,0.8059406876564026,-0.017034413293004036,0.22144737839698792
0.32625308632850647,8.132452011108398,4.992188453674316,0.6952170133590698,-0.16608552634716034,0.15224507451057434
-0.1971289962530136,8.058489799499512,5.470712184906006,0.638790488243103,-0.0074525559321045876,0.14585717022418976
-0.29735028743743896,8.31302261352539,5.2248759269714355,0.6079156398773193,0.14798647165298462,0.22357667982578278
0.0965437963604927,8.5928955078125,4.756206035614014,0.5408426523208618,0.2491282969713211,0.23635248839855194
0.32785242795944214,8.55555534362793,4.77813720703125,0.4631231129169464,0.2917143404483795,0.18311993777751923
0.34573230147361755,8.605794906616211,4.489319801330566,0.38433894515037537,0.3396236300468445,0.13414600491523743
0.2103162556886673,8.721579551696777,4.454230308532715,0.3087487518787384,0.33855897188186646,0.11391764134168625
0.23196941614151,8.691095352172852,4.306785583496094,0.2831971347332001,0.2906496822834015,0.09049531817436218
-0.27796682715415955,8.46701717376709,4.543122291564941,0.25445154309272766,0.2310292273759842,0.11711159348487854
-0.4187554717063904,8.352785110473633,4.61448860168457,0.24806363880634308,0.34601151943206787,0.2139948159456253
-0.13892115652561188,8.819089889526367,3.4118905067443848,0.2139948159456253,0.5738468170166016,0.23954643309116364
0.33020830154418945,8.878236770629883,2.809767961502075,-0.05216789245605469,0.12137019634246826,0.15224507451057434
0.9367170333862305,9.325760841369629,4.079892158508301,-0.23954643309116364,0.08943066745996475,-0.0031939526088535786
0.9606974124908447,9.096739768981934,3.840385675430298,-0.2704213261604309,0.018099064007401466,-0.11072368919849396
