accX,accY,accZ,gyroX,gyroY,gyroZ
0.4431380033493042,7.089796543121338,5.374542713165283,-0.008517206646502018,0.10327113419771194,0.10220648348331451
0.6362734436988831,7.023629665374756,5.96710729598999,-0.12137019634246826,0.044715333729982376,0.1192408949136734
0.8579286336898804,6.976550102233887,6.348417282104492,-0.15224507451057434,0.05429719388484955,0.11285299062728882
0.6508206129074097,6.972586154937744,6.325969219207764,-0.20228366553783417,0.05003859102725983,0.12137019634246826
0.5854780673980713,6.875687599182129,6.4571428298950195,-0.24806363880634308,-0.047909289598464966,0.13840460777282715
0.7053797245025635,6.782437801361084,6.662364482879639,-0.2352878302335739,-0.11604694277048111,0.15330971777439117
1.2682468891143799,6.781796455383301,6.975286483764648,-0.17353808879852295,-0.047909289598464966,0.12456414848566055
1.5309100151062012,6.834593772888184,6.955807209014893,-0.05536184459924698,0.05855579674243927,0.038327429443597794
0.7901344895362854,7.061324119567871,6.132536888122559,-0.05110324174165726,-0.06068509817123413,-0.070266954600811
0.27527573704719543,7.234329700469971,6.103634357452393,-0.1054004356265068,-0.0841074138879776,-0.019163714721798897
0.2161485254764557,7.278985977172852,6.033445835113525,-0.1330813616514206,-0.042586032301187515,0.018099064007401466
0.4697902500629425,7.3148417472839355,6.133312702178955,-0.2001543641090393,0.02342231757938862,0.070266954600811
0.7215932607650757,7.295841217041016,6.617860794067383,-0.23315852880477905,0.03193952515721321,0.06174974888563156
0.538743257522583,7.301395893096924,6.8642144203186035,-0.18418459594249725,0.02874557301402092,0.039392080157995224
-0.04057693108916283,7.3402581214904785,6.450831413269043,-0.1650208830833435,0.009581857360899448,0.07133160531520844
-0.08729259669780731,7.382309913635254,6.221208572387695,-0.22889992594718933,-0.013840461149811745,0.16608552634716034
0.3510186970233917,7.363932132720947,6.4911885261535645,-0.26829200983047485,0.01171115878969431,0.21505947411060333
0.7070460915565491,7.390009880065918,6.813936710357666,-0.24274039268493652,0.08091346174478531,0.2246413230895996
0.5962902903556824,7.452738285064697,6.690731048583984,-0.19908970594406128,0.16182692348957062,0.18844319880008698
0.10526825487613678,7.456032752990723,6.3109049797058105,-0.20973621308803558,0.11604694277048111,0.2108008712530136
0.1137533113360405,7.466931343078613,6.180545330047607,-0.27893853187561035,-0.004258603323251009,0.28958502411842346
0.5528690814971924,7.409431457519531,6.4938507080078125,-0.3364296555519104,-0.03619812801480293,0.32365384697914124
0.9982193112373352,7.42034912109375,7.355524063110352,-0.3162012994289398,0.11711159348487854,0.30661943554878235
0.3149237036705017,7.291876316070557,7.123133182525635,-0.14585717022418976,0.30981338024139404,0.28958502411842346
0.19703321158885956,7.268710136413574,6.902943134307861,-0.17034412920475006,0.2001543641090393,0.36198127269744873
0.5733059644699097,7.177213191986084,7.313625335693359,-0.20228366553783417,0.1054004356265068,0.41201987862586975
1.0180624723434448,7.125805377960205,7.644542694091797,-0.15224507451057434,0.08304276317358017,0.4109552204608917
1.2321327924728394,7.1766862869262695,7.579639911651611,-0.08517206460237503,0.11498229205608368,0.3715631365776062
0.9726396203041077,7.0642547607421875,7.373260021209717,-0.05749114602804184,0.13733996450901031,0.3364296555519104
0.6882851123809814,7.066773414611816,7.27256965637207,-0.05855579674243927,0.14266321063041687,0.3438822329044342
0.5078485012054443,7.023725986480713,7.422945022583008,-0.0841074138879776,0.11285299062728882,0.3992440700531006
0.7153108716011047,7.036549091339111,7.575436115264893,-0.07559020817279816,0.09901253134012222,0.4269249737262726
0.9978362321853638,6.995924472808838,7.794170379638672,-0.044715333729982376,0.10646508634090424,0.42266637086868286
0.9339110851287842,6.950893878936768,7.867461681365967,0.010646508075296879,0.20121900737285614,0.4003087282180786
0.7088082432746887,6.813611030578613,7.876530647277832,0.06387905031442642,0.37688639760017395,0.41947242617607117
0.6809109449386597,6.711004734039307,7.768092632293701,0.09688322991132736,0.46525242924690247,0.44395941495895386
0.8176677823066711,6.511941432952881,7.3405938148498535,0.10007718205451965,0.49612727761268616,0.45354124903678894
0.8672181367874146,6.408195972442627,7.188169479370117,0.07239625602960587,0.3960501253604889,0.4098905622959137
0.8524411916732788,6.395927906036377,7.285843372344971,0.06494370102882385,0.3151366412639618,0.3790156841278076
0.8191043138504028,6.300715446472168,7.63238000869751,0.12137019634246826,0.29277896881103516,0.3374943137168884
0.8030056953430176,6.140562534332275,6.791957378387451,0.281067818403244,0.6228207349777222,0.34601151943206787
0.8535137176513672,6.14404821395874,6.404355525970459,0.17034412920475006,0.6409198045730591,0.32152456045150757
0.49536991119384766,6.108394145965576,6.517611026763916,0.02661627158522606,0.5546830892562866,0.26509806513786316
-0.12937307357788086,6.0296244621276855,7.1841278076171875,-0.044715333729982376,0.48867473006248474,0.25125759840011597
-0.38443219661712646,5.990627765655518,7.806917190551758,0.0010646508308127522,0.56107097864151,0.2831971347332001
-0.31295090913772583,6.071723937988281,8.259047508239746,0.13840460777282715,0.7420616149902344,0.3332357108592987
-0.1587834656238556,6.195092678070068,7.94344425201416,0.3162012994289398,0.9326341152191162,0.38114500045776367
0.02279280126094818,6.315520763397217,7.190773963928223,0.3758217394351959,1.0252587795257568,0.40137335658073425
0.18653704226016998,6.554510116577148,6.835829257965088,0.35239943861961365,1.0210001468658447,0.3534640669822693
0.1870637685060501,6.618502616882324,6.665591716766357,0.27893853187561035,1.0390992164611816,0.30342549085617065
-0.07932469248771667,6.742368698120117,6.314103603363037,0.16289158165454865,0.890048086643219,0.24380503594875336
-0.295185923576355,6.8842973709106445,6.289041042327881,0.039392080157995224,0.6441137790679932,0.21293017268180847
-0.23346339166164398,7.028763294219971,6.958746910095215,-0.07452555745840073,0.5632002949714661,0.16076228022575378
-0.2147790491580963,7.069493770599365,7.232873439788818,0.02768092229962349,0.6345319151878357,0.12775810062885284
-0.36700236797332764,7.0303053855896,6.828186511993408,0.126693457365036,0.6132388710975647,0.09688322991132736
-0.6615561842918396,6.9519476890563965,6.492778301239014,-0.203348308801651,0.15224507451057434,0.10114183276891708
-0.6451894640922546,6.72562837600708,7.453159809112549,-0.24274039268493652,0.07133160531520844,0.09368927031755447
-0.38473865389823914,6.741267681121826,8.123382568359375,-0.13414600491523743,0.07878416031599045,0.07133160531520844
-0.3502429723739624,6.874758720397949,7.882688999176025,0.020228365436196327,0.047909289598464966,0.015969762578606606
-0.46455174684524536,6.889650344848633,7.519143581390381,0.05429719388484955,0.0351334773004055,0.005323254037648439
-1.0722001791000366,6.928197383880615,5.831557273864746,0.10433578491210938,-0.5195496082305908,-0.03619812801480293
-0.4495736062526703,7.1808905601501465,5.8985371589660645,-0.26829200983047485,-0.20441296696662903,-0.005323254037648439
0.31759563088417053,6.809760570526123,8.469822883605957,-0.29916688799858093,0.09794788062572479,-0.08943066745996475
-0.24950455129146576,7.00048303604126,8.584342956542969,-0.1682148277759552,0.020228365436196327,-0.17992599308490753
-0.7607623934745789,6.93841552734375,8.686823844909668,0.09155996888875961,-0.2831971347332001,-0.07984881103038788
0.2261562943458557,7.151968955993652,6.9439802169799805,0.24699899554252625,-0.3545287251472473,-0.09794788062572479
0.2573288083076477,7.195964813232422,6.542989253997803,0.21825341880321503,-0.32152456045150757,-0.10646508634090424
0.426924467086792,7.192459583282471,6.134346961975098,0.07771950960159302,-0.32045990228652954,-0.10433578491210938
0.79484623670578,7.138925075531006,6.567094326019287,-0.040456730872392654,-0.36198127269744873,-0.13840460777282715
0.8141147494316101,7.038550853729248,7.0276713371276855,-0.0841074138879776,-0.39498546719551086,-0.22251202166080475
0.3496779501438141,6.9186110496521,7.245314121246338,-0.07771950960159302,-0.44289475679397583,-0.280003160238266
-0.01158793643116951,6.889459133148193,7.132221698760986,-0.05216789245605469,-0.48867473006248474,-0.2597748041152954
0.041218578815460205,6.855605125427246,7.261470317840576,-0.0031939526088535786,-0.42586034536361694,-0.2171887755393982
0.358287513256073,6.8571085929870605,7.397623538970947,0.08730136603116989,-0.30661943554878235,-0.2001543641090393
0.1902911514043808,6.905155181884766,7.114552021026611,0.1852492392063141,-0.2938436269760132,-0.22889992594718933
-0.1309245228767395,6.926138401031494,6.274513244628906,0.18844319880008698,-0.43011894822120667,-0.19802506268024445
0.028615498915314674,6.975746154785156,5.883434772491455,0.041521381586790085,-0.4705756604671478,-0.1437278687953949
0.25771188735961914,6.8466410636901855,6.325854301452637,-0.07559020817279816,-0.38433894515037537,-0.12562879920005798
0.31849583983421326,6.852435111999512,6.962233543395996,-0.12137019634246826,-0.2672273516654968,-0.13733996450901031
0.09797073155641556,6.693029403686523,7.310925006866455,-0.045779984444379807,-0.30342549085617065,-0.14905111491680145
0.12674903869628906,6.665888786315918,6.8164262771606445,0.03087487444281578,-0.4695110321044922,-0.13201670348644257
0.31107383966445923,6.669086933135986,6.744236469268799,0.019163714721798897,-0.46525242924690247,-0.1298874020576477
0.7159907817840576,6.683385372161865,6.702203750610352,-0.005323254037648439,-0.35878732800483704,-0.15543901920318604
0.7585693001747131,6.875313758850098,6.843308448791504,0.01171115878969431,-0.2917143404483795,-0.22357667982578278
0.509610652923584,6.934479713439941,6.708955764770508,0.040456730872392654,-0.2906496822834015,-0.2693566679954529
0.2130456417798996,7.060136795043945,6.407946586608887,-0.1085943877696991,-0.2278352826833725,-0.2108008712530136
0.36463692784309387,7.0525617599487305,6.8857340812683105,-0.12349949777126312,-0.2001543641090393,-0.19376645982265472
0.4372386634349823,7.12885046005249,6.983072280883789,-0.10433578491210938,-0.19483110308647156,-0.1852492392063141
0.45411303639411926,7.115691661834717,6.968390941619873,-0.09581857919692993,-0.20228366553783417,-0.1895078420639038
0.3934631049633026,7.086549758911133,6.791048049926758,-0.10220648348331451,-0.2597748041152954,-0.19483110308647156
0.4137755036354065,6.92833137512207,6.744590759277344,-0.14159856736660004,-0.3609166443347931,-0.21186551451683044
0.48617619276046753,6.943213939666748,6.823311805725098,-0.17034412920475006,-0.39392080903053284,-0.2310292273759842
0.4352562725543976,7.009485244750977,6.867432594299316,-0.21293017268180847,-0.483351469039917,-0.27148595452308655
0.20713675022125244,7.000521659851074,7.122500896453857,-0.2352878302335739,-0.5514891147613525,-0.281067818403244
0.20659087598323822,6.983560562133789,7.309104919433594,-0.23315852880477905,-0.5482951998710632,-0.2629687488079071
0.36494338512420654,6.859665393829346,7.6903767585754395,-0.17353808879852295,-0.4620584547519684,-0.24806363880634308
0.3677015006542206,6.79521369934082,7.76958703994751,-0.0351334773004055,-0.3374943137168884,-0.2416757345199585
0.46634262800216675,6.937295436859131,6.818035125732422,-0.0010646508308127522,-0.3257831633090973,-0.22251202166080475
0.6134806275367737,6.90999174118042,6.951545238494873,-0.0734609067440033,-0.3609166443347931,-0.2171887755393982
0.89919513463974,6.842667102813721,7.403264045715332,-0.06813765317201614,-0.35559338331222534,-0.22677062451839447
1.0002304315567017,6.710793972015381,7.457363605499268,-0.004258603323251009,-0.3758217394351959,-0.252322256565094
1.0333184003829956,6.830733776092529,7.12524938583374,0.044715333729982376,-0.3704984784126282,-0.281067818403244
1.0547990798950195,6.814779281616211,6.7931928634643555,0.008517206646502018,-0.32365384697914124,-0.2938436269760132
1.0877432823181152,6.738749027252197,7.0839924812316895,-0.047909289598464966,-0.31087803840637207,-0.32152456045150757
1.2014774084091187,6.635367393493652,7.4208664894104,-0.02981022372841835,-0.3481408357620239,-0.3651752471923828
1.2846040725708008,6.638757228851318,7.4606194496154785,0.042586032301187515,-0.39817941188812256,-0.43331289291381836
1.1451083421707153,6.644723415374756,7.223794937133789,0.08091346174478531,-0.4162784814834595,-0.4599291682243347
0.9115492105484009,6.729152679443359,6.559269905090332,0.06600835174322128,-0.3928561508655548,-0.46418777108192444
1.0772662162780762,6.678214073181152,6.551129341125488,-0.043650683015584946,-0.3683691918849945,-0.46099382638931274
1.3983478546142578,6.59461784362793,7.244068622589111,-0.06920230388641357,-0.3832743167877197,-0.5014505386352539
1.5934945344924927,6.476142883300781,7.6593194007873535,0.0010646508308127522,-0.4003087282180786,-0.5663942694664001
1.5614120960235596,6.488956928253174,7.520771503448486,0.048973940312862396,-0.41521382331848145,-0.6111095547676086
1.3193870782852173,6.560935974121094,7.098031997680664,0.08304276317358017,-0.46099382638931274,-0.6547602415084839
1.0610814094543457,6.57877779006958,6.841422080993652,0.042586032301187515,-0.49293333292007446,-0.657954216003418
1.1631319522857666,6.599952220916748,7.091194152832031,0.006387905217707157,-0.504644513130188,-0.638790488243103
1.2882241010665894,6.628931522369385,7.209736347198486,0.018099064007401466,-0.5174202919006348,-0.6526309847831726
1.2821811437606812,6.572332382202148,7.152763843536377,0.045779984444379807,-0.5493598580360413,-0.6994755864143372
1.065448522567749,6.534369945526123,7.035879135131836,0.05110324174165726,-0.5919458866119385,-0.7218332886695862
0.9160215258598328,6.543535232543945,6.909981727600098,0.014905111864209175,-0.6111095547676086,-0.7122514247894287
1.019460678100586,6.674498081207275,7.079214096069336,0.0031939526088535786,-0.5972691178321838,-0.7090574502944946
0.8130134344100952,6.750049114227295,7.080478191375732,0.02555162087082863,-0.562135636806488,-0.7282211780548096
0.5994219183921814,6.814204692840576,6.989278316497803,0.02981022372841835,-0.562135636806488,-0.7250272035598755
0.4836095869541168,6.858420372009277,6.796975612640381,0.0,-0.583428680896759,-0.6994755864143372
0.5428804159164429,6.814826965332031,6.79416036605835,-0.06174974888563156,-0.638790488243103,-0.6888290643692017
0.5587587952613831,6.820984840393066,7.143397331237793,-0.10965903848409653,-0.6739239692687988,-0.6813765168190002
0.4279108941555023,6.8739447593688965,7.401952266693115,-0.08304276317358017,-0.6068509817123413,-0.6739239692687988
0.3833595812320709,6.9089765548706055,7.467907905578613,-0.041521381586790085,-0.5482951998710632,-0.6334672570228577
0.7478049397468567,6.798957824707031,7.311020374298096,0.05749114602804184,-0.39711475372314453,-0.6089802980422974
0.7520570755004883,6.800653457641602,7.160818099975586,0.07133160531520844,-0.43650683760643005,-0.639855146408081
0.5681344866752625,6.834210395812988,7.025028228759766,0.02768092229962349,-0.5110324025154114,-0.6675360798835754
0.4202111065387726,6.904781818389893,7.2537031173706055,0.006387905217707157,-0.5301961302757263,-0.6664714217185974
0.3638324439525604,6.877239227294922,7.505888938903809,0.045779984444379807,-0.46844637393951416,-0.637725830078125
0.4941057860851288,6.937247276306152,7.468348026275635,0.13946926593780518,-0.3992440700531006,-0.6409198045730591
-0.3332250118255615,7.2810258865356445,6.488219738006592,0.26403340697288513,-0.3854036033153534,-0.638790488243103
-0.2041679322719574,7.275998115539551,5.604423999786377,0.02342231757938862,-0.19802506268024445,-0.3651752471923828
0.9493297338485718,7.010577201843262,6.4529290199279785,-0.0596204474568367,-0.3374943137168884,-0.46738171577453613
0.9559856057167053,6.95688009262085,7.0646185874938965,-0.06920230388641357,-0.5270021557807922,-0.580234706401825
-0.026297910138964653,6.8930792808532715,7.88881778717041,0.06174974888563156,-0.4950626492500305,-0.4876100718975067
-0.049732357263565063,6.905672550201416,7.312466621398926,0.16608552634716034,-0.40776127576828003,-0.4098905622959137
0.43087971210479736,6.9016594886779785,6.45050573348999,0.13095206022262573,-0.4492826461791992,-0.3545287251472473
0.9353284239768982,7.0110554695129395,6.43721342086792,0.012775810435414314,-0.46099382638931274,-0.36943385004997253
0.7993856072425842,6.8829851150512695,6.89028263092041,-0.05642649531364441,-0.435442179441452,-0.3928561508655548
0.5768589377403259,6.822718143463135,7.402536392211914,-0.04684463515877724,-0.46099382638931274,-0.4024380147457123
0.5246557593345642,6.777199745178223,7.530137538909912,0.03300417587161064,-0.49612727761268616,-0.4024380147457123
0.5360234379768372,6.818284034729004,7.389378070831299,0.07452555745840073,-0.5025151968002319,-0.39711475372314453
0.710407555103302,6.996412754058838,6.934517860412598,0.09262461960315704,-0.46099382638931274,-0.39498546719551086
0.6947686076164246,7.1480326652526855,6.655669689178467,0.04684463515877724,-0.4758989214897156,-0.40456733107566833
0.6571796536445618,7.196941375732422,6.684113502502441,0.009581857360899448,-0.4939979910850525,-0.40776127576828003
0.4734964966773987,7.176370620727539,7.030937194824219,-0.012775810435414314,-0.4939979910850525,-0.4130845367908478
0.2698361277580261,7.1001200675964355,7.113862991333008,0.009581857360899448,-0.4737696349620819,-0.3960501253604889
0.4182000160217285,6.985715389251709,7.0978312492370605,0.05855579674243927,-0.4269249737262726,-0.3673045337200165
0.2962298095226288,6.886652946472168,6.999161243438721,0.05536184459924698,-0.4450240433216095,-0.37688639760017395
0.1216924786567688,6.824652671813965,7.187144756317139,0.06068509817123413,-0.43650683760643005,-0.36304593086242676
0.07875008136034012,6.822469234466553,6.898940086364746,0.10433578491210938,-0.40137335658073425,-0.30661943554878235
0.07095456123352051,6.866148948669434,6.962032318115234,0.09581857919692993,-0.4343775510787964,-0.30981338024139404
-0.03477338328957558,6.9885406494140625,7.035907745361328,0.10965903848409653,-0.4418300986289978,-0.28639107942581177
-0.031909920275211334,7.009293556213379,7.026953220367432,0.1362753063440323,-0.29277896881103516,-0.25019294023513794
-0.1237131878733635,7.02437686920166,5.862154960632324,0.12030554562807083,-0.043650683015584946,-0.15969762206077576
-0.19370050728321075,7.0341644287109375,7.435375690460205,0.014905111864209175,-0.357722669839859,-0.2917143404483795
-0.16820703446865082,6.832840919494629,7.520895957946777,0.09155996888875961,-0.27574455738067627,-0.1895078420639038
0.2531628906726837,6.796956539154053,7.394769668579102,0.11604694277048111,-0.30981338024139404,-0.1852492392063141
0.6480529308319092,6.723578929901123,7.106441020965576,0.12562879920005798,-0.3758217394351959,-0.23954643309116364
0.3357436954975128,6.835216045379639,6.749417304992676,0.06920230388641357,-0.47164031863212585,-0.3044901490211487
0.4154897630214691,6.893126964569092,6.98900032043457,0.02555162087082863,-0.504644513130188,-0.3044901490211487
0.531484067440033,6.876769542694092,7.139375686645508,0.014905111864209175,-0.455670565366745,-0.3023608326911926
0.7814483046531677,6.830255508422852,7.431927680969238,0.047909289598464966,-0.36198127269744873,-0.3076840937137604
0.2927534282207489,7.048089504241943,7.6139445304870605,0.19163715839385986,0.0010646508308127522,-0.3747570812702179
-1.0679287910461426,7.051039218902588,5.497891426086426,0.2352878302335739,0.32045990228652954,-0.22677062451839447
-0.15725117921829224,6.888261795043945,4.9744133949279785,0.04684463515877724,-0.32152456045150757,-0.19483110308647156
1.1216260194778442,6.669528007507324,6.22442626953125,-0.18418459594249725,-0.9464746117591858,-0.35559338331222534
0.8702253103256226,6.793097019195557,7.051450729370117,-0.22889992594718933,-0.9028239250183105,-0.4407654404640198
-0.1677473485469818,6.786968231201172,7.673962593078613,-0.18418459594249725,-0.48867473006248474,-0.4003087282180786
-0.26162877678871155,6.704588413238525,7.886260509490967,-0.12562879920005798,-0.3225892186164856,-0.3374943137168884
0.3005297780036926,6.614940166473389,7.5983147621154785,0.010646508075296879,-0.328977108001709,-0.26829200983047485
1.181528925895691,6.697061061859131,6.848700046539307,0.012775810435414314,-0.4695110321044922,-0.3683691918849945
0.8887372612953186,6.859071731567383,6.553073883056641,-0.04684463515877724,-0.5014505386352539,-0.4908040463924408
0.6869251728057861,6.8247294425964355,7.583710670471191,-0.08943066745996475,-0.3992440700531006,-0.56107097864151
0.0,6.9340009689331055,7.371344566345215,0.02874557301402092,-0.5078384280204773,-0.6568895578384399
-0.39420053362846375,7.07562255859375,7.055568695068359,0.03087487444281578,-0.4950626492500305,-0.6334672570228577
0.08558791875839233,7.060730457305908,6.98099422454834,0.09581857919692993,-0.44289475679397583,-0.5568124055862427
-0.029745562002062798,7.0736403465271,6.463223934173584,0.12349949777126312,-0.4024380147457123,-0.5461658835411072
0.016357185319066048,7.131742477416992,6.253185749053955,0.047909289598464966,-0.3960501253604889,-0.5184849500656128
0.3458472192287445,7.010127067565918,6.676939964294434,-0.042586032301187515,-0.4865454435348511,-0.5184849500656128
0.5350083112716675,6.912347793579102,7.325558185577393,-0.05749114602804184,-0.582364022731781,-0.5642649531364441
0.3422846496105194,6.875514984130859,7.571442604064941,0.03087487444281578,-0.5568124055862427,-0.601527750492096
-0.7601207494735718,7.128898620605469,6.345831394195557,0.2352878302335739,-0.4705756604671478,-0.583428680896759
0.22448034584522247,6.915881156921387,5.753381729125977,0.02661627158522606,-0.2842617630958557,-0.4769635796546936
0.7052552103996277,6.85896635055542,6.3289666175842285,-0.047909289598464966,-0.3438822329044342,-0.4939979910850525
0.6998826265335083,6.960260391235352,6.330499172210693,-0.09581857919692993,-0.5131617188453674,-0.5525537729263306
0.9078429341316223,6.896440505981445,7.173612117767334,-0.15650367736816406,-0.6803118586540222,-0.6196267604827881
0.839225172996521,6.952915191650391,7.466174125671387,-0.1362753063440323,-0.6675360798835754,-0.6717946529388428
0.31429165601730347,6.918745040893555,7.741622447967529,-0.0841074138879776,-0.637725830078125,-0.6920230388641357
0.2389892190694809,6.9243855476379395,7.423213005065918,0.03406882658600807,-0.5482951998710632,-0.6664714217185974
0.2596368193626404,6.966715335845947,6.872536659240723,0.05855579674243927,-0.48867473006248474,-0.6366612315177917
0.45636358857154846,6.966667652130127,6.799188137054443,0.040456730872392654,-0.39498546719551086,-0.6270793676376343
0.5386666059494019,6.977316856384277,6.898212432861328,0.06920230388641357,-0.34175291657447815,-0.6707300543785095
0.2787042260169983,7.017481803894043,6.812432765960693,0.05642649531364441,-0.4173431396484375,-0.7122514247894287
-0.04911944270133972,6.952780723571777,6.774259567260742,0.03193952515721321,-0.5163556337356567,-0.716509997844696
-0.17206647992134094,6.8993611335754395,6.986874580383301,0.013840461149811745,-0.505709171295166,-0.6920230388641357
-0.30082666873931885,6.96505880355835,6.981904029846191,0.26190412044525146,-0.3225892186164856,-0.6686007380485535
-0.37500861287117004,6.982449531555176,6.593440055847168,0.24061109125614166,-0.3183306157588959,-0.6675360798835754
-0.6642090082168579,6.9860029220581055,6.6565704345703125,0.1650208830833435,-0.34494686126708984,-0.660083532333374
-0.6142180562019348,7.048644542694092,7.031167030334473,0.16182692348957062,-0.3193952441215515,-0.6196267604827881
-0.8898864984512329,7.354824542999268,6.371909141540527,0.3023608326911926,-0.3704984784126282,-0.6174975037574768
-2.2474467754364014,7.2602152824401855,4.775158882141113,0.2906496822834015,-1.2637405395507812,-0.5632002949714661
0.3489501178264618,7.476230144500732,5.370520114898682,-0.23422318696975708,-0.5908812284469604,-0.5525537729263306
-1.500187635421753,7.041988849639893,7.222961902618408,-0.19802506268024445,-0.42905429005622864,-0.7207686305046082
-0.42593804001808167,7.4045281410217285,6.862251281738281,0.05110324174165726,-0.7921002507209778,-0.5983337759971619
-0.3822678327560425,7.510007381439209,6.294126510620117,0.02768092229962349,-0.7665486335754395,-0.5770407319068909
-0.012909535318613052,7.494617462158203,6.089815139770508,-0.07452555745840073,-0.8538499474525452,-0.5749114751815796
0.12497732788324356,7.441246032714844,6.183801651000977,-0.14798647165298462,-0.9187936782836914,-0.583428680896759
0.23806025087833405,7.273163795471191,6.8867106437683105,-0.2246413230895996,-0.9486039280891418,-0.6111095547676086
0.13740801811218262,7.1754608154296875,7.519565105438232,-0.18311993777751923,-0.9752201437950134,-0.6473076939582825
0.06667372584342957,6.991921424865723,7.5472517013549805,0.09155996888875961,-0.9347634315490723,-0.6164328455924988
0.34000536799430847,6.9999847412109375,7.226840496063232,0.15011577308177948,-0.8825955390930176,-0.6079156398773193
0.3484138250350952,7.022298812866211,6.9738593101501465,0.1469218134880066,-0.8634318113327026,-0.6057863235473633
0.4318660795688629,7.029615879058838,6.807740211486816,0.09794788062572479,-0.8634318113327026,-0.6345319151878357
0.2076060175895691,7.005865097045898,6.7523193359375,0.06174974888563156,-0.9294402003288269,-0.6728593111038208
0.026719290763139725,7.002015113830566,6.581018924713135,0.008517206646502018,-1.0486810207366943,-0.6845704913139343
-0.07671980559825897,6.9302849769592285,6.8839616775512695,-0.05216789245605469,-1.0603922605514526,-0.657954216003418
-0.5740625262260437,6.991413593292236,5.939745903015137,0.09581857919692993,-0.40137335658073425,-0.42905429005622864
0.9270445108413696,6.816129207611084,6.861886978149414,0.012775810435414314,-1.0210001468658447,-0.4908040463924408
1.1839327812194824,6.506080150604248,7.579343318939209,0.0031939526088535786,-0.7782597541809082,-0.6941523551940918
-0.2533448338508606,6.433852195739746,7.76092004776001,0.06920230388641357,-0.4865454435348511,-0.660083532333374
0.16770905256271362,6.357122421264648,7.593325614929199,0.16927948594093323,-0.5685235261917114,-0.5876872539520264
0.6827784180641174,6.47046422958374,7.308396339416504,0.22570598125457764,-0.562135636806488,-0.6292086243629456
0.3647614121437073,6.58237886428833,6.79543399810791,0.24274039268493652,-0.4982565939426422,-0.6473076939582825
0.22827276587486267,6.574113845825195,6.568760871887207,0.17992599308490753,-0.38753291964530945,-0.6111095547676086
0.34646013379096985,6.493295192718506,6.771731376647949,0.10327113419771194,-0.3438822329044342,-0.5898165702819824
0.44139501452445984,6.500611782073975,6.99423885345459,0.07452555745840073,-0.3609166443347931,-0.5972691178321838
0.39705440402030945,6.5708770751953125,7.380538463592529,0.07984881103038788,-0.39179152250289917,-0.6334672570228577
-0.026949135586619377,6.613321304321289,7.316776275634766,0.09901253134012222,-0.4492826461791992,-0.6526309847831726
-0.21533450484275818,6.628989219665527,7.2727131843566895,0.1054004356265068,-0.484416127204895,-0.6419844627380371
-0.26400384306907654,6.702424049377441,7.229752063751221,0.12243484705686569,-0.4663170576095581,-0.5940751433372498
-0.08474516123533249,6.7575483322143555,7.214601039886475,0.15863297879695892,-0.3428175747394562,-0.5482951998710632
0.13600023090839386,6.839985370635986,6.919061183929443,0.16608552634716034,-0.2970375716686249,-0.5120970606803894
0.24629631638526917,6.872345447540283,6.826022624969482,0.14159856736660004,-0.32045990228652954,-0.505709171295166
0.19235016405582428,6.857740879058838,6.674823760986328,0.019163714721798897,-0.4173431396484375,-0.5195496082305908
0.1748916506767273,6.751965045928955,6.792972564697266,-0.047909289598464966,-0.5142263770103455,-0.5312607884407043
0.31801703572273254,6.643354415893555,7.251835823059082,-0.0947539210319519,-0.6664714217185974,-0.5738468170166016
0.28363630175590515,6.565552234649658,7.624709129333496,-0.02874557301402092,-0.6803118586540222,-0.6270793676376343
-1.155068278312683,6.517735481262207,6.435183048248291,0.10646508634090424,-0.9954485297203064,-0.5919458866119385
0.5370194911956787,7.216296195983887,5.933253288269043,-0.06920230388641357,-0.4758989214897156,-0.5663942694664001
0.9358934164047241,6.855825424194336,6.74392032623291,-0.06068509817123413,-0.2597748041152954,-0.6824411749839783
-0.21207837760448456,6.432377338409424,6.332347869873047,-0.10327113419771194,-0.46525242924690247,-0.6973463296890259
0.3096564710140228,6.833195209503174,7.17725133895874,-0.14479251205921173,-0.7197039723396301,-0.6505016684532166
0.27759331464767456,6.810498237609863,7.692627429962158,-0.11711159348487854,-0.6717946529388428,-0.6717946529388428
0.0366121344268322,6.83516788482666,7.2973737716674805,-0.06174974888563156,-0.6526309847831726,-0.6345319151878357
0.4446415603160858,6.8741455078125,7.094278335571289,-0.10007718205451965,-0.7101221084594727,-0.5951398015022278
0.8619222044944763,6.8671159744262695,7.23280668258667,-0.15650367736816406,-0.7740011811256409,-0.5972691178321838
1.068589687347412,6.751246452331543,7.588403224945068,-0.18311993777751923,-0.835750937461853,-0.6164328455924988
1.389326572418213,6.640433311462402,7.80386209487915,-0.1820552945137024,-0.8868541717529297,-0.660083532333374
0.9816610217094421,6.539407730102539,8.36927604675293,-0.06600835174322128,-0.8815308809280396,-0.8272337317466736
0.6877296566963196,6.54680061340332,8.277674674987793,0.044715333729982376,-0.8165872097015381,-0.8282983303070068
0.7175997495651245,6.569555282592773,8.023755073547363,0.07984881103038788,-0.7910355925559998,-0.8251044154167175
0.5989622473716736,6.602422714233398,7.604425430297852,0.10965903848409653,-0.7952941656112671,-0.8389448523521423
0.3095223903656006,6.666118144989014,7.345200061798096,0.0947539210319519,-0.832556962966919,-0.834686279296875
0.07981310784816742,6.748392581939697,7.286273956298828,0.0734609067440033,-0.8282983303070068,-0.7814537286758423
0.44273579120635986,6.669719219207764,7.621548175811768,0.09368927031755447,-0.6930876970291138,-0.657954216003418
0.6750594973564148,6.551809787750244,7.715468406677246,0.14479251205921173,-0.7016049027442932,-0.6217560768127441
0.6888214349746704,6.593851566314697,7.477656841278076,0.17247343063354492,-0.7686778903007507,-0.6249500513076782
0.35969528555870056,6.605114459991455,7.4123334884643555,0.07133160531520844,-0.8219104409217834,-0.5312607884407043
0.6140074133872986,6.6038689613342285,7.772794723510742,0.09155996888875961,-0.7708072066307068,-0.5259374976158142
1.1623753309249878,6.530836582183838,9.121410369873047,0.252322256565094,-0.45034730434417725,-0.5781053900718689
0.2063993364572525,6.7591376304626465,6.685243129730225,0.4003087282180786,-0.22889992594718933,-0.5472305417060852
0.4830637276172638,7.109418869018555,5.762269020080566,0.2661627233028412,-0.892177402973175,-0.558941662311554
0.9664626121520996,7.048213958740234,6.870065689086914,0.09688322991132736,-0.8762076497077942,-0.6132388710975647
-0.04262636601924896,7.060194492340088,7.403139591217041,0.11285299062728882,-0.4971919357776642,-0.56107097864151
0.25691699981689453,7.088762283325195,7.500545501708984,0.1543743759393692,-0.5003858804702759,-0.4971919357776642
0.3911933898925781,7.075584411621094,7.218221187591553,0.28532642126083374,-0.5227435827255249,-0.4162784814834595
0.12579135596752167,7.055041790008545,6.258347511291504,0.24380503594875336,-0.4939979910850525,-0.4216017425060272
-0.5535202622413635,7.281064510345459,5.615494728088379,0.2416757345199585,0.05642649531364441,-0.43331289291381836
-0.5195034742355347,6.824088096618652,4.98785924911499,0.11498229205608368,0.13201670348644257,-0.25764551758766174
0.6332951188087463,6.7548089027404785,5.443840026855469,-0.040456730872392654,-0.6558248996734619,-0.3151366412639618
1.2394015789031982,6.569095611572266,7.069694519042969,-0.18311993777751923,-1.0912671089172363,-0.5291314721107483
0.7367054224014282,6.7945237159729,7.519747257232666,-0.1714087873697281,-0.8581085801124573,-0.6174975037574768
-0.08094316720962524,6.920899868011475,7.709961414337158,-0.11604694277048111,-0.6121742129325867,-0.6057863235473633
-0.8866303563117981,6.974290370941162,7.5977020263671875,0.006387905217707157,-0.3896622061729431,-0.47164031863212585
-0.3917297124862671,7.131435871124268,7.036989688873291,0.07878416031599045,-0.39392080903053284,-0.3545287251472473
0.0764324963092804,7.163365364074707,6.494022846221924,0.013840461149811745,-0.484416127204895,-0.3545287251472473
-0.501163899898529,6.751811504364014,7.582101345062256,-0.03406882658600807,-0.4727049767971039,-0.33110642433166504
-0.4285142123699188,6.666721820831299,7.445996284484863,0.05429719388484955,-0.39498546719551086,-0.3374943137168884
-0.3226521909236908,6.681920051574707,6.854953765869141,0.09368927031755447,-0.41521382331848145,-0.357722669839859
-0.24084711074829102,6.722688674926758,6.64682149887085,0.06813765317201614,-0.4109552204608917,-0.3747570812702179
-0.35058772563934326,6.7563700675964355,6.731776714324951,0.004258603323251009,-0.38753291964530945,-0.43011894822120667
-0.7499980330467224,6.81487512588501,6.993616104125977,-0.012775810435414314,-0.4279896318912506,-0.43650683760643005
-0.7863708138465881,6.859617710113525,7.044670581817627,-0.009581857360899448,-0.455670565366745,-0.4237310290336609
-0.7104362845420837,6.89216947555542,6.943740367889404,0.015969762578606606,-0.46418777108192444,-0.39179152250289917
-0.394621878862381,6.901008605957031,6.652451992034912,0.020228365436196327,-0.4492826461791992,-0.38008034229278564
-1.2617347240447998,7.217790603637695,5.220394134521484,-0.08623671531677246,-0.27574455738067627,-0.2768092155456543
-0.29238948225975037,7.213959693908691,5.222223281860352,-0.15330971777439117,-0.2906496822834015,-0.3151366412639618
0.9374448657035828,6.7761077880859375,6.586573123931885,-0.21612411737442017,-0.45460590720176697,-0.435442179441452
-0.26632142066955566,6.376994609832764,7.420550346374512,-0.22570598125457764,-0.6898937225341797,-0.5993984341621399
-0.24379676580429077,6.78434419631958,7.991921901702881,-0.06707300245761871,-0.43970078229904175,-0.6174975037574768
-0.23134692013263702,6.9240312576293945,7.405572414398193,0.05110324174165726,-0.46738171577453613,-0.6324025988578796
-0.22785139083862305,7.067779064178467,6.476009368896484,0.02555162087082863,-0.4939979910850525,-0.6675360798835754
-0.2512187957763672,7.028744220733643,6.485758304595947,-0.03726277872920036,-0.49186867475509644,-0.6622128486633301
-0.16595648229122162,6.959417343139648,6.659682750701904,-0.05429719388484955,-0.5131617188453674,-0.6696653962135315
-0.17654843628406525,6.810843467712402,7.060835838317871,-0.044715333729982376,-0.5387133359909058,-0.6930876970291138
-0.3715130686759949,6.814894199371338,7.328929424285889,-0.006387905217707157,-0.5546830892562866,-0.7228979468345642
-0.6790913939476013,6.8146071434021,7.361001968383789,0.040456730872392654,-0.562135636806488,-0.7005402445793152
-0.7570178508758545,6.766195774078369,7.2911200523376465,0.08517206460237503,-0.5727821588516235,-0.6952170133590698
-0.8749849200248718,6.777371883392334,6.860996723175049,0.11498229205608368,-0.5855579376220703,-0.6803118586540222
-1.1159087419509888,6.94061803817749,6.350255966186523,0.09688322991132736,-0.6079156398773193,-0.6632774472236633
-1.3353036642074585,7.293667316436768,6.463501930236816,0.03193952515721321,-0.580234706401825,-0.5983337759971619
-1.5296649932861328,7.275547981262207,6.550736904144287,0.05003859102725983,-0.43224823474884033,-0.50357985496521
-2.196967363357544,7.431812763214111,4.708695888519287,-0.3023608326911926,-0.3960501253604889,-0.3428175747394562
-0.5920286178588867,6.959934711456299,7.129434585571289,-0.23954643309116364,-0.5504244565963745,-0.3864682614803314
-0.6532914638519287,6.839994430541992,7.568990707397461,-0.0596204474568367,-0.6441137790679932,-0.45354124903678894
-1.0376087427139282,7.238217830657959,6.67529296875,-0.03300417587161064,-0.5110324025154114,-0.4247956871986389
-0.6236129403114319,7.1760640144348145,6.813198566436768,-0.05323254317045212,-0.405631959438324,-0.328977108001709
-0.1321982443332672,7.234635829925537,7.073429584503174,-0.006387905217707157,-0.43650683760643005,-0.3545287251472473
-0.30192798376083374,7.155043125152588,6.972470760345459,0.019163714721798897,-0.46738171577453613,-0.39392080903053284
-0.5280076861381531,7.2082133293151855,7.108451843261719,0.03193952515721321,-0.4865454435348511,-0.3896622061729431
-0.5063353776931763,7.25880765914917,7.32721471786499,0.08304276317358017,-0.4524766206741333,-0.3704984784126282
-0.5200684666633606,7.209784030914307,7.273565292358398,0.11178833991289139,-0.4130845367908478,-0.35665804147720337
-0.36035609245300293,7.127739906311035,7.099095344543457,0.13521066308021545,-0.4279896318912506,-0.34601151943206787
-0.28774476051330566,6.9705071449279785,7.167838096618652,0.12882275879383087,-0.48548078536987305,-0.38433894515037537
-0.327775776386261,6.952416896820068,7.378345012664795,0.13946926593780518,-0.5003858804702759,-0.4141491651535034
-0.6672065258026123,7.174397945404053,7.512228965759277,0.21612411737442017,-0.49186867475509644,-0.44289475679397583
-0.7107139825820923,7.444789409637451,7.224120616912842,0.2949082851409912,-0.4631231129169464,-0.4130845367908478
-2.1356852054595947,8.20527458190918,4.150300979614258,-0.12775810062885284,-0.4812221825122833,-0.31087803840637207
-0.9726012945175171,7.5096049308776855,7.230747699737549,-0.19908970594406128,-0.41947242617607117,-0.25445154309272766
-0.10913728922605515,7.470714092254639,9.099556922912598,0.13840460777282715,-0.3651752471923828,-0.28213247656822205
-0.39744704961776733,6.8817973136901855,7.036788463592529,0.23954643309116364,-0.3545287251472473,-0.23422318696975708
0.144073486328125,6.730005264282227,6.931922435760498,0.15650367736816406,-0.42586034536361694,-0.22144737839698792
-0.1711183786392212,6.674431324005127,6.429054260253906,0.1714087873697281,-0.456735223531723,-0.23954643309116364
-0.16133089363574982,6.678022384643555,6.1683349609375,0.13946926593780518,-0.435442179441452,-0.20973621308803558
-0.057853490114212036,6.650671005249023,6.10379695892334,0.0841074138879776,-0.377951055765152,-0.18099063634872437
0.2367386668920517,6.454939842224121,6.238465785980225,-0.01171115878969431,-0.3183306157588959,-0.15224507451057434
0.46271297335624695,6.2798380851745605,6.853909969329834,-0.07133160531520844,-0.39392080903053284,-0.16608552634716034
0.48409798741340637,6.318240642547607,7.4356913566589355,-0.048973940312862396,-0.43650683760643005,-0.1895078420639038
0.3821241855621338,6.381237030029297,7.395755767822266,0.013840461149811745,-0.3704984784126282,-0.1788613349199295
0.5663052797317505,6.399011611938477,6.993358135223389,0.03300417587161064,-0.3183306157588959,-0.14479251205921173
0.8525081872940063,6.402995586395264,6.656608581542969,-0.05323254317045212,-0.27467992901802063,-0.16608552634716034
0.6184414625167847,6.464296817779541,6.864291191101074,-0.12456414848566055,-0.31726595759391785,-0.21612411737442017
0.13991715013980865,6.601263999938965,7.019081115722656,-0.15011577308177948,-0.3704984784126282,-0.22570598125457764
0.10775823146104813,6.657853603363037,7.037497520446777,-0.14479251205921173,-0.377951055765152,-0.2001543641090393
0.38131970167160034,6.814070224761963,6.7758588790893555,-0.11711159348487854,-0.3257831633090973,-0.13840460777282715
0.6124367713928223,6.791670322418213,6.552757740020752,-0.12562879920005798,-0.26509806513786316,-0.11178833991289139
1.0330501794815063,6.704406261444092,6.335497856140137,-0.19802506268024445,-0.18311993777751923,-0.10752973705530167
1.0870825052261353,6.636995315551758,6.747607231140137,-0.2938436269760132,-0.1852492392063141,-0.16395622491836548
0.7222157716751099,6.566606044769287,7.4916486740112305,-0.3023608326911926,-0.2108008712530136,-0.2108008712530136
0.44468945264816284,6.460102081298828,7.809388160705566,-0.23954643309116364,-0.24699899554252625,-0.2171887755393982
0.622626543045044,6.4233078956604,7.848748683929443,-0.09155996888875961,-0.17247343063354492,-0.2203827202320099
0.4710543751716614,6.528001308441162,7.508522987365723,0.013840461149811745,-0.12882275879383087,-0.25125759840011597
0.3383294343948364,6.7745280265808105,6.429140090942383,0.0031939526088535786,-0.10646508634090424,-0.2246413230895996
0.5512314438819885,6.874701023101807,6.5095953941345215,-0.1085943877696991,-0.06281439960002899,-0.18099063634872437
0.4536150097846985,6.743671417236328,7.111056804656982,-0.1927018016576767,-0.10327113419771194,-0.13521066308021545
0.46392926573753357,6.760593891143799,7.477503776550293,-0.1820552945137024,-0.11711159348487854,-0.10114183276891708
0.49034208059310913,6.765956401824951,7.512640953063965,-0.12137019634246826,-0.08517206460237503,-0.08623671531677246
0.4994879364967346,6.739840984344482,7.384790420532227,-0.09155996888875961,-0.08943066745996475,-0.08091346174478531
0.7357190847396851,6.829105854034424,7.2808918952941895,-0.05855579674243927,-0.044715333729982376,-0.07878416031599045
0.8472409844398499,6.776759147644043,7.073189735412598,-0.04684463515877724,-0.004258603323251009,-0.10007718205451965
0.9273605346679688,6.778224468231201,7.101728916168213,-0.03726277872920036,-0.05216789245605469,-0.12137019634246826
0.9491381645202637,6.817154407501221,7.2677717208862305,-0.009581857360899448,-0.02981022372841835,-0.14479251205921173
0.8798595666885376,6.891201972961426,7.3011369705200195,0.05216789245605469,0.015969762578606606,-0.15650367736816406
0.662446916103363,6.9745588302612305,6.958508014678955,0.06494370102882385,0.017034413293004036,-0.15330971777439117
0.31890764832496643,6.765008449554443,5.847961902618408,0.06387905031442642,0.0,-0.14266321063041687
-0.903830349445343,7.399979591369629,4.180266380310059,-0.203348308801651,0.02661627158522606,-0.02342231757938862
1.0576913356781006,6.788681983947754,7.6187520027160645,-0.18418459594249725,0.018099064007401466,-0.05003859102725983
0.3389519453048706,6.983331203460693,7.6895246505737305,0.06813765317201614,-0.11072368919849396,-0.07133160531520844
0.6395870447158813,7.131924629211426,6.528365612030029,0.043650683015584946,-0.040456730872392654,-0.022357666864991188
0.6264380812644958,7.013641834259033,6.598745822906494,-0.09262461960315704,-0.005323254037648439,0.0010646508308127522
0.8498170971870422,7.0168304443359375,7.345956325531006,-0.09901253134012222,-0.06281439960002899,-0.019163714721798897
0.7781347036361694,6.997715473175049,7.577648639678955,-0.013840461149811745,-0.0074525559321045876,-0.038327429443597794
0.6815142631530762,7.085544109344482,7.148148059844971,0.03726277872920036,-0.013840461149811745,-0.043650683015584946
0.6931405663490295,7.135592937469482,7.04193115234375,0.03726277872920036,-0.02874557301402092,-0.02555162087082863
0.7048338055610657,7.160061359405518,7.138542175292969,0.041521381586790085,0.01171115878969431,-0.015969762578606606
0.7289003133773804,7.2154436111450195,7.392298698425293,0.13414600491523743,-0.03726277872920036,-0.02342231757938862
0.4914242625236511,7.139538288116455,6.889286518096924,0.08517206460237503,-0.10220648348331451,-0.012775810435414314
0.21429063379764557,7.118134498596191,6.887017250061035,-0.01171115878969431,-0.13840460777282715,0.020228365436196327
0.20295168459415436,7.126054286956787,6.993108749389648,-0.05110324174165726,-0.16608552634716034,0.048973940312862396
0.5735357999801636,7.083782196044922,7.3725996017456055,-0.06600835174322128,-0.20867156982421875,0.05216789245605469
0.9527103304862976,7.051440715789795,7.526958465576172,-0.012775810435414314,-0.11711159348487854,-0.022357666864991188
0.3066972494125366,7.086722373962402,7.194011211395264,0.004258603323251009,-0.0351334773004055,-0.11604694277048111
0.2700755298137665,7.013469219207764,7.331026554107666,0.0074525559321045876,-0.14159856736660004,-0.09688322991132736
0.4129231870174408,6.821109294891357,7.724872589111328,0.07984881103038788,-0.1756673902273178,-0.1054004356265068
0.28379911184310913,6.521518230438232,7.481602668762207,0.16395622491836548,-0.13733996450901031,-0.09581857919692993
0.21322759985923767,6.317015171051025,7.30525541305542,0.2139948159456253,-0.018099064007401466,-0.05642649531364441
0.4460301995277405,6.21258020401001,7.000712871551514,0.25764551758766174,0.05429719388484955,-0.02342231757938862
0.4520540237426758,6.266688823699951,6.373384475708008,0.18418459594249725,-0.039392080157995224,-0.05642649531364441
-0.018310854211449623,6.241444110870361,6.303693771362305,0.05110324174165726,-0.11604694277048111,-0.05323254317045212
-0.2340284287929535,6.249000549316406,6.951688766479492,-0.040456730872392654,-0.07665485888719559,-0.039392080157995224
-0.2509027421474457,6.231043815612793,7.330317974090576,-0.0351334773004055,-0.009581857360899448,-0.018099064007401466
-0.21312224864959717,6.254334926605225,7.375673294067383,-0.014905111864209175,0.004258603323251009,-0.02661627158522606
-0.07663360238075256,6.362878322601318,7.30939245223999,0.02342231757938862,0.0021293016616255045,-0.0596204474568367
-0.1978951394557953,6.493573188781738,6.79812479019165,0.02555162087082863,-0.0021293016616255045,-0.09368927031755447
-0.373332679271698,6.570397853851318,6.566854476928711,-0.010646508075296879,-0.013840461149811745,-0.09155996888875961
-0.24874798953533173,6.7124223709106445,6.739591598510742,-0.10114183276891708,0.022357666864991188,-0.06068509817123413
0.10368809103965759,6.686478614807129,7.493860721588135,-0.10114183276891708,0.12349949777126312,-0.07133160531520844
-0.0036200329195708036,6.597662925720215,8.144902229309082,0.039392080157995224,0.23741713166236877,-0.13095206022262573
-0.03594175726175308,6.74296236038208,7.848423004150391,0.21293017268180847,0.29277896881103516,-0.18099063634872437
-2.3747990131378174,7.43692684173584,1.5649363994598389,0.20973621308803558,-0.070266954600811,-0.1756673902273178
-1.8227823972702026,7.23403263092041,4.711999416351318,-0.19057250022888184,0.08517206460237503,-0.012775810435414314
-0.3963361382484436,7.3692474365234375,4.999466896057129,-0.2661627233028412,0.0947539210319519,-0.040456730872392654
0.6737570762634277,6.97722053527832,7.90781831741333,-0.126693457365036,0.09581857919692993,-0.1362753063440323
-1.1168760061264038,6.622170448303223,6.890751838684082,-0.03193952515721321,-0.06494370102882385,-0.06387905031442642
-0.29807811975479126,6.888558387756348,6.612947940826416,-0.13201670348644257,0.0021293016616255045,-0.03406882658600807
-0.367873877286911,6.826549053192139,7.0816755294799805,-0.1682148277759552,-0.06920230388641357,-0.05855579674243927
-0.5646485090255737,6.851899147033691,7.129319667816162,-0.13414600491523743,-0.2352878302335739,-0.06494370102882385
-0.3610551953315735,6.912012100219727,7.053241729736328,-0.1192408949136734,-0.2597748041152954,-0.05429719388484955
-0.27580246329307556,6.8680644035339355,7.033743381500244,-0.0841074138879776,-0.2108008712530136,-0.05855579674243927
-0.2014002501964569,6.989374160766602,6.879997253417969,-0.05323254317045212,-0.1469218134880066,-0.06600835174322128
-0.2636207640171051,6.989957809448242,6.737273693084717,-0.06707300245761871,-0.14266321063041687,-0.08943066745996475
-0.41835322976112366,6.938492298126221,6.514201641082764,-0.12456414848566055,-0.2310292273759842,-0.11285299062728882
-0.5700594186782837,6.950089931488037,6.645633220672607,-0.19483110308647156,-0.37262779474258423,-0.12349949777126312
-0.4872487783432007,7.0559515953063965,6.887304306030273,-0.20973621308803558,-0.4247956871986389,-0.12243484705686569
-0.4300943911075592,7.161498069763184,7.142660140991211,-0.19163715839385986,-0.42905429005622864,-0.12030554562807083
-0.520231306552887,7.307927131652832,7.154305458068848,-0.13414600491523743,-0.3545287251472473,-0.0947539210319519
-0.5719077587127686,7.287729263305664,7.163671970367432,-0.10646508634090424,-0.22251202166080475,-0.043650683015584946
-0.3985292315483093,7.101010799407959,7.31463098526001,-0.08943066745996475,-0.1820552945137024,-0.0021293016616255045
-0.13153745234012604,6.955605983734131,7.473816394805908,-0.06174974888563156,-0.19802506268024445,0.0074525559321045876
-0.01229662075638771,6.9304094314575195,7.58231258392334,-0.03726277872920036,-0.20760691165924072,-0.006387905217707157
0.15515385568141937,6.997935771942139,7.433229923248291,0.03300417587161064,-0.2416757345199585,-0.040456730872392654
0.11087068915367126,7.019147872924805,7.242660999298096,0.05429719388484955,-0.2555162012577057,-0.044715333729982376
0.1693083643913269,7.025880813598633,7.1115546226501465,0.08836601674556732,-0.20547761023044586,-0.03406882658600807
0.39420053362846375,7.067625999450684,6.93572473526001,0.07771950960159302,-0.1469218134880066,-0.04684463515877724
0.24389253556728363,6.600162982940674,7.390374183654785,0.03726277872920036,0.047909289598464966,-0.015969762578606606
0.7319457530975342,6.7112250328063965,7.708956241607666,0.11072368919849396,-0.05536184459924698,-0.05855579674243927
0.4653944969177246,6.92881965637207,7.238236904144287,0.16182692348957062,-0.13946926593780518,-0.13414600491523743
0.14355634152889252,6.9731316566467285,6.985313415527344,0.0947539210319519,-0.07133160531520844,-0.09688322991132736
0.1871020793914795,6.765190601348877,7.308042049407959,0.019163714721798897,-0.06494370102882385,-0.07239625602960587
-0.37048834562301636,6.483862400054932,7.847120761871338,-0.0031939526088535786,-0.18737854063510895,-0.11391764134168625
-0.572827160358429,6.48322057723999,7.897934913635254,0.07239625602960587,-0.1511804163455963,-0.05855579674243927
-0.26864859461784363,6.388563632965088,7.522639274597168,0.15650367736816406,-0.05216789245605469,0.017034413293004036
0.35558682680130005,6.407448768615723,6.948155403137207,0.1650208830833435,-0.004258603323251009,0.039392080157995224
0.7719959616661072,6.423240661621094,6.741832733154297,0.10114183276891708,0.03193952515721321,-0.0021293016616255045
0.5202409029006958,6.4192280769348145,6.8308491706848145,0.005323254037648439,-0.044715333729982376,-0.040456730872392654
0.2961914539337158,6.4326934814453125,7.394319534301758,-0.048973940312862396,-0.08304276317358017,-0.03087487444281578
-0.7132326364517212,6.47983980178833,8.468023300170898,0.4247956871986389,0.29916688799858093,0.005323254037648439
0.22072623670101166,6.619527339935303,7.215578079223633,0.47164031863212585,0.8176518678665161,0.1575683206319809
0.7841010689735413,6.145676136016846,4.803764820098877,0.16927948594093323,0.5663942694664001,0.15543901920318604
1.1322083473205566,6.121341705322266,4.70708703994751,-0.1330813616514206,0.1820552945137024,0.1085943877696991
1.1191840171813965,5.757538318634033,7.218997001647949,-0.5227435827255249,-0.3928561508655548,-0.02874557301402092
0.9245545268058777,6.284971237182617,9.53774356842041,-0.3225892186164856,-0.02342231757938862,-0.12349949777126312
-0.19543389976024628,6.111639976501465,9.007810592651367,0.039392080157995224,0.21612411737442017,-0.022357666864991188
0.7992802858352661,6.195092678070068,6.7294020652771,0.15330971777439117,0.31087803840637207,0.10433578491210938
0.8485625386238098,6.218411922454834,6.354326248168945,-0.02981022372841835,0.41521382331848145,0.05642649531364441
0.5127614140510559,6.148989677429199,6.508790493011475,-0.11711159348487854,0.3683691918849945,0.021293016150593758
0.1779370754957199,6.1050896644592285,7.131110668182373,-0.23635248839855194,0.15969762206077576,0.004258603323251009
0.2441798448562622,6.141347885131836,8.036693572998047,-0.19908970594406128,0.12243484705686569,0.0074525559321045876
0.4340974986553192,6.185994625091553,7.918170928955078,-0.005323254037648439,0.29597294330596924,0.020228365436196327
0.2172785997390747,6.373048782348633,7.526881694793701,0.03300417587161064,0.32152456045150757,-0.006387905217707157
0.01777455396950245,6.446014881134033,7.3403449058532715,0.02555162087082863,0.3023608326911926,-0.008517206646502018
-0.10858183354139328,6.548697471618652,7.12229061126709,-0.03726277872920036,0.1469218134880066,0.004258603323251009
-0.11163683235645294,6.58599853515625,7.250217437744141,-0.07133160531520844,-0.006387905217707157,0.01171115878969431
0.036861129105091095,6.698909282684326,6.486773490905762,-0.009581857360899448,-0.12349949777126312,0.0351334773004055
-0.18395130336284637,7.450420379638672,5.758754253387451,-0.06281439960002899,0.06600835174322128,0.20121900737285614
0.3924383819103241,6.665821075439453,5.819940567016602,-0.17034412920475006,0.24806363880634308,0.24061109125614166
0.4273075461387634,6.704722881317139,5.930791854858398,-0.39392080903053284,0.4205370843410492,0.0734609067440033
0.27421271800994873,6.356184005737305,8.359844207763672,-0.44395941495895386,-0.203348308801651,0.1682148277759552
0.8385068774223328,6.546551704406738,8.962176322937012,-0.31407198309898376,-0.23315852880477905,0.11072368919849396
0.20185035467147827,6.4401631355285645,8.626643180847168,-0.07878416031599045,-0.017034413293004036,0.08836601674556732
0.004932055249810219,6.609692096710205,7.450229167938232,-0.015969762578606606,-0.004258603323251009,0.1298874020576477
0.36373668909072876,6.637627601623535,7.12885046005249,-0.06387905031442642,-0.018099064007401466,0.15543901920318604
0.6698497533798218,6.597529411315918,7.117770195007324,-0.1192408949136734,0.0031939526088535786,0.15330971777439117
0.7418769001960754,6.618809223175049,7.356232643127441,-0.16395622491836548,-0.14479251205921173,0.07239625602960587
0.707400381565094,6.618923664093018,7.4231743812561035,-0.1511804163455963,-0.2139948159456253,0.05536184459924698
0.7347421646118164,6.5633015632629395,7.633893013000488,-0.1362753063440323,-0.20760691165924072,0.047909289598464966
0.7509270310401917,6.599138259887695,7.638537406921387,-0.070266954600811,-0.12456414848566055,0.04684463515877724
0.5708255767822266,6.661186218261719,7.325835704803467,-0.017034413293004036,-0.09688322991132736,0.05003859102725983
0.8144021034240723,6.7544450759887695,7.127452373504639,-0.09262461960315704,-0.20547761023044586,0.070266954600811
0.9091070890426636,6.658083438873291,7.325749397277832,-0.11604694277048111,-0.20547761023044586,0.06494370102882385
0.7992802858352661,6.689016819000244,7.770726680755615,-0.06600835174322128,-0.14159856736660004,0.06494370102882385
0.5743210911750793,6.7652668952941895,8.074981689453125,0.05642649531364441,-0.06600835174322128,0.10220648348331451
0.8360648155212402,6.706915378570557,7.705000877380371,0.21505947411060333,0.05216789245605469,0.1756673902273178
1.3604906797409058,6.843500137329102,7.268039703369141,0.2384817898273468,0.02661627158522606,0.16395622491836548
1.3950246572494507,6.8012471199035645,6.972049236297607,0.20441296696662903,0.020228365436196327,0.1362753063440323
1.322480320930481,6.8619160652160645,6.849226951599121,0.10114183276891708,0.008517206646502018,0.07665485888719559
1.0717597007751465,6.867547512054443,7.359258651733398,-0.0010646508308127522,-0.015969762578606606,0.03619812801480293
0.8595950603485107,6.648860931396484,8.116525650024414,0.1054004356265068,-0.0010646508308127522,-0.021293016150593758
0.9531891345977783,6.721826553344727,7.779977321624756,0.1714087873697281,-0.02981022372841835,-0.048973940312862396
0.9313827753067017,6.7127861976623535,7.479754447937012,0.19376645982265472,-0.008517206646502018,-0.0734609067440033
0.7973649501800537,6.656924724578857,7.4304046630859375,0.1927018016576767,0.02555162087082863,-0.0734609067440033
0.24720612168312073,6.387241840362549,7.558006286621094,0.253386914730072,-0.11072368919849396,-0.08730136603116989
-0.8683673739433289,6.546590328216553,7.256882667541504,0.6324025988578796,0.33536502718925476,0.045779984444379807
-0.0757238119840622,6.29682731628418,4.6954026222229,0.3790156841278076,0.3396236300468445,0.15650367736816406
1.1990545988082886,6.274321556091309,4.9881086349487305,-0.11711159348487854,0.015969762578606606,0.12349949777126312
1.0199873447418213,5.8620781898498535,7.397738456726074,-0.3832743167877197,-0.29597294330596924,-0.126693457365036
-0.21817882359027863,6.090829849243164,9.29062271118164,-0.18418459594249725,-0.1362753063440323,-0.11498229205608368
-0.673814594745636,5.95958948135376,9.034605979919434,0.10220648348331451,-0.09049531817436218,-0.006387905217707157
0.061981093138456345,6.097629547119141,7.833827972412109,0.27893853187561035,0.03193952515721321,0.07133160531520844
0.5375844836235046,6.33734655380249,6.443409442901611,0.22570598125457764,-0.013840461149811745,0.02874557301402092
0.5681057572364807,6.387165069580078,6.084988117218018,0.05642649531364441,-0.09901253134012222,0.004258603323251009
0.7473931312561035,6.328076362609863,6.631153106689453,-0.06813765317201614,-0.1714087873697281,-0.040456730872392654
0.7591534852981567,6.376132965087891,7.038445472717285,-0.06174974888563156,-0.18311993777751923,-0.08091346174478531
-0.4472464621067047,6.873417854309082,6.098769187927246,0.203348308801651,0.4460887014865875,0.02342231757938862
-0.7404212355613708,6.700786113739014,5.1378326416015625,0.2065422683954239,0.5142263770103455,0.004258603323251009
-0.08213069289922714,6.764223098754883,4.38938570022583,-0.13095206022262573,0.02661627158522606,0.040456730872392654
0.7877019643783569,6.6725921630859375,4.9967851638793945,-0.36623987555503845,-0.28852036595344543,-0.019163714721798897
0.7264199256896973,6.625637054443359,7.542712211608887,-0.582364022731781,-0.455670565366745,-0.22251202166080475
-0.3757651746273041,6.68709135055542,9.00472640991211,-0.39179152250289917,-0.2001543641090393,-0.1575683206319809
-0.27832117676734924,6.6500773429870605,8.975172996520996,-0.08517206460237503,-0.042586032301187515,-0.044715333729982376
0.21159954369068146,6.901085376739502,7.541994094848633,0.08517206460237503,-0.021293016150593758,-0.019163714721798897
0.20299957692623138,7.104851245880127,6.337681770324707,-0.004258603323251009,-0.15224507451057434,-0.06387905031442642
0.031028853729367256,7.125000476837158,6.595364570617676,-0.16395622491836548,-0.21612411737442017,-0.06068509817123413
-0.32205843925476074,7.238543510437012,7.168565273284912,-0.022357666864991188,0.2001543641090393,0.012775810435414314
0.4655669033527374,6.828991413116455,6.509652137756348,0.03300417587161064,0.1362753063440323,0.01171115878969431
0.9695846438407898,6.907894611358643,7.081665515899658,-0.06813765317201614,-0.4205370843410492,-0.20228366553783417
0.081766776740551,6.955395698547363,7.483508110046387,-0.05429719388484955,-0.13095206022262573,-0.20121900737285614
-0.2382613867521286,6.911322593688965,7.622621059417725,-0.02661627158522606,-0.03619812801480293,-0.14479251205921173
0.4114866554737091,6.780063152313232,7.746918678283691,0.03726277872920036,-0.06387905031442642,-0.09901253134012222
0.7630991339683533,6.754339694976807,7.740291595458984,0.070266954600811,-0.12137019634246826,-0.17673203349113464
0.35865142941474915,6.9188408851623535,7.15022611618042,0.12030554562807083,-0.23954643309116364,-0.22251202166080475
0.8350304961204529,6.967979431152344,6.901889801025391,0.09581857919692993,-0.2139948159456253,-0.22996458411216736
1.1630457639694214,6.989048480987549,6.940857887268066,0.05003859102725983,-0.19376645982265472,-0.2949082851409912
1.002490520477295,6.7964301109313965,7.24152135848999,0.014905111864209175,-0.203348308801651,-0.377951055765152
0.5869720578193665,6.735607624053955,7.679966926574707,0.024486970156431198,-0.24699899554252625,-0.4588645100593567
-0.006627150345593691,6.717775344848633,7.882162094116211,0.08623671531677246,-0.280003160238266,-0.4631231129169464
-0.11262324452400208,6.8206400871276855,9.106231689453125,0.5014505386352539,-0.06174974888563156,-0.4758989214897156
-0.3601358234882355,6.780398368835449,6.2468743324279785,0.5717175006866455,0.2661627233028412,-0.2704213261604309
1.153018832206726,6.5467915534973145,5.440507411956787,-0.03087487444281578,-0.2310292273759842,-0.3396236300468445
0.2698648273944855,6.492950916290283,8.93496036529541,-0.10114183276891708,-0.35985198616981506,-0.5003858804702759
-0.4275661110877991,6.4240264892578125,8.619940757751465,0.1682148277759552,-0.15650367736816406,-0.3502701222896576
0.09203311055898666,6.444443702697754,7.335086822509766,0.23741713166236877,-0.09688322991132736,-0.24274039268493652
0.9544820785522461,6.414449214935303,6.6760687828063965,0.10752973705530167,-0.13201670348644257,-0.27467992901802063
0.7674852609634399,6.489368438720703,6.997389793395996,-0.09901253134012222,-0.23635248839855194,-0.3854036033153534
0.541779100894928,6.444079875946045,7.448246479034424,-0.10220648348331451,-0.140533909201622,-0.39179152250289917
0.6177710294723511,6.516020774841309,8.222502708435059,0.05429719388484955,-0.15543901920318604,-0.4216017425060272
0.44073420763015747,6.822507858276367,6.01431131362915,0.126693457365036,0.14798647165298462,-0.3193952441215515
0.038900990039110184,6.667612075805664,7.874998569488525,-0.1650208830833435,-0.24593433737754822,-0.34175291657447815
0.0940825492143631,6.608130931854248,7.9037580490112305,0.08517206460237503,-0.03087487444281578,-0.20760691165924072
0.6449213027954102,6.685990333557129,6.856639385223389,0.08197811245918274,-0.06281439960002899,-0.18844319880008698
1.0097018480300903,6.625177383422852,6.450908184051514,-0.047909289598464966,-0.15863297879695892,-0.2108008712530136
1.0659847259521484,6.573098659515381,6.771434783935547,-0.12882275879383087,-0.1852492392063141,-0.21612411737442017
1.0405679941177368,6.347593784332275,7.4171600341796875,-0.11178833991289139,-0.16927948594093323,-0.24593433737754822
1.0557663440704346,6.35661506652832,7.320568561553955,-0.03619812801480293,-0.1575683206319809,-0.2981022298336029
0.6233351826667786,6.590518951416016,7.084643840789795,0.1330813616514206,0.018099064007401466,-0.34601151943206787
0.5834860801696777,6.82956600189209,6.577906131744385,0.15863297879695892,0.0021293016616255045,-0.3396236300468445
0.5340219140052795,7.080870628356934,6.435307502746582,0.11604694277048111,0.043650683015584946,-0.3374943137168884
0.38886624574661255,7.201605319976807,6.535806655883789,0.06494370102882385,0.03193952515721321,-0.33430036902427673
0.3913753628730774,7.282759189605713,6.958239555358887,0.043650683015584946,0.017034413293004036,-0.3321710526943207
-0.3060843348503113,7.4462738037109375,6.934747695922852,0.13840460777282715,0.008517206646502018,-0.2672273516654968
-0.3043796420097351,7.438248634338379,6.626212120056152,0.11178833991289139,0.02661627158522606,-0.19483110308647156
-0.1505761295557022,7.286408424377441,6.667248725891113,0.07559020817279816,0.05749114602804184,-0.14159856736660004
-0.0899357944726944,7.203846454620361,6.692215442657471,0.06600835174322128,0.045779984444379807,-0.12243484705686569
-0.05433880165219307,7.120758533477783,6.627657890319824,0.05642649531364441,0.0074525559321045876,-0.1192408949136734
0.10029789805412292,7.14133882522583,6.66522741317749,0.02555162087082863,-0.08091346174478531,-0.12456414848566055
0.0746416300535202,7.11707067489624,6.742416858673096,0.020228365436196327,-0.09901253134012222,-0.1330813616514206
-0.0342370830476284,7.099085807800293,6.822842597961426,0.05003859102725983,-0.02342231757938862,-0.1192408949136734
0.029774291440844536,7.103701591491699,6.720725059509277,0.07878416031599045,0.043650683015584946,-0.09688322991132736
-0.06865613162517548,7.196395397186279,7.215807914733887,0.13414600491523743,0.0947539210319519,-0.11178833991289139
-0.22905805706977844,7.316364288330078,7.411203384399414,0.2384817898273468,0.14585717022418976,-0.09368927031755447
-0.28082069754600525,7.375960826873779,7.268221855163574,0.3481408357620239,0.22144737839698792,-0.07133160531520844
-0.3215125501155853,7.615227699279785,6.922010898590088,0.43650683760643005,0.29916688799858093,-0.041521381586790085
-1.4641979932785034,7.966390132904053,3.597987174987793,-0.3055547773838043,-0.2565808594226837,0.17353808879852295
0.7856716513633728,7.765928268432617,7.6839704513549805,-0.16182692348957062,0.0010646508308127522,0.041521381586790085
-0.001781286089681089,7.713658332824707,8.82223129272461,0.08623671531677246,-0.045779984444379807,-0.0596204474568367
-0.3146938681602478,7.613418102264404,7.517448902130127,0.12243484705686569,-0.13414600491523743,-0.013840461149811745
-0.1907699853181839,7.523893356323242,8.199777603149414,0.10220648348331451,-0.1085943877696991,-0.040456730872392654
-0.18310855329036713,7.423346519470215,7.787964820861816,0.3023608326911926,-0.19908970594406128,-0.09262461960315704
-0.4452257454395294,7.484743595123291,6.701303482055664,0.35239943861961365,-0.18311993777751923,-0.12030554562807083
-0.5115451216697693,7.006324768066406,6.150301933288574,-0.08836601674556732,-0.16289158165454865,-0.02661627158522606
-0.6568731665611267,6.666999340057373,6.964962482452393,-0.10220648348331451,-0.2842617630958557,-0.05749114602804184
-1.0167982578277588,6.52721643447876,7.387960433959961,-0.004258603323251009,-0.26190412044525146,-0.07559020817279816
-1.4644181728363037,6.601992130279541,7.188963890075684,0.1543743759393692,-0.06494370102882385,-0.02874557301402092
-1.3654228448867798,6.705105304718018,5.891374111175537,0.2171887755393982,0.042586032301187515,0.047909289598464966
-1.0686662197113037,6.876137733459473,4.997235298156738,0.05855579674243927,-0.047909289598464966,0.045779984444379807
-1.173465371131897,6.978878021240234,5.23509407043457,-0.15543901920318604,-0.11817624419927597,0.019163714721798897
-1.5049760341644287,7.001728057861328,6.250743865966797,-0.22677062451839447,-0.11817624419927597,0.02555162087082863
-1.3287245035171509,7.014934539794922,6.5356340408325195,-0.17247343063354492,-0.047909289598464966,0.08943066745996475
-0.9406818151473999,6.932181358337402,6.425980091094971,-0.15863297879695892,0.006387905217707157,0.09901253134012222
-0.4926309585571289,6.728166580200195,7.160348415374756,-0.06813765317201614,-0.03193952515721321,-0.040456730872392654
-0.28271692991256714,6.711876392364502,7.005529880523682,0.03726277872920036,0.05855579674243927,-0.0596204474568367
-0.24577917158603668,6.692234516143799,6.541504859924316,0.07878416031599045,0.10752973705530167,-0.10220648348331451
-0.5140063762664795,6.772057056427002,6.401051044464111,0.05323254317045212,0.05110324174165726,-0.13095206022262573
-0.7834210991859436,6.902646541595459,6.328402042388916,0.02874557301402092,-0.018099064007401466,-0.13946926593780518
-0.8641918897628784,6.993817329406738,6.392010688781738,0.009581857360899448,-0.012775810435414314,-0.13521066308021545
-0.9603717923164368,6.9476094245910645,6.337500095367432,0.0074525559321045876,-0.0031939526088535786,-0.12882275879383087
-0.8354231715202332,6.947542667388916,6.468242168426514,0.012775810435414314,0.02981022372841835,-0.12456414848566055
-0.798514187335968,6.9486823081970215,6.4875969886779785,0.022357666864991188,0.05110324174165726,-0.13521066308021545
-0.8839009404182434,7.056105136871338,6.318576335906982,0.043650683015584946,0.09688322991132736,-0.15969762206077576
-1.1553938388824463,7.140563011169434,6.282193660736084,0.03087487444281578,0.09688322991132736,-0.17779669165611267
-1.2880901098251343,7.183285236358643,6.505218029022217,0.02981022372841835,0.09368927031755447,-0.17779669165611267
-1.291729211807251,7.205924987792969,6.622984409332275,0.039392080157995224,0.08623671531677246,-0.17779669165611267
-1.220832109451294,7.285067558288574,6.915584564208984,0.08730136603116989,0.05429719388484955,-0.17992599308490753
-1.3504254817962646,7.476354598999023,6.897244930267334,0.18311993777751923,0.05642649531364441,-0.19057250022888184
-1.5371540784835815,7.5523271560668945,6.800729751586914,0.23422318696975708,0.06707300245761871,-0.1820552945137024
-1.6853264570236206,7.787696361541748,6.11897611618042,0.2949082851409912,0.11498229205608368,-0.12030554562807083
-0.9212217926979065,7.840282917022705,5.790855407714844,-0.28532642126083374,0.022357666864991188,-0.020228365436196327
-0.8350879549980164,7.427896022796631,6.67384672164917,-0.17460273206233978,-0.22889992594718933,-0.12243484705686569
-1.70988130569458,7.4704742431640625,6.6900410652160645,-0.05749114602804184,-0.4130845367908478,-0.06174974888563156
-1.0263655185699463,7.6015424728393555,6.4358344078063965,-0.11178833991289139,-0.38753291964530945,-0.0947539210319519
-1.3334746360778809,7.563972473144531,7.040504455566406,-0.07771950960159302,-0.29597294330596924,-0.1054004356265068
-1.4908310174942017,7.4894938468933105,7.22176456451416,0.05216789245605469,-0.21612411737442017,-0.07878416031599045
-1.3176153898239136,7.497931003570557,6.679200172424316,0.1362753063440323,-0.18311993777751923,-0.0596204474568367
-1.0577391386032104,7.605918884277344,6.200331211090088,0.13733996450901031,-0.19802506268024445,-0.06387905031442642
-0.8994441032409668,7.734525680541992,5.986979007720947,0.11391764134168625,-0.2278352826833725,-0.09794788062572479
-1.2295182943344116,7.841795921325684,5.811331272125244,0.05110324174165726,-0.18737854063510895,-0.07984881103038788
-1.2167332172393799,7.821971893310547,5.941920280456543,-0.07665485888719559,-0.2065422683954239,-0.03726277872920036
-1.070131540298462,7.7845072746276855,6.745596408843994,-0.1192408949136734,-0.30023154616355896,-0.043650683015584946
-1.0947344303131104,7.720141410827637,7.174445629119873,-0.07559020817279816,-0.35878732800483704,-0.05216789245605469
-1.2041877508163452,7.643153667449951,7.262083053588867,0.02661627158522606,-0.30661943554878235,-0.03300417587161064
-1.2034406661987305,7.5773420333862305,7.138484954833984,0.13946926593780518,-0.15969762206077576,0.01171115878969431
-0.8781740069389343,7.556110382080078,6.459029197692871,0.19376645982265472,-0.02874557301402092,0.08197811245918274
-0.2700851261615753,7.497758865356445,5.961858749389648,0.10007718205451965,-0.06174974888563156,0.07771950960159302
-0.2838757038116455,7.342719554901123,6.461950302124023,-0.005323254037648439,-0.11391764134168625,0.021293016150593758
-0.46617981791496277,7.283219337463379,7.186933517456055,0.005323254037648439,-0.11711159348487854,-0.005323254037648439
-0.6105597615242004,7.164409160614014,7.222301006317139,0.0947539210319519,-0.08836601674556732,-0.0010646508308127522
-0.4126741886138916,7.1324896812438965,6.580779075622559,0.12562879920005798,-0.0841074138879776,0.018099064007401466
-0.1851867139339447,7.086999893188477,6.331830024719238,0.05642649531364441,-0.10220648348331451,-0.009581857360899448
-0.34879687428474426,7.01688814163208,6.418797492980957,-0.012775810435414314,-0.08943066745996475,-0.04684463515877724
-0.5545641183853149,6.921388149261475,6.888711929321289,-0.004258603323251009,-0.040456730872392654,-0.048973940312862396
-0.3640814423561096,6.765017986297607,7.202506065368652,0.044715333729982376,0.0074525559321045876,-0.02555162087082863
0.001110909623093903,6.632656574249268,7.239826679229736,0.12882275879383087,0.09368927031755447,-0.02981022372841835
0.15437813103199005,6.577322483062744,7.062272548675537,0.17034412920475006,0.045779984444379807,-0.070266954600811
-0.13215036690235138,6.73309850692749,6.949275970458984,0.19696040451526642,-0.017034413293004036,-0.1054004356265068
-0.46308648586273193,6.815506935119629,6.803153038024902,0.2203827202320099,-0.008517206646502018,-0.10114183276891708
-0.9395326375961304,6.9767231941223145,6.36501407623291,0.24486969411373138,0.09368927031755447,-0.015969762578606606
-2.485746383666992,7.41819429397583,-1.8558032512664795,-0.2938436269760132,0.05216789245605469,0.11178833991289139
0.5704424977302551,6.500142574310303,4.644808769226074,-0.6984109282493591,0.15330971777439117,-0.05323254317045212
-0.6339462995529175,7.130383014678955,9.392903327941895,-0.28958502411842346,-0.18737854063510895,-0.09368927031755447
-0.4659116566181183,7.075469017028809,6.011160850524902,0.0,-0.0021293016616255045,0.024486970156431198
-1.0329160690307617,7.026244640350342,5.608714580535889,-0.3374943137168884,0.25125759840011597,0.08836601674556732
-0.9604771137237549,6.91628360748291,6.199584007263184,-0.43970078229904175,0.10433578491210938,0.11498229205608368
-0.42583268880844116,7.01666784286499,7.683692455291748,-0.3928561508655548,-0.15863297879695892,0.12137019634246826
-0.2093585729598999,7.1724724769592285,6.481966018676758,-0.2704213261604309,-0.3534640669822693,0.07665485888719559
-0.535487174987793,7.332769393920898,5.450390815734863,-0.3704984784126282,-0.5333900451660156,0.06813765317201614
-0.34577059745788574,7.361250877380371,5.750805854797363,-0.5152910351753235,-0.4727049767971039,0.15330971777439117
-0.030224401503801346,7.325615882873535,6.285086154937744,-0.5493598580360413,-0.3183306157588959,0.21931807696819305
0.19822074472904205,7.176619529724121,6.714921951293945,-0.5365840196609497,-0.22889992594718933,0.23209388554096222
0.28301379084587097,7.114389419555664,6.900500774383545,-0.4237310290336609,-0.24274039268493652,0.17779669165611267
0.22253625094890594,6.913784027099609,6.848661422729492,-0.4216017425060272,-0.2768092155456543,0.1714087873697281
0.12507309019565582,6.720983982086182,7.180642127990723,-0.4098905622959137,-0.203348308801651,0.2139948159456253
0.25819069147109985,6.619976997375488,7.604942321777344,-0.3704984784126282,-0.0734609067440033,0.2725506126880646
0.5643325448036194,6.5395612716674805,7.870794296264648,-0.2874557375907898,0.05749114602804184,0.3130073547363281
0.8456703424453735,6.367733955383301,7.992544651031494,-0.15224507451057434,0.10220648348331451,0.2725506126880646
0.845632016658783,6.367638111114502,7.952149391174316,-0.10114183276891708,0.07665485888719559,0.25125759840011597
0.7773590087890625,6.417571067810059,7.356175422668457,-0.045779984444379807,0.010646508075296879,0.2352878302335739
1.0439006090164185,6.478058815002441,7.108202934265137,-0.09794788062572479,0.03087487444281578,0.2310292273759842
1.1467173099517822,6.631622791290283,7.478662490844727,-0.1054004356265068,0.12456414848566055,0.19057250022888184
1.158132791519165,6.598697662353516,7.651256084442139,-0.07878416031599045,0.1543743759393692,0.16927948594093323
0.9608410000801086,6.555276393890381,7.67500638961792,-0.0010646508308127522,0.11817624419927597,0.1298874020576477
0.7710095643997192,6.637340068817139,7.566539287567139,0.004258603323251009,0.06281439960002899,0.07878416031599045
0.5652422904968262,6.776366710662842,7.972337245941162,0.0351334773004055,0.06494370102882385,0.06920230388641357
0.39622122049331665,6.81994104385376,8.149421691894531,0.1192408949136734,0.09155996888875961,0.09581857919692993
0.654229998588562,7.201385021209717,7.176792144775391,0.2629687488079071,0.05003859102725983,0.09581857919692993
0.20716547966003418,7.272311210632324,6.655219554901123,0.18418459594249725,-0.012775810435414314,0.11604694277048111
0.38636669516563416,7.310647010803223,8.24411678314209,0.2768092155456543,0.4375714957714081,0.1192408949136734
1.0440539121627808,6.929576396942139,6.23233699798584,0.1192408949136734,-0.004258603323251009,0.2246413230895996
1.4094569683074951,6.826749801635742,7.5482378005981445,-0.0021293016616255045,-0.22570598125457764,0.06387905031442642
0.511478066444397,7.222741603851318,8.663092613220215,0.13946926593780518,0.11285299062728882,0.020228365436196327
0.12272677570581436,7.0544962882995605,7.734392166137695,0.2736152708530426,0.12456414848566055,0.11391764134168625
0.45198696851730347,7.044679641723633,6.999563694000244,0.23741713166236877,0.10646508634090424,0.12030554562807083
0.4632014036178589,6.872575283050537,6.782754421234131,0.126693457365036,0.08943066745996475,0.10220648348331451
0.3336942493915558,6.629362106323242,7.063795566558838,0.0351334773004055,-0.0031939526088535786,0.1298874020576477
0.453978955745697,6.291540622711182,7.49899435043335,0.02661627158522606,-0.010646508075296879,0.12456414848566055
0.22436542809009552,6.087219715118408,7.510792255401611,0.06813765317201614,0.03087487444281578,0.11178833991289139
0.11297759413719177,6.023581504821777,7.428346157073975,0.11178833991289139,0.03726277872920036,0.1054004356265068
0.06621403992176056,6.067203998565674,7.214879035949707,0.11817624419927597,0.02555162087082863,0.10220648348331451
0.1411142498254776,6.233198642730713,7.114236354827881,-0.010646508075296879,0.0031939526088535786,0.07559020817279816
0.0829543024301529,6.50363826751709,7.050253391265869,-0.021293016150593758,-0.06920230388641357,0.048973940312862396
-0.497610867023468,7.0399394035339355,6.027766704559326,0.02981022372841835,0.3928561508655548,0.1756673902273178
0.9206854701042175,6.56989049911499,6.079672813415527,-0.13521066308021545,0.10220648348331451,0.14479251205921173
1.5180100202560425,6.3960041999816895,6.929461479187012,-0.3438822329044342,-0.26083946228027344,0.010646508075296879
0.7002178430557251,6.4419732093811035,8.755988121032715,-0.19057250022888184,-0.10752973705530167,-0.1575683206319809
-0.38319677114486694,6.444769382476807,7.2577924728393555,0.17247343063354492,0.02768092229962349,-0.07665485888719559
-0.027408821508288383,6.604099273681641,6.067079544067383,0.10965903848409653,-0.03406882658600807,-0.038327429443597794
0.12765882909297943,6.721041679382324,5.908046722412109,0.014905111864209175,-0.07878416031599045,-0.03193952515721321
0.5378621816635132,6.763782501220703,6.205723285675049,-0.11285299062728882,-0.1362753063440323,-0.02874557301402092
0.738659143447876,6.771099090576172,6.747138023376465,-0.15224507451057434,-0.13840460777282715,-0.07771950960159302
0.6623128056526184,6.801448345184326,6.8692708015441895,-0.13095206022262573,-0.1298874020576477,-0.11604694277048111
0.05225105583667755,6.813457489013672,6.6743927001953125,-0.0947539210319519,-0.14798647165298462,-0.14479251205921173
-0.11705730855464935,6.829910755157471,6.30409574508667,-0.1330813616514206,-0.14159856736660004,-0.11285299062728882
0.02815581113100052,6.854791164398193,6.367522716522217,-0.17779669165611267,-0.140533909201622,-0.10220648348331451
0.3838192820549011,6.837083339691162,7.0383687019348145,-0.2246413230895996,-0.13521066308021545,-0.1362753063440323
0.2679973840713501,6.880878448486328,7.584141731262207,-0.15330971777439117,-0.13733996450901031,-0.19163715839385986
-0.13552139699459076,6.985141277313232,7.735905170440674,-0.043650683015584946,-0.15969762206077576,-0.20547761023044586
-0.4281981885433197,7.090476036071777,7.185238838195801,0.044715333729982376,-0.1650208830833435,-0.15330971777439117
-0.2423027902841568,7.11124849319458,6.8081135749816895,0.010646508075296879,-0.17247343063354492,-0.070266954600811
0.10429142415523529,7.017261505126953,7.2353925704956055,-0.02768092229962349,-0.16608552634716034,-0.042586032301187515
0.2251315712928772,7.037564277648926,7.781279563903809,0.03087487444281578,-0.20441296696662903,-0.08091346174478531
-0.5503886938095093,7.1806135177612305,7.743595123291016,0.30342549085617065,0.03193952515721321,-0.08836601674556732
-0.31843841075897217,7.029088973999023,5.652853965759277,0.24699899554252625,-0.07559020817279816,-0.012775810435414314
0.35764583945274353,7.065231800079346,5.9123759269714355,-0.045779984444379807,-0.39072686433792114,-0.039392080157995224
0.29963913559913635,7.171448230743408,7.731748580932617,-0.08730136603116989,-0.15330971777439117,-0.09262461960315704
0.1122114509344101,7.099190711975098,8.132078170776367,0.013840461149811745,-0.08730136603116989,-0.09155996888875961
0.2806195914745331,7.162053108215332,7.607958793640137,0.20547761023044586,-0.1437278687953949,-0.09049531817436218
0.3295091986656189,7.195380210876465,7.058423042297363,0.22677062451839447,-0.12243484705686569,-0.1085943877696991
0.02057098038494587,7.30111837387085,6.546925067901611,0.1650208830833435,-0.09688322991132736,-0.12030554562807083
0.07375099509954453,7.410849094390869,6.994162082672119,0.11498229205608368,-0.18844319880008698,-0.08623671531677246
0.39414307475090027,7.350946426391602,7.415647029876709,0.12775810062885284,-0.22357667982578278,-0.0734609067440033
0.6467313170433044,7.126781940460205,8.276573181152344,0.1852492392063141,-0.15969762206077576,-0.07559020817279816
0.6033579707145691,7.19087028503418,4.523614406585693,0.18631389737129211,-0.12030554562807083,0.017034413293004036
1.5892423391342163,6.750671863555908,5.93170166015625,-0.27148595452308655,-0.44715335965156555,-0.1192408949136734
0.6581277251243591,6.701504230499268,8.602213859558105,-0.3087487518787384,-0.13946926593780518,-0.203348308801651
0.0940825492143631,6.4121317863464355,9.101825714111328,-0.17353808879852295,-0.05536184459924698,-0.18099063634872437
0.17800410091876984,6.4890336990356445,8.711063385009766,0.12137019634246826,-0.04684463515877724,-0.1362753063440323
0.7823389172554016,6.5858073234558105,7.120049476623535,0.2065422683954239,-0.042586032301187515,-0.140533909201622
0.8306155800819397,6.573730945587158,6.28874397277832,0.08091346174478531,-0.02874557301402092,-0.16927948594093323
1.2288192510604858,6.756494522094727,8.302803993225098,0.13095206022262573,0.11391764134168625,-0.24061109125614166
-0.35737767815589905,6.839869976043701,6.494319915771484,0.31726595759391785,0.5887519121170044,-0.10433578491210938
0.2838948667049408,6.563445091247559,4.566748142242432,0.28532642126083374,0.4695110321044922,-0.048973940312862396
1.1354070901870728,6.560141563415527,4.924872875213623,-0.11391764134168625,-0.24380503594875336,-0.06707300245761871
1.575068712234497,6.6430768966674805,7.263500690460205,-0.3683691918849945,-0.5301961302757263,-0.23209388554096222
0.27713364362716675,6.636938095092773,8.790733337402344,-0.17673203349113464,-0.21931807696819305,-0.13201670348644257
0.4036240875720978,6.501674652099609,8.626346588134766,-0.020228365436196327,-0.03193952515721321,-0.05110324174165726
0.8438699245452881,6.561587333679199,7.367044925689697,0.11711159348487854,0.08623671531677246,0.038327429443597794
1.4604343175888062,6.588172912597656,6.003326892852783,0.022357666864991188,-0.045779984444379807,0.0021293016616255045
1.3290692567825317,6.656905174255371,5.695882320404053,-0.18631389737129211,-0.11817624419927597,-0.039392080157995224
0.6335536241531372,6.786067962646484,7.147094249725342,0.015969762578606606,0.32791244983673096,-0.16927948594093323
0.1538035124540329,6.66398286819458,5.423364639282227,0.04684463515877724,0.6643421053886414,0.047909289598464966
1.053458333015442,6.5660505294799805,4.293206214904785,-0.2672273516654968,-0.02981022372841835,0.05003859102725983
2.406546115875244,6.420070648193359,6.117185592651367,-0.6803118586540222,-0.5972691178321838,-0.12775810062885284
1.3604141473770142,6.488822937011719,8.800329208374023,-0.5525537729263306,-0.3268478214740753,-0.28532642126083374
0.8227530717849731,6.486706733703613,8.889421463012695,-0.21293017268180847,-0.09368927031755447,-0.23315852880477905
0.7507258653640747,6.693258762359619,8.0378999710083,0.012775810435414314,0.08517206460237503,-0.1682148277759552
0.8247833251953125,6.835206508636475,6.801064968109131,0.0021293016616255045,0.013840461149811745,-0.16608552634716034
0.6464440226554871,6.910375118255615,6.615025997161865,-0.13840460777282715,-0.16395622491836548,-0.16076228022575378
0.6129060387611389,6.961467266082764,7.284483432769775,-0.2108008712530136,-0.2108008712530136,-0.1298874020576477
-0.07739975303411484,7.113833904266357,7.830341815948486,0.08730136603116989,0.1788613349199295,-0.1330813616514206
0.25133371353149414,6.925582408905029,6.551234722137451,0.08304276317358017,0.11498229205608368,0.019163714721798897
1.2023968696594238,6.97183895111084,6.55343770980835,-0.11604694277048111,-0.20760691165924072,-0.008517206646502018
0.6458119750022888,6.840157508850098,8.083189010620117,-0.15224507451057434,-0.10646508634090424,-0.11072368919849396
0.19533812999725342,6.693507671356201,8.606877326965332,0.05216789245605469,0.02768092229962349,-0.03300417587161064
0.6354402899742126,6.88996696472168,8.087287902832031,0.23422318696975708,0.039392080157995224,0.006387905217707157
0.9487072229385376,6.9833502769470215,7.074157238006592,0.2672273516654968,-0.0074525559321045876,-0.01171115878969431
1.2802850008010864,7.091041088104248,7.966658115386963,0.32365384697914124,0.17247343063354492,-0.047909289598464966
1.9566086530685425,6.980783462524414,5.386828899383545,-0.27467992901802063,-0.4205370843410492,-0.0596204474568367
0.7285556197166443,6.848268985748291,8.739688873291016,-0.3747570812702179,-0.39179152250289917,-0.17353808879852295
0.3489309549331665,7.011956214904785,9.496160507202148,-0.21186551451683044,-0.22889992594718933,-0.13414600491523743
0.16963396966457367,6.866264343261719,9.672086715698242,0.15011577308177948,-0.018099064007401466,-0.040456730872392654
0.787050724029541,6.960355758666992,8.13367748260498,0.35239943861961365,0.14479251205921173,-0.017034413293004036
0.08984959870576859,7.213863849639893,7.555774688720703,-0.02874557301402092,-0.10752973705530167,-0.10752973705530167
0.32081344723701477,7.218585014343262,9.867463111877441,0.43970078229904175,0.4450240433216095,-0.18099063634872437
-1.172747015953064,6.718177795410156,6.17726993560791,0.4982565939426422,0.5514891147613525,0.06707300245761871
-0.06462428718805313,6.632274150848389,4.616355895996094,0.1437278687953949,-0.07133160531520844,0.1682148277759552
0.6863793134689331,6.19340705871582,6.392672061920166,-0.2704213261604309,-0.3406882584095001,-0.004258603323251009
-0.593953549861908,6.183743953704834,8.628904342651367,-0.23741713166236877,-0.06920230388641357,0.03619812801480293
-0.76149982213974,5.816473484039307,9.102629661560059,0.024486970156431198,-0.013840461149811745,0.13733996450901031
0.22933578491210938,5.943787574768066,7.919569492340088,0.25019294023513794,0.05429719388484955,0.18311993777751923
0.4336569607257843,6.188149452209473,6.265099048614502,0.16395622491836548,-0.020228365436196327,0.10752973705530167
0.38986220955848694,6.404662132263184,5.686583518981934,-0.03193952515721321,-0.08623671531677246,0.06920230388641357
0.6261124610900879,6.5489654541015625,6.043912887573242,-0.23209388554096222,-0.18099063634872437,0.02342231757938862
0.7156556248664856,6.601503372192383,7.128467082977295,-0.26403340697288513,-0.12562879920005798,-0.045779984444379807
0.2775454521179199,6.5530548095703125,7.56235408782959,-0.16715018451213837,-0.045779984444379807,-0.11178833991289139
-0.10300813615322113,6.543468475341797,7.454432964324951,-0.10114183276891708,-0.0734609067440033,-0.13521066308021545
-0.4053575098514557,6.625675201416016,7.477207183837891,-0.06068509817123413,-0.11285299062728882,-0.13946926593780518
-0.4881010949611664,6.777630805969238,6.575033187866211,0.03300417587161064,-0.10433578491210938,-0.02981022372841835
-0.05867709219455719,6.721434116363525,6.6061577796936035,-0.041521381586790085,-0.1192408949136734,0.004258603323251009
-0.6331802010536194,6.908804416656494,6.968563556671143,0.2384817898273468,0.29916688799858093,-0.03406882658600807
-0.5812738537788391,6.487165927886963,4.82340669631958,0.126693457365036,0.3396236300468445,0.12882275879383087
-0.11891520768404007,6.431467056274414,4.560733795166016,-0.05110324174165726,0.0031939526088535786,0.10965903848409653
1.3338863849639893,6.394577503204346,5.625732421875,-0.4386361539363861,-0.5025151968002319,-0.018099064007401466
0.3505590260028839,6.543525218963623,8.417533874511719,-0.45354124903678894,-0.44395941495895386,-0.16927948594093323
-0.2869115471839905,6.578165054321289,8.469354629516602,-0.1362753063440323,-0.19376645982265472,-0.10752973705530167
-0.24796268343925476,6.602499485015869,8.112953186035156,0.03087487444281578,-0.07665485888719559,-0.05216789245605469
0.42433875799179077,6.610706806182861,6.897809982299805,0.041521381586790085,-0.06174974888563156,-0.0596204474568367
0.6492404937744141,6.72364616394043,6.466432094573975,-0.05536184459924698,-0.12243484705686569,-0.15330971777439117
0.5463663935661316,6.738624572753906,6.496177673339844,-0.09901253134012222,-0.15011577308177948,-0.18418459594249725
0.33908599615097046,6.832228183746338,6.75527811050415,-0.17460273206233978,-0.17034412920475006,-0.22889992594718933
-0.02738966792821884,6.7862114906311035,7.850826740264893,-0.15969762206077576,-0.13095206022262573,-0.2139948159456253
0.005209783092141151,6.802396297454834,8.177950859069824,-0.06920230388641357,-0.0734609067440033,-0.2065422683954239
-0.1266724169254303,6.7989678382873535,8.053252220153809,0.06707300245761871,-0.008517206646502018,-0.2171887755393982
-0.2677292227745056,6.837744235992432,7.719873428344727,0.10646508634090424,-0.02981022372841835,-0.2203827202320099
-0.3523307144641876,7.006372451782227,7.434686183929443,0.140533909201622,-0.15011577308177948,-0.2171887755393982
-0.49847280979156494,7.113565921783447,7.39655065536499,0.14585717022418976,-0.1682148277759552,-0.1820552945137024
-0.4527435302734375,7.043559551239014,7.3841681480407715,0.16395622491836548,-0.10114183276891708,-0.12243484705686569
0.017027562484145164,7.023112773895264,7.5527873039245605,0.20441296696662903,-0.07878416031599045,-0.09794788062572479
0.35365229845046997,7.039374351501465,7.338381290435791,0.2587101459503174,-0.11604694277048111,-0.14159856736660004
0.36265450716018677,7.095915794372559,7.090322971343994,0.27574455738067627,-0.15011577308177948,-0.16608552634716034
0.2569552958011627,7.142458915710449,6.757758617401123,0.26190412044525146,-0.16182692348957062,-0.18631389737129211
0.027495011687278748,7.087650775909424,6.56413459777832,0.1682148277759552,-0.14798647165298462,-0.20121900737285614
0.012105083093047142,7.145906925201416,7.145715236663818,0.12882275879383087,-0.11711159348487854,-0.20228366553783417
0.10599610209465027,7.145552158355713,7.475578784942627,0.19057250022888184,-0.12775810062885284,-0.19908970594406128
0.23192152380943298,7.141128063201904,7.457382678985596,0.22570598125457764,-0.13201670348644257,-0.20228366553783417
0.39232346415519714,7.187527179718018,7.143703937530518,0.26509806513786316,-0.09262461960315704,-0.19908970594406128
0.4926117956638336,7.209333896636963,6.789764881134033,0.2587101459503174,-0.04684463515877724,-0.20547761023044586
0.4063630700111389,7.170222282409668,6.590097427368164,0.23741713166236877,-0.07239625602960587,-0.2108008712530136
0.2763674855232239,7.011659145355225,6.54141902923584,0.1469218134880066,-0.11178833991289139,-0.2001543641090393
0.49128061532974243,6.819299221038818,6.777707576751709,0.047909289598464966,-0.1437278687953949,-0.21825341880321503
0.41368934512138367,6.69989538192749,7.485548496246338,0.009581857360899448,-0.1756673902273178,-0.28213247656822205
0.12991896271705627,6.623032093048096,7.872183322906494,0.06920230388641357,-0.2065422683954239,-0.33855897188186646
-1.125993013381958,7.297306537628174,5.397191524505615,0.16289158165454865,0.22251202166080475,-0.15011577308177948
0.08504204452037811,6.942859172821045,5.786622524261475,0.12775810062885284,0.25125759840011597,-0.09794788062572479
1.0431920289993286,6.757663249969482,6.743671417236328,-0.07665485888719559,-0.2384817898273468,-0.2310292273759842
0.2712821960449219,6.582053184509277,7.840971946716309,-0.1054004356265068,-0.22357667982578278,-0.2416757345199585
-0.0055641247890889645,6.512582778930664,8.26990795135498,0.048973940312862396,0.02768092229962349,-0.1543743759393692
0.7264295220375061,6.428585052490234,7.497221946716309,0.2171887755393982,0.017034413293004036,-0.08943066745996475
0.8087996244430542,6.526919364929199,6.651360511779785,0.22251202166080475,0.16395622491836548,-0.11285299062728882
0.5280555486679077,6.601762294769287,5.859885215759277,0.16182692348957062,0.19589576125144958,-0.09901253134012222
0.5935896635055542,6.672333717346191,5.6841607093811035,0.009581857360899448,0.15863297879695892,-0.07133160531520844
1.044494390487671,6.634055137634277,6.283649444580078,-0.126693457365036,0.11285299062728882,-0.10752973705530167
-0.10178229957818985,6.557661056518555,7.6548566818237305,-0.126693457365036,0.2491282969713211,-0.1543743759393692
-0.508863627910614,6.628749370574951,7.697205066680908,-0.02555162087082863,0.27893853187561035,-0.08836601674556732
-0.1561594158411026,6.631862163543701,7.384312152862549,0.07771950960159302,0.2065422683954239,-0.05749114602804184
0.012124236673116684,6.918457508087158,6.9869890213012695,0.14585717022418976,0.18311993777751923,-0.12349949777126312
-1.4022743701934814,8.078256607055664,3.8350610733032227,-0.17992599308490753,-0.40456733107566833,-0.004258603323251009
0.24592281877994537,7.198971748352051,8.193035125732422,-0.07984881103038788,-0.17353808879852295,0.045779984444379807
0.061483100056648254,7.273488998413086,7.092018127441406,-0.045779984444379807,-0.048973940312862396,0.004258603323251009
0.13164278864860535,7.3326640129089355,6.4275221824646,-0.11498229205608368,-0.15330971777439117,0.06387905031442642
0.6695719957351685,7.082920074462891,7.2443084716796875,-0.2246413230895996,-0.13946926593780518,0.10646508634090424
1.029334306716919,6.978341102600098,7.737944602966309,-0.12137019634246826,-0.15224507451057434,0.08091346174478531
1.0712999105453491,6.991250991821289,7.39363956451416,-0.005323254037648439,-0.14479251205921173,0.02342231757938862
0.9516952037811279,7.081110000610352,7.050052642822266,0.02768092229962349,-0.15330971777439117,-0.013840461149811745
1.0113108158111572,7.083685874938965,6.9896321296691895,0.044715333729982376,-0.16289158165454865,-0.03193952515721321
1.1956547498703003,7.139442443847656,7.036520481109619,0.05749114602804184,-0.16395622491836548,-0.07984881103038788
0.70523601770401,7.372197151184082,6.72580099105835,0.08304276317358017,-0.18311993777751923,-0.15011577308177948
0.46273213624954224,7.3209228515625,6.72927713394165,0.03300417587161064,-0.18311993777751923,-0.12030554562807083
0.5133934617042542,7.294126987457275,6.9527716636657715,0.005323254037648439,-0.1575683206319809,-0.10646508634090424
0.553778886795044,7.297143459320068,7.6790666580200195,0.03087487444281578,-0.10965903848409653,-0.10433578491210938
0.283607542514801,7.466624736785889,7.611636161804199,0.11817624419927597,-0.1852492392063141,-0.11711159348487854
-0.06274724006652832,7.397719383239746,7.083102226257324,0.12243484705686569,-0.25445154309272766,-0.09794788062572479
-0.04422569274902344,7.342336654663086,7.199355125427246,0.045779984444379807,-0.2970375716686249,-0.06920230388641357
0.3062758445739746,7.456185340881348,8.276764869689941,0.29916688799858093,0.2842617630958557,-0.12030554562807083
0.06732495129108429,7.02001953125,6.2258148193359375,0.4524766206741333,0.5451012253761292,-0.03726277872920036
0.5112674236297607,7.08042049407959,5.025946140289307,0.3076840937137604,-0.2768092155456543,-0.06707300245761871
0.7232787609100342,7.185497283935547,6.299767017364502,0.012775810435414314,-0.6345319151878357,-0.1543743759393692
0.05385996401309967,7.036386013031006,7.5243821144104,-0.03406882658600807,-0.040456730872392654,-0.1575683206319809
-0.2873520851135254,6.820888996124268,7.589906692504883,0.126693457365036,0.0947539210319519,0.0
0.726984977722168,6.678520679473877,7.0247602462768555,0.19057250022888184,-0.019163714721798897,0.006387905217707157
0.538628339767456,6.629400730133057,6.52792501449585,0.14798647165298462,0.017034413293004036,-0.05749114602804184
-0.057001154869794846,6.434110641479492,6.483910083770752,0.03193952515721321,-0.044715333729982376,-0.06387905031442642
-0.11501745134592056,6.313097953796387,6.776615619659424,-0.006387905217707157,-0.039392080157995224,-0.06494370102882385
-0.3727293014526367,6.3549299240112305,7.223239421844482,0.0351334773004055,0.006387905217707157,-0.10752973705530167
-0.9217580556869507,6.5649871826171875,7.067127704620361,0.1054004356265068,0.03193952515721321,-0.11072368919849396
-1.06904935836792,6.78079080581665,6.578979015350342,0.13414600491523743,0.06920230388641357,-0.044715333729982376
-0.948783814907074,6.83076286315918,6.4271769523620605,0.12030554562807083,0.12243484705686569,-0.022357666864991188
-0.6705297231674194,6.861791610717773,6.204324722290039,0.06813765317201614,0.2001543641090393,-0.004258603323251009
-0.531273365020752,6.907827377319336,6.216228485107422,0.024486970156431198,0.2001543641090393,-0.014905111864209175
-0.4090445935726166,7.002359867095947,6.205253601074219,-0.045779984444379807,0.09368927031755447,-0.06387905031442642
-0.48998773097991943,7.15431547164917,6.115729331970215,-0.11817624419927597,-0.070266954600811,-0.12775810062885284
-0.640152096748352,7.176782131195068,6.135314464569092,-0.1852492392063141,-0.19483110308647156,-0.1298874020576477
-1.3600598573684692,7.440680503845215,4.037773132324219,-0.08730136603116989,-0.7793244123458862,-0.13946926593780518
0.5076090693473816,7.411826133728027,5.794600009918213,-0.4237310290336609,-0.04684463515877724,-0.038327429443597794
0.4363001585006714,6.860249996185303,7.5168070793151855,-0.3790156841278076,0.09049531817436218,-0.09688322991132736
-1.250999093055725,7.0138139724731445,7.588833808898926,-0.27148595452308655,0.02555162087082863,-0.14798647165298462
-0.7403445839881897,7.210282325744629,7.473548412322998,-0.12243484705686569,-0.20760691165924072,-0.08836601674556732
-0.8041261434555054,6.918065071105957,7.254096031188965,-0.13840460777282715,-0.17247343063354492,-0.08091346174478531
-0.7014723420143127,6.998031139373779,7.21111536026001,-0.12456414848566055,-0.19057250022888184,-0.05003859102725983
-0.4223850667476654,7.047255992889404,6.986117839813232,-0.1054004356265068,-0.2725506126880646,-0.05642649531364441
-0.255892276763916,7.160635948181152,6.723263263702393,-0.05536184459924698,-0.26190412044525146,-0.06920230388641357
-0.24872882664203644,7.12331485748291,6.225996971130371,-0.06600835174322128,-0.20760691165924072,-0.05429719388484955
0.19522321224212646,7.023266315460205,6.235631465911865,-0.1511804163455963,-0.2491282969713211,-0.06494370102882385
0.4614392817020416,6.910585403442383,6.8043212890625,-0.1650208830833435,-0.2555162012577057,-0.1085943877696991
0.625767707824707,6.916302680969238,7.055396556854248,-0.10752973705530167,-0.1927018016576767,-0.18311993777751923
0.3706415593624115,6.979165077209473,6.992600917816162,-0.06387905031442642,-0.19376645982265472,-0.24274039268493652
0.2297763228416443,6.996029853820801,7.014857769012451,-0.05536184459924698,-0.22251202166080475,-0.26083946228027344
0.22218191623687744,6.927210807800293,7.248541355133057,-0.03087487444281578,-0.2246413230895996,-0.2555162012577057
0.11194329708814621,6.980055809020996,7.179004192352295,0.024486970156431198,-0.23635248839855194,-0.2768092155456543
-0.3276512920856476,7.27080774307251,7.030036926269531,0.042586032301187515,-0.2768092155456543,-0.2778738737106323
-0.5706244707107544,7.327358245849609,6.854723930358887,0.012775810435414314,-0.31407198309898376,-0.2310292273759842
-0.4963371455669403,7.207523822784424,7.174110412597656,-0.015969762578606606,-0.2736152708530426,-0.19589576125144958
-0.4216093420982361,6.998309135437012,7.818533897399902,0.041521381586790085,-0.2171887755393982,-0.17247343063354492
0.19545304775238037,7.055655002593994,5.468471527099609,0.2384817898273468,-0.16182692348957062,-0.1437278687953949
0.5731814503669739,7.088388442993164,6.30625057220459,0.02981022372841835,-0.5791700482368469,-0.3044901490211487
-0.3328227400779724,7.317149639129639,7.7966413497924805,0.018099064007401466,-0.2917143404483795,-0.3257831633090973
-0.6241013407707214,7.224254608154297,7.84477424621582,0.20441296696662903,-0.07452555745840073,-0.2587101459503174
-0.05147533863782883,7.3788628578186035,6.858717441558838,0.22889992594718933,-0.25445154309272766,-0.253386914730072
-0.7059734463691711,7.861332416534424,5.366478443145752,0.21825341880321503,0.2139948159456253,-0.23315852880477905
-0.7357285618782043,7.79005241394043,4.7477498054504395,0.05749114602804184,0.1650208830833435,-0.09581857919692993
0.7230871915817261,7.385135173797607,6.021034240722656,-0.15650367736816406,-0.5184849500656128,-0.12243484705686569
1.0167025327682495,6.7634758949279785,8.258119583129883,-0.18418459594249725,-0.47483426332473755,-0.30661943554878235
-0.7332003116607666,6.597749710083008,8.264516830444336,0.25019294023513794,-0.12882275879383087,-0.2001543641090393
0.14105679094791412,6.646160125732422,7.271947383880615,0.27893853187561035,-0.14585717022418976,-0.19376645982265472
0.13243766129016876,6.810057640075684,6.631201267242432,0.21186551451683044,-0.12882275879383087,-0.2352878302335739
0.1306946873664856,6.94255256652832,6.492347240447998,0.06068509817123413,-0.2384817898273468,-0.25019294023513794
-0.1545313596725464,7.064791202545166,7.174905300140381,-0.0010646508308127522,-0.25445154309272766,-0.27148595452308655
-0.574579656124115,6.840598106384277,7.7866621017456055,0.05536184459924698,-0.23315852880477905,-0.22889992594718933
-0.48001828789711,7.375395774841309,5.482415676116943,0.038327429443597794,0.2491282969713211,0.0021293016616255045
0.9926838874816895,6.432999610900879,6.299527645111084,-0.03087487444281578,-0.16076228022575378,-0.12030554562807083
0.11910673975944519,6.26313591003418,7.11873722076416,-0.08197811245918274,-0.5355193614959717,-0.25445154309272766
-0.014125789515674114,6.697300434112549,7.454155445098877,-0.010646508075296879,-0.140533909201622,-0.17353808879852295
-0.2002318799495697,6.622467517852783,6.804206371307373,0.018099064007401466,-0.047909289598464966,-0.0841074138879776
0.4564593434333801,6.566519737243652,6.317264080047607,-0.0734609067440033,-0.14479251205921173,-0.0841074138879776
0.32314062118530273,6.428900718688965,6.642587661743164,-0.22996458411216736,-0.18418459594249725,-0.12349949777126312
0.3457035720348358,6.448973655700684,7.452335834503174,-0.24806363880634308,-0.17673203349113464,-0.13733996450901031
0.36563289165496826,6.504011631011963,7.495967864990234,-0.16289158165454865,-0.1756673902273178,-0.15330971777439117
0.3922564387321472,6.641132354736328,6.998012065887451,-0.09049531817436218,-0.15330971777439117,-0.16076228022575378
0.5396626591682434,6.7387871742248535,6.5643839836120605,-0.08091346174478531,-0.08197811245918274,-0.1650208830833435
0.5974682569503784,6.758084297180176,6.704693794250488,-0.10114183276891708,-0.06281439960002899,-0.2001543641090393
0.5034335851669312,6.809205532073975,7.112818717956543,-0.08304276317358017,-0.048973940312862396,-0.2384817898273468
0.11312124133110046,6.908631801605225,7.190189838409424,-0.039392080157995224,-0.05642649531364441,-0.2491282969713211
-0.4987122118473053,6.994449615478516,6.809847354888916,-0.05003859102725983,-0.14266321063041687,-0.21186551451683044
-0.8795626759529114,7.044977188110352,6.761378765106201,-0.08197811245918274,-0.19483110308647156,-0.08836601674556732
-0.3259083330631256,6.792905807495117,6.476305961608887,-0.07665485888719559,-0.13521066308021545,0.017034413293004036
1.1432217359542847,7.126733779907227,6.5275421142578125,-0.25445154309272766,0.09794788062572479,0.08730136603116989
0.5815898776054382,6.91839075088501,7.347805023193359,-0.18418459594249725,-0.16395622491836548,0.006387905217707157
