accX,accY,accZ,gyroX,gyroY,gyroZ
0.45164528489112854,2.9419753551483154,9.746564865112305,-0.677088737487793,-0.007456631399691105,0.9219591617584229
-0.30508488416671753,3.7301113605499268,8.673383712768555,-0.5268908739089966,-0.1587197184562683,0.5652392506599426
-1.8047864437103271,4.767399787902832,7.077969551086426,-0.4725640118122101,-0.6027887463569641,0.10412652790546417
-1.409671664237976,4.170690059661865,6.536593437194824,-0.8123733401298523,-1.2652305364608765,-0.0801587849855423
-1.3208380937576294,4.039084434509277,7.619345664978027,-1.2500509023666382,-1.8083661794662476,-0.18455162644386292
-0.7746763229370117,3.715754508972168,8.40030288696289,-1.5887950658798218,-2.0352609157562256,-0.3784240186214447
-0.31465616822242737,3.142972469329834,9.312865257263184,-1.7367292642593384,-2.0970444679260254,-0.5348801612854004
0.5261218547821045,1.8687944412231445,9.509376525878906,-1.6802719831466675,-2.085326910018921,-1.0280829668045044
0.45643091201782227,2.1346969604492188,10.48654556274414,-0.9487231373786926,-2.1055662631988525,-1.602110505104065
-2.1113669872283936,2.5298118591308594,10.36929702758789,-0.27456381916999817,-2.394111156463623,-1.3528459072113037
-1.555633783340454,4.18983268737793,11.222039222717285,0.35805144906044006,-2.1108922958374023,0.3436708152294159
0.030209386721253395,3.128615617752075,9.578767776489258,0.6754909157752991,-1.4015803337097168,1.5183565616607666
2.4951157569885254,2.0506489276885986,8.52472972869873,0.469900906085968,-0.08415340632200241,1.647249698638916
3.886841297149658,1.6268203258514404,6.5150580406188965,-0.04660394415259361,0.5058525204658508,1.29585599899292
3.6640095710754395,2.4388844966888428,7.22871732711792,-0.677088737487793,1.4930572509765625,0.8846760392189026
2.3273191452026367,2.7095725536346436,10.227821350097656,-0.9423317909240723,1.8594974279403687,0.6323489546775818
1.7931214570999146,2.489133834838867,11.643774032592773,-0.8368737101554871,1.5175576210021973,0.630218505859375
1.8245272636413574,-0.11724831163883209,11.605488777160645,-0.3054555654525757,-0.03515268862247467,0.8196967840194702
1.6016956567764282,-2.1604197025299072,10.077073097229004,0.10998530685901642,-1.0979889631271362,0.6621754765510559
2.717947483062744,-0.5147559642791748,9.391828536987305,0.6872084736824036,-0.21943800151348114,0.4736292362213135
2.7586255073547363,0.7259225845336914,7.082755088806152,1.5625636577606201,1.6773425340652466,0.4608464241027832
3.5539398193359375,1.332203984260559,7.508976459503174,1.8491113185882568,4.394219398498535,0.3298227787017822
-1.191625714302063,3.9311084747314453,11.169397354125977,1.218626618385315,3.700885772705078,0.5449998378753662
-1.5723835229873657,4.765007019042969,6.61794900894165,-0.017842652276158333,1.6773425340652466,1.1009182929992676
-1.6585252285003662,5.509773254394531,9.408578872680664,-0.04873441159725189,1.86695396900177,0.4736292362213135
-0.5446662306785583,3.1166515350341797,8.793025016784668,0.172700896859169,1.551645040512085,-0.020505735650658607
-1.5460625886917114,2.666501760482788,9.768099784851074,0.09720251709222794,1.9903879165649414,0.6493926644325256
-2.2815563678741455,4.724030017852783,10.264012336730957,0.6211640238761902,1.9617598056793213,0.8878717422485352
-1.2251251935958862,3.1094729900360107,5.90159797668457,0.6424686908721924,1.4248822927474976,0.8314144015312195
-1.0788638591766357,2.7502505779266357,6.145965099334717,-0.27669426798820496,1.077749490737915,0.7270215153694153
-1.5029916763305664,3.2605199813842773,8.673383712768555,-0.8304823040962219,-0.08308817446231842,0.5492607951164246
-1.5795620679855347,3.428316593170166,11.603096008300781,-0.7452636361122131,-0.2013290375471115,0.43315038084983826
-1.0668997764587402,2.8869404792785645,11.734701156616211,-0.1009308323264122,-0.0639139786362648,0.2563216984272003
-1.9028922319412231,2.8268208503723145,10.438689231872559,0.4794880151748657,-0.15126308798789978,0.183885857462883
-2.5235304832458496,2.9491539001464844,8.737990379333496,0.6190335154533386,0.10545806586742401,0.4182371199131012
-2.8277182579040527,3.5024940967559814,7.195217609405518,0.45711812376976013,0.24487043917179108,0.5130428671836853
-2.846860647201538,3.5407793521881104,6.323332786560059,0.22809302806854248,0.4142425060272217,0.5194342732429504
-1.9701902866363525,3.3107693195343018,6.3855462074279785,-0.5407389402389526,1.001052737236023,0.606783390045166
-1.3854442834854126,3.087937593460083,8.23011302947998,-1.0456594228744507,0.970160961151123,0.5620435476303101
-1.6971094608306885,3.2006993293762207,10.412367820739746,-0.9391360878944397,0.5101134777069092,0.48960772156715393
-1.491027593612671,3.358625650405884,11.097612380981445,-0.4343487620353699,0.619832456111908,0.4533897936344147
-1.5197415351867676,3.4785659313201904,9.78245735168457,-0.03488638252019882,1.0670971870422363,0.27549588680267334
-2.1185452938079834,3.3323047161102295,9.190832138061523,-0.09986559301614761,1.216229796409607,0.10412652790546417
-2.3054845333099365,3.4785659313201904,9.736993789672852,-0.23728065192699432,0.7880061268806458,0.04553871229290962
-2.7870402336120605,3.2940194606781006,10.158429145812988,-0.12756165862083435,0.012782796286046505,-0.05778888985514641
-3.1295130252838135,3.2533414363861084,9.499805450439453,-0.0370168462395668,-0.18535055220127106,-0.05991935729980469
-3.148655414581299,3.1671998500823975,9.645767211914062,-0.05512581020593643,0.3609808385372162,0.11251524090766907
-3.390629768371582,3.358625650405884,9.221938133239746,0.42196542024612427,1.1097065210342407,0.2264951765537262
-3.6924245357513428,3.5168511867523193,9.015856742858887,0.49653175473213196,1.1917294263839722,0.2882786989212036
-3.326023578643799,3.9696927070617676,9.11156940460205,0.6872084736824036,1.2801437377929688,0.420367568731308
-3.7713875770568848,4.113262176513672,5.966503143310547,0.9384703040122986,-0.8232919573783875,0.19879911839962006
-4.2816572189331055,4.060619831085205,6.658627033233643,0.28668084740638733,-0.8243572115898132,0.2904091477394104
-3.888935089111328,3.3394830226898193,7.6049885749816895,-0.026364516466856003,0.19054356217384338,0.2041252851486206
-4.1955156326293945,3.2700912952423096,8.002495765686035,-0.17762760818004608,0.7508561015129089,0.18069015443325043
-4.7967119216918945,3.1743783950805664,7.76052188873291,-0.19999749958515167,0.25871846079826355,0.27549588680267334
-5.093721389770508,3.2365918159484863,7.6528449058532715,-0.19893226027488708,-0.05752258375287056,0.3532578945159912
-5.544169902801514,3.9071803092956543,7.9953179359436035,-0.22556309401988983,-1.398384690284729,0.6419360637664795
-4.296013832092285,4.719244480133057,7.669594764709473,-0.47575968503952026,-1.6316707134246826,0.9784165620803833
-1.2011969089508057,1.947757601737976,8.24686336517334,-0.12010502070188522,1.1107717752456665,0.7888050675392151
-4.8206400871276855,4.563711166381836,7.066005229949951,0.17057043313980103,0.5995930433273315,0.5684349536895752
-3.8745779991149902,5.9554362297058105,8.785846710205078,0.18015754222869873,0.3503285050392151,0.546065092086792
-2.037189483642578,4.9516472816467285,8.656634330749512,0.008788172155618668,-0.21943800151348114,0.25206077098846436
-1.34476637840271,3.3538401126861572,7.554440021514893,-0.1872147023677826,-0.8147701025009155,-0.4732297658920288
-2.8420751094818115,3.691826343536377,7.784450054168701,-0.9007876515388489,-2.4569599628448486,-1.402911901473999
-5.556134223937988,3.8784663677215576,10.38365364074707,-0.6344794034957886,-2.9457688331604004,-1.2963886260986328
-3.6038899421691895,1.7775681018829346,7.87567663192749,0.3889431953430176,-4.416589260101318,-0.03967992961406708
-0.913759171962738,1.8352949619293213,5.877669811248779,0.05991935729980469,-2.566679000854492,1.3532453775405884
0.8590233325958252,1.236191987991333,7.35105037689209,-0.33954301476478577,-0.13102366030216217,1.9613603353500366
-0.42741793394088745,3.250948667526245,9.947562217712402,-0.40345701575279236,0.19267402589321136,2.023143768310547
-0.5901299118995667,4.022335052490234,10.124930381774902,0.11424624174833298,-0.3206351399421692,1.8688181638717651
-0.041575293987989426,3.4235310554504395,10.429117202758789,0.46563997864723206,-0.5175700783729553,1.8219479322433472
0.851844847202301,2.239981174468994,9.945169448852539,1.140864610671997,-0.0745663121342659,1.715424656867981
1.5128620862960815,2.4197418689727783,9.410971641540527,1.5423243045806885,0.6411371231079102,1.051917552947998
0.243469700217247,3.809074640274048,9.236295700073242,1.8107630014419556,0.8817466497421265,0.2989310026168823
-1.0860424041748047,4.894219398498535,7.9881391525268555,1.6658912897109985,0.21823962032794952,0.10412652790546417
0.03738785535097122,4.78893518447876,5.882455348968506,0.7127740383148193,-0.08628387749195099,0.30745288729667664
-0.05832505226135254,4.647459983825684,7.331907749176025,0.1014634445309639,0.9733566641807556,0.3639102280139923
-0.6741777658462524,4.937290191650391,7.93071174621582,-0.10199606418609619,1.030879259109497,0.4949339032173157
-0.9209375977516174,4.326522350311279,9.133105278015137,-0.17762760818004608,0.6667027473449707,0.7493914365768433
-0.5039882659912109,4.098905086517334,9.346364974975586,0.08228924870491028,0.3279586136341095,0.8058487772941589
0.18335004150867462,4.364807605743408,8.666205406188965,0.44220486283302307,0.8391373157501221,0.8697627782821655
-0.10408778488636017,5.066802024841309,8.203792572021484,0.43368300795555115,1.1842727661132812,0.8005226254463196
-0.5015954375267029,5.112265586853027,7.947461128234863,0.2557890713214874,0.9413996934890747,0.5130428671836853
-0.7794619798660278,4.9755754470825195,7.487441062927246,0.08548495173454285,0.5473966002464294,0.26271310448646545
-0.8201399445533752,5.052444934844971,7.066005229949951,-0.1446053832769394,0.1267627328634262,0.2254299372434616
-0.8922237157821655,5.109872817993164,7.415656566619873,-0.2713681161403656,-0.10971900075674057,0.25419121980667114
-0.4226323068141937,5.277370452880859,9.085248947143555,-0.3363473415374756,-0.8754884004592896,0.29680055379867554
0.3032902777194977,4.863112926483154,9.351150512695312,-0.19147562980651855,-1.0448604822158813,0.24034319818019867
0.3032902777194977,4.477270126342773,8.610871315002441,0.1430075317621231,-0.6390066742897034,0.10718907415866852
-0.008075776509940624,4.973182678222656,7.379764080047607,0.38255181908607483,0.1788259893655777,0.16897258162498474
-0.012861421331763268,5.332704544067383,7.267002582550049,0.22383208572864532,0.22356578707695007,0.19879911839962006
0.1666002720594406,5.212764263153076,7.255038261413574,0.10039821267127991,0.04473978653550148,0.16897258162498474
0.42293140292167664,5.08355188369751,7.508976459503174,0.020505735650658607,-0.10226237028837204,0.12210233509540558
0.3655036687850952,5.0811591148376465,7.051648139953613,-0.08388710021972656,-0.20026381313800812,0.03382114693522453
0.14745768904685974,5.490630626678467,7.650452136993408,-0.25325915217399597,-0.12569749355316162,-0.06844121962785721
-0.6167500615119934,4.5924248695373535,8.172685623168945,-0.2383458912372589,-0.4463326334953308,-0.2505960762500763
-0.7579265832901001,4.580460548400879,8.13679313659668,-0.27669426798820496,-0.811574399471283,-0.21331290900707245
-0.15912270545959473,4.3193440437316895,8.299505233764648,-0.440740168094635,-0.887205958366394,-0.08761541545391083
0.2267199456691742,4.314558506011963,8.203792572021484,-0.40558746457099915,-0.45272403955459595,-0.006657706573605537
0.4854438900947571,4.388735771179199,8.558229446411133,-0.36191290616989136,-0.360048770904541,-0.008788172155618668
0.6960122585296631,4.24995231628418,8.958429336547852,-0.24580252170562744,-0.3930709958076477,-0.11318100988864899
0.4372883439064026,4.235595226287842,8.718847274780273,-0.04979964345693588,-0.20558997988700867,-0.25698745250701904
-0.1423729509115219,4.302594184875488,8.244470596313477,-0.0018641578499227762,-0.0852186381816864,-0.326227605342865
-0.5350949764251709,4.185046672821045,7.715058326721191,-0.03914731368422508,-0.07030537724494934,-0.25379177927970886
-0.35084763169288635,4.187439441680908,8.160721778869629,-0.09240896254777908,-0.0,-0.132355198264122
-0.017647067084908485,4.427021026611328,8.479266166687012,-0.39173945784568787,-0.4271584451198578,-0.15685556828975677
0.0038883367087692022,4.019941806793213,8.922536849975586,-0.5194342732429504,-0.5005263686180115,-0.31983622908592224
-0.4657030999660492,3.7205400466918945,9.104391098022461,-0.44926202297210693,-0.39946237206459045,-0.34966275095939636
-0.47527438402175903,4.470091819763184,9.298508644104004,-0.26710718870162964,-0.5388747453689575,-0.19413872063159943
0.7920243144035339,4.240380764007568,9.4061861038208,-0.3118469715118408,-0.6635070443153381,-0.16963836550712585
1.6375880241394043,3.8712878227233887,9.595518112182617,-0.19467133283615112,-0.4473978579044342,-0.36138030886650085
1.165603756904602,3.9311084747314453,9.092427253723145,-0.04021254554390907,-0.2652430236339569,-0.6019898056983948
0.5548357367515564,4.192225456237793,8.680562019348145,-0.16377957165241241,-0.3952014446258545,-0.7149044871330261
0.5572285652160645,3.935894250869751,8.91775131225586,-0.33954301476478577,-0.6155715584754944,-0.684012770652771
0.7103692293167114,3.7301113605499268,9.355937004089355,-0.2841508984565735,-0.5324833393096924,-0.614772617816925
0.8542376756668091,3.7372899055480957,9.506983757019043,-0.04660394415259361,-0.31850466132164,-0.5412715077400208
1.2254242897033691,4.043870449066162,8.795417785644531,0.013049104250967503,-0.3920057415962219,-0.5338149070739746
1.5873386859893799,3.911965847015381,8.74756145477295,-0.06151720881462097,-0.4378107786178589,-0.6275554299354553
1.316650629043579,3.64127779006958,8.888737678527832,-0.0583215095102787,-0.3749620318412781,-0.7532529234886169
0.7031907439231873,3.545564889907837,8.714061737060547,-0.0061250897124409676,-0.42076703906059265,-0.7479267120361328
0.7175477147102356,3.538386583328247,8.275577545166016,0.07696308940649033,-0.5079829692840576,-0.5870765447616577
1.1536396741867065,3.559921979904175,7.750950813293457,0.09720251709222794,-0.5378095507621765,-0.3986634612083435
1.4362918138504028,3.94815731048584,7.492226600646973,-0.00399462366476655,-0.5942668914794922,-0.39440253376960754
1.4817553758621216,4.122833251953125,8.057531356811523,-0.2713681161403656,-0.5527228116989136,-0.4955996572971344
1.9609181880950928,2.8435707092285156,8.258827209472656,-0.333151638507843,-0.4983958899974823,-0.5370106101036072
2.1693928241729736,3.3969109058380127,8.052745819091797,-0.23408496379852295,-0.36644014716148376,-0.623294472694397
2.147857427597046,3.770789384841919,8.460124015808105,-0.17869283258914948,-0.17363297939300537,-0.6797518134117126
2.3443679809570312,3.5671002864837646,8.704490661621094,-0.1765623688697815,0.02663082629442215,-0.6882736682891846
2.1311075687408447,3.3801610469818115,9.468698501586914,-0.07856093347072601,0.08308817446231842,-0.7447310090065002
1.6734803915023804,4.012763500213623,10.527522087097168,0.29413747787475586,-0.3504616618156433,-0.7351439595222473
1.5586248636245728,4.098905086517334,10.115358352661133,0.8010552525520325,-0.5889406800270081,-0.7394048571586609
1.8556339740753174,4.094119548797607,9.11156940460205,0.9533835649490356,-0.6240934133529663,-0.7372744083404541
2.4089741706848145,4.3121657371521,7.001100063323975,0.836207926273346,-0.5303528904914856,-0.8267539739608765
2.3177478313446045,4.647459983825684,6.888637065887451,0.3101159632205963,-0.3078523576259613,-1.0035827159881592
2.032702922821045,4.784149646759033,7.319943428039551,0.06311506032943726,-0.13634982705116272,-0.9907998442649841
1.5418751239776611,4.508676052093506,8.14636516571045,-0.32889068126678467,0.26830556988716125,-0.8374063372612
1.129711389541626,4.697709083557129,8.560622215270996,-0.5726959109306335,0.5292876362800598,-0.7990579009056091
1.2038888931274414,4.712066173553467,8.879166603088379,-0.6888062953948975,0.6784203052520752,-0.7170349955558777
1.4530415534973145,4.642673969268799,9.037391662597656,-0.7058500051498413,0.7231600880622864,-0.6754909157752991
1.5200406312942505,4.676173686981201,9.154640197753906,-0.6898715496063232,0.7752233147621155,-0.6722952127456665
1.3645070791244507,4.784149646759033,9.748957633972168,-0.5854787230491638,0.6869421601295471,-0.7905360460281372
1.0172487497329712,4.376771926879883,9.945169448852539,-0.3683043122291565,0.17349982261657715,-0.9716256856918335
1.1703894138336182,4.082155227661133,10.053145408630371,-0.0583215095102787,-0.4271584451198578,-1.0643008947372437
1.3286148309707642,3.935894250869751,8.871988296508789,0.13981182873249054,0.0639139786362648,-0.983343243598938
0.4902295470237732,4.024727821350098,8.54865837097168,-0.014646953903138638,0.8657681345939636,-0.8885374665260315
-0.17347964644432068,4.175475597381592,8.8648099899292,-0.16377957165241241,0.7476604580879211,-0.8789504170417786
-0.12323036789894104,3.91914439201355,9.267401695251465,-0.1318225860595703,0.07563154399394989,-0.7958621978759766
0.8327022790908813,3.8066816329956055,9.20279598236084,0.020505735650658607,-0.21730753779411316,-0.7596443295478821
1.2302099466323853,3.7827534675598145,8.68774127960205,0.08548495173454285,0.2427399754524231,-0.853384792804718
0.39421752095222473,3.9625144004821777,8.591729164123535,0.0695064514875412,0.3599156141281128,-1.081344723701477
-0.6239284873008728,3.8473596572875977,9.054141998291016,0.14833369851112366,-0.2450035959482193,-1.1930609941482544
-0.3556332588195801,3.555136203765869,8.43858814239502,0.34739911556243896,-0.6358109712600708,-1.0057131052017212
-1.1099705696105957,3.972085475921631,9.559625625610352,-0.3256950080394745,0.3471328020095825,-1.3017147779464722
-1.491027593612671,3.4570305347442627,9.717850685119629,-0.028494983911514282,-0.02876129187643528,-1.1515169143676758
-1.2586246728897095,3.227020502090454,8.654241561889648,0.23341917991638184,0.03302222490310669,-0.8810808658599854
-0.7914260625839233,3.3011980056762695,8.251648902893066,0.2057231217622757,0.1171756312251091,-0.7340787053108215
-0.5159524083137512,3.4402806758880615,8.175078392028809,0.0482017956674099,0.02023942768573761,-0.8565804958343506
-0.7890332937240601,3.1405797004699707,8.879166603088379,-0.12117026001214981,-0.1288931965827942,-1.0238220691680908
-1.215553879737854,2.9204399585723877,9.253045082092285,-0.09347419440746307,-0.12569749355316162,-1.051518201828003
-1.5795620679855347,2.946761131286621,9.262616157531738,-0.010386021807789803,0.07030537724494934,-0.9162335395812988
-1.6995022296905518,3.1815567016601562,9.387042999267578,0.05459319427609444,0.3194367587566376,-0.8001231551170349
-1.3830515146255493,3.2006993293762207,8.678169250488281,0.13022473454475403,0.1288931965827942,-0.792666494846344
-1.9052850008010864,2.7550361156463623,8.867202758789062,0.020505735650658607,0.2757622003555298,-0.7170349955558777
-2.2504496574401855,3.1528429985046387,9.715457916259766,0.04607132822275162,1.169359564781189,-0.5785546898841858
-1.8598214387893677,3.6340994834899902,9.662516593933105,0.31757259368896484,1.4472522735595703,-0.6094464659690857
-1.74496591091156,3.4498519897460938,8.975178718566895,0.44327008724212646,1.14592444896698,-0.6754909157752991
-2.557030200958252,3.2557342052459717,8.277970314025879,0.49866220355033875,0.1777607649564743,-0.7969274520874023
-2.815753936767578,3.1334011554718018,8.187042236328125,0.43368300795555115,-0.2247641682624817,-0.7266221046447754
-2.659921407699585,3.3346974849700928,8.220541954040527,0.3846822679042816,0.007456631399691105,-0.6797518134117126
-2.3700907230377197,3.428316593170166,8.263612747192383,0.32929015159606934,0.3151758313179016,-0.6690995097160339
-2.2121646404266357,3.492922782897949,8.395517349243164,0.28561559319496155,0.5548532605171204,-0.7149044871330261
-2.358126640319824,3.4546377658843994,8.596514701843262,0.30585503578186035,0.423829585313797,-0.8704285621643066
-4.276871204376221,3.3011980056762695,8.493622779846191,0.21211452782154083,-0.1704372763633728,-0.7585790753364563
-2.954537868499756,3.586242914199829,8.615656852722168,0.36763855814933777,0.3194367587566376,-0.6680342555046082
-3.855435371398926,3.5359935760498047,8.079066276550293,0.427291601896286,0.1395455300807953,-0.7394048571586609
-4.286442756652832,3.6293137073516846,8.421838760375977,0.3963998258113861,0.3577851355075836,-0.6754909157752991
-3.1917262077331543,4.1491546630859375,9.33440113067627,0.4890751242637634,1.2588391304016113,-0.5902722477912903
-3.002394199371338,3.890430450439453,8.105387687683105,0.8692301511764526,0.0426093190908432,-0.876819908618927
-3.9559340476989746,3.6221351623535156,7.355835914611816,0.8702954053878784,-0.7700303196907043,-0.9194292426109314
-5.031507968902588,4.551746845245361,7.621738433837891,0.7212958931922913,-0.8147701025009155,-0.7777532339096069
-4.240979194641113,3.911965847015381,7.027420997619629,0.5465977191925049,-0.4580501914024353,-0.5977289080619812
-3.929612874984741,4.084548473358154,7.29093074798584,0.35911667346954346,-2.3035664558410645,-0.6190335154533386
-4.226622104644775,4.151547431945801,7.633702278137207,0.24194104969501495,-2.797834634780884,-0.6967955231666565
-3.6134612560272217,4.223630905151367,8.23011302947998,0.10465914756059647,-2.3323276042938232,-0.5220973491668701
-2.037189483642578,3.5096726417541504,7.588238716125488,0.04394086077809334,-1.4804075956344604,-0.37416309118270874
-1.6585252285003662,3.4259238243103027,7.640881061553955,-0.05938674136996269,-1.230077862739563,-0.4199681282043457
-2.1999013423919678,4.601995944976807,7.398906707763672,-0.32143405079841614,-1.1427286863327026,-0.5561847686767578
-2.4466612339019775,4.508676052093506,8.007282257080078,-0.39493513107299805,-0.919162929058075,-0.49240395426750183
-2.0395822525024414,4.4150567054748535,8.929715156555176,-0.25645485520362854,-0.8137048482894897,-0.49240395426750183
-1.2969099283218384,3.7971103191375732,9.971489906311035,0.03648423030972481,-0.02023942768573761,-0.7234264016151428
-1.862214207649231,3.327518939971924,11.035099983215332,0.6925346255302429,-0.03621792420744896,-0.9045159816741943
0.8590233325958252,5.100301265716553,5.185545921325684,0.14726845920085907,-2.6220710277557373,-0.600924551486969
0.10677970945835114,5.392524719238281,7.1162543296813965,-0.15206201374530792,-0.42076703906059265,-0.875754714012146
-1.440778374671936,3.9912281036376953,8.496015548706055,-1.0552464723587036,1.161902904510498,-0.4434032440185547
-1.7976080179214478,4.0079779624938965,10.484152793884277,-0.776155412197113,1.5836020708084106,-0.04074516147375107
-2.0084755420684814,4.606781959533691,10.239785194396973,-0.36297816038131714,0.3822855055332184,0.07856093347072601
-0.9927222728729248,4.465306282043457,9.564411163330078,0.21211452782154083,-1.2119688987731934,0.10519175976514816
-0.3364906907081604,4.8798627853393555,9.523733139038086,0.3942693769931793,-1.5645610094070435,-0.06631075590848923
-0.08733802288770676,4.747958183288574,9.12831974029541,0.46350952982902527,-1.5283430814743042,-0.16005125641822815
0.26500511169433594,4.204189300537109,7.782057285308838,0.4794880151748657,-1.2481868267059326,-0.302792489528656
-0.9376873970031738,4.894219398498535,8.565407752990723,-0.10838746279478073,-0.1374150663614273,-0.4444684684276581
-1.3184453248977661,4.812863826751709,8.64197826385498,-0.14140968024730682,-0.5889406800270081,-0.4519250988960266
-0.5877370834350586,4.3672003746032715,8.26121997833252,-0.1328878253698349,-0.9415328502655029,-0.42316383123397827
0.20757736265659332,4.3193440437316895,8.014460563659668,-0.1339530497789383,-0.8009220957756042,-0.3667064607143402
0.6840481758117676,3.7420754432678223,7.863712310791016,-0.06684337556362152,0.28108835220336914,-0.3145100474357605
-0.2955136001110077,4.118047714233398,7.767700672149658,0.029027599841356277,1.2183603048324585,-0.3975982367992401
-1.1868400573730469,4.753043174743652,7.528119087219238,-0.028494983911514282,1.3046441078186035,-0.4114462435245514
-1.3806586265563965,4.7697930335998535,7.497012615203857,-0.3352820873260498,1.001052737236023,-0.36244553327560425
-1.1868400573730469,4.472484588623047,7.798807144165039,-0.4513925015926361,0.931812584400177,-0.33155378699302673
-1.191625714302063,3.9984066486358643,8.553443908691406,-0.4439358711242676,0.8913337588310242,-0.2516613006591797
-1.5963118076324463,3.9406797885894775,9.161818504333496,-0.2511286735534668,0.6709636449813843,-0.2910749316215515
-2.221735715866089,4.048655986785889,9.734601020812988,-0.13608351349830627,0.400394469499588,-0.3432713449001312
-2.3054845333099365,3.895216226577759,9.099605560302734,0.11424624174833298,0.05113118514418602,-0.33901041746139526
-2.2121646404266357,3.9311084747314453,8.685347557067871,0.2675066292285919,-0.0159784946590662,-0.19946488738059998
-1.8167506456375122,4.070191383361816,8.009675025939941,0.2142449915409088,0.10865376889705658,-0.07057169079780579
-1.6513466835021973,4.18983268737793,7.784450054168701,0.00133154122158885,0.18308693170547485,-0.07802832126617432
-1.6250256299972534,4.530211448669434,8.309076309204102,-0.21384553611278534,0.11184946447610855,-0.1440727710723877
-1.589133381843567,4.151547431945801,8.647063255310059,-0.3054555654525757,0.12250179797410965,-0.18455162644386292
-2.113759756088257,3.91914439201355,8.8648099899292,-0.17230144143104553,0.32050198316574097,-0.07802832126617432
-2.0324037075042725,4.130012035369873,8.613264083862305,0.010918638668954372,0.20652204751968384,0.04447348043322563
-1.491027593612671,4.223630905151367,7.9713897705078125,0.0908111184835434,-0.17363297939300537,-0.016244804486632347
-1.6827524900436401,4.252345085144043,7.921140193939209,-0.12330072373151779,-0.3440702557563782,-0.09933298081159592
-1.8885352611541748,4.060619831085205,8.721240043640137,-0.43754446506500244,0.09693620353937149,0.019973119720816612
-1.6345969438552856,3.864109516143799,9.198010444641113,-0.2905423045158386,0.01171756349503994,0.16471165418624878
-1.3926228284835815,3.8138601779937744,9.475876808166504,-0.09453943371772766,-0.30465665459632874,0.09773512929677963
-1.6058831214904785,4.039084434509277,9.094820022583008,0.08868064731359482,-0.3195699155330658,0.0050598569214344025
-1.6034902334213257,4.379164695739746,8.644669532775879,0.13661614060401917,-0.1065233051776886,0.08069140464067459
-1.026221752166748,4.156332969665527,8.546265602111816,0.026897134259343147,0.10439283400774002,0.1742987483739853
-1.7138592004776,4.024727821350098,8.210970878601074,0.06631075590848923,-0.02556559257209301,0.22436471283435822
-1.4479568004608154,3.7540395259857178,8.11525821685791,-0.010386021807789803,0.4014596939086914,0.3234313726425171
-2.0108683109283447,3.7731821537017822,8.381160736083984,-0.08282186836004257,0.7007901668548584,0.3404751121997833
-2.0706889629364014,3.988835334777832,8.553443908691406,-0.09347419440746307,0.5239614844322205,0.32875755429267883
-1.4766706228256226,3.880859136581421,8.876773834228516,-0.05938674136996269,0.3481980562210083,0.331953227519989
-1.6513466835021973,3.648456335067749,8.551051139831543,0.04181039705872536,0.5420704483985901,0.31810522079467773
-2.2815563678741455,4.18983268737793,8.749954223632812,0.08228924870491028,0.40998154878616333,0.3671059310436249
-1.2442678213119507,4.024727821350098,8.419445991516113,0.08974587917327881,0.19267402589321136,0.26484355330467224
-1.531705617904663,4.355236530303955,8.155936241149902,0.05459319427609444,0.447264701128006,0.17962491512298584
-1.7018951177597046,4.4389848709106445,7.980960845947266,-0.14780108630657196,0.45152565836906433,0.12529803812503815
-2.4155545234680176,4.144368648529053,8.699705123901367,-0.291607528924942,0.40998154878616333,0.1306242048740387
-2.604886531829834,3.8138601779937744,9.006285667419434,-0.19999749958515167,-0.18748101592063904,0.22223423421382904
-2.061117649078369,3.780360698699951,8.793025016784668,-0.07856093347072601,-0.3206351399421692,0.29467007517814636
-1.6298112869262695,4.082155227661133,8.567800521850586,-0.08708280324935913,-0.0,0.3244965970516205
-1.428814172744751,3.950550079345703,8.84088134765625,-0.16697527468204498,0.38548120856285095,0.3415403366088867
-2.0802602767944336,3.691826343536377,8.996713638305664,-0.12969212234020233,0.6049191951751709,0.16364642977714539
-2.6383860111236572,3.9840497970581055,8.773882865905762,-0.021038351580500603,0.42915576696395874,0.20732097327709198
-2.3270199298858643,3.7995033264160156,8.644669532775879,-0.018907885998487473,0.07882724702358246,0.3095833361148834
-1.6680965423583984,3.79471755027771,8.53190803527832,-0.024234050884842873,-0.0106523297727108,0.3340837061405182
-1.4216357469558716,3.7923247814178467,8.440980911254883,-0.13927921652793884,0.6997249722480774,0.3244965970516205
-1.6923238039016724,3.809074640274048,8.507980346679688,-0.17230144143104553,0.7848104238510132,0.2776263654232025
-2.2719850540161133,3.833002805709839,8.464909553527832,-0.12756165862083435,0.5047873258590698,0.26377832889556885
-2.355733871459961,3.6029927730560303,8.476873397827148,-0.07003907114267349,0.25871846079826355,0.3575188219547272
-2.168794631958008,3.600599765777588,8.304290771484375,-0.0061250897124409676,0.19693495333194733,0.5407389402389526
-1.800000786781311,3.7109687328338623,7.727022647857666,-0.3384777903556824,1.2109036445617676,0.522629976272583
-2.2815563678741455,3.5168511867523193,9.478269577026367,-0.4119788706302643,0.10119713842868805,0.4714987576007843
-1.9100706577301025,3.3801610469818115,10.124930381774902,-0.03595161437988281,-0.15126308798789978,0.4917382001876831
-1.4670994281768799,3.78753924369812,8.484051704406738,0.3133116662502289,0.01384802907705307,0.420367568731308
-1.1461620330810547,3.70139741897583,7.5687971115112305,0.11957240849733353,0.32476291060447693,0.24247366189956665
-1.862214207649231,3.468994617462158,8.527122497558594,-0.2500634491443634,0.894529402256012,0.11358047276735306
-2.6407787799835205,3.7372899055480957,9.863813400268555,-0.2905423045158386,1.0255531072616577,0.11784140020608902
-2.580958366394043,3.648456335067749,9.758528709411621,-0.019973119720816612,0.6624417901039124,0.19240771234035492
-2.3198416233062744,3.5910286903381348,8.263612747192383,0.19613602757453918,0.2757622003555298,0.20199480652809143
-2.434697151184082,3.864109516143799,8.297112464904785,0.0588541254401207,0.7826799750328064,0.22436471283435822
-2.14725923538208,3.9840497970581055,8.220541954040527,-0.05725627392530441,1.2204906940460205,0.13595037162303925
-2.6072793006896973,3.8832521438598633,8.457730293273926,-0.07323476672172546,0.9456605911254883,-0.018375270068645477
-3.670889139175415,3.662813186645508,8.759525299072266,0.05991935729980469,0.19800019264221191,-0.006657706573605537
-3.4648072719573975,3.586242914199829,8.13679313659668,0.2366148829460144,-0.05113118514418602,0.15725502371788025
-2.3988046646118164,3.715754508972168,7.53769063949585,0.17483137547969818,0.3620460629463196,0.183885857462883
-2.30069899559021,3.8545382022857666,7.947461128234863,-0.017842652276158333,0.8359416127204895,-0.019440501928329468
-3.251546859741211,3.7588253021240234,8.436195373535156,0.04074516147375107,0.9467258453369141,-0.2591179311275482
-4.173980236053467,3.81864595413208,8.251648902893066,0.19080986082553864,0.14061075448989868,-0.22290000319480896
-4.121337890625,3.722932815551758,7.554440021514893,0.21211452782154083,-0.5175700783729553,-0.13555090129375458
-3.1199417114257812,3.7899320125579834,8.649456024169922,0.07376738637685776,-0.8371400237083435,-0.0023967742454260588
-3.3164522647857666,3.468994617462158,9.221938133239746,0.11637670546770096,-0.7050511240959167,-0.020505735650658607
-3.855435371398926,3.4570305347442627,9.52612590789795,0.427291601896286,-0.8584446907043457,0.1316894292831421
-2.899502754211426,3.8545382022857666,7.168896675109863,0.41237834095954895,-1.4303416013717651,0.21797330677509308
-2.9306094646453857,4.1036906242370605,7.195217609405518,0.2259625494480133,-1.4260807037353516,0.1615159511566162
-2.8325037956237793,4.664209365844727,8.565407752990723,-0.17336668074131012,-1.11503267288208,0.06577813625335693
-2.2337000370025635,4.324129581451416,9.485447883605957,-0.14993155002593994,-1.0054467916488647,0.23288656771183014
-2.1257238388061523,3.780360698699951,9.847063064575195,0.2366148829460144,-1.0246210098266602,0.2925396263599396
-2.262413740158081,4.1347975730896,8.469695091247559,0.6318163275718689,-1.2876003980636597,0.29680055379867554
-2.1017956733703613,4.908576488494873,7.626523971557617,0.615837812423706,-1.2034469842910767,0.25419121980667114
-0.3194418251514435,4.168296813964844,6.452545166015625,0.18548369407653809,-0.5591141581535339,0.24247366189956665
-0.11605189740657806,3.780360698699951,7.327122211456299,-0.4087831676006317,0.6177020072937012,-0.09507204592227936
-1.3639088869094849,3.746861219406128,8.869595527648926,-0.5428693890571594,0.726355791091919,-0.279357373714447
-2.417947292327881,4.518247127532959,8.625227928161621,0.23128871619701385,-0.40798425674438477,0.13488513231277466
-1.34476637840271,4.077369689941406,8.000102996826172,0.17057043313980103,0.11291470378637314,0.28401774168014526
-0.9903294444084167,3.8210387229919434,8.120043754577637,0.017310036346316338,0.8902685046195984,0.2573869228363037
-1.5053845643997192,4.496711730957031,8.301898002624512,0.024766668677330017,0.6411371231079102,0.11145000159740448
-1.9845472574234009,4.657031059265137,8.220541954040527,0.03222329914569855,-0.12995843589305878,-0.022636201232671738
-1.831107497215271,4.290630340576172,8.52472972869873,-0.05406057462096214,-0.275895357131958,-0.015179570764303207
-1.4838491678237915,3.7851462364196777,8.42423152923584,-0.0370168462395668,0.25978371500968933,0.03169068321585655
-1.6274185180664062,4.029513359069824,8.311469078063965,-0.021038351580500603,0.35352420806884766,0.06684337556362152
-1.7641085386276245,4.683351993560791,8.024031639099121,-0.016777420416474342,0.13634982705116272,0.06790860742330551
-1.7306089401245117,4.72881555557251,7.961818218231201,-0.04873441159725189,0.06710968166589737,0.027429750189185143
-1.9558334350585938,4.573282241821289,8.074280738830566,-0.12330072373151779,-0.05645735189318657,-0.0695064514875412
-2.027618169784546,4.489533424377441,8.196614265441895,-0.14780108630657196,-0.2034595012664795,-0.04926702752709389
-1.6369898319244385,4.3911285400390625,8.505587577819824,-0.25325915217399597,0.08947957307100296,0.023168819025158882
-2.0706889629364014,4.374378681182861,8.793025016784668,-0.2734985649585724,0.1468690037727356,-0.03861469775438309
-2.2193429470062256,4.314558506011963,8.92492961883545,-0.17869283258914948,-0.03834838792681694,0.03595161437988281
-1.7377874851226807,4.211368083953857,9.037391662597656,-0.10519175976514816,-0.2034595012664795,0.11251524090766907
-1.7784653902053833,4.01754903793335,9.298508644104004,0.03861469775438309,0.07350108027458191,0.09666989743709564
-2.0946171283721924,3.842574119567871,8.920144081115723,0.2696371078491211,0.33328479528427124,0.13595037162303925
-2.058724880218506,4.271487712860107,8.009675025939941,0.40385645627975464,0.22995717823505402,0.22436471283435822
-2.037189483642578,4.546961307525635,7.487441062927246,0.2600499987602234,-0.15552401542663574,0.1742987483739853
-1.740180253982544,4.4054856300354,7.255038261413574,0.04607132822275162,-0.22795987129211426,0.1423417627811432
-1.4862419366836548,4.041477680206299,8.412266731262207,-0.26604193449020386,0.04580501839518547,0.15512455999851227
-1.5388840436935425,4.1730828285217285,8.900702476501465,-0.2734985649585724,0.21717438101768494,0.12316756695508957
-1.8047864437103271,4.417449474334717,9.037391662597656,-0.11690932512283325,0.21610915660858154,0.08175663650035858
-1.6585252285003662,4.395914077758789,8.469695091247559,0.018375270068645477,-0.07137060910463333,0.0018641578499227762
-1.002293586730957,4.441378116607666,8.55583667755127,0.08335448056459427,-0.5910711884498596,0.3436708152294159
-1.2131611108779907,4.237987995147705,8.405088424682617,0.07483261823654175,-0.45485448837280273,0.07856093347072601
-1.3591232299804688,4.697709083557129,8.206185340881348,0.09613727778196335,-0.5250267386436462,-0.05459319427609444
-1.2203395366668701,4.680959224700928,7.933104515075684,0.03328853100538254,-0.4591154456138611,-0.22609570622444153
-0.9305089116096497,4.487140655517578,8.2157564163208,-0.07962616533041,-0.41117995977401733,-0.32090145349502563
-1.2035897970199585,4.5828537940979,9.049356460571289,-0.14140968024730682,-0.4601806700229645,-0.2623136341571808
-1.0190433263778687,4.206582069396973,8.867202758789062,-0.018907885998487473,-0.6943987607955933,-0.21331290900707245
-0.9233304262161255,4.424628257751465,8.05513858795166,0.10785484313964844,-0.7050511240959167,-0.2814878225326538
-1.2873386144638062,4.472484588623047,7.829914093017578,0.10465914756059647,-0.6698983907699585,-0.23781327903270721
-0.7028916478157043,4.1730828285217285,9.03260612487793,-0.08282186836004257,-0.810509204864502,-0.13128997385501862
0.46360939741134644,4.005585193634033,7.724629878997803,-0.09880036115646362,-1.0884017944335938,-0.006657706573605537
0.41096729040145874,3.6942191123962402,8.963214874267578,-0.16058388352394104,-0.8595098853111267,0.03169068321585655
0.34636107087135315,3.8545382022857666,8.769096374511719,0.03861469775438309,-0.8169005513191223,-0.017310036346316338
0.4540380835533142,4.297808647155762,8.788239479064941,0.19613602757453918,-0.8414009213447571,-0.112115778028965
0.851844847202301,4.776971340179443,7.968996524810791,0.1844184696674347,-0.7540518045425415,-0.08655018359422684
0.8398807644844055,4.609174728393555,8.117650985717773,0.026897134259343147,-0.07563154399394989,-0.029027599841356277
0.19531415402889252,4.462913513183594,8.285148620605469,-0.07003907114267349,0.33328479528427124,-0.06844121962785721
-0.2715853750705719,4.78175687789917,7.786843299865723,-0.12969212234020233,0.2715012729167938,-0.10252867639064789
-0.29790642857551575,5.059623718261719,7.985746383666992,-0.3352820873260498,-0.02663082629442215,-0.06844121962785721
-0.1495514214038849,4.839184761047363,9.30329418182373,-0.48854249715805054,-0.5708317756652832,0.00719032296910882
0.1618146300315857,4.594817638397217,9.200403213500977,-0.40452224016189575,-0.6901378631591797,0.03275591507554054
0.6768696904182434,4.307379722595215,9.133105278015137,-0.07110430300235748,-0.2226337045431137,0.0018641578499227762
0.12352947145700455,4.580460548400879,8.225327491760254,0.16630950570106506,0.4440690279006958,-0.031158065423369408
0.15942180156707764,4.386343002319336,7.710272789001465,-0.09134373068809509,-0.07137060910463333,0.026364516466856003
0.06610172241926193,4.348057746887207,7.707880020141602,-0.2703028917312622,-0.1278279572725296,-0.013049104250967503
-0.16869398951530457,4.458127498626709,8.093423843383789,-0.4503272473812103,-0.02556559257209301,0.03169068321585655
0.19531415402889252,4.240380764007568,8.764310836791992,-0.3981308341026306,0.12037133425474167,0.2147776037454605
0.514157772064209,4.278666019439697,8.68774127960205,-0.1659100502729416,0.32050198316574097,0.23501703143119812
0.43489551544189453,4.417449474334717,8.287541389465332,-0.030625449493527412,0.5260919332504272,0.24034319818019867
0.21236300468444824,4.712066173553467,8.529515266418457,-0.0689738392829895,-0.03515268862247467,0.1849510818719864
0.39182472229003906,4.477270126342773,8.630014419555664,-0.18934516608715057,-0.04900071769952774,0.22329947352409363
0.2626122832298279,4.3983073234558105,8.869595527648926,-0.04340824484825134,0.007456631399691105,0.23182134330272675
0.22432711720466614,4.441378116607666,9.056534767150879,0.0375494658946991,0.08947957307100296,0.3213009238243103
0.38225340843200684,4.760221481323242,9.171390533447266,-0.014646953903138638,0.1553908735513687,0.32769230008125305
0.3439682424068451,4.72881555557251,9.353543281555176,-0.03808208182454109,0.5026568174362183,0.34793174266815186
0.26500511169433594,4.137190341949463,9.308079719543457,0.015179570764303207,0.6688331961631775,0.3575188219547272
-0.3436691462993622,4.28823709487915,9.231510162353516,0.09720251709222794,0.7306166887283325,0.35006219148635864
-0.7914260625839233,4.585246562957764,9.384650230407715,0.15565717220306396,0.6219629049301147,0.41397619247436523
-0.5901299118995667,4.434199333190918,9.063713073730469,0.21104928851127625,0.3897421360015869,0.4533897936344147
-0.17587246000766754,4.137190341949463,8.586943626403809,0.20039696991443634,0.38654643297195435,0.4065195620059967
-0.21176479756832123,3.7731821537017822,8.536693572998047,0.09613727778196335,0.7487256526947021,0.4278241991996765
-0.8560323119163513,3.9335012435913086,8.886344909667969,0.021570969372987747,0.9126383662223816,0.47682493925094604
-1.222732424736023,4.1347975730896,9.049356460571289,0.06524552404880524,0.7730928659439087,0.5130428671836853
-0.7674978375434875,3.8210387229919434,8.728418350219727,0.21744069457054138,0.5836145281791687,0.5726959109306335
-0.3074777126312256,3.904787540435791,8.191828727722168,0.3005288541316986,0.5143743753433228,0.5631088018417358
-0.45134615898132324,4.194618225097656,8.199007034301758,0.2472672164440155,0.49306973814964294,0.47575968503952026
-0.8273184299468994,4.340879440307617,8.565407752990723,0.19080986082553864,0.33115431666374207,0.3340837061405182
-1.0166505575180054,3.9167516231536865,8.536693572998047,0.2813546657562256,0.23421810567378998,0.27549588680267334
-1.2418749332427979,3.79471755027771,7.978568077087402,0.37083426117897034,0.18521739542484283,0.2605826258659363
-1.3902299404144287,4.259523391723633,7.5978102684021,0.28561559319496155,0.18521739542484283,0.32662707567214966
-1.2729816436767578,4.417449474334717,7.76052188873291,0.16417904198169708,0.22569625079631805,0.3521926701068878
-1.1267203092575073,4.345664978027344,8.067102432250977,0.026897134259343147,0.31091487407684326,0.35006219148635864
-1.2586246728897095,3.8306100368499756,8.558229446411133,-0.11690932512283325,0.488808810710907,0.26271310448646545
-1.4575281143188477,3.749253988265991,8.647063255310059,-0.1115831583738327,0.5175700783729553,0.24993029236793518
-1.4575281143188477,3.7971103191375732,8.812167167663574,-0.0902784988284111,0.5292876362800598,0.34793174266815186
-1.40488600730896,3.7995033264160156,8.711668968200684,-0.07323476672172546,0.7603100538253784,0.36071452498435974
-1.9749759435653687,4.204189300537109,8.84805965423584,-0.08175663650035858,0.587875485420227,0.24566936492919922
-2.0084755420684814,3.9696927070617676,8.81934642791748,-0.05512581020593643,-0.01384802907705307,0.1828206181526184
-1.586740493774414,3.746861219406128,8.7236328125,-0.07962616533041,-0.2854824364185333,0.1615159511566162
-1.6441682577133179,3.6966118812561035,8.793025016784668,-0.08814803510904312,-0.14274121820926666,0.15618979930877686
-2.1352951526641846,3.7660038471221924,9.104391098022461,-0.011451254598796368,0.03941362351179123,0.22969086468219757
-1.989332914352417,3.7971103191375732,8.8648099899292,0.16417904198169708,-0.5378095507621765,0.27656111121177673
-1.555633783340454,3.8928234577178955,8.637192726135254,0.21104928851127625,-0.7636389136314392,0.19666863977909088
-1.2203395366668701,3.8712878227233887,8.670990943908691,0.12489857524633408,-0.5197005867958069,0.07003907114267349
-1.3160524368286133,3.9601213932037354,8.773882865905762,0.03222329914569855,0.05432688444852829,0.016777420416474342
-1.5699907541275024,4.137190341949463,8.881559371948242,0.0023967742454260588,0.4153077304363251,0.07749570161104202
-1.5699907541275024,3.9696927070617676,9.145069122314453,0.04926702752709389,0.2629793882369995,0.03808208182454109
-1.6393826007843018,4.4605207443237305,8.900702476501465,0.3655080795288086,-0.5292876362800598,-0.2069215178489685
-1.6803597211837769,4.539782524108887,8.675776481628418,0.4496614933013916,-0.7583127617835999,-0.22716094553470612
-1.4886348247528076,4.470091819763184,8.165507316589355,0.5125102400779724,-0.484547883272171,-0.23035664856433868
-1.1171491146087646,4.66660213470459,8.160721778869629,0.07270215451717377,0.07030537724494934,-0.11531147360801697
-1.7880367040634155,4.566103935241699,8.699705123901367,0.36870378255844116,-0.726355791091919,-0.31770575046539307
-1.6345969438552856,4.661816596984863,8.251648902893066,0.4166392683982849,-0.7636389136314392,-0.2942706346511841
-1.2179467678070068,4.930111885070801,7.624131202697754,0.33781203627586365,-0.6986597180366516,-0.23248711228370667
-1.0190433263778687,4.987539768218994,7.535297393798828,0.1334204375743866,-0.6688331961631775,-0.23568280041217804
-1.0118649005889893,4.570889472961426,7.6839518547058105,-0.09347419440746307,-0.8477923274040222,-0.33048853278160095
-0.7244270443916321,4.067798614501953,7.547261714935303,-0.19467133283615112,-1.039534330368042,-0.38268497586250305
0.3248256742954254,3.2006993293762207,7.286144733428955,-0.3448691964149475,-1.2385996580123901,-0.7149044871330261
0.3415754437446594,3.586242914199829,7.813164234161377,-0.36191290616989136,-1.192794680595398,-0.9684299826622009
0.32961133122444153,3.981656789779663,8.711668968200684,-0.3118469715118408,-1.1075760126113892,-1.1834739446640015
0.2267199456691742,4.022335052490234,9.31047248840332,0.03648423030972481,-0.9212934374809265,-1.4583040475845337
-0.11605189740657806,4.096512317657471,8.972785949707031,0.5945332050323486,-0.5516575574874878,-1.6095670461654663
-0.6023930907249451,4.822434902191162,8.227720260620117,1.1525821685791016,0.06710968166589737,-1.6404588222503662
-2.4394826889038086,6.961618423461914,8.55583667755127,1.4400619268417358,0.5218310356140137,-1.4561735391616821
-3.31884503364563,7.208378314971924,6.9699931144714355,1.0631026029586792,-0.08415340632200241,-0.876819908618927
-2.7798616886138916,6.384349822998047,6.52462911605835,0.8180989623069763,-0.0852186381816864,-0.6648385524749756
-1.9268203973770142,5.392524719238281,6.948457717895508,0.42303067445755005,-0.04047885537147522,-0.44766417145729065
-1.6680965423583984,5.449952602386475,7.271788120269775,0.07376738637685776,-0.3536573648452759,-0.3975982367992401
-1.6082758903503418,5.500202178955078,7.473084449768066,-0.08814803510904312,-0.4643084406852722,-0.43594661355018616
-1.5221343040466309,5.406881809234619,8.127222061157227,-0.3171731233596802,-0.503722071647644,-0.5242277979850769
-1.2897313833236694,5.179264545440674,8.71645450592041,-0.36297816038131714,-0.44100648164749146,-0.5295539498329163
-1.1413763761520386,5.057230472564697,8.999106407165527,-0.23408496379852295,-0.29506954550743103,-0.5103797912597656
-1.1267203092575073,5.057230472564697,9.061320304870605,-0.1424749195575714,-0.2588516175746918,-0.5178363919258118
-1.4072787761688232,5.047659397125244,8.982357025146484,0.010918638668954372,-0.25139498710632324,-0.5668371319770813
-1.617847204208374,5.179264545440674,8.659027099609375,0.11318100988864899,-0.30146095156669617,-0.5732285380363464
-1.3567304611206055,5.136193752288818,8.36411190032959,0.16417904198169708,-0.40904948115348816,-0.5167711973190308
-1.1099705696105957,5.0979084968566895,8.266005516052246,0.15046416223049164,-0.4559197425842285,-0.4955996572971344
-0.664606511592865,5.054837703704834,8.052745819091797,0.06844121962785721,-0.4292888939380646,-0.4838820993900299
-0.5207380056381226,5.143372058868408,8.007282257080078,0.022636201232671738,-0.2034595012664795,-0.4508598744869232
-0.48484569787979126,5.191228866577148,8.105387687683105,0.05565842613577843,-0.12037133425474167,-0.4199681282043457
-0.47288158535957336,5.241477966308594,7.9642109870910645,0.13661614060401917,-0.26098209619522095,-0.41570720076560974
-0.0487537607550621,5.514558792114258,7.389335632324219,0.17696183919906616,-0.26950395107269287,-0.34966275095939636
-0.05593222752213478,5.699105262756348,7.870891094207764,-0.0061250897124409676,-0.4952002167701721,-0.5487281680107117
-0.09930214285850525,5.672784328460693,7.832306861877441,0.0023967742454260588,-0.5548532605171204,-0.600924551486969
-0.22372891008853912,5.715855121612549,7.707880020141602,-0.009320789016783237,-0.4346150755882263,-0.5593804717063904
-0.3002992272377014,5.734997749328613,7.681559085845947,-0.0018641578499227762,-0.3163742125034332,-0.5114449858665466
-0.36281174421310425,5.919544219970703,7.707880020141602,0.0375494658946991,-0.22050324082374573,-0.42742475867271423
-0.22851456701755524,6.106483459472656,7.717451095581055,0.08122401684522629,-0.3728315532207489,-0.3901416063308716
0.14267204701900482,5.969793319702148,7.640881061553955,0.030092833563685417,-0.3430050313472748,-0.40292438864707947
-0.06311069428920746,6.104090690612793,7.755736351013184,0.027962366119027138,-0.15339355170726776,-0.38268497586250305
-0.017647067084908485,6.235695838928223,7.966603755950928,0.05672365799546242,-0.21624229848384857,-0.34220612049102783
0.2147558331489563,6.067899227142334,8.132007598876953,0.11318100988864899,-0.40159285068511963,-0.39227205514907837
-0.3074777126312256,6.010471343994141,7.674380302429199,0.26431095600128174,-0.402658075094223,-0.5679023265838623
-0.4657030999660492,6.180660724639893,7.53769063949585,0.2707023322582245,-0.4143756330013275,-0.5178363919258118
-0.12083754688501358,6.154339790344238,7.267002582550049,0.21317975223064423,-0.4770912528038025,-0.4497946500778198
-0.005682953633368015,6.168696880340576,7.2813591957092285,0.11744193732738495,-0.4591154456138611,-0.4444684684276581
0.034995030611753464,6.161518096923828,7.274180889129639,0.005592473316937685,-0.3717663288116455,-0.46790361404418945
-0.1663011759519577,5.996114253997803,7.283751964569092,-0.04553871229290962,-0.15552401542663574,-0.4284899830818176
-0.39870408177375793,5.976971626281738,7.554440021514893,-0.027429750189185143,-0.05539211630821228,-0.3485974967479706
-0.0849452018737793,6.154339790344238,7.499405384063721,0.03435376659035683,-0.14380645751953125,-0.27616167068481445
-0.022432712838053703,6.082255840301514,6.891030311584473,0.12702903151512146,-0.0106523297727108,-0.24633513391017914
-0.7339983582496643,6.652645111083984,6.876673221588135,0.06311506032943726,0.07882724702358246,-0.2687050402164459
-0.3819543123245239,6.405885219573975,6.986742973327637,-0.22236739099025726,-0.5143743753433228,-0.25485700368881226
0.17617157101631165,5.874080657958984,7.430013179779053,-0.3224993050098419,-0.7135729789733887,-0.31131434440612793
-0.11844471842050552,5.823831081390381,7.106683254241943,-0.2830856740474701,-0.611310601234436,-0.4220985770225525
-0.4298107624053955,5.831009864807129,7.10429048538208,-0.2905423045158386,-0.5665708184242249,-0.4508598744869232
-0.6430711150169373,5.8692946434021,7.1856465339660645,-0.42476168274879456,-0.7838783264160156,-0.4114462435245514
-0.23808585107326508,5.842973709106445,7.406085014343262,-0.560978353023529,-0.9511199593544006,-0.34220612049102783
0.267397940158844,5.589035511016846,7.406085014343262,-0.6206313967704773,-0.8595098853111267,-0.3667064607143402
0.372682124376297,5.454738140106201,7.401299476623535,-0.6621754765510559,-0.7902697324752808,-0.42529428005218506
0.25304099917411804,5.327918529510498,7.274180889129639,-0.8262213468551636,-0.6922683119773865,-0.5295539498329163
0.09002995491027832,5.495416164398193,7.348657608032227,-1.0105066299438477,-0.5079829692840576,-0.4732297658920288
0.2027917206287384,5.461916923522949,7.805985450744629,-1.1861369609832764,-0.4058537781238556,-0.3581846058368683
0.547657310962677,5.2630133628845215,8.596514701843262,-1.304377794265747,-0.7125077247619629,-0.36138030886650085
0.4420739710330963,5.047659397125244,9.207581520080566,-1.2798774242401123,-1.1938599348068237,-0.43701183795928955
0.243469700217247,4.6163530349731445,9.763314247131348,-1.0668308734893799,-1.5656262636184692,-0.41464194655418396
0.3798605799674988,4.47487735748291,9.49501895904541,-0.784677267074585,-1.7689526081085205,-0.18135592341423035
1.6040884256362915,4.213760852813721,9.121140480041504,-0.3256950080394745,-1.0958584547042847,0.19666863977909088
1.939382791519165,4.199403762817383,8.586943626403809,-0.29799893498420715,-0.6603113412857056,0.3436708152294159
2.274677038192749,3.562314748764038,8.622835159301758,-0.34913012385368347,-0.1810896098613739,0.39373674988746643
0.5620142221450806,2.9491539001464844,9.286544799804688,0.26324570178985596,0.18628261983394623,-0.43701183795928955
-0.0849452018737793,3.1166515350341797,9.137890815734863,0.7149044871330261,-0.27269965410232544,-0.49133872985839844
0.15463615953922272,4.285844326019287,8.778668403625488,1.166430115699768,0.5005263686180115,-0.04500609636306763
0.3439682424068451,4.9516472816467285,8.313861846923828,0.9768186807632446,0.3290238380432129,0.2925396263599396
1.3453645706176758,4.707280158996582,7.532904624938965,0.5881417989730835,0.7114425301551819,0.3351489305496216
-0.3314059376716614,4.3121657371521,9.03978443145752,0.03648423030972481,2.793440341949463,0.5503259897232056
-1.7784653902053833,5.045266628265381,9.866206169128418,0.27283281087875366,2.4047634601593018,0.7323477268218994
-1.4982060194015503,5.399703502655029,6.754340171813965,0.4475310146808624,1.1650986671447754,0.5620435476303101
-0.2021935135126114,3.988835334777832,6.699305057525635,-0.1115831583738327,1.7082343101501465,0.8452624082565308
-0.5638088583946228,4.745565414428711,8.505587577819824,-0.4226312041282654,2.2556309700012207,0.7696308493614197
-1.1820544004440308,4.633102893829346,9.20997428894043,-0.30012941360473633,1.7561697959899902,0.5407389402389526
-1.9028922319412231,4.388735771179199,8.34736156463623,-0.25325915217399597,0.9882699251174927,0.5790873169898987
-1.8502501249313354,4.137190341949463,8.944071769714355,-0.27775952219963074,1.3461881875991821,0.8314144015312195
-1.9316060543060303,4.647459983825684,9.535696983337402,-0.04873441159725189,1.3907948732376099,0.9986559748649597
-1.989332914352417,4.882255554199219,9.20279598236084,0.10998530685901642,1.2204906940460205,1.0188953876495361
-1.9725831747055054,4.697709083557129,7.933104515075684,0.22170162200927734,0.9445953965187073,1.0188953876495361
-1.866999864578247,4.276273250579834,7.892426490783691,0.009853405877947807,1.0266183614730835,1.0487219095230103
-2.154437780380249,4.106083869934082,8.797810554504395,-0.18934516608715057,1.4270128011703491,1.0093083381652832
-2.5235304832458496,4.443770885467529,9.780064582824707,-0.09134373068809509,1.9754745960235596,0.9485899806022644
-2.3916261196136475,4.551746845245361,9.03260612487793,0.18974463641643524,2.0212795734405518,0.8133054375648499
-2.4323041439056396,4.532604217529297,8.57019329071045,0.2600499987602234,1.8307361602783203,0.7291520237922668
-3.0218358039855957,4.120440483093262,8.033602714538574,0.21957115828990936,1.4461870193481445,0.6131747364997864
-3.6732819080352783,4.551746845245361,8.673383712768555,0.1940055638551712,1.4419260025024414,0.6216966509819031
-3.7307095527648926,4.661816596984863,8.618049621582031,0.28455036878585815,1.4706873893737793,0.630218505859375
-3.4169507026672363,4.800899505615234,7.791628837585449,0.5338149070739746,1.6059719324111938,0.699458658695221
-3.2108688354492188,5.14576530456543,6.79531717300415,0.5838808417320251,1.4493826627731323,0.6547188758850098
-3.2853455543518066,5.301597595214844,6.411867141723633,0.5316844582557678,1.2982527017593384,0.5684349536895752
-3.646960735321045,5.107480049133301,5.988038539886475,0.3133116662502289,0.86150723695755,0.3766930401325226
-4.17637300491333,5.016253471374512,6.081358909606934,0.11637670546770096,0.30132779479026794,0.3340837061405182
-4.9501519203186035,5.4403815269470215,6.1363935470581055,0.04713656008243561,0.007456631399691105,0.39373674988746643
-4.976472854614258,5.318347454071045,6.208178520202637,-0.20106273889541626,-1.8211489915847778,0.5673697590827942
-3.7067813873291016,5.272584915161133,7.125825881958008,-0.46510738134384155,-1.1129021644592285,0.8750889301300049
-3.0601210594177246,5.519344329833984,7.719843864440918,-0.4311530590057373,-0.9607070088386536,0.7291520237922668
-2.3916261196136475,6.135197162628174,7.348657608032227,-0.09560466557741165,-0.37815773487091064,-0.13022473454475403
-2.2121646404266357,5.9315080642700195,7.619345664978027,-0.14673584699630737,-0.191741943359375,-0.22503048181533813
-2.324627161026001,5.260620594024658,7.348657608032227,-0.22236739099025726,-0.06604444980621338,-0.37203264236450195
-2.6383860111236572,4.910969257354736,7.772486209869385,-0.2276935577392578,-0.09054480493068695,-0.5497934222221375
-2.729313373565674,5.586642742156982,6.34726095199585,-0.17123620212078094,-0.33661362528800964,-0.5295539498329163
-2.3437697887420654,5.660820007324219,5.836991786956787,-0.5545869469642639,-0.1715025156736374,-0.5987941026687622
-2.3461625576019287,5.694319725036621,6.462116718292236,-1.382139801979065,-0.5111786723136902,-0.8714937567710876
-2.23848557472229,5.720640659332275,6.986742973327637,-1.7633601427078247,-0.8595098853111267,-1.051518201828003
-1.9965113401412964,4.992325305938721,7.4204421043396,-2.123408794403076,-1.4239501953125,-1.3240846395492554
-2.2265214920043945,3.7253258228302,8.277970314025879,-1.9561673402786255,-1.5144950151443481,-1.3400630950927734
-2.334198474884033,3.6053855419158936,9.078069686889648,-1.8400568962097168,-1.6847991943359375,-1.309171438217163
-2.9042885303497314,3.4235310554504395,9.562018394470215,-1.405574917793274,-1.0820103883743286,-1.0696271657943726
-2.8348965644836426,2.8941190242767334,12.3311128616333,-0.6430012583732605,-1.2439258098602295,-0.49240395426750183
-3.1079776287078857,2.618645191192627,12.065210342407227,-0.14140968024730682,-2.0672178268432617,0.31917044520378113
-2.478066921234131,2.2998015880584717,10.620841979980469,0.15885287523269653,-2.26322078704834,0.6941324472427368
-0.5279164910316467,2.326122760772705,8.68774127960205,0.5615109801292419,-1.2055774927139282,1.0487219095230103
0.13549357652664185,2.410170555114746,7.887640953063965,0.7330134510993958,-0.4260932207107544,1.1286144256591797
0.7513462901115417,2.4843480587005615,8.3931245803833,0.9608401656150818,1.0053136348724365,0.9613727927207947
-1.6274185180664062,3.950550079345703,9.47348403930664,0.9938623905181885,-0.2641777992248535,0.12849372625350952
-0.23808585107326508,3.3346974849700928,7.523333549499512,0.8809477090835571,0.09906667470932007,0.4288894534111023
-0.5015954375267029,3.6580276489257812,7.671987533569336,0.4390091598033905,-0.02876129187643528,0.28401774168014526
-0.3484548032283783,4.371985912322998,7.667201995849609,0.1950708031654358,0.7274209856987,0.33621418476104736
-0.7818548083305359,5.3303117752075195,8.016853332519531,-0.11371362209320068,1.5250142812728882,0.3234313726425171
-2.5474588871002197,5.064409255981445,8.541479110717773,-0.27775952219963074,1.2758828401565552,-0.11957240849733353
-1.9004993438720703,4.53499698638916,8.242077827453613,0.07589785009622574,0.16604319214820862,0.10718907415866852
-3.1630125045776367,3.9792640209198,8.584549903869629,0.03861469775438309,0.9872047305107117,-0.017310036346316338
-3.3547372817993164,3.811467409133911,8.160721778869629,0.08974587917327881,1.0053136348724365,0.03595161437988281
-2.8109683990478516,4.058227062225342,7.53769063949585,0.09613727778196335,0.611310601234436,0.2669740319252014
-2.2911276817321777,4.043870449066162,7.520940780639648,-0.017842652276158333,0.23315288126468658,0.29680055379867554
-2.144866466522217,4.029513359069824,8.53190803527832,-0.2500634491443634,-0.4271584451198578,0.1625811904668808
-2.2791635990142822,4.177868366241455,8.764310836791992,-0.13075734674930573,-0.09906667470932007,0.029560215771198273
-1.9701902866363525,4.204189300537109,8.275577545166016,0.0375494658946991,0.4983958899974823,0.06045197322964668
-2.020439624786377,4.673780918121338,7.9642109870910645,-0.013581721112132072,0.633680522441864,0.015712186694145203
-2.5618157386779785,4.549354076385498,8.110472679138184,-0.09986559301614761,0.39932921528816223,-0.15259462594985962
-2.612065076828003,4.326522350311279,7.6528449058532715,-0.16271434724330902,0.1575213372707367,-0.23568280041217804
-1.9076778888702393,3.945465326309204,7.573882102966309,-0.46723783016204834,0.5282224416732788,-0.21118244528770447
-2.307877540588379,3.9744784832000732,9.715457916259766,-0.6632407307624817,0.8732247948646545,-0.24313943088054657
-2.9904301166534424,3.996013879776001,9.21715259552002,-0.20425842702388763,-0.05006595328450203,-0.3880111277103424
-2.652743101119995,3.67238450050354,8.651848793029785,-0.16910573840141296,-0.32489606738090515,-0.2612484097480774
-2.738884687423706,3.5742788314819336,8.610871315002441,-0.23301972448825836,-0.31211328506469727,-0.2388785034418106
-2.901895761489868,3.78753924369812,9.03260612487793,-0.28734660148620605,-0.2886781394481659,-0.08868064731359482
-2.231307029724121,3.528815269470215,9.49501895904541,-0.12969212234020233,-0.742334246635437,-0.015179570764303207
-1.8693926334381104,3.6771702766418457,9.674481391906738,0.15885287523269653,-2.0214128494262695,0.0370168462395668
-0.8632107973098755,4.453341960906982,9.552447319030762,0.3250292241573334,-2.1535017490386963,-0.04394086077809334
-0.5733801126480103,3.7205400466918945,8.68774127960205,0.29413747787475586,-0.49413496255874634,-0.6520557403564453
-1.7904295921325684,3.4402806758880615,8.771489143371582,0.20998406410217285,-0.6826812028884888,-0.8086450099945068
-0.5805585980415344,3.9167516231536865,8.721240043640137,0.19294032454490662,-0.5047873258590698,-0.6254249215126038
-0.9640084505081177,3.6747772693634033,8.091031074523926,0.21104928851127625,-0.596397340297699,-0.3890763521194458
-0.6119644045829773,3.617349624633789,8.134400367736816,0.009853405877947807,-0.9702941179275513,-0.2623136341571808
-0.6239284873008728,3.801896095275879,9.758528709411621,-0.13927921652793884,-1.9617598056793213,0.11038476973772049
0.7103692293167114,4.158725738525391,9.849455833435059,0.22915825247764587,-2.3216753005981445,0.5556522011756897
1.3956137895584106,3.1142587661743164,8.773882865905762,0.6690995097160339,-1.1139674186706543,0.14340700209140778
1.3525429964065552,3.3466615676879883,7.137789726257324,0.5423367619514465,-0.3515268862247467,-0.34220612049102783
0.9499505758285522,4.132404804229736,6.560521602630615,0.1014634445309639,0.20332635939121246,-0.13128997385501862
1.2182458639144897,4.118047714233398,7.856534004211426,-0.12010502070188522,0.9573782086372375,0.12316756695508957
0.4205385744571686,3.945465326309204,9.399007797241211,-0.24473728239536285,0.8465939164161682,0.019973119720816612
-0.017647067084908485,4.304986953735352,9.41336441040039,-0.029560215771198273,-0.04900071769952774,-0.05459319427609444
0.763310432434082,4.700101852416992,9.355937004089355,0.18974463641643524,-0.7391385436058044,-0.03648423030972481
2.250748872756958,4.369593143463135,8.06231689453125,0.31650736927986145,-0.6102453470230103,-0.12596380710601807
2.0832512378692627,4.3121657371521,7.489833831787109,0.3026593327522278,-0.04473978653550148,-0.38268497586250305
0.7920243144035339,4.450949192047119,7.734200954437256,0.12489857524633408,-0.01704372838139534,-0.5615109801292419
0.26500511169433594,4.566103935241699,8.359326362609863,-0.06258244067430496,-0.37602725625038147,-0.5135754942893982
0.6170491576194763,4.443770885467529,8.718847274780273,-0.09666989743709564,-0.633680522441864,-0.3890763521194458
1.1703894138336182,4.228416919708252,8.500801086425781,-0.03275591507554054,-0.6688331961631775,-0.35285845398902893
1.3381860256195068,4.158725738525391,8.14397144317627,-0.018907885998487473,-0.6240934133529663,-0.44659894704818726
1.6878372430801392,4.458127498626709,8.26839828491211,-0.0902784988284111,-0.1928071826696396,-0.46896883845329285
1.350150227546692,4.237987995147705,8.52472972869873,-0.06364767253398895,0.4973306655883789,-0.4551208019256592
0.4420739710330963,4.182653903961182,8.584549903869629,0.07057169079780579,0.7007901668548584,-0.4625774323940277
0.1091725304722786,4.96839714050293,8.493622779846191,0.14087706804275513,0.34500235319137573,-0.433816134929657
0.5356931686401367,4.956432819366455,8.558229446411133,-0.07962616533041,-0.3078523576259613,-0.3645760118961334
0.7776673436164856,4.489533424377441,8.448159217834473,-0.27669426798820496,-0.4356802999973297,-0.3688369393348694
0.3607180118560791,4.585246562957764,8.543871879577637,-0.32143405079841614,-0.30359140038490295,-0.4007939398288727
-0.09930214285850525,4.695316314697266,8.647063255310059,-0.2596505582332611,-0.24074266850948334,-0.4210333526134491
0.03738785535097122,4.208974838256836,7.837092399597168,0.006657706573605537,0.15432563424110413,-0.09294158220291138
0.2147558331489563,4.180261135101318,8.280363082885742,0.09187635034322739,0.28002312779426575,-0.022636201232671738
0.07328019291162491,5.062016487121582,8.395517349243164,-0.13714875280857086,-0.20026381313800812,-0.04713656008243561
0.8374879360198975,4.829613208770752,8.337790489196777,-0.27882474660873413,-0.2332860380411148,0.04447348043322563
1.0531411170959473,4.120440483093262,8.546265602111816,-0.25645485520362854,0.25978371500968933,0.015712186694145203
0.5739783048629761,4.012763500213623,9.257830619812012,-0.07962616533041,0.4738955497741699,-0.08441971987485886
0.07088737189769745,4.269094467163086,9.554840087890625,0.18548369407653809,0.21610915660858154,-0.13128997385501862
0.09481559693813324,4.477270126342773,8.675776481628418,0.3303554058074951,-0.299330472946167,-0.11531147360801697
0.39421752095222473,4.532604217529297,7.890033721923828,0.23128871619701385,-0.49093925952911377,-0.10785484313964844
0.5213362574577332,4.360022068023682,7.837092399597168,0.04074516147375107,-0.20985090732574463,-0.07696308940649033
0.4612165689468384,4.393521308898926,8.318648338317871,-0.026364516466856003,0.1395455300807953,-0.020505735650658607
0.3080759048461914,4.283451557159424,8.342576026916504,0.05139749497175217,0.30239301919937134,-0.019440501928329468
0.1618146300315857,4.532604217529297,7.76052188873291,-0.04660394415259361,0.39506828784942627,-0.011983871459960938
0.023030918091535568,4.208974838256836,8.41705322265625,-0.14034445583820343,0.5580489635467529,0.08175663650035858
0.31764721870422363,3.492922782897949,8.421838760375977,0.05672365799546242,0.4653736650943756,0.20945143699645996
0.6505486369132996,3.217449188232422,7.087540626525879,0.16098333895206451,0.8295502066612244,0.3617797791957855
0.13549357652664185,3.9406797885894775,5.602196216583252,-0.33208638429641724,1.9393898248672485,0.5364779829978943
-2.4924237728118896,5.363811016082764,7.789236068725586,-1.188267469406128,2.5592222213745117,0.4097152650356293
-2.6240291595458984,3.5671002864837646,10.465009689331055,-1.235137701034546,1.8030400276184082,0.5545869469642639
-2.410768747329712,3.6269209384918213,8.987142562866211,-0.6621754765510559,0.6049191951751709,1.0604394674301147
-2.1113669872283936,4.168296813964844,8.421838760375977,-0.3991960883140564,0.550592303276062,1.2660294771194458
-1.1485549211502075,5.148158073425293,8.982357025146484,-0.38108712434768677,0.785875678062439,1.133940577507019
-0.26919254660606384,4.647459983825684,9.006285667419434,-0.37150001525878906,0.9467258453369141,0.9901341199874878
0.025423740968108177,3.6197423934936523,8.479266166687012,-0.23088926076889038,1.1864032745361328,0.38095396757125854
-1.2562319040298462,3.2629127502441406,8.70927619934082,-0.3469996452331543,1.2513824701309204,0.11038476973772049
-1.562812328338623,3.358625650405884,9.343972206115723,-0.4226312041282654,1.420621395111084,0.1199718713760376
-2.214557409286499,3.9601213932037354,10.273584365844727,-0.40345701575279236,1.6006457805633545,0.16684211790561676
-2.1879372596740723,3.7133617401123047,10.201499938964844,-0.1659100502729416,1.108641266822815,0.10825430601835251
-2.2121646404266357,3.351447105407715,9.93559741973877,-0.08814803510904312,0.6709636449813843,0.07643046975135803
-2.590529680252075,3.2461631298065186,9.389435768127441,-0.025299284607172012,0.01384802907705307,0.06045197322964668
-2.6312077045440674,3.2844481468200684,9.329615592956543,-0.0689738392829895,0.04900071769952774,0.08921326696872711
-2.420340061187744,3.4953157901763916,9.12831974029541,-0.12543119490146637,0.7071815729141235,0.13381989300251007
-2.4972095489501953,3.75643253326416,9.109176635742188,-0.1222354918718338,0.9872047305107117,0.11145000159740448
-2.6958138942718506,3.655634880065918,8.927322387695312,-0.03595161437988281,0.7284862399101257,-0.016244804486632347
-2.8827531337738037,3.428316593170166,8.558229446411133,0.020505735650658607,0.29174068570137024,-0.05672365799546242
-3.6038899421691895,3.248555898666382,8.155936241149902,-0.04127778112888336,-0.27376487851142883,0.0370168462395668
-3.311666488647461,3.0687949657440186,8.486444473266602,-0.1424749195575714,-0.12463226169347763,0.17642922699451447
-2.6240291595458984,3.67238450050354,8.852845191955566,-0.07749570161104202,0.3833507299423218,0.2712349593639374
-2.444268226623535,3.950550079345703,8.009675025939941,0.10359390825033188,0.11184946447610855,0.15618979930877686
-2.9904301166534424,3.382553815841675,7.204789161682129,0.08548495173454285,-0.40904948115348816,0.08388710021972656
-2.9306094646453857,3.0759735107421875,8.558229446411133,-0.2809551954269409,0.3066539466381073,0.47682493925094604
-2.1496520042419434,3.234198808670044,9.12592601776123,-0.2596505582332611,0.534613847732544,0.49599912762641907
-1.795215129852295,3.3466615676879883,9.389435768127441,-0.03595161437988281,0.14899946749210358,0.19986434280872345
-2.956930637359619,3.135794162750244,8.266005516052246,0.13448566198349,-0.5101134777069092,-0.015179570764303207
-1.275374412536621,3.7731821537017822,8.987142562866211,0.016244804486632347,-0.20026381313800812,0.09453943371772766
-2.317448616027832,3.408874988555908,8.996713638305664,0.04926702752709389,-0.2545906901359558,-0.22609570622444153
-3.002394199371338,3.4498519897460938,8.905488014221191,0.05459319427609444,-0.15765449404716492,-0.15152940154075623
-2.5378875732421875,3.586242914199829,8.383553504943848,0.00452724052593112,-0.18322007358074188,-0.09720251709222794
-2.5546371936798096,3.1695926189422607,8.376375198364258,-0.11690932512283325,-0.5047873258590698,-0.09507204592227936
-2.3605196475982666,2.855534791946411,8.999106407165527,-0.16377957165241241,-0.6251586079597473,-0.0375494658946991
-1.831107497215271,2.5872395038604736,8.766703605651855,-0.07003907114267349,-0.6698983907699585,-0.015179570764303207
-2.1759731769561768,3.303590774536133,8.764310836791992,-0.10732222348451614,-0.42076703906059265,-0.04287562891840935
-2.451446771621704,3.4498519897460938,9.825528144836426,-0.17017097771167755,-0.12250179797410965,-0.0077229393646121025
-2.252842426300049,3.552743434906006,9.358329772949219,0.16417904198169708,-0.17682868242263794,-0.06311506032943726
-1.4694921970367432,3.576671600341797,8.81934642791748,0.2366148829460144,-0.22582940757274628,-0.21224768459796906
-1.526919960975647,3.7181472778320312,8.647063255310059,0.21211452782154083,-0.6283543109893799,-0.4764254689216614
-1.8095721006393433,3.9143588542938232,8.745168685913086,0.17589659988880157,-1.0310124158859253,-0.5487281680107117
-2.36291241645813,4.177868366241455,8.692526817321777,0.10039821267127991,-1.84884512424469,-0.4870778024196625
-1.8550357818603516,3.840181350708008,8.749954223632812,0.05991935729980469,-1.9404550790786743,-0.5742937326431274
-2.724527597427368,2.68325138092041,9.229117393493652,0.13981182873249054,-1.8254098892211914,-0.7511224150657654
-0.22133609652519226,2.287837505340576,7.609774112701416,0.37189948558807373,0.6315500140190125,-0.5561847686767578
-0.7914260625839233,2.379063844680786,10.25204849243164,0.6989260315895081,2.407959222793579,-0.29746630787849426
-2.6718854904174805,2.77657151222229,10.09860897064209,0.5348801612854004,0.08095771074295044,0.14766792953014374
-1.277767300605774,4.132404804229736,6.629913330078125,-0.27882474660873413,-1.5262125730514526,0.3436708152294159
-1.4790635108947754,4.151547431945801,8.71645450592041,-0.5780220627784729,-0.9820116758346558,0.008255556225776672
-1.1748759746551514,4.515854358673096,10.316655158996582,-0.6866758465766907,-2.4473729133605957,-0.23142187297344208
-0.23808585107326508,3.82582426071167,9.947562217712402,-0.3469996452331543,-2.4495034217834473,-0.1856168508529663
1.4267204999923706,1.4662020206451416,9.15703296661377,0.06098458915948868,-1.2407301664352417,0.05512581020593643
1.6686947345733643,1.954936146736145,9.133105278015137,0.3995955288410187,0.8764204978942871,0.17749445140361786
-0.3074777126312256,3.7588253021240234,9.542876243591309,0.6999912261962891,1.4461870193481445,-0.111050546169281
-1.4742778539657593,4.458127498626709,8.790632247924805,0.3633776009082794,-0.19387240707874298,-0.17709499597549438
-0.2476571500301361,3.79471755027771,8.714061737060547,0.09720251709222794,-1.0437952280044556,-0.11957240849733353
0.06370890140533447,3.392125129699707,8.730812072753906,0.46563997864723206,-0.07030537724494934,-0.21544337272644043
-0.18065811693668365,3.70139741897583,8.515158653259277,0.46777045726776123,0.03621792420744896,-0.23248711228370667
0.05174478888511658,4.027120590209961,7.468298435211182,0.3516600430011749,0.23315288126468658,-0.19307348132133484
-0.21176479756832123,4.101297855377197,7.465905666351318,0.07270215451717377,0.47283029556274414,-0.19413872063159943
-0.5039882659912109,3.8066816329956055,8.584549903869629,-0.18082331120967865,0.24487043917179108,-0.21118244528770447
-0.39152559638023376,3.5479576587677,8.972785949707031,-0.17336668074131012,-0.1704372763633728,-0.2069215178489685
-0.03200400248169899,3.4713873863220215,8.874381065368652,-0.015712186694145203,-0.15126308798789978,-0.21970431506633759
-0.027218356728553772,3.614956855773926,8.57019329071045,0.12809427082538605,0.19267402589321136,-0.22183477878570557
-0.46809592843055725,3.655634880065918,8.586943626403809,0.0801587849855423,0.37376365065574646,-0.2633788585662842
-1.064507007598877,3.8688950538635254,8.560622215270996,-0.019973119720816612,0.14473854005336761,-0.2740311920642853
-0.722034215927124,3.7612180709838867,8.344968795776367,-0.19467133283615112,-0.0319569893181324,-0.16218173503875732
-0.5470590591430664,3.7851462364196777,9.229117393493652,-0.11797455698251724,-0.03408745676279068,-0.12915951013565063
-0.08733802288770676,3.9529430866241455,9.640981674194336,0.029027599841356277,-0.29400432109832764,-0.1557903289794922
0.04217349737882614,3.9071803092956543,9.650552749633789,0.09294158220291138,-0.2982652485370636,-0.18987779319286346
0.20997019112110138,3.811467409133911,9.281759262084961,0.13874660432338715,-0.06284874677658081,-0.2697702646255493
0.08763712644577026,3.6436707973480225,8.946464538574219,0.19933173060417175,0.35245898365974426,-0.29959678649902344
-0.4992026388645172,3.8617167472839355,8.74756145477295,0.18015754222869873,0.57296222448349,-0.2697702646255493
-0.8153542876243591,4.043870449066162,8.816953659057617,0.05672365799546242,0.4675041437149048,-0.19094301760196686
-0.8656035661697388,3.988835334777832,9.056534767150879,0.026897134259343147,0.29919731616973877,-0.16005125641822815
-0.5638088583946228,3.7348971366882324,9.360722541809082,0.06098458915948868,-0.1928071826696396,-0.1440727710723877
-0.08733802288770676,3.9239299297332764,9.11874771118164,0.15046416223049164,-0.24074266850948334,-0.12063764035701752
-0.968794047832489,4.086941242218018,8.838488578796387,0.28455036878585815,0.4632432162761688,-0.14726845920085907
-0.539880633354187,4.436592102050781,8.23250675201416,0.20146219432353973,0.0021304660476744175,-0.006657706573605537
-0.09212367236614227,4.029513359069824,7.863712310791016,0.1014634445309639,0.1575213372707367,0.0050598569214344025
-0.5518447160720825,4.146761417388916,8.40030288696289,0.08335448056459427,0.23847904801368713,-0.021570969372987747
-0.6741777658462524,4.664209365844727,8.807381629943848,0.09507204592227936,-0.04900071769952774,-0.05778888985514641
-0.27397820353507996,4.18983268737793,8.891130447387695,0.16524426639080048,0.2011958807706833,0.0007989247678779066
-0.29312077164649963,3.9311084747314453,8.187042236328125,0.28455036878585815,0.8977251052856445,0.11677616834640503
-1.0501500368118286,4.707280158996582,8.35453987121582,0.27389803528785706,1.108641266822815,0.11571093648672104
-1.4886348247528076,5.200799942016602,8.558229446411133,0.18654893338680267,0.33221954107284546,-0.0077229393646121025
-0.47288158535957336,4.5445685386657715,7.913961887359619,-0.019973119720816612,-0.5516575574874878,-0.08228924870491028
0.06849455088376999,4.295415878295898,7.9019975662231445,-0.12862688302993774,-0.32276561856269836,-0.1547250896692276
-1.153340458869934,3.9382870197296143,8.598907470703125,-0.00399462366476655,-0.2748301327228546,-0.05459319427609444
-0.6693921089172363,4.106083869934082,8.095816612243652,0.0023967742454260588,0.00852186419069767,0.0689738392829895
-0.7698906660079956,4.348057746887207,8.36411190032959,-0.14140968024730682,0.33435001969337463,0.09453943371772766
-0.9209375977516174,3.9840497970581055,7.0923261642456055,0.1950708031654358,0.07243584841489792,0.6504579186439514
-0.3436691462993622,4.827220439910889,6.596413612365723,-0.24899822473526,0.618767261505127,0.5279561281204224
-2.0730817317962646,4.692923545837402,8.13679313659668,-0.7665683031082153,1.1778813600540161,0.07962616533041
-1.9869401454925537,3.1310083866119385,8.900702476501465,-0.7196980714797974,1.5697540044784546,0.4512593448162079
-3.3882367610931396,4.336093902587891,7.949853897094727,-0.5876091718673706,2.887181043624878,0.8900021910667419
-3.996612071990967,3.490530014038086,9.461520195007324,-0.24793298542499542,0.1884130984544754,-0.13128997385501862
-4.173980236053467,3.0687949657440186,8.939286231994629,0.04500609636306763,-0.6102453470230103,-0.06098458915948868
-3.795315742492676,3.1504502296447754,8.120043754577637,0.10998530685901642,0.10545806586742401,0.16684211790561676
-4.06121826171875,3.490530014038086,8.426624298095703,-0.0018641578499227762,0.8071803450584412,0.24993029236793518
-4.401597023010254,3.4857444763183594,7.6767730712890625,0.0801587849855423,-0.191741943359375,0.14447222650051117
-3.6349966526031494,3.2844481468200684,7.88285493850708,-0.19467133283615112,-0.5612446665763855,0.2275604009628296
-3.7235312461853027,3.212663412094116,9.073284149169922,-0.27562904357910156,-0.07989247888326645,0.20092958211898804
-4.118945121765137,3.368196964263916,9.145069122314453,-0.0370168462395668,0.07882724702358246,0.2584521770477295
-3.8147575855255127,3.4618160724639893,8.797810554504395,0.14194230735301971,-0.36750540137290955,0.3308880031108856
-3.7474594116210938,3.600599765777588,8.335397720336914,0.14194230735301971,-0.9532504081726074,0.19773387908935547
-3.850649833679199,3.79471755027771,8.55583667755127,0.112115778028965,-1.5017122030258179,0.012516488321125507
-3.328416347503662,3.921537160873413,8.776275634765625,0.03861469775438309,-2.061891555786133,-0.020505735650658607
-2.4227328300476074,3.722932815551758,8.503194808959961,0.0002663082559593022,-2.3536324501037598,0.05512581020593643
-2.1113669872283936,3.57906436920166,8.256434440612793,0.014114337973296642,-2.2887864112854004,0.03914731368422508
-2.2671995162963867,3.648456335067749,8.53908634185791,0.111050546169281,-2.000108242034912,-0.03648423030972481
-2.3365912437438965,3.638885021209717,8.675776481628418,0.1950708031654358,-1.9159547090530396,-0.04607132822275162
-1.8143577575683594,3.2461631298065186,8.500801086425781,0.2898765504360199,-2.023543357849121,0.027429750189185143
-1.2203395366668701,3.5431721210479736,7.873283863067627,0.21744069457054138,-1.6933209896087646,0.18814678490161896
-0.20937198400497437,3.583850145339966,8.769096374511719,0.08122401684522629,-1.032077670097351,0.3628450036048889
-0.46331027150154114,3.5958142280578613,9.049356460571289,0.03222329914569855,-0.550592303276062,0.289343923330307
-0.8970093727111816,3.699004650115967,9.300901412963867,0.172700896859169,-0.07882724702358246,0.19986434280872345
-0.8057830333709717,3.4953157901763916,8.630014419555664,0.3122464418411255,0.12250179797410965,0.3138442933559418
-0.4082753658294678,3.466601848602295,8.165507316589355,0.3207682967185974,0.17456506192684174,0.40119338035583496
0.21236300468444824,3.880859136581421,8.000102996826172,0.18974463641643524,0.30132779479026794,0.4725640118122101
-0.10169496387243271,3.950550079345703,8.479266166687012,0.10892007499933243,0.3684374690055847,0.3223661482334137
-1.1437692642211914,4.0558342933654785,8.745168685913086,0.11744193732738495,0.09374050796031952,0.12849372625350952
-1.3615161180496216,4.182653903961182,8.316255569458008,0.08655018359422684,-0.12143656611442566,0.2360822707414627
-0.7052844762802124,4.101297855377197,8.153543472290039,0.025831900537014008,0.3194367587566376,0.5098471641540527
-0.43220359086990356,4.151547431945801,8.455337524414062,0.009853405877947807,0.8455287218093872,0.5865439176559448
-0.7339983582496643,4.156332969665527,8.867202758789062,0.0588541254401207,0.7370080947875977,0.3766930401325226
-1.2969099283218384,4.290630340576172,8.639585494995117,0.09400681406259537,0.2746969759464264,0.13701559603214264
-1.5101702213287354,4.3983073234558105,8.44576644897461,0.08228924870491028,0.06817491352558136,0.11038476973772049
-1.3471591472625732,4.309772491455078,8.304290771484375,0.026897134259343147,-0.11824086308479309,0.20732097327709198
-1.2035897970199585,4.170690059661865,8.488837242126465,-0.06684337556362152,-0.4346150755882263,0.1519288569688797
-1.0716854333877563,4.1659040451049805,8.989535331726074,-0.12543119490146637,-0.6294195652008057,0.1742987483739853
-0.753140926361084,3.921537160873413,8.8648099899292,-0.03595161437988281,-0.3930709958076477,0.24140843749046326
-0.6239284873008728,3.880859136581421,8.637192726135254,0.04607132822275162,-0.08734910935163498,0.27656111121177673
-0.5207380056381226,4.204189300537109,8.275577545166016,0.00133154122158885,0.0010652330238372087,0.2914743721485138
-0.367597371339798,4.204189300537109,8.474480628967285,-0.12010502070188522,0.2853493094444275,0.3244965970516205
-0.49202415347099304,4.185046672821045,8.965607643127441,-0.08282186836004257,0.5015916228294373,0.3426055610179901
-0.34606197476387024,4.175475597381592,8.979964256286621,-0.06790860742330551,0.32050198316574097,0.30638766288757324
-0.37956148386001587,3.921537160873413,8.968000411987305,0.009853405877947807,0.21504391729831696,0.19666863977909088
-0.6478567123413086,4.137190341949463,8.968000411987305,0.15152940154075623,0.11930610239505768,0.12316756695508957
-0.9855438470840454,4.180261135101318,8.706883430480957,0.16843996942043304,-0.012782796286046505,0.14660269021987915
-0.7100701332092285,4.041477680206299,8.313861846923828,0.06631075590848923,-0.3621792197227478,0.1625811904668808
-0.4226323068141937,4.089334011077881,8.462516784667969,0.0077229393646121025,-0.38881006836891174,0.16897258162498474
-0.1950150430202484,4.139583110809326,8.685347557067871,-0.027429750189185143,-0.03728315606713295,0.22436471283435822
-0.4465605318546295,3.8856449127197266,8.610871315002441,-0.04553871229290962,0.22250054776668549,0.13275466859340668
-0.8129615187644958,4.113262176513672,8.74038314819336,-0.10199606418609619,0.19267402589321136,0.13595037162303925
-0.4226323068141937,3.8473596572875977,9.161818504333496,-0.03169068321585655,0.0426093190908432,0.2062557488679886
-0.4585246443748474,3.684647798538208,9.073284149169922,0.1950708031654358,0.03621792420744896,0.28508299589157104
-0.353240430355072,3.950550079345703,8.52472972869873,0.3101159632205963,0.145803764462471,0.3138442933559418
-0.37956148386001587,4.295415878295898,8.412266731262207,0.2270277887582779,0.0010652330238372087,0.270169734954834
-0.10887342691421509,4.161118507385254,8.225327491760254,0.014114337973296642,-0.21730753779411316,0.2264951765537262
0.0038883367087692022,4.223630905151367,8.297112464904785,-0.1424749195575714,0.03302222490310669,0.2147776037454605
-0.1423729509115219,4.374378681182861,8.543871879577637,-0.23301972448825836,0.46111273765563965,0.18921200931072235
-0.15672987699508667,4.192225456237793,9.168996810913086,-0.2287587970495224,0.6017234921455383,0.19666863977909088
-0.20458634197711945,3.94815731048584,9.408578872680664,0.10039821267127991,0.5953320860862732,0.2584521770477295
-0.24526432156562805,3.88803768157959,9.205188751220703,0.3633776009082794,0.9168993234634399,0.29680055379867554
-0.597308337688446,4.137190341949463,8.907880783081055,0.45392242074012756,1.2279473543167114,0.2797568142414093
-1.093220829963684,4.091726779937744,8.939286231994629,0.30478981137275696,1.3950557708740234,0.19986434280872345
-1.5747764110565186,4.074976921081543,8.311469078063965,0.3442034125328064,1.6773425340652466,0.1529940962791443
-1.893320918083191,4.28823709487915,8.052745819091797,0.3122464418411255,1.5836020708084106,0.09453943371772766
-2.221735715866089,4.724030017852783,8.177471160888672,0.13022473454475403,0.8529853224754333,-0.0034620072692632675
-2.30069899559021,4.623531341552734,8.397910118103027,0.25152814388275146,-0.33554840087890625,-0.21224768459796906
-2.5307090282440186,4.815256595611572,7.904390335083008,0.2685718834400177,-0.4378107786178589,-0.2069215178489685
-2.3700907230377197,4.72881555557251,7.6767730712890625,0.16630950570106506,-0.703985869884491,-0.2580527067184448
-2.2743778228759766,4.628317356109619,8.04796028137207,-0.026364516466856003,-1.2503172159194946,-0.26763978600502014
-1.4431711435317993,4.348057746887207,8.165507316589355,-0.08175663650035858,-1.2194255590438843,-0.12063764035701752
-0.8249256014823914,4.146761417388916,8.06231689453125,-0.010386021807789803,-0.4175713360309601,0.05619104206562042
-1.593919038772583,4.530211448669434,8.263612747192383,-0.009320789016783237,0.5537880063056946,0.03595161437988281
-1.6202399730682373,4.623531341552734,8.117650985717773,-0.10412652790546417,0.3481980562210083,0.08921326696872711
-1.5245270729064941,4.285844326019287,8.881559371948242,-0.07216953486204147,-0.02769605815410614,0.11784140020608902
-1.2011969089508057,4.276273250579834,8.488837242126465,-0.07643046975135803,-0.3067871034145355,0.08921326696872711
-1.002293586730957,4.168296813964844,8.256434440612793,-0.04447348043322563,-0.3174394369125366,0.04127778112888336
-0.7483552694320679,4.487140655517578,8.244470596313477,-0.04021254554390907,-0.6272891163825989,0.002929390873759985
-0.28115665912628174,4.2260236740112305,8.567800521850586,0.019440501928329468,-0.6762897968292236,0.022103585302829742
-0.36281174421310425,4.271487712860107,8.706883430480957,0.132355198264122,-0.39946237206459045,-0.03648423030972481
-0.4944169819355011,4.4054856300354,8.366504669189453,0.20252743363380432,-0.15765449404716492,-0.015179570764303207
-0.3412763178348541,4.3672003746032715,8.002495765686035,0.1737661361694336,-0.01704372838139534,0.04447348043322563
-0.20458634197711945,4.427021026611328,7.93789005279541,0.05778888985514641,0.0159784946590662,0.07962616533041
-0.22133609652519226,4.482056140899658,8.311469078063965,-0.06684337556362152,0.03089175745844841,0.05406057462096214
-0.401096910238266,4.379164695739746,8.714061737060547,-0.10732222348451614,0.06710968166589737,0.021038351580500603
-0.539880633354187,4.393521308898926,9.054141998291016,-0.03275591507554054,-0.01171756349503994,0.04340824484825134
-0.4058825373649597,4.4389848709106445,8.9943208694458,0.09826774895191193,-0.21517707407474518,0.09453943371772766
0.04217349737882614,4.530211448669434,8.70927619934082,0.17909230291843414,-0.4495283365249634,0.09347419440746307
0.3966103494167328,4.542175769805908,8.69491958618164,0.20146219432353973,-0.4983958899974823,0.026364516466856003
0.41575294733047485,4.523033142089844,8.63479995727539,0.26431095600128174,-0.3813534080982208,-0.04181039705872536
0.14745768904685974,4.403092861175537,8.560622215270996,0.4166392683982849,-0.18428531289100647,-0.04181039705872536
-0.024825535714626312,4.649852752685547,8.242077827453613,0.5657718777656555,-0.1810896098613739,0.04127778112888336
0.15463615953922272,5.150550842285156,7.921140193939209,0.5274235010147095,-0.2545906901359558,0.08921326696872711
0.5213362574577332,4.683351993560791,7.935497283935547,0.45605289936065674,-0.3110480308532715,0.07003907114267349
0.6625127792358398,4.328915119171143,8.23250675201416,0.5434020161628723,-0.26950395107269287,0.03169068321585655
0.6290132403373718,4.642673969268799,7.774878978729248,0.6243597269058228,-0.05219641700387001,0.024234050884842873
0.3655036687850952,5.473880767822266,7.152146816253662,0.6328815817832947,0.6017234921455383,0.03595161437988281
0.15224334597587585,6.094519138336182,7.418049335479736,0.45711812376976013,1.04046630859375,0.009320789016783237
-0.13280165195465088,5.622535228729248,7.473084449768066,0.11637670546770096,0.726355791091919,-0.04500609636306763
-0.2763710021972656,5.013860702514648,7.578667640686035,-0.021038351580500603,0.43661239743232727,-0.017310036346316338
-0.753140926361084,5.804389476776123,8.285148620605469,-0.04234301298856735,0.3801550269126892,0.15832026302814484
-0.6095715761184692,5.845366477966309,8.673383712768555,-0.022103585302829742,0.251261830329895,0.2275604009628296
-0.2835494875907898,5.359025478363037,8.630014419555664,0.07696308940649033,0.21397867798805237,0.19986434280872345
-0.26201409101486206,5.289633750915527,8.36411190032959,0.22809302806854248,0.3620460629463196,0.2147776037454605
-0.4537389874458313,5.7062835693359375,8.167900085449219,0.31863781809806824,0.44300377368927,0.2477998286485672
-0.4585246443748474,5.782854080200195,8.194221496582031,0.3101159632205963,0.38441595435142517,0.22223423421382904
-0.137587308883667,5.6153564453125,8.622835159301758,0.24620197713375092,0.12143656611442566,0.1295589655637741
0.027816563844680786,5.531308650970459,8.721240043640137,0.2664414048194885,0.08308817446231842,0.10625699162483215
-0.022432712838053703,5.550451278686523,8.102994918823242,0.4390091598033905,0.4227643609046936,0.10625699162483215
-0.35802608728408813,5.976971626281738,7.518548011779785,0.5178363919258118,0.7316819429397583,0.04447348043322563
-0.6622136831283569,6.422635078430176,7.2335028648376465,0.3324858546257019,0.4451342523097992,-0.05672365799546242
-0.594915509223938,6.252445697784424,7.300501823425293,0.22809302806854248,0.30026257038116455,-0.08441971987485886
-0.3891327679157257,5.813961029052734,7.027420997619629,0.1014634445309639,0.19160878658294678,-0.16857312619686127
