accX,accY,accZ,gyroX,gyroY,gyroZ
-3.085589647293091,7.547893047332764,8.255389213562012,-0.07843509316444397,1.1843804121017456,-0.086428701877594
-4.007663726806641,5.98375129699707,7.242038249969482,0.012234757654368877,0.16205382347106934,0.00019198621157556772
-4.03956413269043,5.968255996704102,6.977910041809082,-0.08569566905498505,-0.010943214409053326,0.013753194361925125
-3.703695774078369,5.842608451843262,6.447412490844727,-0.27958428859710693,-0.21957987546920776,0.12260937690734863
-3.2200095653533936,5.367196559906006,7.379810333251953,-0.3534640669822693,-0.34543555974960327,0.24649284780025482
-3.0294599533081055,5.1724042892456055,7.9723944664001465,-0.1351233869791031,-0.11712904274463654,0.37683403491973877
-2.1326494216918945,4.943863391876221,8.319697380065918,0.11976449191570282,0.22476349771022797,0.3597123622894287
-1.7326645851135254,5.06458854675293,6.92996883392334,0.18683749437332153,0.43559926748275757,0.2767219543457031
-1.7511190176010132,5.502957344055176,5.318986892700195,-0.14004522562026978,0.33452725410461426,0.18130479753017426
-2.3361756801605225,6.291990756988525,4.95943546295166,-0.6717946529388428,0.13290682435035706,0.16125096380710602
-2.4578778743743896,6.49479866027832,6.175096035003662,-0.9595471024513245,-0.23607324063777924,0.10634291172027588
-3.0322179794311523,6.8965840339660645,6.529600620269775,-1.1154398918151855,-0.4510803520679474,0.1362753063440323
-3.4774725437164307,7.111832141876221,6.105932235717773,-1.2978792190551758,-0.7093018293380737,0.31560787558555603
-3.431532621383667,7.091452598571777,5.893289089202881,-1.5682655572891235,-1.013687252998352,0.5969549417495728
-1.2642054557800293,5.537912845611572,8.34017276763916,-1.7912139892578125,-1.1337833404541016,0.961624026298523
-0.929103434085846,5.033253192901611,9.049449920654297,-1.320167064666748,-0.873310387134552,0.9296321868896484
-0.7807682752609253,4.883577346801758,8.615936279296875,-0.9009389281272888,-0.620848536491394,0.9508379101753235
-0.25347891449928284,4.585049152374268,8.700778007507324,-0.6224367618560791,-0.3127979040145874,0.9652543663978577
0.42116880416870117,4.283475875854492,9.008557319641113,-0.3534466326236725,0.0012740903766825795,0.8961567282676697
0.8776185512542725,4.186941623687744,9.376067161560059,-0.08874998986721039,0.08306021988391876,0.678706169128418
1.3876314163208008,4.359046459197998,9.674729347229004,0.06377433240413666,-0.14878931641578674,0.343899667263031
0.9622488021850586,4.650803565979004,9.684621810913086,0.12440706789493561,-0.2561270594596863,0.053127821534872055
0.059615619480609894,5.015670299530029,10.034586906433105,0.19734437763690948,-0.17317156493663788,-0.10100220143795013
-0.9057168960571289,5.150780200958252,10.154919624328613,0.6583556532859802,0.1543918251991272,-0.054541539400815964
-1.092225193977356,5.270537853240967,9.3975191116333,0.7960970401763916,0.29166197776794434,0.04731587693095207
-0.8368309140205383,5.5032734870910645,8.960280418395996,0.8300960659980774,0.32012829184532166,0.13170254230499268
-0.6432262063026428,5.937820911407471,8.834911346435547,0.8097106218338013,0.26277676224708557,0.15191346406936646
-0.6286407113075256,6.217042446136475,8.67160701751709,0.7768983840942383,0.27843236923217773,0.1402546614408493
-0.8940427899360657,6.382960796356201,8.6500883102417,0.7332651615142822,0.42147955298423767,0.17720328271389008
-1.2742323875427246,5.689293384552002,8.767776489257812,0.6419146656990051,0.6046518683433533,0.2819579541683197
-0.7900386452674866,4.590335845947266,9.193906784057617,0.5591162443161011,0.4508360028266907,0.2557430863380432
-0.3016502559185028,4.3601861000061035,9.457097053527832,0.5752605199813843,0.24556782841682434,0.17130406200885773
-0.20288464426994324,4.311382293701172,9.081551551818848,0.7353944778442383,0.2992192506790161,0.13089969754219055
0.000660799618344754,4.466248989105225,7.023620128631592,0.9842609763145447,0.3093072474002838,0.08775515109300613
-0.6207590103149414,4.725656032562256,6.534867763519287,1.125109076499939,-0.07077310234308243,0.02174680307507515
-0.4981279969215393,5.153088092803955,5.456921577453613,0.740822434425354,0.24563764035701752,-0.07630579173564911
-0.3373238444328308,5.615849018096924,6.226169109344482,0.10018189996480942,-0.021275563165545464,-0.2148674875497818
-1.0564558506011963,5.477358818054199,7.165040969848633,-0.26171213388442993,-0.4303109347820282,-0.29567623138427734
-0.4871912896633148,4.945797920227051,7.425625801086426,-0.3931353986263275,-0.5690122246742249,-0.3352079391479492
-0.5476018190383911,5.070536136627197,7.665314197540283,-0.5320461392402649,-0.6063448190689087,-0.4796164631843567
-0.679685115814209,5.246452331542969,7.748191833496094,-0.5513495206832886,-0.6821793913841248,-0.4968777894973755
-0.7339856028556824,5.504068374633789,7.770697116851807,-0.5512447953224182,-1.0130414962768555,-0.500700056552887
0.2696828544139862,5.314792156219482,7.323719024658203,-0.6413561105728149,-1.0739185810089111,-0.5292361974716187
0.5614306926727295,5.155587673187256,7.150120258331299,-0.6973114013671875,-0.8609709143638611,-0.5335820317268372
0.2307339906692505,5.236224174499512,7.4097089767456055,-0.6210579872131348,-0.6385810375213623,-0.5248903036117554
0.20134277641773224,5.437356472015381,7.842925548553467,-0.5328315496444702,-0.5200208425521851,-0.4326845705509186
0.2023770660161972,5.576977729797363,8.222224235534668,-0.3959802985191345,-0.4688303470611572,-0.33231067657470703
0.1252359002828598,5.699013710021973,8.277914047241211,-0.23895302414894104,-0.4858298599720001,-0.2542421221733093
0.4366544783115387,5.679189682006836,7.845118522644043,-0.16955873370170593,-0.331856906414032,-0.15606734156608582
0.6550248265266418,5.669641971588135,8.175633430480957,-0.1843067705631256,-0.3095864951610565,-0.14674727618694305
0.7156077027320862,5.741515636444092,8.61125373840332,-0.11110766232013702,-0.22650882601737976,-0.1229933500289917
0.6414353251457214,5.90021276473999,9.011458396911621,0.03438298776745796,-0.11164870858192444,-0.09859365224838257
0.7346081137657166,5.871626377105713,9.038657188415527,0.10878637433052063,-0.05885250121355057,-0.08836601674556732
0.6951708197593689,5.8577399253845215,9.255284309387207,0.25078636407852173,0.10019934922456741,-0.10007718205451965
0.6046508550643921,5.908037185668945,9.498869895935059,0.35013049840927124,0.23977333307266235,-0.08990190923213959
0.33958399295806885,6.020583629608154,9.129770278930664,0.5640380382537842,0.4199611246585846,-0.08061675727367401
0.20224300026893616,6.146949768066406,8.287176132202148,0.7735822796821594,0.35093334317207336,-0.09766862541437149
-0.08775227516889572,6.567285537719727,6.883185863494873,0.45263367891311646,-0.19163715839385986,-0.19809487462043762
-0.035750217735767365,6.6887288093566895,7.843260765075684,-0.011170106939971447,-0.4305378198623657,-0.16982053220272064
-0.5628097653388977,6.3075432777404785,7.96321964263916,-0.008691739290952682,-0.5592733025550842,-0.15854570269584656
0.23072442412376404,5.808323383331299,8.696393013000488,-0.5167396068572998,-0.9854826927185059,-0.08426449447870255
0.07973649352788925,5.268373489379883,9.073671340942383,-0.5919982194900513,-0.7504915595054626,-0.03396410867571831
-0.034466926008462906,4.829708099365234,9.485491752624512,-0.5818403959274292,-0.6055768728256226,-0.005078908056020737
-0.11005666106939316,4.4326629638671875,10.123527526855469,-0.3817034959793091,-0.4239753782749176,0.035360369831323624
-0.19074125587940216,4.394547462463379,9.822509765625,-0.10534807294607162,-0.3010518550872803,0.0610516183078289
-0.36283645033836365,4.412724018096924,8.893195152282715,0.13035863637924194,-0.18212510645389557,0.12229522317647934
-0.191919207572937,4.340447902679443,8.386409759521484,0.21123719215393066,-0.08311257511377335,0.17931511998176575
-0.1074613481760025,4.45098352432251,8.14033317565918,0.20004963874816895,0.02542944625020027,0.20598375797271729
-0.09552864730358124,4.829832553863525,7.9780449867248535,0.14645057916641235,0.03827507048845291,0.21210986375808716
-0.007757212966680527,4.880522727966309,7.671108245849609,0.0011693706037476659,-0.01771509274840355,0.21952751278877258
0.6238523125648499,4.779094696044922,7.7386627197265625,-0.16776104271411896,-0.08676031976938248,0.15711453557014465
1.0592522621154785,4.626392364501953,7.892380237579346,-0.29249972105026245,-0.15575318038463593,0.03694862127304077
1.1972156763076782,4.433046340942383,8.646122932434082,-0.29967302083969116,-0.20413370430469513,-0.09574875980615616
1.0391409397125244,4.513185024261475,8.596189498901367,-0.1817062348127365,-0.08904670178890228,-0.10939723998308182
0.9377896189689636,4.640795707702637,8.439483642578125,-0.12020082771778107,-0.0011868239380419254,-0.09889035671949387
0.7428345680236816,5.01816987991333,7.999439239501953,-0.022392574697732925,0.11627383530139923,-0.06024876609444618
0.6790817379951477,5.475854873657227,7.393304347991943,-0.037402406334877014,0.1281420737504959,-0.031817350536584854
0.5694369077682495,5.675502777099609,7.23743200302124,-0.07075564563274384,0.09421287477016449,-0.03047344833612442
0.2758694887161255,5.781671047210693,7.155569553375244,-0.17385224997997284,-0.17462019622325897,-0.03445279970765114
0.3711203932762146,5.7034478187561035,7.798182964324951,-0.25965264439582825,-0.4207639694213867,-0.08689994364976883
0.7278947234153748,5.344987869262695,8.258041381835938,-0.16627751290798187,-0.41922807693481445,-0.11627383530139923
0.6431783437728882,5.523940086364746,8.545269012451172,0.02759365551173687,-0.23699826002120972,-0.02427753061056137
0.7776654362678528,5.65148401260376,8.730475425720215,0.20544271171092987,0.09803514182567596,0.02914699912071228
0.6995282173156738,5.921272277832031,8.43574047088623,0.32564353942871094,0.40257763862609863,0.050998520106077194
0.6428239941596985,6.069521427154541,8.585156440734863,0.38954004645347595,0.48342129588127136,0.04246386140584946
0.5308423638343811,6.151968002319336,8.593182563781738,0.43938663601875305,0.46362927556037903,0.04281292483210564
0.5061725378036499,6.148156642913818,8.576356887817383,0.43127086758613586,0.4156326949596405,0.04822344705462456
0.2923703193664551,6.337460994720459,8.526211738586426,0.4087561070919037,0.2698977291584015,0.043598324060440063
-0.07700709998607635,6.64064359664917,8.347172737121582,0.3448072373867035,0.1549503356218338,0.07157595455646515
-0.09280882775783539,6.7205047607421875,8.302556037902832,0.28560566902160645,0.13646729290485382,0.09992010146379471
0.55012047290802,6.483038425445557,8.163222312927246,0.10815805196762085,-0.019949113950133324,0.08916886895895004
0.8906046748161316,6.372033596038818,8.667402267456055,-0.04162610322237015,-0.2669655680656433,0.025237461552023888
1.125686526298523,6.054073810577393,9.229925155639648,-0.04565781354904175,-0.45032984018325806,-0.03982841223478317
1.3688703775405884,5.62406587600708,9.313405990600586,0.015114551410079002,-0.37175512313842773,-0.07578219473361969
1.4624836444854736,4.726058006286621,9.263606071472168,0.041032690554857254,-0.21279054880142212,-0.10203194618225098
1.2008931636810303,4.429656028747559,9.411243438720703,0.2857103943824768,-0.12131783366203308,-0.07089527696371078
1.4292616844177246,4.469744682312012,8.520523071289062,0.45779985189437866,-0.12002629041671753,-0.06850416958332062
1.7302799224853516,4.55119514465332,7.6499433517456055,0.5137027502059937,0.0737401619553566,-0.11997393518686295
1.621343731880188,4.6325883865356445,6.709682941436768,0.3585255444049835,0.32525956630706787,-0.1947089284658432
1.2797390222549438,4.8108320236206055,6.731863975524902,0.12692034244537354,0.4135383069515228,-0.24518385529518127
1.1813470125198364,4.55430793762207,5.900777816772461,-0.03258529677987099,0.34459781646728516,-0.3700447082519531
1.0926848649978638,4.553196907043457,6.9315009117126465,-0.42149701714515686,-0.24357815086841583,-0.42331215739250183
1.272422432899475,4.321840286254883,8.036358833312988,-0.6244962811470032,-0.4740488827228546,-0.43795546889305115
1.3333500623703003,4.133110046386719,8.563647270202637,-0.5613851547241211,-0.2703689634799957,-0.45355871319770813
0.8294950723648071,4.472349643707275,8.829960823059082,-0.4195946156978607,-0.04996877536177635,-0.4029965102672577
0.4741285443305969,4.913486003875732,8.690225601196289,-0.2689377963542938,0.13962633907794952,-0.3228684663772583
0.3015449047088623,5.265701770782471,8.834461212158203,-0.07209955155849457,0.27635544538497925,-0.23684117197990417
0.060774412006139755,5.546656608581543,8.59840202331543,0.15433946251869202,0.28440138697624207,-0.18044959008693695
-0.06499778479337692,5.9202094078063965,7.2803263664245605,0.321367472410202,0.4507836401462555,-0.15374605357646942
-0.5716778635978699,6.489856719970703,5.624171257019043,-0.25534167885780334,-0.3372325301170349,-0.1535366177558899
0.32816842198371887,6.003230571746826,7.090217590332031,-0.7093018293380737,-0.7099650502204895,-0.0414864756166935
1.2084397077560425,5.435460090637207,8.033438682556152,-0.6846228241920471,-1.0142457485198975,-0.09724974632263184
1.590161681175232,5.235544204711914,8.596352577209473,-0.7318689227104187,-1.2910549640655518,-0.15109315514564514
1.990491271018982,5.016666412353516,8.963297843933105,-0.67514568567276,-1.2101240158081055,-0.21176080405712128
1.480698823928833,5.145886421203613,9.58494758605957,-0.40477675199508667,-0.9260367751121521,-0.24404938519001007
1.0918899774551392,5.453454971313477,9.88566780090332,-0.24160592257976532,-0.7319212555885315,-0.1952674388885498
1.0694228410720825,5.645613670349121,9.539437294006348,0.06902777403593063,-0.15922638773918152,-0.024294983595609665
1.9305118322372437,5.508416175842285,9.23137092590332,0.43765875697135925,0.8832238912582397,0.07480481266975403
0.4769345223903656,6.375260829925537,6.51112699508667,0.1468869149684906,0.16125096380710602,0.039217546582221985
1.9469552040100098,5.609173774719238,8.367945671081543,-0.2050936371088028,-0.4628787636756897,0.016545720398426056
2.262941837310791,5.8021368980407715,8.799773216247559,-0.21368065476417542,-0.6681469678878784,-0.11091567575931549
2.433744192123413,5.411240577697754,8.735140800476074,-0.2010095715522766,-0.5455026626586914,-0.1725083440542221
-0.6347315907478333,6.3893961906433105,5.906782627105713,0.295536607503891,0.6023131012916565,0.21909117698669434
-0.20320068299770355,5.646399021148682,6.756925106048584,-0.1091528907418251,0.18209019303321838,0.229842409491539
0.27181848883628845,4.619861125946045,8.971820831298828,-0.41172316670417786,-0.039444439113140106,0.13836970925331116
-0.5822889804840088,4.443686008453369,10.369852066040039,-0.2854486107826233,-0.1999274641275406,0.07925540208816528
-0.8748221397399902,4.3043341636657715,11.28506088256836,0.11163125932216644,-0.30284953117370605,0.1255589872598648
-0.7962539792060852,4.3365983963012695,11.173422813415527,0.5626417994499207,0.054017938673496246,0.26623252034187317
-0.45514729619026184,4.117279529571533,9.744467735290527,0.713630199432373,0.32135000824928284,0.3332706093788147
-0.15646585822105408,3.6911981105804443,8.587129592895508,1.120396614074707,1.4553078413009644,0.4536634385585785
-1.1374086141586304,5.640183448791504,5.304181098937988,0.39159953594207764,0.38526397943496704,0.5175075531005859
0.5494500994682312,4.885435581207275,6.444127559661865,-0.31579986214637756,-0.14556045830249786,0.4924969971179962
0.5124070048332214,4.641542911529541,7.317340850830078,-0.47881361842155457,-0.15346680581569672,0.29878291487693787
0.28423961997032166,4.719699382781982,7.685310363769531,-0.6110397577285767,-0.22961550951004028,0.28991663455963135
0.1894388049840927,4.659298419952393,8.900310516357422,-0.627428412437439,-0.35934582352638245,0.25130996108055115
0.22787053883075714,4.717716693878174,9.252909660339355,-0.37770670652389526,-0.046443212777376175,0.25106561183929443
0.9512258768081665,4.600697994232178,9.354290962219238,0.15308283269405365,0.963299572467804,0.23134338855743408
0.07480443269014359,5.2650980949401855,7.256997585296631,0.4465075731277466,0.916559636592865,0.2661976218223572
0.35052070021629333,5.590192794799805,5.858879566192627,-0.06894050538539886,0.3836233615875244,0.32414254546165466
0.7838424444198608,5.43899393081665,6.894505500793457,-0.36336010694503784,0.10115928202867508,0.2019171416759491
0.2686868906021118,5.366957187652588,8.487627029418945,-0.179716557264328,0.05249950289726257,0.2457074522972107
0.08628702908754349,5.434053421020508,7.929126262664795,0.05911429971456528,0.23520056903362274,0.33597588539123535
0.5697146654129028,5.6691436767578125,7.952148914337158,-0.019233528524637222,0.2742435932159424,0.29513517022132874
0.3139468729496002,6.017117023468018,7.993492126464844,-0.03841469809412956,0.3304431736469269,0.28010788559913635
0.28828102350234985,6.212857246398926,7.9786577224731445,0.004782202187925577,0.37751471996307373,0.2503325641155243
0.09997228533029556,6.426458358764648,8.270922660827637,0.10407398641109467,0.3072652220726013,0.22951079905033112
0.17447984218597412,6.534025192260742,8.65317153930664,0.16292648017406464,0.19547687470912933,0.22052234411239624
0.129947692155838,6.574496746063232,8.710920333862305,0.17383478581905365,0.1802750527858734,0.218916654586792
-0.16208745539188385,6.6143364906311035,8.81567096710205,0.1696110963821411,0.15097098052501678,0.2243795245885849
-0.45333728194236755,6.479092597961426,9.136809349060059,0.21359339356422424,0.18528415262699127,0.2710845470428467
-0.09287586808204651,6.297746181488037,9.307775497436523,0.36713001132011414,0.4040262699127197,0.3684389889240265
0.5471708178520203,6.359162330627441,8.257782936096191,0.6105510592460632,0.8074067831039429,0.43910738825798035
0.8636363744735718,6.465550899505615,7.996662139892578,0.4767541289329529,0.6858969330787659,0.38346630334854126
0.420594185590744,6.039785385131836,8.958451271057129,0.20898573100566864,0.4408876299858093,0.1022588387131691
0.039140406996011734,5.3153862953186035,9.092775344848633,0.14570008218288422,0.4277976453304291,0.11957250535488129
-0.15772999823093414,4.683135032653809,9.652406692504883,0.11246901750564575,0.3735353648662567,0.13435544073581696
0.08633490651845932,4.463845252990723,9.760106086730957,0.23057544231414795,0.341665655374527,0.14583970606327057
0.7916762828826904,4.422100067138672,7.005443572998047,0.3945665955543518,0.7126004695892334,0.027646014466881752
0.6702998280525208,4.430450916290283,7.151499271392822,0.2968979477882385,0.6940825581550598,-0.004049163777381182
0.07485231757164001,4.678490161895752,7.579448699951172,0.08894197642803192,0.41924554109573364,-0.0616450272500515
-0.5964818000793457,4.679840564727783,6.548830986022949,-0.016528267413377762,0.1166578084230423,-0.10604620724916458
-0.05777687206864357,4.975773334503174,7.224934101104736,-0.09276425093412399,-0.03232349827885628,-0.21502456068992615
-0.8650346398353577,5.227375507354736,8.102927207946777,-0.4626518785953522,-0.19034560024738312,-0.26712262630462646
-0.9728215932846069,5.759156227111816,8.272886276245117,-0.328942209482193,-0.4792499542236328,-0.24607397615909576
-0.9116640686988831,5.927009105682373,8.172426223754883,-0.2964441776275635,-0.5399001240730286,-0.22385592758655548
0.04986643046140671,5.797597408294678,7.867336750030518,-0.28071874380111694,-0.5197415947914124,-0.21875956654548645
0.9575944542884827,5.669450283050537,7.397115707397461,-0.3617369532585144,-0.36765360832214355,-0.31009265780448914
1.1666178703308105,5.336235046386719,7.341723442077637,-0.39413025975227356,-0.42209041118621826,-0.36390113830566406
0.8804628252983093,5.341961860656738,7.837265491485596,-0.48893654346466064,-0.6141115427017212,-0.33480650186538696
0.9010721445083618,5.375020980834961,8.10736083984375,-0.5038765668869019,-0.6255085468292236,-0.2981196939945221
0.8048827052116394,5.317119598388672,8.264238357543945,-0.4124387502670288,-0.47368234395980835,-0.24460789561271667
0.5819154977798462,5.522063255310059,8.102639198303223,-0.3207915127277374,-0.3744429349899292,-0.20573940873146057
0.4227393865585327,5.721529006958008,8.341407775878906,-0.28527405858039856,-0.4268726408481598,-0.1927018016576767
0.45477381348609924,5.990119934082031,9.102726936340332,0.14781193435192108,-0.02033308520913124,-0.06642723083496094
0.44440212845802307,5.813925743103027,9.1558198928833,0.21406462788581848,0.05274384841322899,-0.02453932911157608
0.6662296652793884,5.675905227661133,9.470686912536621,0.33714523911476135,0.11170107126235962,0.01160643994808197
-0.16093823313713074,7.083743572235107,5.844696044921875,0.44453534483909607,0.2878047823905945,-0.16077972948551178
-0.6458981037139893,7.153424263000488,7.027451038360596,-0.3756472170352936,0.02701769582927227,-0.05686282739043236
-0.7791880965232849,6.662823677062988,7.76771879196167,-0.5640904307365417,-0.13316862285137177,-0.07127925008535385
-1.6740065813064575,6.239375591278076,8.289348602294922,-0.7289018630981445,-0.6057863235473633,-0.011990412138402462
-2.223361015319824,5.017528533935547,9.406368255615234,-1.0476338863372803,-1.1775038242340088,0.05944591388106346
-0.6302592158317566,3.7441768646240234,11.497579574584961,-0.9627934098243713,-1.401726245880127,-0.008639379404485226
-0.8008125424385071,3.877984046936035,10.621416091918945,-0.5615596771240234,-0.9740333557128906,-0.06782349199056625
-1.4703174829483032,3.900575876235962,9.746095657348633,-0.15252432227134705,-0.49033281207084656,0.0027925267349928617
0.25914838910102844,3.7893221378326416,7.760632038116455,-0.1817585825920105,0.08873254060745239,0.2877873480319977
0.25460898876190186,4.01669454574585,8.332464218139648,-0.22134265303611755,-0.06656685471534729,0.263195663690567
0.3291931450366974,4.382203102111816,8.661521911621094,-0.13404127955436707,-0.16294394433498383,0.23054054379463196
0.40299201011657715,4.625482559204102,8.167291641235352,-0.04804891347885132,-0.05982988700270653,0.233839213848114
0.5016714334487915,4.60723876953125,7.880792140960693,0.0023911010939627886,0.1014036312699318,0.27059584856033325
0.5108460187911987,4.8834052085876465,7.780561447143555,0.061191242188215256,0.2592686712741852,0.36301103234291077
0.9247077107429504,5.001698017120361,7.902799606323242,0.1558055430650711,0.6523691415786743,0.4323878586292267
0.14587391912937164,5.328324317932129,7.165299415588379,0.25712189078330994,0.5811597108840942,0.4125085771083832
0.45395976305007935,5.52372932434082,6.811877250671387,-0.0011519172694534063,0.13618804514408112,0.3455751836299896
0.504228413105011,5.522474765777588,6.876397132873535,-0.15201817452907562,-0.09519025683403015,0.2868448495864868
0.803838849067688,5.157062530517578,7.908153057098389,-0.2989749014377594,-0.12032299488782883,0.16779595613479614
-0.09283756464719772,5.238283157348633,8.849180221557617,-0.13781119883060455,0.06724753230810165,0.13920746743679047
-0.1313842087984085,5.401453018188477,9.769109725952148,0.12550662457942963,0.14674727618694305,0.21937043964862823
0.31582391262054443,5.564680099487305,9.441725730895996,0.39507272839546204,0.33194416761398315,0.25590017437934875
0.7671309113502502,5.845816612243652,8.856860160827637,0.555992066860199,0.4827755093574524,0.26316073536872864
0.8879327774047852,5.925313949584961,8.620247840881348,0.5741783976554871,0.5690820813179016,0.24553291499614716
1.174566626548767,5.885321140289307,8.238018035888672,0.5352925062179565,0.7135080695152283,0.20327849686145782
1.2197978496551514,5.6147284507751465,8.76979923248291,0.5852088928222656,0.6533814668655396,0.015777776017785072
1.227210283279419,5.86192512512207,8.730369567871094,0.6624571681022644,0.5878094434738159,-0.1056971400976181
-0.6200599074363708,7.040331840515137,9.1156644821167,0.3015405237674713,0.31639328598976135,-0.039095375686883926
-0.6415502429008484,6.718129634857178,9.019159317016602,0.1869596689939499,0.2588846981525421,0.0052534411661326885
-0.38138672709465027,5.7695183753967285,9.452221870422363,0.14121459424495697,0.15735888481140137,-0.02157226949930191
0.4089200496673584,4.923081874847412,9.634956359863281,0.27497661113739014,0.0021118484437465668,-0.18017034232616425
0.4318660795688629,4.799694061279297,9.292882919311523,0.3680550456047058,-0.023719023913145065,-0.22734658420085907
0.8871378898620605,4.449690818786621,8.128057479858398,0.44888123869895935,-0.10355038195848465,-0.24116960167884827
0.6627341508865356,4.671920299530029,8.173603057861328,0.20258036255836487,0.2301740199327469,-0.26686084270477295
0.0831649899482727,4.722256183624268,8.186657905578613,0.13315117359161377,0.3326772153377533,-0.23869122564792633
-0.38599318265914917,4.480700492858887,7.944995403289795,0.045954518020153046,0.42563343048095703,-0.2191609889268875
-1.1309537887573242,5.536888122558594,7.061544418334961,-0.243647962808609,-0.26136305928230286,-0.09403833746910095
-0.26675236225128174,5.471133708953857,6.881471633911133,-0.2802475094795227,-0.2747846245765686,-0.15713198482990265
-0.10240478813648224,5.5973944664001465,6.727016925811768,-0.30752700567245483,-0.2972295582294464,-0.23574161529541016
-0.12860693037509918,5.668722629547119,6.852166652679443,-0.3179291784763336,-0.31894147396087646,-0.23343779146671295
0.08276276290416718,5.751762866973877,7.009360313415527,-0.3027448058128357,-0.25329962372779846,-0.21848031878471375
0.070389524102211,5.965938568115234,7.362936019897461,-0.26565656065940857,-0.1275661140680313,-0.1981472223997116
0.1022707149386406,6.017911911010742,7.498917102813721,-0.257505863904953,-0.02909463830292225,-0.15186110138893127
0.1888546198606491,6.075698375701904,7.702674388885498,-0.2814343273639679,-0.08450884371995926,-0.12402309477329254
0.21797768771648407,6.142899036407471,8.020689964294434,-0.28708919882774353,-0.20156808197498322,-0.09747663885354996
0.3635355830192566,6.320347309112549,8.391130447387695,-0.27375489473342896,-0.3758741021156311,-0.08883725851774216
0.398835688829422,6.360349655151367,8.440058708190918,-0.27262043952941895,-0.4806811213493347,-0.08840092271566391
0.2759939730167389,6.543161392211914,8.251080513000488,-0.3272143304347992,-0.39559632539749146,-0.051626838743686676
0.0966874361038208,6.492681980133057,9.20008373260498,-0.2727425992488861,-0.48776715993881226,0.00890117883682251
0.6221093535423279,6.1637282371521,9.663151741027832,-0.12409290671348572,-0.5032133460044861,0.06101670861244202
0.9664338231086731,6.213719367980957,9.251749992370605,0.08566076308488846,-0.5519429445266724,0.06157521530985832
1.0527304410934448,6.317867279052734,8.847140312194824,0.22202333807945251,-0.22413517534732819,0.006806783843785524
0.9226678609848022,6.441944122314453,8.685138702392578,0.17521360516548157,-0.10869910567998886,0.0010122909443452954
0.19196708500385284,6.151412487030029,8.316527366638184,-0.034400440752506256,-0.013683381490409374,0.05660102888941765
-0.10136091709136963,5.882524490356445,8.23535442352295,-0.18064157664775848,-0.009442231617867947,0.09866346418857574
-0.6063267588615417,5.014578819274902,8.612010955810547,-0.48349109292030334,-0.05208062380552292,0.16664403676986694
-0.41957902908325195,3.8797175884246826,9.967549324035645,-0.5609662532806396,-0.341665655374527,0.04965461790561676
-0.5186415314674377,3.856570243835449,10.238066673278809,-0.29251718521118164,-0.5474050641059875,-0.1143365204334259
-1.2407902479171753,3.9851293563842773,9.494436264038086,-0.05324999615550041,-0.4835609197616577,-0.09119345247745514
-1.356133222579956,3.9507486820220947,9.061698913574219,0.05434955283999443,-0.15652112662792206,0.10161306709051132
-1.126299500465393,3.9145963191986084,9.035429954528809,0.08635888993740082,0.018221236765384674,0.2070658653974533
-0.2724505662918091,3.9378199577331543,8.9331693649292,0.14622367918491364,0.16641713678836823,0.31065115332603455
0.19569246470928192,3.9366228580474854,8.239031791687012,0.11129964888095856,0.14611896872520447,0.289707213640213
0.30628541111946106,3.9330220222473145,7.849036693572998,0.013805554248392582,0.06637486815452576,0.24879668653011322
0.3790787160396576,4.1446213722229,7.451684474945068,-0.2554638385772705,-0.08452629297971725,0.15674802660942078
0.20568107068538666,4.336512088775635,7.6288933753967285,-0.4124736487865448,-0.1445830762386322,0.12805481255054474
0.09746316075325012,4.510828971862793,7.975554943084717,-0.5242794752120972,-0.1713389754295349,0.13814280927181244
0.026489445939660072,4.60341739654541,8.421182632446289,-0.4772602915763855,-0.16170474886894226,0.18908897042274475
0.14510777592658997,4.6872148513793945,8.531431198120117,-0.3128502666950226,-0.07904595881700516,0.2620437443256378
0.557044506072998,4.69535493850708,7.699646949768066,-0.10480701923370361,0.01516691129654646,0.2695660889148712
0.7845415472984314,4.845117092132568,7.525262832641602,-0.17058847844600677,-0.028989918529987335,0.2385166883468628
0.7040293216705322,5.045856475830078,7.937036991119385,-0.19917696714401245,-0.015009831637144089,0.2693741023540497
0.7035505175590515,4.999820709228516,8.080412864685059,-0.14870205521583557,0.07447320222854614,0.26974064111709595
0.6014713048934937,5.091355800628662,8.254786491394043,-0.026738444343209267,0.20039869844913483,0.24352578818798065
0.3116675913333893,5.277030944824219,8.219381332397461,0.05248204991221428,0.26858872175216675,0.2226691097021103
-0.13758039474487305,5.6792473793029785,8.403206825256348,0.07799876481294632,0.243647962808609,0.26279422640800476
-0.06479667127132416,5.837369918823242,8.619050025939941,0.09306095540523529,0.2013586312532425,0.3263591229915619
0.4034421145915985,5.675713539123535,9.14726734161377,0.11274827271699905,0.17172294855117798,0.30839967727661133
0.5782284140586853,5.6771979331970215,9.44240665435791,0.1486496925354004,0.15863297879695892,0.270159512758255
0.5100224018096924,5.723587989807129,9.646286010742188,0.2373124212026596,0.15650367736816406,0.19392353296279907
0.25727131962776184,5.728845596313477,9.709925651550293,0.3145606815814972,0.1143365204334259,0.1399579495191574
0.3346806466579437,5.807978630065918,9.264784812927246,0.37981855869293213,0.14929546415805817,0.13240067660808563
1.0285106897354126,5.611587047576904,8.612364768981934,0.36475634574890137,0.33773866295814514,0.1707804650068283
1.2914514541625977,5.727169513702393,8.622697830200195,0.29832911491394043,0.2874208092689514,0.16713273525238037
1.2966517210006714,5.156343936920166,9.198522567749023,0.5163382291793823,0.47130870819091797,0.16957618296146393
1.368774652481079,5.344480514526367,7.940092086791992,0.2528109550476074,0.32672563195228577,0.04054399952292442
0.79075688123703,4.980331897735596,8.455544471740723,-0.43570399284362793,-0.1039692610502243,-0.03185226023197174
1.1632851362228394,4.200080871582031,11.642926216125488,-0.08140215277671814,-0.1941504180431366,-0.1059938445687294
1.143509030342102,4.134039402008057,11.181468963623047,0.25363123416900635,-0.024242622777819633,-0.1175304725766182
1.2543030977249146,3.997368574142456,9.31483268737793,0.6921800971031189,0.32702234387397766,-0.08274605870246887
1.1012561321258545,4.0262041091918945,7.7207159996032715,0.6969623565673828,0.5861688256263733,-0.056461401283741
0.5567188858985901,4.012135982513428,8.225682258605957,0.250507116317749,0.5474748611450195,-0.06633996218442917
0.20249199867248535,3.883519411087036,8.22984790802002,0.16282176971435547,0.5894675254821777,-0.07559020817279816
-0.07316680252552032,4.022421360015869,8.212016105651855,0.11501719802618027,0.6330832839012146,-0.0858527421951294
-0.1386146992444992,4.13656759262085,7.942112445831299,0.1333780586719513,0.6603278517723083,-0.10164797306060791
-1.0755040645599365,4.355876445770264,6.880073547363281,0.4076216518878937,-0.07963937520980835,-0.17727309465408325
-0.07490020245313644,5.115604400634766,6.2952752113342285,0.28675758838653564,0.13983577489852905,-0.2309943288564682
-0.36990416049957275,4.912442207336426,5.556252479553223,-0.30602604150772095,0.19743163883686066,-0.2500882148742676
-1.8128032684326172,5.77953577041626,7.1757097244262695,-0.6542017459869385,-0.3240901827812195,-0.27862435579299927
-0.8956899642944336,5.466460227966309,8.654848098754883,-0.49898964166641235,-0.4983089566230774,-0.16948892176151276
-0.43967118859291077,5.436417579650879,8.445430755615234,-0.2759365439414978,-0.40776127576828003,-0.17554521560668945
0.22164560854434967,5.342679977416992,7.58527135848999,-0.24891886115074158,-0.47453758120536804,-0.1972571164369583
1.0522037744522095,5.206517219543457,7.247995376586914,-0.623798131942749,-1.043305516242981,-0.25647613406181335
1.5675987005233765,5.125267505645752,7.867518901824951,-0.8597491979598999,-1.2340699434280396,-0.2701769769191742
1.5518927574157715,5.087707042694092,8.79588508605957,-0.7947182059288025,-1.0670768022537231,-0.22970278561115265
1.1460468769073486,5.303960800170898,9.488412857055664,-0.5206840634346008,-0.7654665112495422,-0.11915362626314163
1.073512077331543,5.562237739562988,9.93441390991211,-0.226962611079216,-0.44682174921035767,-0.01687733456492424
1.1336544752120972,5.546847820281982,9.435260772705078,0.05337216705083847,-0.043703045696020126,0.04611159861087799
1.426829218864441,5.426056861877441,8.791058540344238,0.1563640534877777,0.11070623248815536,0.07532840967178345
1.4108742475509644,5.243569850921631,8.80183219909668,0.1186823919415474,-0.00938987173140049,0.05522221699357033
1.7244188785552979,4.917182445526123,9.612796783447266,0.16863371431827545,-0.019233528524637222,0.022794000804424286
1.571094274520874,5.076779842376709,9.426775932312012,0.41083306074142456,0.19654153287410736,0.008621926419436932
0.023137563839554787,5.85225248336792,7.5854339599609375,0.5621007084846497,0.6290690302848816,-0.034033920615911484
0.05898354947566986,6.324733734130859,7.581900119781494,0.020053833723068237,0.09494590759277344,0.023806290701031685
-0.09644801914691925,5.729745864868164,8.506656646728516,-0.2929011583328247,-0.27900832891464233,0.013212142512202263
-0.05785348638892174,5.26751184463501,9.076935768127441,-0.527141809463501,-0.5889613628387451,0.02839650772511959
0.27027663588523865,4.252350807189941,10.911478042602539,-0.6185621619224548,-0.718482255935669,0.02419026382267475
0.1429051011800766,4.146517753601074,11.644668579101562,-0.38580504059791565,-0.6476044058799744,-0.01532399095594883
-0.07140466570854187,4.181856155395508,11.59618091583252,0.23396138846874237,-0.16912239789962769,0.03619812801480293
-0.09030928462743759,4.144468307495117,9.695223808288574,0.7171383500099182,0.315189003944397,0.06794566661119461
-0.3284653127193451,4.132487773895264,7.713102340698242,0.8069355487823486,0.6898239254951477,0.17837265133857727
-0.30465736985206604,3.713330030441284,7.014570236206055,0.9155299067497253,0.9989392161369324,0.16409584879875183
-0.8995015621185303,5.0947747230529785,5.613617420196533,0.0017802357906475663,-0.005201081279665232,0.23490385711193085
-0.03582683205604553,4.626813888549805,7.486754417419434,-0.4923050105571747,-0.36128315329551697,0.22174407541751862
0.22024738788604736,4.167960166931152,8.66866683959961,-0.424498975276947,-0.3306526243686676,0.1627170443534851
-0.22699904441833496,4.248022556304932,8.463789939880371,-0.4575904309749603,-0.29567623138427734,0.10170033574104309
-0.011836932972073555,4.319159030914307,9.096933364868164,-0.4486892521381378,-0.20313887298107147,0.09784315526485443
-0.04772122576832771,4.412389278411865,9.346906661987305,-0.17381733655929565,0.0578925721347332,0.09400343149900436
0.29622021317481995,4.584522724151611,8.78442096710205,0.0812101662158966,0.3718074858188629,0.14049901068210602
0.45098137855529785,4.735099792480469,7.739802360534668,0.22628194093704224,0.573043942451477,0.1644623726606369
0.5467877388000488,5.089230060577393,7.175374507904053,0.3737797141075134,1.0185391902923584,0.17488199472427368
-0.2532011866569519,5.929718971252441,5.474906921386719,-0.020210912451148033,0.30693361163139343,0.16788321733474731
0.4648965001106262,5.439338684082031,7.081272602081299,-0.41409680247306824,0.035412728786468506,0.1751612424850464
0.24378718435764313,5.353339195251465,7.690960884094238,-0.3684564530849457,0.2071182280778885,0.2028072625398636
0.1780998706817627,5.1016316413879395,7.740406036376953,-0.1984613835811615,0.5028468370437622,0.2554638385772705
-0.10299855470657349,5.26998233795166,8.262188911437988,-0.07248352468013763,0.41032689809799194,0.27284732460975647
-0.12859736382961273,5.429790496826172,8.653487205505371,-0.026563910767436028,0.39159953594207764,0.292656809091568
-0.20140981674194336,5.385603427886963,8.585041999816895,0.02209586836397648,0.6244438886642456,0.2886250913143158
-0.7878934144973755,6.001842021942139,8.936051368713379,0.11744320392608643,0.6765594482421875,0.30782371759414673
-0.8658965229988098,6.945281982421875,9.556139945983887,0.2197369486093521,0.4760211110115051,0.3689276874065399
-0.8547012209892273,6.896382808685303,9.968842506408691,0.38467055559158325,0.5718047618865967,0.3044377863407135
-0.571237325668335,6.603083610534668,9.893118858337402,0.5986304879188538,0.6038489937782288,0.2794272005558014
-0.18525373935699463,6.484436511993408,9.321901321411133,0.6910282373428345,0.5200732350349426,0.2604380249977112
-0.044110771268606186,6.112138271331787,8.588269233703613,0.6525960564613342,0.5611582398414612,0.24631831049919128
-0.8491371273994446,6.379541873931885,8.117243766784668,0.7684510350227356,-0.04642575979232788,0.21462313830852509
-0.08939948678016663,6.131282329559326,7.698296546936035,0.3519980013370514,0.1420174390077591,0.12423253804445267
-0.3661787807941437,6.257916450500488,8.841146469116211,-0.19832175970077515,-0.09758135676383972,-0.04380776360630989
0.0027293898165225983,3.9989774227142334,9.243179321289062,0.589397668838501,0.20929987728595734,-0.030595621094107628
0.3083731532096863,4.21922492980957,7.840263366699219,0.5849994421005249,0.1691049486398697,-0.011397000402212143
0.5594483017921448,4.219196319580078,7.087746620178223,0.5048713684082031,0.17208945751190186,-0.008185594342648983
0.6488190293312073,4.231138229370117,7.343332290649414,0.42037999629974365,0.2212030291557312,-0.03728023171424866
0.1900421530008316,4.453952312469482,7.818495273590088,0.4173780381679535,0.35360369086265564,-0.027384215965867043
-0.17362749576568604,4.442939281463623,7.645509243011475,0.36592572927474976,0.45544368028640747,0.019146261736750603
-0.41153451800346375,4.431944847106934,5.482788562774658,-0.018971728160977364,0.047106437385082245,-0.0576133169233799
-1.289440393447876,5.6079864501953125,8.483038902282715,-0.8649153709411621,-0.6704158782958984,-0.2943497896194458
-0.13251426815986633,5.508244037628174,9.841998100280762,-0.5058662295341492,-1.0540915727615356,-0.3255213499069214
-0.12811851501464844,5.534915447235107,9.420226097106934,-0.33056536316871643,-0.9220050573348999,-0.40969857573509216
-0.1627865582704544,5.623826503753662,8.338573455810547,-0.3131644129753113,-0.8238652348518372,-0.4634372889995575
-0.06246950849890709,5.874489784240723,6.994803428649902,-0.4365766644477844,-0.8872381448745728,-0.48090800642967224
0.7399136424064636,5.69626522064209,7.569459915161133,-0.7136127948760986,-1.0390119552612305,-0.42821651697158813
1.3857734203338623,5.236281871795654,8.252602577209473,-0.7276102900505066,-0.9711710214614868,-0.46190139651298523
1.4234390258789062,5.213048458099365,8.440940856933594,-0.5339660048484802,-0.7645763754844666,-0.43392375111579895
1.2020232677459717,5.394279956817627,8.556081771850586,-0.37110936641693115,-0.6076538562774658,-0.39498546719551086
1.4258811473846436,5.5771870613098145,8.557173728942871,-0.20717057585716248,-0.5459215641021729,-0.3655766546726227
1.3381767272949219,5.615005970001221,8.201519966125488,-0.15905185043811798,-0.5580166578292847,-0.3626445233821869
1.1665699481964111,5.369016170501709,9.094490051269531,-0.1799958050251007,-0.5428497791290283,-0.3377910256385803
1.3228250741958618,5.091949462890625,9.97362232208252,0.05000368133187294,-0.4004308879375458,-0.2941403388977051
1.6651959419250488,4.936661720275879,9.810356140136719,0.3571292757987976,-0.22876030206680298,-0.30682888627052307
1.6300394535064697,5.319111347198486,9.017291069030762,0.5842314958572388,-0.010227628983557224,-0.3047344982624054
1.4949681758880615,6.136913299560547,8.99740982055664,0.19888027012348175,0.1935919225215912,-0.19437731802463531
1.4207288026809692,5.1072916984558105,9.355735778808594,0.2191609889268875,0.20888100564479828,-0.2041860669851303
1.3207660913467407,4.227173805236816,9.936415672302246,0.14386749267578125,-0.038432151079177856,-0.42638394236564636
0.3856005370616913,4.398723125457764,9.810834884643555,0.14877186715602875,-0.2402096688747406,-0.6414608359336853
-0.35729148983955383,4.699348449707031,9.625553131103516,0.3217339813709259,-0.5090602040290833,-0.7450810670852661
-0.2673652768135071,4.51603889465332,9.304412841796875,0.5711764693260193,-0.5536184310913086,-0.7827452421188354
-0.8287672400474548,4.49246072769165,8.537138938903809,0.7043625116348267,-0.34983378648757935,-0.694623589515686
-1.053123116493225,4.723309516906738,8.141674041748047,0.715445339679718,-0.1990548074245453,-0.5168967247009277
-0.5709308981895447,5.095742225646973,7.471192359924316,0.6555805802345276,0.02157226949930191,-0.3629237711429596
-0.7839765548706055,5.321620464324951,6.557679653167725,0.3896273076534271,0.007592182140797377,-0.3730466663837433
-0.6371545195579529,5.428450107574463,6.388045787811279,-0.12168435752391815,-0.41865211725234985,-0.47944194078445435
-0.3721259534358978,5.426668643951416,6.7672014236450195,-0.35526177287101746,-0.543879508972168,-0.5271941423416138
0.039446864277124405,5.109465599060059,7.834603309631348,-0.6065368056297302,-0.6964736580848694,-0.677432119846344
0.23841460049152374,4.804722309112549,8.95882511138916,-0.5465149283409119,-0.7491301894187927,-0.8077034950256348
0.5217539668083191,4.517609596252441,9.541000366210938,-0.29686304926872253,-0.687345564365387,-0.9015148878097534
0.3866060972213745,5.336589336395264,7.925563812255859,0.4128052592277527,-0.556986927986145,-1.37682044506073
-0.823997974395752,5.89923620223999,8.166824340820312,0.3418576419353485,-1.0369175672531128,-1.3068675994873047
0.16270993649959564,5.310319900512695,8.420703887939453,0.2591639459133148,-1.1898956298828125,-1.4424622058868408
0.47336238622665405,5.2495551109313965,8.331871032714844,0.08243189752101898,-1.4518870115280151,-1.7181370258331299
0.01832043007016182,5.658944606781006,8.41661548614502,-0.02932153083384037,-1.5193439722061157,-1.794809341430664
0.2471582144498825,5.237545967102051,8.325263023376465,-0.15700982511043549,-1.3485112190246582,-1.801232099533081
0.15017390251159668,4.832858562469482,8.75169849395752,-0.23783601820468903,-1.2563753128051758,-1.8485480546951294
0.8338621258735657,4.516172885894775,9.041147232055664,0.14927801489830017,-1.318421721458435,-1.6525999307632446
1.2516216039657593,4.326695919036865,9.098857879638672,0.1488940417766571,-1.2492892742156982,-1.6561603546142578
1.3966814279556274,4.14915132522583,9.034682273864746,0.1189441904425621,-1.1879932880401611,-1.6891820430755615
1.261284589767456,3.8427224159240723,8.93032455444336,-0.009721484035253525,-1.2956626415252686,-1.7309826612472534
0.886764407157898,3.665781259536743,9.631271362304688,-0.16603317856788635,-1.5748803615570068,-1.7588729858398438
1.094944953918457,3.3469789028167725,10.28368091583252,-0.09002408385276794,-1.5122231245040894,-1.7497798204421997
1.3056730031967163,3.302724599838257,9.449043273925781,0.08599237352609634,-1.331441879272461,-1.7622065544128418
1.3995352983474731,3.469207763671875,8.240267753601074,0.07070329040288925,-1.3562779426574707,-1.7816320657730103
1.2557874917984009,3.737616777420044,7.94297456741333,-0.07932521402835846,-1.4735116958618164,-1.8004990816116333
1.4774810075759888,3.8271024227142334,8.562296867370605,-0.17472490668296814,-1.5014369487762451,-1.8059619665145874
1.5815234184265137,4.064540386199951,9.102975845336914,-0.15069173276424408,-1.5044214725494385,-1.8237818479537964
1.2808595895767212,4.396510601043701,8.560449600219727,-0.05305800959467888,-1.3523160219192505,-1.829349398612976
1.8908542394638062,4.427376747131348,9.514824867248535,-0.28869491815567017,-1.6827242374420166,-1.8662805557250977
1.5847795009613037,3.9887781143188477,10.455670356750488,-0.4090179204940796,-1.605493426322937,-1.9002621173858643
