accX,accY,accZ,gyroX,gyroY,gyroZ
-0.1571197509765625,-0.39715576171875,-0.8631744384765625,-0.17451214790344238,0.03490978106856346,-0.21755602955818176
-0.1199798583984375,-0.424652099609375,-0.900115966796875,-0.437690794467926,0.11039415001869202,-0.48122867941856384
-0.09185791015625,-0.4123077392578125,-0.8880767822265625,-0.527055561542511,0.16476285457611084,-0.4537656307220459
-0.0722808837890625,-0.400634765625,-0.8972625732421875,-0.620832622051239,0.26501941680908203,-0.4287332594394684
-0.0657501220703125,-0.393768310546875,-0.9086456298828125,-0.72310471534729,0.33293959498405457,-0.40140920877456665
-0.0714569091796875,-0.3965606689453125,-0.9218902587890625,-0.8216488361358643,0.4077310264110565,-0.38503822684288025
-0.0912322998046875,-0.412689208984375,-0.9443359375,-0.8625432848930359,0.4651426374912262,-0.409448504447937
-0.1251068115234375,-0.435791015625,-0.9881439208984375,-0.8139845132827759,0.4660246968269348,-0.47295770049095154
-0.145599365234375,-0.4453582763671875,-1.046051025390625,-0.6685418486595154,0.4780973196029663,-0.5705670714378357
-0.1366424560546875,-0.4470672607421875,-1.1021270751953125,-0.4563520848751068,0.5162708163261414,-0.6774333119392395
-0.116119384765625,-0.434722900390625,-1.1395416259765625,-0.2433444857597351,0.5301488041877747,-0.7864506244659424
-0.09136962890625,-0.4119720458984375,-1.1508331298828125,-0.08142268657684326,0.5187222361564636,-0.860446035861969
-0.0535888671875,-0.398895263671875,-1.124237060546875,0.022642727941274643,0.49132871627807617,-0.8398281335830688
0.028900146484375,-0.38848876953125,-1.0854034423828125,0.06489165127277374,0.4691259562969208,-0.7492819428443909
0.075836181640625,-0.3692779541015625,-1.05694580078125,0.06244846433401108,0.45631134510040283,-0.6227117776870728
0.104461669921875,-0.3509063720703125,-1.0457763671875,0.03464186564087868,0.4493282735347748,-0.48514166474342346
0.122039794921875,-0.34210205078125,-1.0437774658203125,0.018509501591324806,0.4262019097805023,-0.3941827118396759
0.1031494140625,-0.344940185546875,-1.054168701171875,0.03417980670928955,0.3926663100719452,-0.3578431010246277
0.0665435791015625,-0.3570098876953125,-1.0721435546875,0.07707640528678894,0.3321995139122009,-0.36209535598754883
0.055450439453125,-0.3715057373046875,-1.0873260498046875,0.12542396783828735,0.24186936020851135,-0.37472885847091675
0.0605926513671875,-0.3764495849609375,-1.0919952392578125,0.18685883283615112,0.16693438589572906,-0.3878539800643921
0.0782623291015625,-0.370208740234375,-1.0999908447265625,0.2723473608493805,0.1314759999513626,-0.3829692304134369
0.10748291015625,-0.349578857421875,-1.0980224609375,0.3546358346939087,0.08031880855560303,-0.3735285699367523
0.12408447265625,-0.3223876953125,-1.07208251953125,0.4186726212501526,0.011318168602883816,-0.36575669050216675
0.126007080078125,-0.3018035888671875,-1.03179931640625,0.4405139982700348,-0.07232879102230072,-0.3596961200237274
0.1230316162109375,-0.2900390625,-0.9814910888671875,0.40219536423683167,-0.17276804149150848,-0.35053351521492004
0.1277618408203125,-0.2821044921875,-0.94482421875,0.31746557354927063,-0.24234046041965485,-0.33286502957344055
0.1213836669921875,-0.277099609375,-0.943939208984375,0.19354070723056793,-0.2605580985546112,-0.3379439413547516
0.0806121826171875,-0.275390625,-0.9661865234375,0.060316603630781174,-0.24028930068016052,-0.3623693883419037
0.03155517578125,-0.2742462158203125,-1.0028076171875,-0.05717034637928009,-0.2108571082353592,-0.39736253023147583
0.0038909912109375,-0.2743988037109375,-1.0503692626953125,-0.1432919204235077,-0.16492050886154175,-0.41811203956604004
-0.0028228759765625,-0.2636871337890625,-1.0968017578125,-0.1841418743133545,-0.13431786000728607,-0.42167720198631287
0.0073394775390625,-0.2430419921875,-1.142974853515625,-0.1671953797340393,-0.13907906413078308,-0.41172870993614197
0.0186767578125,-0.2210540771484375,-1.1737060546875,-0.11713168025016785,-0.16765211522579193,-0.3963681161403656
0.027252197265625,-0.202880859375,-1.181304931640625,-0.046236470341682434,-0.22525016963481903,-0.37201085686683655
0.0281829833984375,-0.1900177001953125,-1.1762542724609375,0.042564503848552704,-0.2770547568798065,-0.3473678231239319
0.0240020751953125,-0.182220458984375,-1.159637451171875,0.1322919875383377,-0.2951144576072693,-0.3328847587108612
0.0098724365234375,-0.17498779296875,-1.1280364990234375,0.2131679356098175,-0.2824798822402954,-0.32583004236221313
-0.0097808837890625,-0.1712188720703125,-1.0791168212890625,0.27608299255371094,-0.25691115856170654,-0.32619330286979675
-0.019805908203125,-0.1694488525390625,-1.0223846435546875,0.32880744338035583,-0.23256666958332062,-0.3207854628562927
-0.0156402587890625,-0.1737060546875,-0.9654388427734375,0.37871986627578735,-0.22548238933086395,-0.32980507612228394
-0.028076171875,-0.1830902099609375,-0.914093017578125,0.4162643253803253,-0.21373651921749115,-0.34868475794792175
-0.0460205078125,-0.1924285888671875,-0.8736572265625,0.42295071482658386,-0.22546854615211487,-0.3592316806316376
-0.0502777099609375,-0.19873046875,-0.843353271484375,0.3955712914466858,-0.23618084192276,-0.3540257215499878
-0.044677734375,-0.203216552734375,-0.8273773193359375,0.35062912106513977,-0.25207218527793884,-0.3307984173297882
-0.0383148193359375,-0.2052154541015625,-0.8214111328125,0.2878059446811676,-0.27683958411216736,-0.30491089820861816
-0.0367279052734375,-0.2047119140625,-0.8284912109375,0.23068568110466003,-0.28083086013793945,-0.28079676628112793
-0.036285400390625,-0.2003021240234375,-0.8408203125,0.1913723647594452,-0.28860196471214294,-0.26614806056022644
-0.040374755859375,-0.1972503662109375,-0.863555908203125,0.1755843460559845,-0.2862469255924225,-0.2683342397212982
-0.04559326171875,-0.1981201171875,-0.894805908203125,0.18661382794380188,-0.25728344917297363,-0.28599074482917786
-0.0583648681640625,-0.198883056640625,-0.9061431884765625,0.19795143604278564,-0.24469096958637238,-0.3054477870464325
-0.0601959228515625,-0.1954803466796875,-0.8922576904296875,0.19996237754821777,-0.2769296169281006,-0.3120702803134918
-0.0423583984375,-0.18865966796875,-0.8670501708984375,0.19963055849075317,-0.28240373730659485,-0.30668988823890686
-0.0291595458984375,-0.1907501220703125,-0.8568267822265625,0.19575326144695282,-0.2510721683502197,-0.2960777282714844
-0.0388031005859375,-0.1986236572265625,-0.854278564453125,0.19553939998149872,-0.20473423600196838,-0.2907218337059021
-0.0511932373046875,-0.210540771484375,-0.8563995361328125,0.19150444865226746,-0.14887896180152893,-0.2866743803024292
-0.0576629638671875,-0.2234344482421875,-0.8481292724609375,0.19253189861774445,-0.1005825325846672,-0.28256699442863464
-0.05474853515625,-0.2378082275390625,-0.83673095703125,0.19828379154205322,-0.07535174489021301,-0.276309072971344
-0.045196533203125,-0.2514190673828125,-0.827117919921875,0.1998254954814911,-0.06551695615053177,-0.27202725410461426
-0.0521392822265625,-0.261993408203125,-0.8150634765625,0.18597279489040375,-0.0951017513871193,-0.2766534388065338
-0.058685302734375,-0.2732086181640625,-0.8067474365234375,0.16659671068191528,-0.10532668977975845,-0.2704344093799591
-0.05657958984375,-0.2874603271484375,-0.8089447021484375,0.148427814245224,-0.11054621636867523,-0.27269598841667175
-0.0544891357421875,-0.2984771728515625,-0.806121826171875,0.12078899890184402,-0.13415966928005219,-0.2740249037742615
-0.058013916015625,-0.3062744140625,-0.7950439453125,0.08346693217754364,-0.15043850243091583,-0.273579865694046
-0.0610504150390625,-0.3112945556640625,-0.7821502685546875,0.10321187227964401,-0.5150377750396729,-0.297112375497818
-0.0663909912109375,-0.3241729736328125,-0.73126220703125,0.07706096023321152,-0.46967774629592896,-0.3333108425140381
-0.0756378173828125,-0.3433990478515625,-0.7458648681640625,-0.02020833268761635,-0.1378289759159088,-0.29003021121025085
-0.093841552734375,-0.3133544921875,-0.84912109375,-0.18146567046642303,0.11590396612882614,-0.2366088181734085
-0.0985565185546875,-0.3055419921875,-0.9139556884765625,-0.3030053973197937,0.2622470557689667,-0.23114027082920074
-0.0894775390625,-0.321502685546875,-0.9284210205078125,-0.3495366871356964,0.2825435400009155,-0.25484082102775574
-0.0719146728515625,-0.330718994140625,-0.9114837646484375,-0.33327996730804443,0.2693372070789337,-0.2668820321559906
-0.0503082275390625,-0.3333740234375,-0.909881591796875,-0.3121397793292999,0.22403337061405182,-0.2577226161956787
-0.0279541015625,-0.3318023681640625,-0.9278564453125,-0.2922787368297577,0.1888687163591385,-0.23597657680511475
-0.022552490234375,-0.3305511474609375,-0.9539794921875,-0.25996872782707214,0.21593895554542542,-0.21910864114761353
-0.027862548828125,-0.3320159912109375,-0.9884185791015625,-0.20894043147563934,0.2823067903518677,-0.2075904756784439
-0.0364227294921875,-0.338226318359375,-1.0226593017578125,-0.1539117991924286,0.35121262073516846,-0.20482690632343292
-0.0443115234375,-0.3466644287109375,-1.03497314453125,-0.10791661590337753,0.3964235186576843,-0.20680192112922668
-0.0382843017578125,-0.353851318359375,-1.0291290283203125,-0.06886961311101913,0.4019535779953003,-0.21327738463878632
-0.0255889892578125,-0.3606719970703125,-1.012939453125,-0.046789877116680145,0.3661161959171295,-0.22257980704307556
-0.006011962890625,-0.366058349609375,-0.98663330078125,-0.04255518317222595,0.30749496817588806,-0.2582451403141022
0.024627685546875,-0.36956787109375,-0.959716796875,-0.05236067622900009,0.2696138918399811,-0.16851204633712769
0.04327392578125,-0.3738861083984375,-0.945556640625,-0.07146406173706055,0.2594800293445587,-0.133816659450531
0.0368804931640625,-0.381103515625,-0.9361419677734375,-0.0904579907655716,0.26676619052886963,-0.10121743381023407
0.024749755859375,-0.3885650634765625,-0.9327850341796875,-0.081777423620224,0.291323721408844,-0.06973593682050705
0.0181427001953125,-0.399932861328125,-0.94232177734375,-0.03173422813415527,0.3094278872013092,-0.039085350930690765
0.014129638671875,-0.40802001953125,-0.9502716064453125,0.023859793320298195,0.3183622658252716,-0.025729332119226456
0.01629638671875,-0.4118194580078125,-0.9423980712890625,0.07108429819345474,0.3091871440410614,-0.013466008007526398
0.0251312255859375,-0.4113922119140625,-0.9300994873046875,0.09416138380765915,0.31238746643066406,-0.0031755531672388315
0.036407470703125,-0.4115447998046875,-0.92181396484375,0.09361517429351807,0.3152146637439728,0.016876984387636185
0.0486602783203125,-0.4130096435546875,-0.915069580078125,0.08510557562112808,0.3278748095035553,0.04910815879702568
0.057464599609375,-0.4125213623046875,-0.9083404541015625,0.0705692395567894,0.3259133994579315,0.08372233062982559
0.0650634765625,-0.4120941162109375,-0.9096221923828125,0.049666620790958405,0.30492207407951355,0.11647601425647736
0.0626220703125,-0.4156341552734375,-0.9197998046875,0.054001450538635254,0.28923287987709045,0.14372441172599792
0.0529632568359375,-0.4192657470703125,-0.9305877685546875,0.06648155301809311,0.2580331563949585,0.16019207239151
0.046661376953125,-0.4219818115234375,-0.93701171875,0.10235700011253357,0.24653415381908417,0.18694432079792023
0.0477142333984375,-0.42169189453125,-0.9496002197265625,0.14824379980564117,0.2670711278915405,0.215915247797966
0.044769287109375,-0.417694091796875,-0.9539642333984375,0.19727152585983276,0.2749426066875458,0.24616342782974243
0.0370025634765625,-0.4106903076171875,-0.9449310302734375,0.24129384756088257,0.25401630997657776,0.27900072932243347
0.033203125,-0.40777587890625,-0.93035888671875,0.27301421761512756,0.23569108545780182,0.3031438887119293
0.027252197265625,-0.4111175537109375,-0.9196624755859375,0.2884341776371002,0.2263559103012085,0.3193569481372833
0.0156097412109375,-0.4122161865234375,-0.910980224609375,0.27493196725845337,0.2101905196905136,0.32123076915740967
0.001800537109375,-0.41009521484375,-0.90155029296875,0.26961657404899597,0.22302162647247314,0.3094491958618164
-0.0070037841796875,-0.415771484375,-0.882781982421875,0.21150238811969757,0.12533661723136902,0.26026779413223267
-0.0015411376953125,-0.4273529052734375,-0.873779296875,0.12380795925855637,0.04080229252576828,0.2148049771785736
0.01739501953125,-0.4269256591796875,-0.905517578125,0.05444326624274254,0.08029323816299438,0.23007474839687347
0.0250701904296875,-0.4242401123046875,-0.937835693359375,0.007597998715937138,0.09951460361480713,0.24282729625701904
0.0084686279296875,-0.4200592041015625,-0.9437255859375,0.004882107023149729,0.055027831345796585,0.21704523265361786
-0.0076751708984375,-0.4214630126953125,-0.950103759765625,0.05620867758989334,-0.01931404322385788,0.189352348446846
-0.0040435791015625,-0.414886474609375,-0.9716644287109375,0.0890132263302803,-0.12126623839139938,0.17329135537147522
0.0087738037109375,-0.4018402099609375,-0.99041748046875,0.06880942732095718,-0.226227805018425,0.16239823400974274
0.020233154296875,-0.395965576171875,-1.0082855224609375,-0.013014601543545723,-0.26567667722702026,0.16260302066802979
0.0323028564453125,-0.400604248046875,-1.035186767578125,-0.11606322228908539,-0.19613541662693024,0.18261481821537018
0.0344696044921875,-0.3998565673828125,-1.068511962890625,-0.21797281503677368,-0.07287447154521942,0.20593158900737762
0.0197906494140625,-0.383544921875,-1.0883026123046875,-0.2921146750450134,-0.010882475413382053,0.20924776792526245
0.004791259765625,-0.3637847900390625,-1.1083221435546875,-0.3020046055316925,0.006524478085339069,0.26146355271339417
0.007568359375,-0.3489532470703125,-1.14105224609375,-0.27056917548179626,-0.001603489276021719,0.2017727941274643
0.0269317626953125,-0.334442138671875,-1.17047119140625,-0.20812870562076569,-0.060022056102752686,0.19168421626091003
0.0478363037109375,-0.3194732666015625,-1.1849212646484375,-0.12393978983163834,-0.13124990463256836,0.19827847182750702
0.061187744140625,-0.3030242919921875,-1.1861572265625,-0.03911437839269638,-0.182611882686615,0.2049182653427124
0.06585693359375,-0.2918548583984375,-1.176513671875,0.042815640568733215,-0.19511036574840546,0.2105596363544464
0.0615386962890625,-0.28680419921875,-1.1517181396484375,0.1097259670495987,-0.17992369830608368,0.21277885138988495
0.05523681640625,-0.281829833984375,-1.10528564453125,0.16174708306789398,-0.1766195148229599,0.21649634838104248
0.0505828857421875,-0.2760009765625,-1.0595245361328125,0.21825669705867767,-0.14877375960350037,0.21806016564369202
0.0462188720703125,-0.270660400390625,-1.0182647705078125,0.2568882405757904,-0.09521226584911346,0.20347057282924652
0.0425567626953125,-0.2673797607421875,-0.9680023193359375,0.28519925475120544,-0.05223071202635765,0.18423907458782196
0.0484466552734375,-0.2663116455078125,-0.9221038818359375,0.3068656623363495,-0.03602617606520653,0.17332758009433746
0.057708740234375,-0.2657623291015625,-0.88641357421875,0.31711509823799133,-0.033059414476156235,0.16241101920604706
0.0620880126953125,-0.268585205078125,-0.85809326171875,0.315195232629776,-0.038900259882211685,0.14400510489940643
0.0614013671875,-0.2725067138671875,-0.8367462158203125,0.3088172376155853,-0.06581656634807587,0.12148435413837433
0.0631103515625,-0.2763519287109375,-0.830810546875,0.29054954648017883,-0.058099787682294846,0.1034931018948555
0.0679779052734375,-0.2834014892578125,-0.83465576171875,0.2541976571083069,-0.020799554884433746,0.09437630325555801
0.0747833251953125,-0.2891082763671875,-0.842132568359375,0.21172982454299927,0.04586469382047653,0.08518200367689133
0.0753326416015625,-0.291656494140625,-0.8524932861328125,0.168562650680542,0.10782553255558014,0.08324375748634338
0.08050537109375,-0.2945404052734375,-0.8538055419921875,0.12477229535579681,0.15654300153255463,0.08593887835741043
0.089324951171875,-0.2996368408203125,-0.8516693115234375,0.08382059633731842,0.1864582896232605,0.080592580139637
0.091522216796875,-0.3033599853515625,-0.85791015625,0.05476231500506401,0.20704852044582367,0.08340594172477722
0.094635009765625,-0.3021392822265625,-0.8768768310546875,0.028800755739212036,0.25601181387901306,0.08016540855169296
0.0934906005859375,-0.297088623046875,-0.8966217041015625,0.0051569449715316296,0.31088143587112427,0.07001770287752151
0.0940093994140625,-0.2908782958984375,-0.905853271484375,-0.02755306474864483,0.33354175090789795,0.05579375848174095
0.1006622314453125,-0.28753662109375,-0.906768798828125,-0.05813014879822731,0.33755195140838623,0.02736877277493477
0.10931396484375,-0.2891387939453125,-0.9083099365234375,-0.07369312644004822,0.30796369910240173,0.01866130158305168
0.1190185546875,-0.2920074462890625,-0.9138031005859375,-0.06415075808763504,0.23699097335338593,0.02100754715502262
0.1264801025390625,-0.2904205322265625,-0.9158935546875,-0.02611469104886055,0.1737411618232727,0.04196156561374664
0.1281585693359375,-0.289581298828125,-0.905242919921875,0.033429596573114395,0.1420958936214447,0.04632648453116417
0.1170196533203125,-0.3011322021484375,-0.8643646240234375,0.00755006168037653,-0.03496783599257469,0.018256502225995064
0.1102447509765625,-0.3152923583984375,-0.8240203857421875,-0.07084541022777557,-0.13862499594688416,-0.007860319688916206
0.11767578125,-0.324920654296875,-0.811859130859375,-0.20780672132968903,-0.1841871440410614,-0.015231683850288391
0.1175384521484375,-0.3293609619140625,-0.8142547607421875,-0.358236700296402,-0.17232143878936768,-0.017304155975580215
0.1032562255859375,-0.3296356201171875,-0.852203369140625,-0.4402564764022827,-0.05806649848818779,-0.010116550140082836
0.0829315185546875,-0.337738037109375,-0.8913116455078125,-0.4391970634460449,0.042267028242349625,-0.02750273048877716
0.0655670166015625,-0.3446197509765625,-0.9078216552734375,-0.37601038813591003,0.08046501129865646,-0.068776935338974
0.0578460693359375,-0.3370208740234375,-0.91461181640625,-0.27948570251464844,-0.005032575689256191,-0.10740901529788971
0.066925048828125,-0.3253631591796875,-0.9217681884765625,-0.18947219848632812,-0.08380355685949326,-0.10153114795684814
0.082916259765625,-0.336029052734375,-0.9324951171875,-0.1446211040019989,-0.08696925640106201,-0.06315819919109344
0.0880126953125,-0.3570709228515625,-0.936767578125,-0.11714686453342438,-0.03825977072119713,-0.019409650936722755
0.0731048583984375,-0.36505126953125,-0.9225006103515625,-0.11430899798870087,-0.007153783459216356,-0.003967311233282089
0.0611419677734375,-0.362060546875,-0.9019622802734375,-0.11946248263120651,-0.002095375210046768,-0.009301622398197651
0.064178466796875,-0.36505126953125,-0.8867645263671875,-0.14891357719898224,0.01865224726498127,-0.07853555679321289
0.0732879638671875,-0.375152587890625,-0.8768157958984375,-0.18907085061073303,0.023305056616663933,0.013567473739385605
0.083740234375,-0.3795623779296875,-0.8764495849609375,-0.22558891773223877,0.014937404543161392,0.020621122792363167
0.0913543701171875,-0.3755035400390625,-0.8899383544921875,-0.23964321613311768,0.0006340986583381891,0.03387594223022461
0.095489501953125,-0.3694915771484375,-0.9119720458984375,-0.23917795717716217,-0.02835148014128208,0.04452352598309517
0.0952911376953125,-0.3658294677734375,-0.92913818359375,-0.21850436925888062,-0.05308745428919792,0.04839283227920532
0.0889892578125,-0.368804931640625,-0.9368133544921875,-0.19008710980415344,-0.06834683567285538,0.04283348470926285
0.0791473388671875,-0.373260498046875,-0.9330596923828125,-0.16695889830589294,-0.0881732702255249,0.028017252683639526
0.070404052734375,-0.37786865234375,-0.924652099609375,-0.15425561368465424,-0.09244338423013687,0.004424575716257095
0.0626983642578125,-0.3812713623046875,-0.9188385009765625,-0.1540582776069641,-0.07329951226711273,-0.010471283458173275
0.063995361328125,-0.384796142578125,-0.9170684814453125,-0.1576271802186966,-0.048099618405103683,-0.01587696745991707
0.0616455078125,-0.3876953125,-0.9235992431640625,-0.1434919238090515,-0.01818060129880905,-0.021617677062749863
0.0569610595703125,-0.3917388916015625,-0.935333251953125,-0.10767985880374908,-0.012518987990915775,-0.022848324850201607
0.0554656982421875,-0.3931884765625,-0.934478759765625,-0.06214486435055733,-0.03404079005122185,-0.01931164599955082
0.05657958984375,-0.3964691162109375,-0.9205322265625,-0.02009301818907261,-0.07555840909481049,-0.013676131144165993
0.057708740234375,-0.4029693603515625,-0.90142822265625,0.005650162696838379,-0.10090770572423935,-0.005101551301777363
0.056640625,-0.409027099609375,-0.8852386474609375,0.02521267905831337,-0.11871466785669327,0.005085306242108345
0.0537872314453125,-0.4138031005859375,-0.8780517578125,0.038489069789648056,-0.11075527966022491,0.0030714236199855804
0.0497283935546875,-0.418731689453125,-0.8825531005859375,0.07456585019826889,-0.0758950337767601,-0.015731824561953545
0.048858642578125,-0.421478271484375,-0.893218994140625,0.10875124484300613,-0.1305612027645111,-0.03063753806054592
0.051849365234375,-0.430572509765625,-0.904327392578125,0.11865074932575226,-0.18622232973575592,-0.030472688376903534
0.0526275634765625,-0.447845458984375,-0.91156005859375,0.08941429853439331,-0.23736834526062012,-0.025608424097299576
0.0527496337890625,-0.4573822021484375,-0.9232940673828125,0.04760932922363281,-0.23104627430438995,-0.027214311063289642
0.050689697265625,-0.453582763671875,-0.9378814697265625,0.0011906992876902223,-0.2253633439540863,-0.02755253203213215
0.0539398193359375,-0.4464111328125,-0.9459228515625,-0.027296869084239006,-0.21514666080474854,-0.02834162674844265
0.0602569580078125,-0.445526123046875,-0.9622344970703125,-0.03074992261826992,-0.20852205157279968,-0.0382579080760479
0.062042236328125,-0.4423065185546875,-0.97760009765625,0.002192846732214093,-0.2117583155632019,-0.04740240424871445
0.064178466796875,-0.43218994140625,-0.9924774169921875,0.02376365289092064,-0.28318002820014954,-0.04481221362948418
0.072509765625,-0.4359893798828125,-1.0092926025390625,0.045463353395462036,-0.361219197511673,-0.03314170613884926
0.0743408203125,-0.440765380859375,-1.0418243408203125,0.08434044569730759,-0.38437002897262573,-0.021208083257079124
0.06060791015625,-0.4384613037109375,-1.08612060546875,0.14886164665222168,-0.3422907590866089,-0.022713568061590195
0.036865234375,-0.4320831298828125,-1.1065826416015625,0.21528328955173492,-0.34225428104400635,-0.05270315706729889
0.031402587890625,-0.426666259765625,-1.0909576416015625,0.26908791065216064,-0.40563324093818665,-0.07404280453920364
0.0507049560546875,-0.4280548095703125,-1.06011962890625,0.27918609976768494,-0.4709318280220032,-0.04344041645526886
0.065673828125,-0.4280853271484375,-1.0272369384765625,0.24120089411735535,-0.5249711275100708,-0.05092576518654823
0.0585784912109375,-0.421234130859375,-1.01007080078125,0.1766543984413147,-0.5439306497573853,-0.048106808215379715
0.0423126220703125,-0.4076690673828125,-1.0175628662109375,0.11863770335912704,-0.5472465753555298,-0.039865389466285706
0.019439697265625,-0.39306640625,-1.0434112548828125,0.07577918469905853,-0.5138095021247864,-0.032945167273283005
0.01007080078125,-0.380950927734375,-1.0720977783203125,0.05318598821759224,-0.45397788286209106,-0.028235899284482002
0.0031280517578125,-0.367218017578125,-1.083953857421875,0.05678578466176987,-0.3932197391986847,-0.04355333745479584
-0.0122528076171875,-0.3578033447265625,-1.0920562744140625,0.08242936432361603,-0.3323121666908264,-0.06626104563474655
-0.0201416015625,-0.34722900390625,-1.092041015625,0.1232452318072319,-0.3068976104259491,-0.07091625034809113
-0.0139007568359375,-0.33343505859375,-1.0750885009765625,0.14117975533008575,-0.31885361671447754,-0.06383277475833893
-0.0028228759765625,-0.320037841796875,-1.0458526611328125,0.1400122344493866,-0.3488690257072449,-0.049436260014772415
0.0046844482421875,-0.307403564453125,-1.022857666015625,0.1349514275789261,-0.3441286087036133,-0.02634558640420437
0.006317138671875,-0.29315185546875,-1.0172119140625,0.12942589819431305,-0.282016783952713,-0.0006402239087037742
-0.0048370361328125,-0.277618408203125,-1.0221099853515625,0.14643177390098572,-0.18057005107402802,0.017475396394729614
-0.0158233642578125,-0.262603759765625,-1.02398681640625,0.19169139862060547,-0.08017899096012115,0.037400901317596436
-0.0163116455078125,-0.25,-1.0156707763671875,0.25375664234161377,-0.013302755542099476,0.05083335191011429
-0.0069122314453125,-0.244140625,-1.0020751953125,0.3201114237308502,0.00643792562186718,0.07293465733528137
0.00592041015625,-0.2436065673828125,-0.98199462890625,0.37999048829078674,-0.004846154246479273,0.10127175599336624
0.0136566162109375,-0.2484893798828125,-0.9592132568359375,0.41805875301361084,-0.030670560896396637,0.1319364607334137
0.014739990234375,-0.2515716552734375,-0.9361724853515625,0.4187394678592682,-0.07114501297473907,0.1598178893327713
0.0109100341796875,-0.250244140625,-0.91448974609375,0.37553393840789795,-0.11494016647338867,0.18310271203517914
0.00439453125,-0.2464447021484375,-0.8955841064453125,0.28412866592407227,-0.13919037580490112,0.19960685074329376
-0.002197265625,-0.2420501708984375,-0.8795166015625,0.18024860322475433,-0.17899638414382935,0.2057579606771469
-0.009765625,-0.23529052734375,-0.874969482421875,0.1484275609254837,-0.3291637897491455,0.18047577142715454
-0.0203857421875,-0.2346954345703125,-0.8696746826171875,0.11886513233184814,-0.2860424220561981,0.14757214486598969
-0.04547119140625,-0.2232208251953125,-0.9100799560546875,0.06942620873451233,-0.09896253049373627,0.14680542051792145
-0.064971923828125,-0.1978607177734375,-0.982452392578125,0.035412319004535675,0.080843985080719,0.13739433884620667
-0.079376220703125,-0.201202392578125,-1.0085296630859375,0.035410989075899124,0.19543901085853577,0.08846568316221237
-0.09130859375,-0.21746826171875,-0.9893035888671875,0.07404306530952454,0.22840361297130585,0.03580300509929657
-0.090423583984375,-0.2293548583984375,-0.95428466796875,0.11817990243434906,0.2056088149547577,0.0033012544736266136
-0.071136474609375,-0.2354278564453125,-0.921142578125,0.15973560512065887,0.16060033440589905,0.0012269183062016964
-0.05462646484375,-0.2369384765625,-0.884765625,0.17642803490161896,0.14467036724090576,0.011426558718085289
-0.046478271484375,-0.2383270263671875,-0.853790283203125,0.16250289976596832,0.14517077803611755,0.026518426835536957
-0.035888671875,-0.248046875,-0.8345947265625,0.11603259295225143,0.1739363819360733,0.04364041984081268
-0.0299835205078125,-0.2622222900390625,-0.822509765625,0.06268148869276047,0.19942894577980042,0.06129664555191994
-0.0304107666015625,-0.2742156982421875,-0.8178558349609375,0.016711601987481117,0.19022640585899353,0.07785777747631073
-0.0308685302734375,-0.28765869140625,-0.818634033203125,-0.015678562223911285,0.1546526998281479,0.09918250888586044
-0.0250701904296875,-0.29736328125,-0.82379150390625,-0.03833966702222824,0.10329949110746384,0.04806606099009514
-0.018524169921875,-0.302978515625,-0.8266448974609375,-0.05481744185090065,0.058757856488227844,0.15102146565914154
-0.0218353271484375,-0.3057098388671875,-0.83624267578125,-0.07378634065389633,0.03412974253296852,0.172521710395813
-0.031524658203125,-0.31072998046875,-0.8420867919921875,-0.09428362548351288,0.03984382003545761,0.18497012555599213
-0.0394744873046875,-0.3142547607421875,-0.85369873046875,-0.1225442886352539,0.05705609545111656,0.19853119552135468
-0.0441131591796875,-0.3191070556640625,-0.869537353515625,-0.15326865017414093,0.07478155940771103,0.20718806982040405
-0.057586669921875,-0.3267974853515625,-0.8851470947265625,-0.17758889496326447,0.09479255229234695,0.2057020217180252
-0.070770263671875,-0.332427978515625,-0.8988037109375,-0.200186088681221,0.116737000644207,0.21147070825099945
-0.070770263671875,-0.33544921875,-0.9146881103515625,-0.2097066193819046,0.14350895583629608,0.2169344425201416
-0.069549560546875,-0.3370208740234375,-0.929656982421875,-0.2088722586631775,0.16011057794094086,0.21185126900672913
-0.0731658935546875,-0.3358001708984375,-0.9375457763671875,-0.19025063514709473,0.1542857140302658,0.20290544629096985
-0.0703582763671875,-0.33660888671875,-0.94451904296875,-0.16477243602275848,0.15544578433036804,0.19896183907985687
-0.0647125244140625,-0.337554931640625,-0.9511871337890625,-0.14425784349441528,0.14698225259780884,0.19881190359592438
-0.0639495849609375,-0.3391876220703125,-0.9513092041015625,-0.13309839367866516,0.14174754917621613,0.1964872181415558
-0.06243896484375,-0.3428802490234375,-0.9465484619140625,-0.13996003568172455,0.15530037879943848,0.20444022119045258
-0.0595550537109375,-0.3509979248046875,-0.94427490234375,-0.1337767094373703,0.18716350197792053,0.21677304804325104
-0.0579681396484375,-0.35595703125,-0.9486236572265625,-0.11488903313875198,0.21048906445503235,0.22418969869613647
-0.0611572265625,-0.3550262451171875,-0.946380615234375,-0.02935842052102089,0.05717220902442932,0.21768784523010254
-0.06170654296875,-0.3595733642578125,-0.9083251953125,0.02263260819017887,0.10203715413808823,0.20560109615325928
-0.0697784423828125,-0.376434326171875,-0.9048309326171875,0.008167115971446037,0.23902137577533722,0.23835690319538116
-0.077880859375,-0.360504150390625,-0.945220947265625,-0.04875741899013519,0.36626482009887695,0.2857215106487274
-0.0588531494140625,-0.3602752685546875,-0.9448699951171875,-0.0906396210193634,0.47170600295066833,0.3136673867702484
-0.052978515625,-0.3708953857421875,-0.9305419921875,-0.08799111098051071,0.4894426763057709,0.3220936059951782
-0.055755615234375,-0.3782501220703125,-0.9076080322265625,-0.05608057975769043,0.45118609070777893,0.33613353967666626
-0.0485992431640625,-0.3843841552734375,-0.8899688720703125,-0.025081384927034378,0.39820757508277893,0.3452703058719635
-0.036865234375,-0.3848114013671875,-0.87860107421875,-0.011847072280943394,0.3766937553882599,0.37407904863357544
-0.03875732421875,-0.38189697265625,-0.869476318359375,-0.016263658180832863,0.3959241807460785,0.3792003095149994
-0.0484619140625,-0.3857421875,-0.8696441650390625,-0.008639827370643616,0.4329572916030884,0.3780471682548523
-0.0583648681640625,-0.3935699462890625,-0.8818817138671875,-0.004701810888946056,0.4668947458267212,0.35677462816238403
-0.0675201416015625,-0.4038238525390625,-0.8932647705078125,-0.010665427893400192,0.5089689493179321,0.3274979591369629
-0.070281982421875,-0.41162109375,-0.893768310546875,-0.023840617388486862,0.5514698028564453,0.3709181547164917
-0.054962158203125,-0.4132843017578125,-0.892669677734375,-0.034929487854242325,0.5800244808197021,0.2942987382411957
-0.0360870361328125,-0.4078521728515625,-0.892822265625,-0.03633856773376465,0.585862398147583,0.27411437034606934
-0.0277862548828125,-0.400054931640625,-0.890625,-0.03934634104371071,0.5959749817848206,0.25746163725852966
-0.0284881591796875,-0.39752197265625,-0.8887481689453125,-0.056233976036310196,0.6109986305236816,0.24036440253257751
-0.0236053466796875,-0.402557373046875,-0.8804779052734375,-0.07890307158231735,0.6002581119537354,0.22980870306491852
-0.009765625,-0.4073944091796875,-0.87408447265625,-0.10018385946750641,0.574360191822052,0.22537532448768616
0.0074005126953125,-0.4095306396484375,-0.8753509521484375,-0.09442397207021713,0.5619858503341675,0.23092162609100342
0.018035888671875,-0.411346435546875,-0.888458251953125,-0.07573683559894562,0.5555447340011597,0.2446203976869583
0.0207977294921875,-0.411102294921875,-0.8939361572265625,-0.04067419096827507,0.5304430723190308,0.25824272632598877
0.016021728515625,-0.4156951904296875,-0.8975067138671875,-0.006940996740013361,0.5120073556900024,0.2612720727920532
0.0076446533203125,-0.4261627197265625,-0.8953857421875,0.02196229062974453,0.4675038158893585,0.24753549695014954
-0.00323486328125,-0.440826416015625,-0.893157958984375,0.044260140508413315,0.433473140001297,0.23799845576286316
0.01409912109375,-0.445343017578125,-0.8998260498046875,0.10136177390813828,0.3179912865161896,0.21813899278640747
0.0277099609375,-0.4525909423828125,-0.880645751953125,0.027830032631754875,0.2262381911277771,0.20377443730831146
0.0516357421875,-0.4817962646484375,-0.898040771484375,-0.10930012166500092,0.24259452521800995,0.23491637408733368
0.0763397216796875,-0.490814208984375,-0.9334716796875,-0.23716594278812408,0.33565282821655273,0.3378598093986511
0.081146240234375,-0.490814208984375,-0.970062255859375,-0.2963064908981323,0.383899450302124,0.4004371464252472
0.0556182861328125,-0.4795074462890625,-1.0050201416015625,-0.2711593210697174,0.3526960015296936,0.37569132447242737
0.018524169921875,-0.4723663330078125,-1.0181121826171875,-0.19952934980392456,0.27522093057632446,0.33817750215530396
-0.0043182373046875,-0.4588470458984375,-1.018341064453125,-0.13611921668052673,0.18418075144290924,0.3172682225704193
-0.00372314453125,-0.4565582275390625,-1.0186309814453125,-0.10584014654159546,0.11083117872476578,0.30657777190208435
-0.0012969970703125,-0.460205078125,-1.014984130859375,-0.11265863478183746,0.08463605493307114,0.295691579580307
-0.0019073486328125,-0.45684814453125,-1.001220703125,-0.16854293644428253,0.10065817087888718,0.28570178151130676
0.0037841796875,-0.443359375,-0.9968719482421875,-0.22016645967960358,0.14011183381080627,0.2723737359046936
0.0053558349609375,-0.4186248779296875,-1.0095977783203125,-0.2638060748577118,0.18928444385528564,0.22437451779842377
0.0006256103515625,-0.3895263671875,-1.0284881591796875,-0.3046123683452606,0.22170390188694,0.24128824472427368
0.00201416015625,-0.365875244140625,-1.0420379638671875,-0.33693915605545044,0.23693238198757172,0.20413875579833984
0.0126953125,-0.350982666015625,-1.0591278076171875,-0.35751205682754517,0.23097729682922363,0.17659980058670044
0.0320587158203125,-0.33258056640625,-1.08544921875,-0.33875274658203125,0.20088836550712585,0.1724708378314972
0.05316162109375,-0.307037353515625,-1.1119232177734375,-0.296184778213501,0.13741059601306915,0.18685457110404968
0.0662689208984375,-0.27874755859375,-1.118316650390625,-0.22586162388324738,0.06944724917411804,0.21117988228797913
0.0660858154296875,-0.2607574462890625,-1.118377685546875,-0.13380786776542664,0.004918059334158897,0.2263479232788086
0.055877685546875,-0.254974365234375,-1.1219635009765625,-0.04204971715807915,-0.03802008554339409,0.22842492163181305
0.041595458984375,-0.2533111572265625,-1.1101531982421875,0.02702229656279087,-0.03977750614285469,0.2372186779975891
0.0339813232421875,-0.256805419921875,-1.0932769775390625,0.08067646622657776,-0.023127157241106033,0.25482484698295593
0.0370635986328125,-0.2590179443359375,-1.06817626953125,0.1222875639796257,-0.024207867681980133,0.2879375219345093
0.0462493896484375,-0.259552001953125,-1.0348358154296875,0.14897669851779938,-0.032397620379924774,0.3147187829017639
0.0541229248046875,-0.261627197265625,-1.005157470703125,0.17679421603679657,-0.0504397377371788,0.33523473143577576
0.0569610595703125,-0.2637176513671875,-0.9793548583984375,0.2103590965270996,-0.0682525560259819,0.34914839267730713
0.05419921875,-0.267791748046875,-0.95867919921875,0.2561399042606354,-0.10148907452821732,0.3456394374370575
0.0491790771484375,-0.2702484130859375,-0.9401702880859375,0.287776917219162,-0.11191161721944809,0.31915563344955444
0.0397796630859375,-0.2660369873046875,-0.9191436767578125,0.2917461097240448,-0.09114668518304825,0.2745783030986786
0.0364532470703125,-0.260101318359375,-0.9036102294921875,0.27129727602005005,-0.04294613376259804,0.22512899339199066
0.0401763916015625,-0.2501373291015625,-0.8958740234375,0.23479360342025757,0.008501875214278698,0.18776564300060272
0.0473480224609375,-0.2448272705078125,-0.8965911865234375,0.20122285187244415,0.062427423894405365,0.1613398939371109
0.0555267333984375,-0.244964599609375,-0.9067840576171875,0.17717291414737701,0.11611036211252213,0.1414271742105484
0.057586669921875,-0.246124267578125,-0.918212890625,0.15638001263141632,0.15272216498851776,0.13391704857349396
0.051025390625,-0.249114990234375,-0.927886962890625,0.20095334947109222,-0.038058701902627945,0.1289723664522171
0.050384521484375,-0.2514801025390625,-0.9134674072265625,0.29588013887405396,-0.12940166890621185,0.0940665751695633
0.0646209716796875,-0.2706146240234375,-0.89141845703125,0.3034994304180145,0.04824076592922211,0.11430180817842484
0.0582122802734375,-0.2636566162109375,-0.9338836669921875,0.17380374670028687,0.16394126415252686,0.14989441633224487
0.051239013671875,-0.2584686279296875,-0.9216461181640625,0.014958975836634636,0.2490047663450241,0.17037786543369293
0.0576324462890625,-0.2880706787109375,-0.8902130126953125,-0.08147062361240387,0.24719807505607605,0.16095879673957825
0.0566864013671875,-0.3081512451171875,-0.8769989013671875,-0.11654019355773926,0.18671342730522156,0.13950489461421967
0.0621795654296875,-0.29638671875,-0.8750457763671875,-0.11314226686954498,0.13081367313861847,0.12588122487068176
0.0722198486328125,-0.2760467529296875,-0.8900909423828125,-0.1038086861371994,0.08927048742771149,0.12568388879299164
0.077423095703125,-0.266998291015625,-0.9010772705078125,-0.09531613439321518,0.0748840942978859,0.13117186725139618
0.0713958740234375,-0.2722930908203125,-0.9055023193359375,-0.06681445240974426,0.08774023503065109,0.12249715626239777
0.05474853515625,-0.2856597900390625,-0.906707763671875,-0.03350815922021866,0.08156436681747437,0.08740361779928207
0.0385589599609375,-0.3002166748046875,-0.897003173828125,-0.015361378900706768,0.07353067398071289,0.048649027943611145
0.0341644287109375,-0.312042236328125,-0.8803558349609375,-0.01774650625884533,0.08678735792636871,0.028669994324445724
0.0468902587890625,-0.3212890625,-0.864837646484375,-0.05235029011964798,0.09935534745454788,0.026867566630244255
0.060882568359375,-0.3238525390625,-0.84918212890625,-0.10653629899024963,0.09529056400060654,-0.028852952644228935
0.067718505859375,-0.3268890380859375,-0.8349761962890625,-0.15912839770317078,0.09331849217414856,0.03645121678709984
0.0702972412109375,-0.3313140869140625,-0.83502197265625,-0.2115335464477539,0.07028694450855255,0.03409991413354874
0.072113037109375,-0.3369598388671875,-0.8419647216796875,-0.2576776146888733,0.0407508909702301,0.04453417658805847
0.0695648193359375,-0.3399658203125,-0.863037109375,-0.2699505090713501,0.03133102506399155,0.04921521618962288
0.0642852783203125,-0.3401641845703125,-0.891693115234375,-0.24791499972343445,0.010426808148622513,0.049979545176029205
0.0556640625,-0.338104248046875,-0.9149169921875,-0.2012217938899994,-0.014749650843441486,0.04727696627378464
0.0494384765625,-0.33929443359375,-0.9317626953125,-0.161353200674057,-0.0183451846241951,0.04622954502701759
0.044891357421875,-0.346527099609375,-0.9359588623046875,-0.13009648025035858,-0.007666707970201969,0.0497550405561924
0.0505523681640625,-0.351959228515625,-0.923065185546875,-0.12299250066280365,0.003198190126568079,0.04554032161831856
0.05328369140625,-0.3553314208984375,-0.9057464599609375,-0.1422673910856247,0.022532472386956215,0.03289483115077019
0.049163818359375,-0.3587646484375,-0.8962249755859375,-0.16093508899211884,0.05747527629137039,0.02213246561586857
0.0485992431640625,-0.361968994140625,-0.893646240234375,-0.17535343766212463,0.0843830555677414,0.016634371131658554
0.0487213134765625,-0.3651275634765625,-0.898162841796875,-0.1794467270374298,0.06543440371751785,0.008569786325097084
0.04705810546875,-0.36859130859375,-0.9075775146484375,-0.16260728240013123,0.04236902669072151,-0.0025300029665231705
0.051116943359375,-0.3718414306640625,-0.9096527099609375,-0.15407371520996094,0.01495151873677969,-0.0201066005975008
0.0643310546875,-0.375091552734375,-0.90655517578125,-0.11447358131408691,0.02490348555147648,-0.04881520941853523
0.074371337890625,-0.3768310546875,-0.901092529296875,-0.08843132853507996,-0.0975089818239212,-0.0904763713479042
0.0812530517578125,-0.383758544921875,-0.890594482421875,-0.11348581314086914,-0.22825872898101807,-0.09746050834655762
0.091583251953125,-0.382537841796875,-0.916046142578125,-0.14506478607654572,-0.2052713930606842,-0.05588137358427048
0.087493896484375,-0.3813934326171875,-0.937896728515625,-0.17739155888557434,-0.17260399460792542,-0.03357580304145813
0.0623016357421875,-0.3875579833984375,-0.946807861328125,-0.17923660576343536,-0.14527463912963867,-0.06497873365879059
0.038482666015625,-0.39239501953125,-0.9463348388671875,-0.1661974936723709,-0.12074293196201324,-0.10417912900447845
0.0358734130859375,-0.401092529296875,-0.945037841796875,-0.12964987754821777,-0.10756853967905045,-0.13291038572788239
0.0478515625,-0.404815673828125,-0.9448699951171875,-0.06680832803249359,-0.12145239859819412,-0.15866181254386902
0.0497283935546875,-0.3948822021484375,-0.9420013427734375,-0.011290737427771091,-0.17060476541519165,-0.18040892481803894
0.0459442138671875,-0.3824920654296875,-0.9369659423828125,-0.004312989301979542,-0.21133434772491455,-0.20738807320594788
0.0474395751953125,-0.396636962890625,-0.9337615966796875,-0.02051805891096592,-0.18431390821933746,-0.21584653854370117
0.0453338623046875,-0.416107177734375,-0.937408447265625,-0.03491963446140289,-0.1280333399772644,-0.21413706243038177
0.0377960205078125,-0.420654296875,-0.94384765625,-0.037934865802526474,-0.09066306054592133,-0.22053876519203186
0.0340118408203125,-0.4160308837890625,-0.9556427001953125,-0.01092615071684122,-0.042874228209257126,-0.23586232960224152
0.04010009765625,-0.41357421875,-0.972137451171875,0.0435597263276577,-0.01452647801488638,-0.2506636381149292
0.06024169921875,-0.410675048828125,-0.9845733642578125,0.12343458831310272,-0.027411384508013725,-0.21154554188251495
0.0859527587890625,-0.405029296875,-0.9931793212890625,0.1970568746328354,-0.04199645295739174,-0.25180986523628235
0.105560302734375,-0.4005889892578125,-0.9925994873046875,0.25217124819755554,-0.061584003269672394,-0.2555167078971863
0.113555908203125,-0.402923583984375,-0.9801025390625,0.27824920415878296,-0.07228298485279083,-0.2465067207813263
0.1181182861328125,-0.41033935546875,-0.962799072265625,0.2782534658908844,-0.09197892248630524,-0.2340809404850006
0.12554931640625,-0.4169921875,-0.9438629150390625,0.25228843092918396,-0.1253344863653183,-0.23040737211704254
0.1287078857421875,-0.4246673583984375,-0.9293365478515625,0.20977772772312164,-0.16758526861667633,-0.22978739440441132
0.134002685546875,-0.4268646240234375,-0.922332763671875,0.16231407225131989,-0.2101801335811615,-0.22362031042575836
0.1328887939453125,-0.4185943603515625,-0.9214324951171875,0.09294085949659348,-0.2504202425479889,-0.21907269954681396
0.1175689697265625,-0.4056549072265625,-0.9315185546875,0.018010159954428673,-0.2677643299102783,-0.219892680644989
0.09271240234375,-0.3922576904296875,-0.96044921875,-0.06315819919109344,-0.2470444142818451,-0.22814075648784637
0.0711669921875,-0.377685546875,-0.9978179931640625,-0.12143614888191223,-0.3051828145980835,-0.2330968976020813
0.061309814453125,-0.3600616455078125,-1.0274658203125,-0.07644443958997726,-0.5311922430992126,-0.25541552901268005
0.0668487548828125,-0.3477325439453125,-1.043243408203125,-0.09972579777240753,-0.27181634306907654,-0.23404711484909058
0.0609130859375,-0.326019287109375,-1.1687469482421875,-0.17349615693092346,-0.10871236771345139,-0.16137424111366272
0.0555877685546875,-0.2892913818359375,-1.2273101806640625,-0.22532740235328674,0.014348313212394714,-0.10388245433568954
0.063507080078125,-0.275665283203125,-1.207305908203125,-0.20283326506614685,0.022647788748145103,-0.09547112882137299
0.056640625,-0.2595672607421875,-1.1620330810546875,-0.1428370475769043,-0.07742422074079514,-0.10398871451616287
0.062347412109375,-0.2428131103515625,-1.1158447265625,-0.06600458174943924,-0.2045920193195343,-0.08727099001407623
0.0795745849609375,-0.2275848388671875,-1.09051513671875,0.017430122941732407,-0.2894318103790283,-0.05410690978169441
0.06982421875,-0.2156219482421875,-1.0707244873046875,0.08062294125556946,-0.3257799744606018,-0.031036479398608208
0.04229736328125,-0.2056884765625,-1.0533294677734375,0.1329071819782257,-0.308247834444046,-0.0111059146001935
0.0151824951171875,-0.198333740234375,-1.0397186279296875,0.16711895167827606,-0.24041606485843658,0.009305085055530071
-0.008819580078125,-0.195770263671875,-1.023223876953125,0.17901794612407684,-0.15142041444778442,0.026923758909106255
-0.02581787109375,-0.1970672607421875,-1.0013885498046875,0.17973753809928894,-0.06298588961362839,0.031192541122436523
-0.0413970947265625,-0.1999053955078125,-0.978118896484375,0.17991410195827484,-0.0010932276491075754,0.023308517411351204
-0.050201416015625,-0.205352783203125,-0.9608154296875,0.17762964963912964,0.027633225545287132,0.016097210347652435
-0.041717529296875,-0.2084808349609375,-0.9472198486328125,0.17198587954044342,0.021076256409287453,0.01278743427246809
-0.0297088623046875,-0.207244873046875,-0.9361572265625,0.1663210690021515,0.005218463949859142,0.012618057429790497
-0.0223236083984375,-0.2026214599609375,-0.9322967529296875,0.15541516244411469,-0.029169602319598198,0.027889953926205635
-0.028350830078125,-0.1968231201171875,-0.9246368408203125,0.14790263772010803,-0.07153703272342682,-0.009062737226486206
-0.0324554443359375,-0.1946868896484375,-0.922607421875,0.11963904649019241,-0.11926647275686264,-0.018568623811006546
-0.0393829345703125,-0.1880340576171875,-0.9123992919921875,0.06939531862735748,-0.16400891542434692,-0.03419472277164459
-0.0475311279296875,-0.1900482177734375,-0.8992156982421875,-0.009228385984897614,-0.2071894109249115,-0.05764785036444664
-0.05780029296875,-0.195587158203125,-0.8920135498046875,-0.12209527939558029,-0.23719710111618042,-0.07991587370634079
-0.0643463134765625,-0.2058868408203125,-0.8954620361328125,-0.24974298477172852,-0.24857360124588013,-0.10510165244340897
-0.0756378173828125,-0.2146148681640625,-0.912109375,-0.34931060671806335,-0.2422453910112381,-0.1356228142976761
-0.084930419921875,-0.220245361328125,-0.9377593994140625,-0.40087977051734924,-0.24850808084011078,-0.16737514734268188
-0.0884246826171875,-0.220855712890625,-0.96612548828125,-0.37839603424072266,-0.2635461390018463,-0.18568064272403717
-0.0902099609375,-0.216156005859375,-0.99798583984375,-0.3079647421836853,-0.28899770975112915,-0.18705670535564423
-0.0914154052734375,-0.2099761962890625,-1.0182647705078125,-0.21005576848983765,-0.2919010818004608,-0.18290244042873383
-0.1004638671875,-0.2032012939453125,-1.0210113525390625,-0.10157882422208786,-0.24636876583099365,-0.193630188703537
-0.1225128173828125,-0.2030792236328125,-1.011962890625,0.030605312436819077,-0.28382453322410583,-0.22386105358600616
-0.137420654296875,-0.2148590087890625,-0.972442626953125,0.12925945222377777,-0.3354605436325073,-0.2622140347957611
-0.1420440673828125,-0.2509918212890625,-0.914794921875,0.1162744089961052,-0.27961140871047974,-0.26005980372428894
-0.1433563232421875,-0.2427825927734375,-0.915435791015625,0.046783749014139175,-0.17773669958114624,-0.22623206675052643
-0.1289825439453125,-0.243743896484375,-0.9130706787109375,-0.039629701524972916,-0.042696863412857056,-0.20939530432224274
-0.118682861328125,-0.2589569091796875,-0.9149017333984375,-0.10270347446203232,0.033481527119874954,-0.20213179290294647
-0.110107421875,-0.260894775390625,-0.90301513671875,-0.11594657599925995,0.0257482398301363,-0.19274522364139557
-0.091827392578125,-0.264373779296875,-0.8866424560546875,-0.09235416352748871,-0.06907440721988678,-0.19290101528167725
-0.0811309814453125,-0.276458740234375,-0.8732147216796875,-0.04228274151682854,-0.17658674716949463,-0.20772629976272583
-0.09814453125,-0.2820587158203125,-0.864288330078125,0.018022676929831505,-0.22510315477848053,-0.23585566878318787
-0.10992431640625,-0.28240966796875,-0.8767852783203125,0.06806080788373947,-0.2636883556842804,-0.24488484859466553
-0.0942840576171875,-0.2779083251953125,-0.8879241943359375,0.07747747749090195,-0.2884698808193207,-0.23859739303588867
-0.0716552734375,-0.2769775390625,-0.886505126953125,0.04743542522192001,-0.27618977427482605,-0.22083517909049988
-0.057861328125,-0.282012939453125,-0.890716552734375,-0.006676544900983572,-0.23434965312480927,-0.16688938438892365
-0.0564727783203125,-0.2900543212890625,-0.8946533203125,-0.06379895657300949,-0.17242209613323212,-0.22855301201343536
-0.071807861328125,-0.306976318359375,-0.90118408203125,-0.09951460361480713,-0.11863024532794952,-0.2650785446166992
-0.086944580078125,-0.3280792236328125,-0.91546630859375,-0.12781041860580444,-0.11532552540302277,-0.29326462745666504
-0.0843353271484375,-0.345306396484375,-0.9157562255859375,-0.13697916269302368,-0.12768472731113434,-0.3089783489704132
-0.07281494140625,-0.3531036376953125,-0.9183349609375,-0.124395452439785,-0.15785327553749084,-0.3105887770652771
-0.0526885986328125,-0.351776123046875,-0.92633056640625,-0.08657138049602509,-0.20288307964801788,-0.29957473278045654
-0.037841796875,-0.348480224609375,-0.937042236328125,-0.04808097705245018,-0.2504383325576782,-0.28288841247558594
-0.0460052490234375,-0.353302001953125,-0.9353179931640625,-0.016352342441678047,-0.27646541595458984,-0.28668317198753357
-0.075897216796875,-0.364532470703125,-0.9256134033203125,0.001751827308908105,-0.24881620705127716,-0.2988207936286926
-0.0999603271484375,-0.3824310302734375,-0.9208984375,0.0028218855150043964,-0.18156473338603973,-0.30810004472732544
-0.1004486083984375,-0.3968048095703125,-0.9147186279296875,-0.031260717660188675,-0.11352097243070602,-0.2892967760562897
-0.0736541748046875,-0.399566650390625,-0.893646240234375,-0.0853484496474266,-0.04765593633055687,-0.24405740201473236
-0.0416107177734375,-0.39105224609375,-0.866912841796875,-0.13089357316493988,-0.34166866540908813,-0.2289663404226303
-0.0115203857421875,-0.392486572265625,-0.7693939208984375,-0.14631326496601105,-0.08092547208070755,-0.21628622710704803
-0.0228729248046875,-0.3929595947265625,-0.831878662109375,-0.11984597891569138,0.18320603668689728,-0.15861015021800995
-0.052459716796875,-0.3362579345703125,-0.972503662109375,-0.10050024092197418,0.3513779938220978,-0.1439414620399475
-0.061126708984375,-0.361846923828125,-1.0017852783203125,-0.0368962325155735,0.3792272210121155,-0.14930160343647003
-0.046905517578125,-0.4060211181640625,-0.9928436279296875,0.05287732928991318,0.3108699917793274,-0.16060885787010193
-0.024749755859375,-0.417816162109375,-0.9371337890625,0.11945236474275589,0.18641941249370575,-0.18125766515731812
-0.014495849609375,-0.416351318359375,-0.882232666015625,0.132083460688591,0.0910835713148117,-0.1939753293991089
-0.0068511962890625,-0.413970947265625,-0.85888671875,0.10519672930240631,0.1077783927321434,-0.16678231954574585
0.007720947265625,-0.4068450927734375,-0.873321533203125,0.06630605459213257,0.185428187251091,-0.11632847040891647
0.0138092041015625,-0.396697998046875,-0.897918701171875,0.03368020057678223,0.26635631918907166,-0.08857513964176178
-0.0014495849609375,-0.390350341796875,-0.9124298095703125,0.015898006036877632,0.3703958988189697,-0.061223942786455154
0.02325439453125,-0.3885040283203125,-0.933074951171875,0.03383572772145271,0.4323327839374542,-0.03677825257182121
0.0353240966796875,-0.3966217041015625,-0.9632110595703125,0.07166406512260437,0.4427603781223297,-0.021579060703516006
0.03125,-0.4115753173828125,-0.97735595703125,0.09457018226385117,0.3959353566169739,-0.02961594983935356
0.0315704345703125,-0.4263153076171875,-0.974700927734375,0.11921800673007965,0.30930590629577637,-0.03688424825668335
0.0405426025390625,-0.4321136474609375,-0.973236083984375,0.1494920253753662,0.188699871301651,-0.02401185967028141
0.047637939453125,-0.428741455078125,-0.9819488525390625,0.17841021716594696,0.07024460285902023,-0.012412461452186108
0.04840087890625,-0.4220428466796875,-0.9931793212890625,0.2032971978187561,0.011125355027616024,-0.0011081412667408586
0.0438995361328125,-0.419158935546875,-1.0070648193359375,0.21314050257205963,-0.0060208747163414955,-0.006421680096536875
0.0314483642578125,-0.4224700927734375,-1.0208740234375,0.20870395004749298,-0.004427771549671888,-0.005714078433811665
0.0161895751953125,-0.424285888671875,-1.025970458984375,0.2070290744304657,0.03363838791847229,0.014934208244085312
0.00531005859375,-0.4280853271484375,-1.02581787109375,0.22194065153598785,0.0782490000128746,0.06574279069900513
0.009979248046875,-0.4250640869140625,-1.0255584716796875,0.2533086836338043,0.12158821523189545,0.1348656713962555
0.029388427734375,-0.4129638671875,-1.01544189453125,0.2840501070022583,0.1325196921825409,0.2012588083744049
0.0489959716796875,-0.40850830078125,-1.009857177734375,0.3027971386909485,0.0850515142083168,0.25409460067749023
0.0477752685546875,-0.4146270751953125,-1.000213623046875,0.31333714723587036,0.02173032984137535,0.28227829933166504
0.030853271484375,-0.42578125,-0.9972381591796875,0.315385103225708,-0.02696237526834011,0.2780047357082367
0.0081939697265625,-0.4391326904296875,-1.001220703125,0.3120005130767822,-0.03578409552574158,0.24214765429496765
-0.0177459716796875,-0.450469970703125,-1.0143280029296875,0.2868293821811676,-0.008043278940021992,0.18851211667060852
-0.048431396484375,-0.44781494140625,-1.025909423828125,0.25655004382133484,0.07766789942979813,0.15363536775112152
-0.055877685546875,-0.4344635009765625,-1.0390472412109375,0.2252272665500641,0.18582232296466827,0.14932477474212646
-0.04986572265625,-0.4238433837890625,-1.044921875,0.19041308760643005,0.24793949723243713,0.1734418272972107
-0.022735595703125,-0.4096832275390625,-1.03778076171875,0.15884371101856232,0.25606080889701843,0.22000320255756378
0.009796142578125,-0.389739990234375,-1.033233642578125,0.12960006296634674,0.20200209319591522,0.27320170402526855
0.035400390625,-0.365081787109375,-1.0355682373046875,0.1194201335310936,0.12442661076784134,0.32950225472450256
0.0452423095703125,-0.343780517578125,-1.06353759765625,0.12825997173786163,0.04417092353105545,0.3833777606487274
0.04150390625,-0.3230743408203125,-1.097869873046875,0.13083364069461823,-0.29124915599823,0.4074340760707855
0.0395355224609375,-0.3171234130859375,-1.0457916259765625,0.17831115424633026,-0.08569733053445816,0.39911410212516785
0.00250244140625,-0.322509765625,-1.1301422119140625,0.2753583490848541,0.17039117217063904,0.3757573664188385
-0.065185546875,-0.286529541015625,-1.2530517578125,0.3687514066696167,0.40436264872550964,0.3506437838077545
-0.06597900390625,-0.2900848388671875,-1.2486724853515625,0.4562849700450897,0.5458380579948425,0.3268795907497406
-0.0440216064453125,-0.3087310791015625,-1.172637939453125,0.5260427594184875,0.5498977303504944,0.3007848560810089
-0.0171661376953125,-0.295013427734375,-1.0604095458984375,0.5361457467079163,0.44417479634284973,0.2824985384941101
0.02490234375,-0.2659759521484375,-0.9527740478515625,0.49448883533477783,0.33887553215026855,0.3117144703865051
0.076934814453125,-0.24932861328125,-0.892059326171875,0.41167542338371277,0.2864091098308563,0.36104899644851685
0.0973663330078125,-0.238311767578125,-0.87371826171875,0.29977527260780334,0.3223913609981537,0.39929839968681335
0.0890960693359375,-0.2307281494140625,-0.8929595947265625,0.16243045032024384,0.3885517418384552,0.42612946033477783
0.079132080078125,-0.2261962890625,-0.919586181640625,0.04963253438472748,0.48639121651649475,0.43938642740249634
0.0760040283203125,-0.22418212890625,-0.9475250244140625,-0.014416489750146866,0.598335325717926,0.4401664733886719
0.0724639892578125,-0.2286376953125,-0.976470947265625,-0.05042722076177597,0.6536675691604614,0.4398253262042999
0.0669097900390625,-0.2377471923828125,-0.9779815673828125,-0.07508702576160431,0.6579067707061768,0.4337053596973419
0.071197509765625,-0.2503662109375,-0.9573974609375,-0.09045879542827606,0.6520283818244934,0.4340481162071228
0.0732269287109375,-0.258056640625,-0.92822265625,-0.11276942491531372,0.6344363689422607,0.418861448764801
0.0616302490234375,-0.25958251953125,-0.889617919921875,-0.14029772579669952,0.6048067808151245,0.3905986547470093
0.055511474609375,-0.254669189453125,-0.8483123779296875,-0.18976673483848572,0.558448076248169,0.36527490615844727
0.0615386962890625,-0.2491455078125,-0.8065338134765625,-0.23949460685253143,0.4911052882671356,0.3550291955471039
0.071075439453125,-0.2494354248046875,-0.77813720703125,-0.28052806854248047,0.37912601232528687,0.3468588888645172
0.077117919921875,-0.25079345703125,-0.7569580078125,-0.32590192556381226,0.23449799418449402,0.3336797058582306
0.0705108642578125,-0.2522125244140625,-0.7379608154296875,-0.379861056804657,0.11259418725967407,0.31799447536468506
0.060028076171875,-0.256927490234375,-0.7279510498046875,-0.4246666133403778,0.05571013316512108,0.3299238383769989
0.0578155517578125,-0.2633056640625,-0.73980712890625,-0.4618437886238098,0.03640221431851387,0.34663650393486023
0.048797607421875,-0.27008056640625,-0.7576904296875,-0.4962747395038605,0.04625724256038666,0.34349051117897034
0.027099609375,-0.27520751953125,-0.7688446044921875,-0.5202706456184387,0.03602883964776993,0.32484519481658936
0.003082275390625,-0.2816162109375,-0.776641845703125,-0.5352516770362854,-0.016114521771669388,0.3034419119358063
0.002166748046875,-0.2928466796875,-0.7852630615234375,-0.5435770153999329,-0.09242473542690277,0.2983728349208832
0.0093841552734375,-0.2986602783203125,-0.8045806884765625,-0.5087950825691223,-0.19229380786418915,0.3038941025733948
0.02215576171875,-0.2989654541015625,-0.8517608642578125,-0.4050247073173523,-0.24691471457481384,0.2990783154964447
0.0167236328125,-0.2950592041015625,-0.9066162109375,-0.276787668466568,-0.2801232635974884,0.2672383487224579
0.0002593994140625,-0.285491943359375,-0.9333038330078125,-0.14836497604846954,-0.3130010664463043,0.21827907860279083
-0.01275634765625,-0.282928466796875,-0.9444427490234375,-0.03880252316594124,-0.33193933963775635,0.18318606913089752
-0.01275634765625,-0.289581298828125,-0.9451141357421875,0.02504010498523712,-0.3013659715652466,0.14575746655464172
-0.0054779052734375,-0.296844482421875,-0.9344024658203125,0.04447026178240776,-0.25710901618003845,0.11566294729709625
0.0013580322265625,-0.298614501953125,-0.9163665771484375,0.018150508403778076,-0.2341962605714798,0.10390109568834305
0.0123443603515625,-0.29986572265625,-0.8959503173828125,-0.04542393982410431,-0.1767396181821823,0.11728321760892868
0.022430419921875,-0.3011016845703125,-0.8849334716796875,-0.10929106920957565,-0.10850810259580612,0.13778556883335114
0.025482177734375,-0.3069610595703125,-0.886505126953125,-0.1625971645116806,-0.07108323276042938,0.13908305764198303
0.0178375244140625,-0.3196563720703125,-0.8950653076171875,-0.19360248744487762,-0.06308335810899734,0.12307053059339523
0.0025177001953125,-0.3374176025390625,-0.9093475341796875,-0.19267411530017853,-0.06473585218191147,0.08948913961648941
-0.0108642578125,-0.3556671142578125,-0.937530517578125,-0.1632632315158844,-0.0663667693734169,0.05884094536304474
-0.01629638671875,-0.368621826171875,-0.963226318359375,-0.12088806927204132,-0.0516514778137207,0.024601483717560768
-0.01934814453125,-0.37347412109375,-0.981536865234375,-0.0803837850689888,-0.03610527515411377,-0.00632021389901638
-0.0148162841796875,-0.3737945556640625,-0.981201171875,-0.046250853687524796,-0.05356096103787422,-0.03371348977088928
-0.0038299560546875,-0.372314453125,-0.9708251953125,-0.016527045518159866,-0.10887934267520905,-0.050287406891584396
0.0082244873046875,-0.3748321533203125,-0.95343017578125,0.01677818037569523,-0.20344287157058716,-0.06381173431873322
0.02166748046875,-0.3756256103515625,-0.933563232421875,0.04627668485045433,-0.2880842387676239,-0.07459061592817307
0.02581787109375,-0.3809661865234375,-0.92218017578125,0.0733189582824707,-0.35029861330986023,-0.06946269422769547
0.0213775634765625,-0.391571044921875,-0.9153900146484375,0.10568461567163467,-0.4199810326099396,-0.08422992378473282
0.003509521484375,-0.4021453857421875,-0.9113006591796875,0.13599112629890442,-0.4719443619251251,-0.1079978421330452
-0.0206756591796875,-0.4085235595703125,-0.9150848388671875,0.170785591006279,-0.48858487606048584,-0.13054496049880981
-0.0348052978515625,-0.414459228515625,-0.9242401123046875,0.20027397572994232,-0.4445422887802124,-0.15712010860443115
-0.048370361328125,-0.41925048828125,-0.9343719482421875,0.22794075310230255,-0.41383126378059387,-0.17871035635471344
-0.055694580078125,-0.4207916259765625,-0.940643310546875,0.2442382425069809,-0.4325903058052063,-0.18408328294754028
-0.060791015625,-0.4248504638671875,-0.9365081787109375,0.2568475008010864,-0.43836963176727295,-0.18757708370685577
-0.0550994873046875,-0.427398681640625,-0.936370849609375,0.28572869300842285,-0.43465426564216614,-0.21261613070964813
-0.0540924072265625,-0.43109130859375,-0.95037841796875,0.3097684979438782,-0.41780710220336914,-0.22444641590118408
-0.040557861328125,-0.4236907958984375,-0.9506683349609375,0.3136790990829468,-0.3696986734867096,-0.2233971357345581
-0.019683837890625,-0.413116455078125,-0.9470672607421875,0.28716227412223816,-0.30701878666877747,-0.22693781554698944
-0.0136260986328125,-0.414306640625,-0.936370849609375,0.23988397419452667,-0.2640513479709625,-0.23405803740024567
-0.0122833251953125,-0.42333984375,-0.927154541015625,0.20488150417804718,-0.2317245751619339,-0.2617373466491699
-0.016937255859375,-0.4311370849609375,-0.92913818359375,0.1695735901594162,-0.22442378103733063,-0.30280381441116333
-0.0221710205078125,-0.428314208984375,-0.92462158203125,0.09823602437973022,-0.22491540014743805,-0.3341601490974426
-0.027191162109375,-0.412109375,-0.920654296875,-0.024812938645482063,-0.23598642647266388,-0.34503835439682007
-0.018341064453125,-0.3837127685546875,-0.925750732421875,-0.06384821981191635,-0.3904353976249695,-0.3688552677631378
-0.002105712890625,-0.3631134033203125,-0.9578704833984375,-0.17207029461860657,-0.5026564598083496,-0.39957642555236816
-0.00262451171875,-0.350311279296875,-1.0262451171875,-0.37001293897628784,-0.3903864026069641,-0.3928825557231903
-0.0258636474609375,-0.304840087890625,-1.114593505859375,-0.5468153953552246,-0.0903027355670929,-0.3497939705848694
-0.041534423828125,-0.28118896484375,-1.20025634765625,-0.6468522548675537,0.23592065274715424,-0.3403772711753845
-0.0550689697265625,-0.26031494140625,-1.2755584716796875,-0.6040792465209961,0.4047171175479889,-0.3602428734302521
-0.045379638671875,-0.2420196533203125,-1.29541015625,-0.44538065791130066,0.4226505756378174,-0.3714989721775055
-0.0166778564453125,-0.226593017578125,-1.2838592529296875,-0.2496899962425232,0.3764367401599884,-0.37855449318885803
-0.007354736328125,-0.2008209228515625,-1.2508697509765625,-0.09823469072580338,0.33946940302848816,-0.3679545819759369
-0.001800537109375,-0.1749725341796875,-1.2119598388671875,0.00574896577745676,0.2974444627761841,-0.327190637588501
0.0125885009765625,-0.16522216796875,-1.1758880615234375,0.08207648992538452,0.2742674946784973,-0.269062876701355
0.0267333984375,-0.1643524169921875,-1.1436004638671875,0.16044560074806213,0.2501632273197174,-0.21763591468334198
0.0214996337890625,-0.1645965576171875,-1.1082916259765625,0.2326904982328415,0.23451822996139526,-0.2297423779964447
0.017303466796875,-0.1673736572265625,-1.0808868408203125,0.3141704499721527,0.23659096658229828,-0.12185719609260559
0.0107574462890625,-0.170318603515625,-1.0523834228515625,0.4014294445514679,0.24493704736232758,-0.10396528244018555
-0.0083465576171875,-0.17083740234375,-1.00946044921875,0.46895498037338257,0.21896803379058838,-0.09598911553621292
-0.0198822021484375,-0.1728057861328125,-0.955902099609375,0.49329307675361633,0.165518119931221,-0.06991357356309891
-0.0098724365234375,-0.1810760498046875,-0.893402099609375,0.46758049726486206,0.08607256412506104,-0.02528458461165428
-0.0030670166015625,-0.1950225830078125,-0.84075927734375,0.40913715958595276,0.014161891303956509,0.005356948357075453
-0.0062713623046875,-0.2070770263671875,-0.80841064453125,0.3254545331001282,-0.04219938442111015,0.03556518629193306
-0.0184783935546875,-0.2129364013671875,-0.7949371337890625,0.2328934371471405,-0.0857284888625145,0.062431953847408295
-0.03472900390625,-0.2169342041015625,-0.795928955078125,0.1307457685470581,-0.09486152976751328,0.06922860443592072
-0.0477294921875,-0.21923828125,-0.8058319091796875,0.04471687227487564,-0.07989989221096039,0.058880358934402466
-0.05853271484375,-0.220703125,-0.8229217529296875,-0.04008457064628601,-0.07225316017866135,0.021168934181332588
-0.065521240234375,-0.2236175537109375,-0.837310791015625,-0.11221868544816971,-0.08178407698869705,-0.015230884775519371
-0.0615081787109375,-0.22503662109375,-0.851898193359375,-0.17134778201580048,-0.07211467623710632,-0.034928422421216965
-0.05047607421875,-0.224609375,-0.8741302490234375,-0.2096640169620514,-0.05503875017166138,-0.033668480813503265
-0.0379638671875,-0.2189178466796875,-0.8929595947265625,-0.2018183469772339,-0.038956984877586365,-0.024695759639143944
-0.0313262939453125,-0.21221923828125,-0.915435791015625,-0.15726791322231293,-0.027547737583518028,-0.026674753054976463
-0.0396270751953125,-0.2177734375,-0.93731689453125,-0.09133577346801758,-0.002086320426315069,-0.030946198850870132
-0.051605224609375,-0.227569580078125,-0.9453125,-0.021974807605147362,0.007845939137041569,-0.042340800166130066
-0.0473785400390625,-0.235595703125,-0.938262939453125,0.02558125928044319,0.006383064668625593,-0.03296700492501259
-0.036285400390625,-0.241058349609375,-0.923980712890625,0.03385996073484421,-0.0025747441686689854,-0.013369867578148842
-0.0272979736328125,-0.2460479736328125,-0.9067840576171875,0.03317499905824661,0.013820740394294262,0.016319051384925842
-0.023040771484375,-0.2499847412109375,-0.900054931640625,0.04179884493350983,0.008677111007273197,0.03792101517319679
-0.026519775390625,-0.2493743896484375,-0.8914947509765625,0.10420016944408417,-0.016527578234672546,0.038115959614515305
-0.0283203125,-0.2577056884765625,-0.8777618408203125,0.0792066678404808,-0.14540860056877136,-0.0015044197207316756
-0.0204010009765625,-0.281005859375,-0.864715576171875,-0.05901431664824486,-0.18237993121147156,-0.008810802362859249
-0.0095672607421875,-0.2879638671875,-0.8708343505859375,-0.21340389549732208,-0.08751893043518066,0.05528029799461365
-0.0053253173828125,-0.2845611572265625,-0.8940582275390625,-0.3336370885372162,-0.009485380724072456,0.10936537384986877
-0.0195770263671875,-0.275726318359375,-0.9236907958984375,-0.3837710916996002,0.05476444587111473,0.12038792669773102
-0.0386962890625,-0.2723236083984375,-0.952911376953125,-0.37355440855026245,0.07929695397615433,0.11301257461309433
-0.0406341552734375,-0.2832489013671875,-0.9589691162109375,-0.3497260510921478,0.02526221238076687,0.11623712629079819
-0.0295867919921875,-0.2966461181640625,-0.95123291015625,-0.3421940803527832,-0.05107783153653145,0.1298176497220993
-0.02606201171875,-0.30029296875,-0.940185546875,-0.331520676612854,-0.09352914988994598,0.15362338721752167
-0.02777099609375,-0.2993621826171875,-0.9485321044921875,-0.3163989782333374,-0.10035483539104462,0.17273235321044922
-0.03472900390625,-0.2993621826171875,-0.9667816162109375,-0.2937527894973755,-0.11369407176971436,0.1932898312807083
-0.03973388671875,-0.2993621826171875,-0.979644775390625,-0.2509259581565857,-0.12107954919338226,0.20301011204719543
-0.05029296875,-0.300689697265625,-0.9887847900390625,-0.20691722631454468,-0.1368715614080429,0.2052852362394333
-0.0670318603515625,-0.3026580810546875,-0.9912567138671875,-0.16890166699886322,-0.16962258517742157,0.12936463952064514
-0.073333740234375,-0.3048553466796875,-0.9919281005859375,-0.13999758660793304,-0.18349365890026093,0.19779697060585022
-0.0728607177734375,-0.304473876953125,-0.98681640625,-0.14777694642543793,-0.20998385548591614,0.20360346138477325
-0.0758209228515625,-0.3023223876953125,-0.977203369140625,-0.17796707153320312,-0.2151397317647934,0.21132875978946686
-0.0749053955078125,-0.3011016845703125,-0.970306396484375,-0.20058023929595947,-0.21246646344661713,0.22423256933689117
-0.0742950439453125,-0.2987213134765625,-0.9779205322265625,-0.19154679775238037,-0.21932463347911835,0.2357480823993683
-0.0818328857421875,-0.299346923828125,-1.00360107421875,-0.14144714176654816,-0.1958256959915161,0.23726820945739746
-0.0994873046875,-0.3055419921875,-1.029876708984375,-0.07239590585231781,-0.12706340849399567,0.21472428739070892
-0.1185150146484375,-0.311431884765625,-1.0340576171875,-0.024322915822267532,-0.03212331607937813,0.1802384853363037
-0.1244049072265625,-0.315948486328125,-1.0162811279296875,0.0004655205411836505,0.05632425844669342,0.1503162682056427
-0.11553955078125,-0.3238525390625,-0.986602783203125,-0.002460228279232979,0.1093725636601448,0.14237338304519653
-0.0908660888671875,-0.330780029296875,-0.9582672119140625,-0.02310505323112011,0.13089942932128906,0.1558670997619629
-0.05865478515625,-0.332000732421875,-0.932281494140625,-0.04783996194601059,0.11506080627441406,0.1774783730506897
-0.0316314697265625,-0.328765869140625,-0.9126129150390625,-0.06796679645776749,0.08247703313827515,0.19683024287223816
-0.018829345703125,-0.3256988525390625,-0.911376953125,-0.07751583307981491,0.0646253302693367,0.20360559225082397
-0.021697998046875,-0.3250885009765625,-0.9215850830078125,-0.07698719203472137,0.05596686154603958,0.20836038887500763
-0.032196044921875,-0.3275909423828125,-0.935516357421875,-0.05324697494506836,0.07447263598442078,0.2222631573677063
-0.0482025146484375,-0.3350372314453125,-0.9616546630859375,-0.01824265345931053,0.13343794643878937,0.24392159283161163
-0.0604705810546875,-0.34063720703125,-0.9710693359375,0.026128273457288742,0.1997690349817276,0.24925562739372253
-0.0613250732421875,-0.3446044921875,-0.963653564453125,0.06167268380522728,0.24607475101947784,0.24375513195991516
-0.0563812255859375,-0.349029541015625,-0.950286865234375,0.08487068116664886,0.27556660771369934,0.2389470636844635
-0.0488433837890625,-0.3521728515625,-0.93084716796875,0.10291546583175659,0.29350805282592773,0.24812191724777222
-0.0327606201171875,-0.3555908203125,-0.917449951171875,0.12384018301963806,0.2755490243434906,0.25264182686805725
-0.026092529296875,-0.357818603515625,-0.905853271484375,0.14043620228767395,0.24149943888187408,0.246977299451828
-0.026123046875,-0.3614349365234375,-0.895111083984375,0.14512789249420166,0.20756331086158752,0.24620364606380463
-0.02520751953125,-0.3693695068359375,-0.892486572265625,0.1422135978937149,0.19173428416252136,0.2470467984676361
-0.030242919921875,-0.3791656494140625,-0.898345947265625,0.12600639462471008,0.19816981256008148,0.2503754794597626
-0.03131103515625,-0.37969970703125,-0.8976593017578125,0.11942466348409653,0.24537913501262665,0.26349130272865295
-0.0277252197265625,-0.377685546875,-0.9074554443359375,0.11470501124858856,0.30566856265068054,0.27824652194976807
-0.0324859619140625,-0.3788909912109375,-0.92120361328125,0.1268274486064911,0.3366869390010834,0.29476824402809143
-0.0402984619140625,-0.3790283203125,-0.9152374267578125,0.14362986385822296,0.33715060353279114,0.3044150173664093
-0.038726806640625,-0.38201904296875,-0.9062957763671875,0.15611982345581055,0.3283062279224396,0.3157968521118164
-0.030059814453125,-0.3892822265625,-0.9052886962890625,0.15930470824241638,0.3280196785926819,0.31742721796035767
-0.032989501953125,-0.3988037109375,-0.9117889404296875,0.16957944631576538,0.3345510959625244,0.3189886510372162
-0.0361785888671875,-0.40301513671875,-0.919189453125,0.1739978939294815,0.3394901752471924,0.31997454166412354
-0.0315093994140625,-0.40509033203125,-0.9239501953125,0.17029370367527008,0.33097153902053833,0.3321550488471985
-0.021331787109375,-0.4082183837890625,-0.9233856201171875,0.16164429485797882,0.3032703995704651,0.34816569089889526
-0.015777587890625,-0.409759521484375,-0.9244384765625,0.1491260975599289,0.2826958894729614,0.3549191951751709
-0.02099609375,-0.4134521484375,-0.9381256103515625,0.15540876984596252,0.2658258080482483,0.35764363408088684
-0.0266876220703125,-0.41778564453125,-0.9625091552734375,0.17248041927814484,0.25885099172592163,0.3563578426837921
-0.029754638671875,-0.4189300537109375,-0.985809326171875,0.199758380651474,0.26368117332458496,0.35699328780174255
-0.0357208251953125,-0.417236328125,-1.0041351318359375,0.23313844203948975,0.29515787959098816,0.3456633985042572
-0.04071044921875,-0.41510009765625,-1.0122528076171875,0.26210805773735046,0.338698148727417,0.3161108195781708
-0.045928955078125,-0.418243408203125,-1.0009307861328125,0.2704048454761505,0.34912389516830444,0.2860378921031952
-0.0504913330078125,-0.4307708740234375,-0.9770660400390625,0.2636505365371704,0.2938995361328125,0.2577234208583832
-0.04833984375,-0.44293212890625,-0.953826904296875,0.23352673649787903,0.18612885475158691,0.2352045327425003
-0.04046630859375,-0.445098876953125,-0.9553375244140625,0.19252577424049377,0.09192246943712234,0.21998615562915802
-0.0389251708984375,-0.4332733154296875,-0.9740142822265625,0.1272389143705368,0.04911268502473831,0.2110975980758667
-0.0540771484375,-0.412078857421875,-1.0035247802734375,0.049122005701065063,0.04793689772486687,0.21420709788799286
-0.0627899169921875,-0.389404296875,-1.0446624755859375,-0.01931777223944664,0.06263861060142517,0.23751108348369598
-0.0604400634765625,-0.3652191162109375,-1.09552001953125,-0.0531870536506176,0.07460632920265198,0.2624651789665222
-0.0615081787109375,-0.343109130859375,-1.14263916015625,-0.058153849095106125,0.08947155624628067,0.2607455849647522
-0.0685577392578125,-0.3200531005859375,-1.171051025390625,-0.04212028905749321,0.08057153970003128,0.2417532354593277
-0.0721588134765625,-0.2969970703125,-1.16510009765625,-0.011598865501582623,0.06983420997858047,0.23294669389724731
-0.064056396484375,-0.2784576416015625,-1.1396331787109375,0.051782239228487015,0.06882353872060776,0.2277040034532547
-0.0615234375,-0.265411376953125,-1.1103057861328125,0.13619565963745117,0.07815685123205185,0.20708739757537842
-0.0746917724609375,-0.2561798095703125,-1.0756988525390625,0.22266051173210144,0.10088001191616058,0.16565340757369995
-0.088592529296875,-0.2510833740234375,-1.025634765625,0.2958545684814453,0.1378907561302185,0.12495072185993195
-0.0908355712890625,-0.2509918212890625,-0.9737548828125,0.3443983793258667,0.17152781784534454,0.08847074210643768
-0.0813751220703125,-0.2559814453125,-0.9257354736328125,0.357259601354599,0.18589690327644348,0.05144881084561348
-0.0719451904296875,-0.266357421875,-0.8846893310546875,0.32786762714385986,0.1773710548877716,0.021138308569788933
-0.06732177734375,-0.2793731689453125,-0.84991455078125,0.2460465282201767,0.1532132476568222,0.01613715849816799
-0.0556182861328125,-0.2894134521484375,-0.8279571533203125,0.1513490378856659,0.1297374963760376,0.03478434681892395
-0.0433349609375,-0.29351806640625,-0.83258056640625,0.06730660051107407,0.11677375435829163,0.05583716556429863
-0.0389404296875,-0.2853546142578125,-0.859405517578125,0.016685768961906433,0.13378575444221497,0.06588101387023926
-0.04193115234375,-0.2733917236328125,-0.8958282470703125,-0.015599998645484447,0.15439383685588837,0.06546875834465027
-0.0415496826171875,-0.2621917724609375,-0.933837890625,-0.03641446679830551,0.1798935979604721,0.05318865180015564
-0.0338592529296875,-0.2546539306640625,-0.9703521728515625,-0.04700186476111412,0.21194234490394592,0.04087499529123306
-0.0223846435546875,-0.2488555908203125,-0.99822998046875,-0.045758966356515884,0.22525335848331451,0.03924087807536125
-0.008087158203125,-0.2447662353515625,-1.01678466796875,-0.030117688700556755,0.21825750172138214,0.046308111399412155
0.0049591064453125,-0.2438812255859375,-1.01702880859375,-0.013106747530400753,0.1736154705286026,0.06372971087694168
0.009063720703125,-0.2466888427734375,-1.007415771484375,0.004304467234760523,0.08755701035261154,0.07186753302812576
0.0029449462890625,-0.2504730224609375,-0.985748291015625,0.025009479373693466,-0.007181746419519186,0.05910087004303932
-0.0064849853515625,-0.2486419677734375,-0.954437255859375,0.036555878818035126,-0.08935517817735672,0.036979854106903076
-0.0196380615234375,-0.247467041015625,-0.924285888671875,0.023060578852891922,-0.14896151423454285,0.002293247962370515
-0.0330047607421875,-0.2490997314453125,-0.899383544921875,-0.010889398865401745,-0.17428524792194366,-0.042097385972738266
-0.04779052734375,-0.2541046142578125,-0.8855133056640625,-0.05020378157496452,-0.14210787415504456,-0.0817963257431984
-0.059112548828125,-0.2585296630859375,-0.8856353759765625,-0.08931735903024673,-0.08315534144639969,-0.11986435204744339
-0.065948486328125,-0.259063720703125,-0.8832855224609375,-0.11271456629037857,-0.02586222253739834,-0.15049177408218384
-0.064849853515625,-0.259490966796875,-0.891357421875,-0.10243555903434753,0.02791685238480568,-0.17773351073265076
-0.05975341796875,-0.260284423828125,-0.901458740234375,-0.06183407083153725,0.05325310304760933,-0.20155681669712067
-0.053985595703125,-0.26910400390625,-0.8955078125,-0.004254399798810482,0.042871035635471344,-0.22901082038879395
-0.0454559326171875,-0.2844390869140625,-0.8794097900390625,0.055980976670980453,0.023191604763269424,-0.24946175515651703
-0.0405120849609375,-0.3004608154296875,-0.8597869873046875,0.09001537412405014,0.004742290824651718,-0.271898090839386
-0.039886474609375,-0.316192626953125,-0.83966064453125,0.09136906266212463,0.0009299758239649236,-0.29611316323280334
-0.0386962890625,-0.3328704833984375,-0.8220672607421875,0.05606699734926224,-0.003266367129981518,-0.31120768189430237
-0.0272064208984375,-0.347442626953125,-0.81060791015625,6.125270374468528e-06,0.008983907289803028,-0.31123271584510803
-0.016998291015625,-0.35662841796875,-0.815887451171875,-0.0691622942686081,0.021931929513812065,-0.29956433176994324
-0.0076141357421875,-0.360870361328125,-0.8303985595703125,-0.13424807786941528,0.006109291687607765,-0.28088679909706116
0.0048828125,-0.3606414794921875,-0.8475494384765625,-0.17897401750087738,-0.017183780670166016,-0.2581905424594879
0.0121002197265625,-0.3607177734375,-0.868194580078125,-0.20372170209884644,-0.048709750175476074,-0.2458326667547226
0.0150909423828125,-0.3640899658203125,-0.8899688720703125,-0.20063376426696777,-0.06492680311203003,-0.2464425265789032
0.0151519775390625,-0.367706298828125,-0.9126739501953125,-0.17667943239212036,-0.06168093904852867,-0.2653246223926544
0.0084075927734375,-0.3693084716796875,-0.932220458984375,-0.14022208750247955,-0.06988321244716644,-0.29753580689430237
0.0038299560546875,-0.367645263671875,-0.93841552734375,-0.1144179180264473,-0.09120447933673859,-0.3193225860595703
0.0134124755859375,-0.368438720703125,-0.937774658203125,-0.10648010671138763,-0.10805083811283112,-0.33016273379325867
0.0223236083984375,-0.3729095458984375,-0.937713623046875,-0.11241309344768524,-0.09253232926130295,-0.3291395306587219
0.0259857177734375,-0.373321533203125,-0.9349517822265625,-0.11304479837417603,-0.08132894337177277,-0.3247530460357666
0.0316619873046875,-0.36920166015625,-0.92950439453125,-0.11332575976848602,-0.08937009423971176,-0.31222981214523315
0.0379486083984375,-0.368133544921875,-0.9289398193359375,-0.09417310357093811,-0.1075216680765152,-0.3088643550872803
0.03814697265625,-0.373748779296875,-0.93621826171875,-0.05784891918301582,-0.1204470545053482,-0.32127976417541504
0.0284423828125,-0.383758544921875,-0.94122314453125,-0.03099999390542507,-0.12953002750873566,-0.3481507897377014
0.014404296875,-0.3934783935546875,-0.93707275390625,-0.029411418363451958,-0.14169827103614807,-0.3677809536457062
0.0191192626953125,-0.399017333984375,-0.9248809814453125,-0.043063048273324966,-0.13452506065368652,-0.3716747462749481
0.0313720703125,-0.3966522216796875,-0.913909912109375,-0.06409962475299835,-0.11707815527915955,-0.3680672347545624
0.036163330078125,-0.3904571533203125,-0.90081787109375,-0.08813305199146271,-0.11920708417892456,-0.3532731235027313
0.0372467041015625,-0.3926544189453125,-0.893280029296875,-0.08862441033124924,-0.11926540732383728,-0.3382214605808258
0.03924560546875,-0.398162841796875,-0.8962249755859375,-0.0630202442407608,-0.14561738073825836,-0.33448052406311035
0.0345611572265625,-0.402008056640625,-0.9015350341796875,-0.034202978014945984,-0.18293306231498718,-0.3341795802116394
0.0317840576171875,-0.4021759033203125,-0.904693603515625,-0.0018402442801743746,-0.20737501978874207,-0.3305954933166504
0.033447265625,-0.4033355712890625,-0.907196044921875,0.029466545209288597,-0.21909959614276886,-0.33311137557029724
0.022979736328125,-0.406158447265625,-0.9136810302734375,0.06705493479967117,-0.22124503552913666,-0.33658334612846375
0.009765625,-0.40789794921875,-0.915374755859375,0.11079655587673187,-0.22876180708408356,-0.3434585630893707
0.00726318359375,-0.41156005859375,-0.9113006591796875,0.14716574549674988,-0.254036009311676,-0.34896063804626465
0.008880615234375,-0.4139556884765625,-0.904541015625,0.16812163591384888,-0.28441122174263,-0.3540142774581909
0.0110931396484375,-0.4181365966796875,-0.8988189697265625,0.16905294358730316,-0.2871691882610321,-0.3554161489009857
0.012176513671875,-0.42547607421875,-0.8952484130859375,0.13613760471343994,-0.275035560131073,-0.3538835048675537
0.009063720703125,-0.4320526123046875,-0.9006195068359375,0.10457301139831543,-0.2708275020122528,-0.3595142364501953
0.00579833984375,-0.43524169921875,-0.918426513671875,0.09795559197664261,-0.2619519829750061,-0.3765600621700287
0.007904052734375,-0.43145751953125,-0.94549560546875,0.10649927705526352,-0.2525249421596527,-0.38904228806495667
0.0124969482421875,-0.4250030517578125,-0.9683074951171875,0.12462209165096283,-0.2470840960741043,-0.3913877308368683
0.0142822265625,-0.4216766357421875,-0.98162841796875,0.14301495254039764,-0.23352034389972687,-0.3880598545074463
0.021270751953125,-0.4203643798828125,-0.988037109375,0.15803037583827972,-0.2280060052871704,-0.37787964940071106
0.031646728515625,-0.42059326171875,-0.9914398193359375,0.17015574872493744,-0.21288937330245972,-0.36743420362472534
0.037109375,-0.42333984375,-0.9965362548828125,0.1839035153388977,-0.20498085021972656,-0.36152732372283936
0.0413665771484375,-0.4296875,-1.0028533935546875,0.1918107122182846,-0.21837708353996277,-0.3743072748184204
0.0382843017578125,-0.4333648681640625,-1.0041046142578125,0.1823679506778717,-0.2353193163871765,-0.38746464252471924
0.032318115234375,-0.43487548828125,-1.003387451171875,0.1465311199426651,-0.26585644483566284,-0.38867050409317017
0.0327606201171875,-0.4297332763671875,-1.0107421875,0.08816021680831909,-0.26704686880111694,-0.37593740224838257
0.031036376953125,-0.4169769287109375,-1.0285797119140625,0.018434135243296623,-0.24537700414657593,-0.3505556285381317
0.032928466796875,-0.3988800048828125,-1.0504608154296875,-0.058154381811618805,-0.2097412496805191,-0.3324035108089447
0.0301513671875,-0.3765411376953125,-1.0713348388671875,-0.10995526611804962,-0.15985651314258575,-0.31939956545829773
0.0131378173828125,-0.35797119140625,-1.0897064208984375,-0.11710558086633682,-0.1147414967417717,-0.3176272213459015
0.0058135986328125,-0.3422088623046875,-1.1004486083984375,-0.06345540285110474,-0.12255360931158066,-0.3200879991054535
0.01507568359375,-0.3235321044921875,-1.096954345703125,0.13204112648963928,-0.352663516998291,-0.36076006293296814
0.033203125,-0.32366943359375,-1.0529937744140625,0.1849765032529831,-0.3124931752681732,-0.35359933972358704
0.0298004150390625,-0.287139892578125,-1.04693603515625,0.1390252709388733,-0.1973506212234497,-0.2835052013397217
0.03155517578125,-0.24212646484375,-1.04559326171875,0.04343775659799576,-0.02665078453719616,-0.2290305197238922
0.0348052978515625,-0.2687835693359375,-1.0393829345703125,-0.028718197718262672,0.09422476589679718,-0.21145099401474
0.009674072265625,-0.2938690185546875,-1.03411865234375,-0.04709640517830849,0.13166294991970062,-0.21278870105743408
-0.0213775634765625,-0.2964630126953125,-1.024383544921875,0.004816326778382063,0.1417025327682495,-0.2106752097606659
-0.018707275390625,-0.2823944091796875,-1.0288543701171875,0.0945558026432991,0.15903599560260773,-0.19733011722564697
-0.0101165771484375,-0.2674407958984375,-1.0294189453125,0.19204746186733246,0.19775702059268951,-0.17877666652202606
-0.0047760009765625,-0.256011962890625,-1.009307861328125,0.27118170261383057,0.24129676818847656,-0.16134761273860931
-0.0070953369140625,-0.24896240234375,-0.97625732421875,0.3385085463523865,0.2955576181411743,-0.1355533003807068
-0.0084075927734375,-0.2463226318359375,-0.9452362060546875,0.3820538818836212,0.30900418758392334,-0.12630361318588257
-0.0086822509765625,-0.2511138916015625,-0.9077301025390625,0.3882417380809784,0.2633296251296997,-0.20809167623519897
-0.0116424560546875,-0.260284423828125,-0.8769683837890625,0.3549730181694031,0.16858768463134766,-0.12896516919136047
-0.0019378662109375,-0.2676544189453125,-0.852142333984375,0.28097307682037354,0.07035885006189346,-0.12537842988967896
0.0023345947265625,-0.2669525146484375,-0.8363800048828125,0.1804904192686081,-0.025496572256088257,-0.11684752255678177
-0.0032196044921875,-0.2623748779296875,-0.8338623046875,0.06275126338005066,-0.09579017758369446,-0.12093254923820496
-0.0130767822265625,-0.2596435546875,-0.84814453125,-0.05914001911878586,-0.13302595913410187,-0.136975958943367
-0.0272979736328125,-0.255645751953125,-0.882293701171875,-0.17610472440719604,-0.12910552322864532,-0.1622416377067566
-0.042205810546875,-0.247100830078125,-0.9224700927734375,-0.26545804738998413,-0.10617250949144363,-0.18607106804847717
-0.050048828125,-0.241973876953125,-0.9580535888671875,-0.32693764567375183,-0.0939435362815857,-0.20671695470809937
-0.0578155517578125,-0.2442474365234375,-0.9764862060546875,-0.35445794463157654,-0.09724052995443344,-0.2199094593524933
-0.0605316162109375,-0.24755859375,-0.9886474609375,-0.3273669481277466,-0.11643286794424057,-0.23530013859272003
-0.0579986572265625,-0.247283935546875,-1.001129150390625,-0.27172738313674927,-0.13443024456501007,-0.24945670366287231
-0.058380126953125,-0.2464447021484375,-1.0084686279296875,-0.21405023336410522,-0.11964836716651917,-0.2620558440685272
-0.062042236328125,-0.2505950927734375,-1.0118865966796875,-0.1633812040090561,-0.06634360551834106,-0.25842782855033875
-0.0631103515625,-0.25909423828125,-1.002410888671875,-0.13403236865997314,0.00754926260560751,-0.25342828035354614
-0.0587310791015625,-0.2720947265625,-0.98138427734375,-0.09145881235599518,0.10569819808006287,-0.2304995208978653
-0.0518646240234375,-0.284515380859375,-0.9586639404296875,-0.026697391644120216,0.1503080129623413,-0.2249862402677536
-0.044647216796875,-0.2935333251953125,-0.9169769287109375,0.020430972799658775,0.15075862407684326,-0.23360688984394073
-0.0361480712890625,-0.3056182861328125,-0.859710693359375,0.026428410783410072,0.1254252940416336,-0.22466427087783813
-0.0204010009765625,-0.3193359375,-0.8056182861328125,-0.0025249430909752846,0.07904128730297089,-0.19737166166305542
-0.0086212158203125,-0.3328094482421875,-0.7686767578125,-0.05206160247325897,0.04008616507053375,-0.17220719158649445
-0.004150390625,-0.34466552734375,-0.7510528564453125,-0.1094636395573616,0.003004844533279538,-0.15957555174827576
-0.0076904296875,-0.3513336181640625,-0.753662109375,-0.15842346847057343,0.001086037140339613,-0.14703738689422607
-0.0135345458984375,-0.3540802001953125,-0.775238037109375,-0.2066916525363922,0.015266304835677147,-0.1297532021999359
-0.0194549560546875,-0.355194091796875,-0.8128509521484375,-0.2340942621231079,0.03428740054368973,-0.11056113243103027
-0.02410888671875,-0.353973388671875,-0.8553009033203125,-0.2509949505329132,0.059836968779563904,-0.09748447686433792
-0.027557373046875,-0.3540496826171875,-0.8885650634765625,-0.26372137665748596,0.09332249313592911,-0.08560411632061005
-0.0279998779296875,-0.3568267822265625,-0.916229248046875,-0.2463778257369995,0.12123721092939377,-0.061595186591148376
-0.016571044921875,-0.3556671142578125,-0.936798095703125,-0.2018582820892334,0.11982094496488571,-0.04384628310799599
-0.005950927734375,-0.34857177734375,-0.9456634521484375,-0.1356544941663742,0.11577267199754715,-0.04316265136003494
-0.00811767578125,-0.34716796875,-0.945281982421875,0.0015486282063648105,0.10523480921983719,-0.0811861976981163
-0.017425537109375,-0.3527679443359375,-0.9400634765625,0.01828419789671898,-0.0537460520863533,-0.13463078439235687
-0.013031005859375,-0.363922119140625,-0.9102783203125,-0.03786296024918556,-0.09509136527776718,-0.1308046132326126
0.0056610107421875,-0.3705596923828125,-0.897186279296875,-0.1362057775259018,-0.06618914008140564,-0.10372693091630936
0.0081634521484375,-0.372314453125,-0.8907012939453125,-0.25102344155311584,-0.021642444655299187,-0.11395586282014847
-0.0102081298828125,-0.3655853271484375,-0.8856658935546875,-0.3231085538864136,0.06435289233922958,-0.13061366975307465
-0.0274200439453125,-0.357818603515625,-0.8945159912109375,-0.3465147912502289,0.11991707980632782,-0.14442482590675354
-0.0273284912109375,-0.3701324462890625,-0.90106201171875,-0.35141128301620483,0.07495839893817902,-0.15218687057495117
-0.0177154541015625,-0.385406494140625,-0.9091033935546875,-0.3249751627445221,0.022593459114432335,-0.13510295748710632
-0.0114898681640625,-0.390869140625,-0.9317474365234375,-0.29504308104515076,0.013228187337517738,-0.11680411547422409
-0.013641357421875,-0.390899658203125,-0.9526824951171875,-0.26007765531539917,0.017888719215989113,-0.09251821786165237
-0.0116424560546875,-0.384063720703125,-0.961151123046875,-0.20958171784877777,0.010392719879746437,-0.07741383463144302
-0.00341796875,-0.3773193359375,-0.9647369384765625,-0.15995503962039948,-0.005816343706101179,-0.0499262809753418
-0.0002899169921875,-0.3757171630859375,-0.96099853515625,-0.14176751673221588,0.001142229768447578,-0.04513951390981674
0.0018310546875,-0.3778076171875,-0.9522552490234375,-0.14047428965568542,-0.0023939155507832766,-0.03127589821815491
0.0037078857421875,-0.381256103515625,-0.9463348388671875,-0.14805097877979279,0.0022069616243243217,-0.016834907233715057
0.0003204345703125,-0.3841094970703125,-0.9533538818359375,-0.1490027904510498,0.030669229105114937,-0.009866745211184025
-0.0059967041015625,-0.385009765625,-0.96484375,-0.14008253812789917,0.06102580204606056,0.005046690348535776
-0.0092620849609375,-0.383697509765625,-0.973541259765625,-0.12413898855447769,0.08623262494802475,0.023739950731396675
-0.010284423828125,-0.3848876953125,-0.9704437255859375,-0.09875986725091934,0.10743564367294312,0.03989974409341812
-0.0106201171875,-0.3854522705078125,-0.95867919921875,-0.06853938102722168,0.11015260219573975,0.05314444378018379
-0.004486083984375,-0.38177490234375,-0.9452056884765625,-0.03074086830019951,0.11800786107778549,0.07097936421632767
0.001068115234375,-0.378662109375,-0.93072509765625,-0.008643555454909801,0.12680748105049133,0.07749798893928528
0.004150390625,-0.3785552978515625,-0.917816162109375,0.01702345907688141,0.14277338981628418,0.07936406135559082
0.00421142578125,-0.37957763671875,-0.9143829345703125,0.04965756833553314,0.14665548503398895,0.08660653233528137
0.01165771484375,-0.376678466796875,-0.91497802734375,0.07748200744390488,0.1363208293914795,0.10202144086360931
0.0193023681640625,-0.3684844970703125,-0.90802001953125,0.08803238719701767,0.13627980649471283,0.12085770815610886
0.0230560302734375,-0.365478515625,-0.9010772705078125,0.08182135969400406,0.1377677172422409,0.13610030710697174
0.0224609375,-0.366363525390625,-0.8949432373046875,0.06452306360006332,0.13775892555713654,0.15279753506183624
0.024383544921875,-0.3687591552734375,-0.893463134765625,0.04800480976700783,0.13735519349575043,0.16937917470932007
0.0290374755859375,-0.369171142578125,-0.8926849365234375,0.020745491608977318,0.1385197937488556,0.18636853992938995
0.02783203125,-0.367523193359375,-0.89263916015625,-0.005083175376057625,0.14220480620861053,0.1981453150510788
0.020599365234375,-0.3656463623046875,-0.89715576171875,-0.026084065437316895,0.1472530961036682,0.20962326228618622
0.00848388671875,-0.3636627197265625,-0.9019775390625,-0.037881601601839066,0.1381826400756836,0.20220796763896942
0.0016326904296875,-0.3652496337890625,-0.914093017578125,-0.03729384392499924,0.15283827483654022,0.19235986471176147
0.0018310546875,-0.366912841796875,-0.932525634765625,-0.04517147317528725,0.17376166582107544,0.19285733997821808
0.0082244873046875,-0.36663818359375,-0.93536376953125,-0.0650157481431961,0.16861803829669952,0.20662134885787964
0.0098114013671875,-0.3654022216796875,-0.93389892578125,-0.08273855596780777,0.11995036900043488,0.2197270393371582
0.01776123046875,-0.363616943359375,-0.93609619140625,0.015474297106266022,-0.23174934089183807,0.19757379591464996
0.03314208984375,-0.3631591796875,-0.9139862060546875,0.024033963680267334,-0.3063759207725525,0.17213155329227448
0.032073974609375,-0.356658935546875,-0.9347381591796875,-0.06980890780687332,-0.2610859274864197,0.21615439653396606
0.023040771484375,-0.3145294189453125,-0.9979095458984375,-0.22936128079891205,-0.14326661825180054,0.2683750092983246
0.0139923095703125,-0.313323974609375,-1.0657501220703125,-0.35298362374305725,0.004570250865072012,0.30196118354797363
-0.00946044921875,-0.3170318603515625,-1.13690185546875,-0.40216901898384094,0.09606102108955383,0.3003970980644226
-0.0278167724609375,-0.306915283203125,-1.1995086669921875,-0.3629550337791443,0.09667541086673737,0.2739037275314331
-0.0221405029296875,-0.2885284423828125,-1.242340087890625,-0.23373472690582275,0.03551005572080612,0.2604781985282898
-0.009246826171875,-0.26177978515625,-1.26373291015625,-0.053767092525959015,-0.01780456304550171,0.259602814912796
-0.0036468505859375,-0.23895263671875,-1.2635345458984375,0.11674845218658447,-0.04404602199792862,0.2520900368690491
-0.0027618408203125,-0.2262725830078125,-1.25201416015625,0.24739913642406464,-0.03996605798602104,0.24165816605091095
-0.001861572265625,-0.2241058349609375,-1.227874755859375,0.3328615725040436,0.010328005068004131,0.23469053208827972
0.001007080078125,-0.2252044677734375,-1.1908721923828125,0.3761685788631439,0.06550843268632889,0.2284286469221115
0.005767822265625,-0.2242584228515625,-1.144683837890625,0.39632177352905273,0.10616345703601837,0.227888822555542
0.0219268798828125,-0.223419189453125,-1.0954132080078125,0.40125927329063416,0.12887968122959137,0.2127775102853775
0.04119873046875,-0.2237701416015625,-1.042877197265625,0.4043791592121124,0.11630477011203766,0.2429705709218979
0.0553741455078125,-0.22406005859375,-0.993316650390625,0.3982996940612793,0.04950710013508797,0.24919730424880981
0.06793212890625,-0.2262115478515625,-0.951904296875,0.3708265423774719,-0.040584709495306015,0.253408819437027
0.079864501953125,-0.2270660400390625,-0.9241180419921875,0.3201838731765747,-0.12972523272037506,0.24572187662124634
0.080657958984375,-0.22540283203125,-0.9059295654296875,0.24682337045669556,-0.20451825857162476,0.23015064001083374
0.07342529296875,-0.2231292724609375,-0.896392822265625,0.18177805840969086,-0.288370281457901,0.21943993866443634
0.069000244140625,-0.217803955078125,-0.9072418212890625,0.17095816135406494,-0.39077335596084595,0.19107195734977722
0.062103271484375,-0.22125244140625,-0.9341278076171875,0.07024353742599487,-0.24425075948238373,0.18930281698703766
0.0356597900390625,-0.2118377685546875,-1.009735107421875,-0.026449983939528465,-0.060812484472990036,0.20543943345546722
0.022369384765625,-0.2097015380859375,-1.051605224609375,-0.07406357675790787,0.11644032597541809,0.1737678050994873
0.0084228515625,-0.2236328125,-1.0613555908203125,-0.05566166341304779,0.22382590174674988,0.11160535365343094
-0.000762939453125,-0.2274169921875,-1.0596466064453125,0.0027475832030177116,0.22722569108009338,0.06863977760076523
0.0233306884765625,-0.2229156494140625,-1.031494140625,0.07062304019927979,0.20472730696201324,0.05850112810730934
0.051727294921875,-0.216705322265625,-0.991302490234375,0.1280066967010498,0.17456355690956116,0.04212215170264244
0.0558929443359375,-0.2129364013671875,-0.947906494140625,0.16523157060146332,0.179958313703537,0.014590926468372345
0.0459442138671875,-0.2190704345703125,-0.9070892333984375,0.17541363835334778,0.19886836409568787,-0.0810152217745781
0.0391845703125,-0.23004150390625,-0.8677215576171875,0.17373929917812347,0.20631642639636993,-0.016511332243680954
0.0397491455078125,-0.24371337890625,-0.8328094482421875,0.15729428827762604,0.2097979635000229,-0.036554813385009766
0.043548583984375,-0.25628662109375,-0.803802490234375,0.13829421997070312,0.18642820417881012,-0.042866241186857224
0.053131103515625,-0.2590789794921875,-0.7899627685546875,0.11230363696813583,0.16115427017211914,-0.03924540802836418
0.066497802734375,-0.263397216796875,-0.78436279296875,0.08014969527721405,0.13804176449775696,-0.019757458940148354
0.0732879638671875,-0.268096923828125,-0.778289794921875,0.04474829509854317,0.0976160392165184,0.0006562029011547565
0.07391357421875,-0.2757720947265625,-0.7798309326171875,0.012724850326776505,0.06178294122219086,0.016637299209833145
0.0724639892578125,-0.287139892578125,-0.7913970947265625,-0.012044944800436497,0.02574637532234192,0.022899989038705826
0.066986083984375,-0.2980804443359375,-0.808074951171875,-0.04183826223015785,-0.01432487741112709,0.024930117651820183
0.0581512451171875,-0.305938720703125,-0.82415771484375,-0.07717547565698624,-0.04211363196372986,0.02508564479649067
0.0489501953125,-0.312286376953125,-0.8455047607421875,-0.11072304844856262,-0.03876550495624542,0.024769794195890427
0.0372314453125,-0.3155364990234375,-0.8686676025390625,-0.15327370166778564,-0.00535481795668602,0.030613036826252937
0.026947021484375,-0.3185882568359375,-0.8878936767578125,-0.19679056107997894,0.03913009166717529,0.034273549914360046
0.0221710205078125,-0.32080078125,-0.9039764404296875,-0.2157176434993744,0.0931834727525711,0.03187723830342293
0.025177001953125,-0.319061279296875,-0.9202728271484375,-0.1975167989730835,0.12236479669809341,0.023870445787906647
0.0281524658203125,-0.3164520263671875,-0.936370849609375,-0.1563965380191803,0.12535180151462555,0.007097324356436729
0.027496337890625,-0.3190155029296875,-0.943695068359375,-0.1207549124956131,0.13047438859939575,-0.02605583518743515
0.028411865234375,-0.32623291015625,-0.9467010498046875,-0.09849648177623749,0.14208923280239105,-0.04990550875663757
0.036712646484375,-0.329010009765625,-0.944427490234375,-0.08829284459352493,0.13567900657653809,-0.0640181303024292
0.04779052734375,-0.3300628662109375,-0.9407501220703125,-0.10626146197319031,0.12488467991352081,-0.07193277776241302
0.052825927734375,-0.3365020751953125,-0.9386138916015625,-0.1341245174407959,0.10381773859262466,-0.0726262629032135
0.0584716796875,-0.3456268310546875,-0.9441986083984375,-0.1446535885334015,0.08110470324754715,-0.0621616430580616
0.0647430419921875,-0.3529052734375,-0.9634857177734375,-0.0962519645690918,0.07334958016872406,-0.045100897550582886
0.06463623046875,-0.3538818359375,-0.9814605712890625,0.003178216516971588,0.06664294004440308,-0.04772278293967247
0.0509033203125,-0.354400634765625,-0.98291015625,0.19210392236709595,0.037629932165145874,-0.08170577883720398
0.0372314453125,-0.3596954345703125,-0.9719696044921875,0.24526701867580414,-0.13544517755508423,-0.1195431724190712
0.04620361328125,-0.3731689453125,-0.9315185546875,0.2215465009212494,-0.11362110078334808,-0.08702331781387329
0.0647430419921875,-0.3877716064453125,-0.911163330078125,0.14627625048160553,-0.032102275639772415,-0.03326607868075371
0.0559234619140625,-0.39837646484375,-0.89410400390625,0.04244599491357803,0.04923092946410179,-0.018909242004156113
0.028961181640625,-0.4116058349609375,-0.8718109130859375,-0.025546371936798096,0.10547902435064316,-0.02954857051372528
0.0145416259765625,-0.422454833984375,-0.86956787109375,-0.015563246794044971,0.1656757891178131,-0.028863605111837387
0.0218353271484375,-0.416107177734375,-0.88592529296875,0.053762298077344894,0.1809719204902649,-0.0164807066321373
0.0333251953125,-0.42633056640625,-0.89886474609375,0.14150786399841309,0.1050284132361412,-0.02159956842660904
0.0404815673828125,-0.4394989013671875,-0.9037322998046875,0.21943515539169312,0.06389082968235016,-0.020599817857146263
0.03753662109375,-0.4449615478515625,-0.904205322265625,0.26674699783325195,0.08160058408975601,-0.010529872961342335
0.0304412841796875,-0.446746826171875,-0.8978729248046875,0.2731034457683563,0.10766761004924774,-0.005067463032901287
0.0306854248046875,-0.448577880859375,-0.8962860107421875,0.2649509608745575,0.1363953948020935,0.0006820355774834752
0.0408935546875,-0.4492340087890625,-0.8908538818359375,0.23916411399841309,0.16228078305721283,0.0007542071980424225
0.056976318359375,-0.4467620849609375,-0.8909149169921875,0.20351503789424896,0.1680113822221756,-0.08063625544309616
0.0737762451171875,-0.443115234375,-0.9028472900390625,0.17113499343395233,0.16091512143611908,-0.04097246751189232
0.093475341796875,-0.440338134765625,-0.9262542724609375,0.16627871990203857,0.1763790249824524,-0.0019528960110619664
0.0967559814453125,-0.434112548828125,-0.952880859375,0.18908603489398956,0.16669709980487823,0.03953036665916443
0.0900421142578125,-0.4282684326171875,-0.9744873046875,0.21998828649520874,0.12263031303882599,0.05762201547622681
0.0818634033203125,-0.4317779541015625,-0.999267578125,0.26734063029289246,0.10089705139398575,0.05512184277176857
0.0886688232421875,-0.438446044921875,-1.02191162109375,0.43525266647338867,0.1018398106098175,0.04638480767607689
0.100311279296875,-0.4361114501953125,-1.0354156494140625,0.5017850995063782,-0.1093139722943306,-0.020071977749466896
0.103851318359375,-0.45318603515625,-1.0288543701171875,0.42459577322006226,-0.2148028463125229,-0.04513179138302803
0.115386962890625,-0.4569854736328125,-1.0289764404296875,0.3220137357711792,-0.07387342303991318,0.010341853834688663
0.120574951171875,-0.456939697265625,-1.0330810546875,0.21808333694934845,0.02117266319692135,0.06699500977993011
0.1064910888671875,-0.449615478515625,-1.0318145751953125,0.11857005953788757,0.04514457657933235,0.07245448976755142
0.0917816162109375,-0.4570770263671875,-1.0218963623046875,0.07572831958532333,0.030704116448760033,0.053344447165727615
0.091583251953125,-0.4533233642578125,-1.0062103271484375,0.07910600304603577,-0.025196965783834457,0.039322905242443085
0.0845947265625,-0.4380645751953125,-0.9782257080078125,0.04632408916950226,-0.16611254215240479,0.014960307627916336
0.0833740234375,-0.4387054443359375,-0.93621826171875,-0.043053992092609406,-0.3179321587085724,-0.01624501682817936
0.0826568603515625,-0.4429168701171875,-0.9056854248046875,-0.1670081615447998,-0.3611563444137573,-0.024525050073862076
0.0705108642578125,-0.443878173828125,-0.899993896484375,-0.30848991870880127,-0.32607051730155945,-0.0366634726524353
0.04754638671875,-0.4325408935546875,-0.91461181640625,-0.4288123548030853,-0.2778033912181854,-0.06057652831077576
0.0265960693359375,-0.4118194580078125,-0.94232177734375,-0.5078224539756775,-0.22528637945652008,-0.08417613059282303
0.0199737548828125,-0.3873138427734375,-0.9782867431640625,-0.5347520709037781,-0.19082188606262207,-0.18031251430511475
0.0190582275390625,-0.3633270263671875,-1.015869140625,-0.5116060376167297,-0.2203131914138794,-0.12238183617591858
0.0359344482421875,-0.3344879150390625,-1.051788330078125,-0.438252717256546,-0.3209993243217468,-0.13288986682891846
0.0499267578125,-0.301849365234375,-1.0770721435546875,-0.09895454347133636,-0.803212583065033,-0.17435050010681152
0.052490234375,-0.282989501953125,-1.0756683349609375,0.15701252222061157,-0.8143701553344727,-0.23091498017311096
0.042022705078125,-0.267333984375,-1.1145172119140625,0.2881162166595459,-0.6852952837944031,-0.18969856202602386
0.0296173095703125,-0.2194366455078125,-1.1447906494140625,0.29032397270202637,-0.34834012389183044,-0.09173578023910522
0.031402587890625,-0.2085418701171875,-1.1549530029296875,0.23543569445610046,0.06173953041434288,-0.031124362722039223
-0.00592041015625,-0.2228851318359375,-1.1405792236328125,0.20083989202976227,0.31672948598861694,-0.0324157290160656
-0.038177490234375,-0.247711181640625,-1.079498291015625,0.21645747125148773,0.36035844683647156,-0.030074279755353928
-0.0001220703125,-0.26611328125,-1.0108795166015625,0.2883196771144867,0.21571151912212372,-0.0034290861804038286
0.0443115234375,-0.2604217529296875,-0.9518280029296875,0.3801020681858063,0.028855349868535995,0.03339017927646637
0.0593109130859375,-0.247222900390625,-0.9084625244140625,0.43054527044296265,-0.15230831503868103,0.05073614791035652
0.055999755859375,-0.2381591796875,-0.8828277587890625,0.415536493062973,-0.2755016088485718,0.058043595403432846
0.0411834716796875,-0.2371368408203125,-0.8756866455078125,0.3672989010810852,-0.265472948551178,0.06281251460313797
0.0180511474609375,-0.2433929443359375,-0.8933563232421875,0.29176339507102966,-0.18221375346183777,0.046906787902116776
-0.0094757080078125,-0.2448883056640625,-0.908782958984375,0.200576514005661,-0.09353607892990112,0.010099506005644798
-0.02825927734375,-0.2435302734375,-0.9132537841796875,0.13209359347820282,-0.03459233045578003,-0.034326549619436264
-0.0265045166015625,-0.2406768798828125,-0.9201507568359375,0.10753577947616577,-0.0009901633020490408,-0.07191946357488632
-0.0112762451171875,-0.233245849609375,-0.927276611328125,0.12613530457019806,0.040720000863075256,-0.11620649695396423
0.0023651123046875,-0.2250823974609375,-0.924713134765625,0.17959266901016235,0.0645236000418663,-0.17888745665550232
0.0076751708984375,-0.2180938720703125,-0.90869140625,0.14399445056915283,-0.10276685655117035,-0.28780993819236755
0.030364990234375,-0.233612060546875,-0.8924560546875,0.10794590413570404,-0.08675327152013779,-0.20683494210243225
0.0530548095703125,-0.2500152587890625,-0.8972930908203125,0.058944541960954666,-0.0037476003635674715,-0.18648679554462433
0.0550537109375,-0.2559814453125,-0.8889312744140625,0.016507070511579514,0.03248550370335579,-0.16588670015335083
0.05474853515625,-0.2480621337890625,-0.876434326171875,-0.0155517952516675,0.02111300826072693,-0.14603763818740845
0.0574951171875,-0.2630767822265625,-0.8706207275390625,-0.02702469378709793,-0.008558334782719612,-0.12733212113380432
0.04193115234375,-0.2929534912109375,-0.8762969970703125,-0.01576804369688034,0.019832294434309006,-0.11308900266885757
0.027618408203125,-0.3130645751953125,-0.889434814453125,0.012116317637264729,0.10200013220310211,-0.08872587233781815
0.0355072021484375,-0.3104095458984375,-0.899749755859375,0.04385507106781006,0.1656387597322464,-0.056653425097465515
0.05145263671875,-0.29656982421875,-0.8960723876953125,0.08142481744289398,0.1934397667646408,-0.011985289864242077
0.067474365234375,-0.292327880859375,-0.8878326416015625,0.11587759852409363,0.20971381664276123,-0.018867164850234985
0.081634521484375,-0.299835205078125,-0.8699493408203125,0.1410551220178604,0.21156896650791168,0.07428408414125443
0.0877532958984375,-0.3086700439453125,-0.8507080078125,0.1460818350315094,0.20214112102985382,0.10643935948610306
0.0865325927734375,-0.3177337646484375,-0.834808349609375,0.133950874209404,0.19264347851276398,0.1348946988582611
0.073883056640625,-0.325958251953125,-0.82470703125,0.10310481488704681,0.19945451617240906,0.1506262570619583
0.0641021728515625,-0.3372802734375,-0.829833984375,0.06125909462571144,0.24916322529315948,0.15749748051166534
0.0540924072265625,-0.34564208984375,-0.8380889892578125,0.0065138256177306175,0.32367900013923645,0.16289784014225006
0.0561370849609375,-0.35198974609375,-0.8455352783203125,-0.030464697629213333,0.37063586711883545,0.20364579558372498
0.068084716796875,-0.353179931640625,-0.8516693115234375,-0.05044160038232803,0.36866724491119385,0.2367827147245407
0.069000244140625,-0.362396240234375,-0.8592529296875,-0.06300453096628189,0.3363356590270996,0.23687592148780823
0.054168701171875,-0.37432861328125,-0.856201171875,-0.10032100975513458,0.2967435121536255,0.2264443188905716
0.0476531982421875,-0.3795623779296875,-0.851043701171875,-0.1658177226781845,0.26799923181533813,0.2201281040906906
0.0467071533203125,-0.3839263916015625,-0.85479736328125,-0.24118837714195251,0.2731918692588806,0.2316311001777649
0.056610107421875,-0.38922119140625,-0.8698577880859375,-0.2782207131385803,0.29874861240386963,0.2812820076942444
0.065704345703125,-0.3856048583984375,-0.899505615234375,-0.2670593857765198,0.33013850450515747,0.3461659252643585
0.0553131103515625,-0.3809814453125,-0.9382171630859375,-0.2234698385000229,0.3388739228248596,0.37869536876678467
0.0355377197265625,-0.3809356689453125,-0.9567413330078125,-0.17373690009117126,0.3420979678630829,0.3892372250556946
0.020294189453125,-0.38946533203125,-0.9621734619140625,-0.12178076058626175,0.3592551052570343,0.3804735839366913
0.0092010498046875,-0.406585693359375,-0.95703125,-0.09665437042713165,0.41361820697784424,0.3700297176837921
0.018280029296875,-0.4116058349609375,-0.9456939697265625,-0.08427946269512177,0.4621383547782898,0.37802985310554504
0.037384033203125,-0.4032745361328125,-0.9296112060546875,-0.0846344605088234,0.5116736888885498,0.406873494386673
0.0487213134765625,-0.39727783203125,-0.915191650390625,-0.11524030566215515,0.5600433349609375,0.4373911917209625
0.0517120361328125,-0.40228271484375,-0.89678955078125,-0.14384718239307404,0.6258247494697571,0.47083914279937744
0.0493316650390625,-0.414154052734375,-0.9015960693359375,-0.13504597544670105,0.7049736380577087,0.5087572336196899
0.0460357666015625,-0.4178924560546875,-0.9085540771484375,-0.09486579149961472,0.7183027267456055,0.5450188517570496
0.05377197265625,-0.4189910888671875,-0.911834716796875,-0.038849927484989166,0.7009541392326355,0.5713564157485962
0.0695648193359375,-0.425567626953125,-0.9229583740234375,0.027574636042118073,0.7001168131828308,0.6024507284164429
0.0821990966796875,-0.4311370849609375,-0.9242095947265625,0.09555581957101822,0.7352441549301147,0.645108163356781
0.0827178955078125,-0.430450439453125,-0.9043731689453125,0.13384754955768585,0.7651954293251038,0.663644015789032
0.0791778564453125,-0.4305419921875,-0.8644561767578125,0.15089523792266846,0.733572781085968,0.6274785399436951
0.086090087890625,-0.46014404296875,-0.73480224609375,-0.004061320796608925,0.41439852118492126,0.5562424659729004
0.1278076171875,-0.4952392578125,-0.7041473388671875,-0.19416414201259613,0.2974601686000824,0.5045547485351562
0.1645355224609375,-0.4710845947265625,-0.7689361572265625,-0.3572353720664978,0.4187586307525635,0.5215801000595093
0.1602935791015625,-0.46435546875,-0.8376922607421875,-0.44060587882995605,0.5011445879936218,0.5575910806655884
0.1310272216796875,-0.43951416015625,-0.9002532958984375,-0.4316187798976898,0.5375233888626099,0.5655962824821472
0.1136474609375,-0.433807373046875,-0.9395599365234375,-0.3263069987297058,0.49812138080596924,0.5653733611106873
0.116790771484375,-0.4466400146484375,-0.94134521484375,-0.20603226125240326,0.3887280523777008,0.5432736873626709
0.0955352783203125,-0.4471435546875,-0.91510009765625,-0.1364545077085495,0.27915945649147034,0.5072195529937744
