accX,accY,accZ,gyroX,gyroY,gyroZ
-0.23187255859375,-0.343994140625,-0.819183349609375,-0.6606506109237671,1.3365780115127563,0.2873007655143738
-0.2318267822265625,-0.3330078125,-0.841461181640625,-0.7652878165245056,1.336609125137329,0.29879602789878845
-0.214385986328125,-0.3306121826171875,-0.93017578125,-0.7699198722839355,1.104778528213501,0.3302482068538666
-0.1941070556640625,-0.33349609375,-1.0231475830078125,-0.6895413994789124,0.6594940423965454,0.38895654678344727
-0.1915435791015625,-0.3350677490234375,-1.08856201171875,-0.5896643400192261,0.2973935902118683,0.44987714290618896
-0.1969451904296875,-0.3194580078125,-1.097198486328125,-0.546107828617096,0.18269763886928558,0.4994739890098572
-0.21246337890625,-0.278350830078125,-1.0532073974609375,-0.5878877639770508,0.213187113404274,0.5289556980133057
-0.234130859375,-0.2401580810546875,-0.986846923828125,-0.6771089434623718,0.3244648873806,0.5527886152267456
-0.229339599609375,-0.2209014892578125,-0.9204864501953125,-0.8075929284095764,0.4170773923397064,0.5304476022720337
-0.261962890625,-0.20263671875,-0.880035400390625,-0.9387296438217163,0.6180056929588318,0.4070620536804199
-0.259979248046875,-0.2181396484375,-0.8657379150390625,-1.0881731510162354,1.065844178199768,0.30291885137557983
-0.282470703125,-0.2476806640625,-0.9400634765625,-1.2084133625030518,1.7194992303848267,0.3061697781085968
-0.2900238037109375,-0.24835205078125,-1.040252685546875,-1.1997748613357544,2.437877655029297,0.3985934555530548
-0.19000244140625,-0.221588134765625,-1.17913818359375,-1.0418254137039185,2.52976655960083,0.579211950302124
-0.0509033203125,-0.1869049072265625,-1.205657958984375,-0.8060107827186584,2.107896089553833,0.7942265272140503
0.0958099365234375,-0.1768798828125,-1.1274871826171875,-0.5676887631416321,1.4611119031906128,1.0435212850570679
0.1502838134765625,-0.1798858642578125,-1.0661773681640625,-0.38792508840560913,0.9516534209251404,1.2934832572937012
0.10284423828125,-0.1632080078125,-1.0450439453125,-0.28768372535705566,0.819507896900177,1.4928187131881714
0.0152740478515625,-0.116058349609375,-1.0586395263671875,-0.24228161573410034,1.1156977415084839,1.5924779176712036
-0.0390625,-0.0945587158203125,-1.0752410888671875,-0.23360475897789001,1.4717035293579102,1.59648597240448
-0.0825653076171875,-0.0986175537109375,-1.0707855224609375,-0.26332804560661316,1.546047568321228,1.5072200298309326
-0.0953826904296875,-0.1069183349609375,-1.0330657958984375,-0.28420430421829224,1.4087040424346924,1.3567769527435303
-0.059478759765625,-0.1324920654296875,-0.9875640869140625,-0.2862296402454376,1.2683157920837402,1.1553617715835571
-0.04345703125,-0.1575927734375,-0.9821929931640625,-0.2558794319629669,1.159850001335144,0.9535485506057739
-0.0751495361328125,-0.1555328369140625,-1.0149078369140625,-0.18548224866390228,1.0986067056655884,0.7723076343536377
-0.09088134765625,-0.1317901611328125,-1.0413970947265625,-0.07628890872001648,0.995011568069458,0.6246289610862732
-0.06463623046875,-0.11175537109375,-1.0499114990234375,0.03935166820883751,0.7731984853744507,0.5085157155990601
-0.0291290283203125,-0.1035003662109375,-1.0482940673828125,0.1263030767440796,0.5346271991729736,0.40814462304115295
-0.0156402587890625,-0.1103515625,-1.0290985107421875,0.16050419211387634,0.370710164308548,0.3223609924316406
-0.0153656005859375,-0.1261444091796875,-0.9911041259765625,0.106949083507061,0.22260618209838867,0.24615943431854248
-0.0107421875,-0.1437225341796875,-0.93756103515625,-0.03832342103123665,0.05742600932717323,0.16806304454803467
-0.0232391357421875,-0.1550445556640625,-0.8923492431640625,-0.23360450565814972,-0.027220701798796654,0.0672522708773613
-0.023284912109375,-0.1678314208984375,-0.8804473876953125,-0.43570592999458313,0.056294430047273636,-0.01624448411166668
-0.0165557861328125,-0.1750030517578125,-0.91162109375,-0.6048992276191711,0.2213110774755478,-0.036912478506565094
-0.00396728515625,-0.1644287109375,-0.9376068115234375,-0.6916929483413696,0.40406277775764465,0.011593006551265717
0.024200439453125,-0.15960693359375,-0.9468231201171875,-0.7211366295814514,0.5318308472633362,0.15391552448272705
0.060394287109375,-0.153564453125,-0.9625701904296875,-0.711679220199585,0.5739301443099976,0.36260882019996643
0.099456787109375,-0.1252593994140625,-0.9805755615234375,-0.6836385130882263,0.4719182550907135,0.5954902768135071
0.1403961181640625,-0.112060546875,-0.9911041259765625,-0.6915608644485474,0.22153984010219574,0.7747330069541931
0.1436920166015625,-0.09405517578125,-0.9881744384765625,-0.705180823802948,-0.0008088020258583128,0.8536072969436646
0.1085968017578125,-0.083770751953125,-0.99603271484375,-0.7160236239433289,-0.10907482355833054,0.8285333514213562
0.0676727294921875,-0.0888214111328125,-1.0067901611328125,-0.6805183291435242,-0.0922766700387001,0.711462676525116
0.0264739990234375,-0.0724334716796875,-1.0248870849609375,-0.5783493518829346,-0.01588921807706356,0.5537188649177551
0.00518798828125,-0.04852294921875,-1.0401611328125,-0.4248652756214142,0.046364568173885345,0.37363430857658386
-0.00457763671875,-0.027374267578125,-1.03778076171875,-0.21744337677955627,0.06503386050462723,0.1853666603565216
-0.0101470947265625,-0.011962890625,-1.0443878173828125,0.013677462935447693,0.047693219035863876,0.00797403696924448
-0.0155029296875,-0.0072021484375,-1.0411529541015625,0.23486736416816711,0.0089980224147439,-0.14716042578220367
-0.020599365234375,-0.013946533203125,-1.02801513671875,0.39718198776245117,-0.012353339232504368,-0.25308099389076233
-0.0034332275390625,-0.03399658203125,-1.0035858154296875,0.4495575726032257,-0.014600780792534351,-0.2851814031600952
0.0232391357421875,-0.056304931640625,-0.9643402099609375,0.38406217098236084,-0.02063976414501667,-0.2505328953266144
0.0460662841796875,-0.078582763671875,-0.9284210205078125,0.24255459010601044,0.007404120173305273,-0.17464344203472137
0.0595703125,-0.0936126708984375,-0.9184722900390625,0.12206465750932693,0.06628607958555222,-0.1175982654094696
0.053436279296875,-0.0973052978515625,-0.9459381103515625,0.08234521001577377,0.14457076787948608,-0.1026158556342125
0.0388946533203125,-0.08685302734375,-0.9906463623046875,0.1183900237083435,0.22821053862571716,-0.11177872866392136
0.04217529296875,-0.0751190185546875,-1.0198516845703125,0.19708697497844696,0.26184892654418945,-0.10837388038635254
0.0576324462890625,-0.06463623046875,-1.0247039794921875,0.28744590282440186,0.23376429080963135,-0.08851441740989685
0.072235107421875,-0.05914306640625,-1.0087890625,0.34741201996803284,0.16208690404891968,-0.06036587059497833
0.0801849365234375,-0.0588531494140625,-0.981353759765625,0.3333907425403595,0.06257043778896332,-0.02906227856874466
0.07635498046875,-0.0658721923828125,-0.9509429931640625,0.27998822927474976,0.006969492416828871,-0.033428531140089035
0.0589141845703125,-0.0791473388671875,-0.9395294189453125,0.20862510800361633,-0.014056163839995861,-0.08425869047641754
0.03826904296875,-0.094329833984375,-0.9423370361328125,0.1286378651857376,-0.03152516856789589,-0.16533862054347992
0.02734375,-0.1094970703125,-0.9434356689453125,0.026322683319449425,-0.0318111926317215,-0.23533421754837036
0.0258636474609375,-0.1187591552734375,-0.9548797607421875,-0.07264384627342224,0.012723518535494804,-0.2574925124645233
0.039764404296875,-0.121612548828125,-0.9774322509765625,-0.14151531457901,0.07759785652160645,-0.22953945398330688
0.0550079345703125,-0.1110382080078125,-0.9995880126953125,-0.1748272031545639,0.06472387164831161,-0.17398510873317719
0.0701141357421875,-0.10247802734375,-1.0023651123046875,-0.17794416844844818,-0.0433216392993927,-0.1310429722070694
0.08355712890625,-0.103118896484375,-0.9852447509765625,-0.15713955461978912,-0.18013408780097961,-0.11720119416713715
0.087921142578125,-0.1065673828125,-0.9675140380859375,-0.14704777300357819,-0.2722136676311493,-0.14491884410381317
0.081878662109375,-0.1050262451171875,-0.9514007568359375,-0.16221873462200165,-0.27771496772766113,-0.20533105731010437
0.0678863525390625,-0.0954437255859375,-0.9475555419921875,-0.1858351081609726,-0.2152731567621231,-0.2787530720233917
0.05242919921875,-0.0930938720703125,-0.9753265380859375,-0.2193930745124817,-0.18306195735931396,-0.316881000995636
0.0475311279296875,-0.103668212890625,-1.0054779052734375,-0.23773612082004547,-0.17009316384792328,-0.33493536710739136
0.05267333984375,-0.1166534423828125,-1.016387939453125,-0.21078521013259888,-0.1490888148546219,-0.3127001225948334
0.06280517578125,-0.1100006103515625,-1.02239990234375,-0.16490879654884338,-0.11552606523036957,-0.25049158930778503
0.0732879638671875,-0.0900726318359375,-1.0182952880859375,-0.09111819416284561,-0.06825096160173416,-0.1746639460325241
0.0793914794921875,-0.0800018310546875,-1.0124053955078125,0.008352472446858883,-0.028199680149555206,-0.10825137048959732
0.0725860595703125,-0.0813751220703125,-1.007904052734375,0.09141407161951065,-0.00024314661277458072,-0.06852180510759354
0.062744140625,-0.08819580078125,-1.005950927734375,0.14802993834018707,-0.007902930490672588,-0.04344068467617035
0.0550079345703125,-0.0989990234375,-1.0003509521484375,0.15691052377223969,-0.013464942574501038,-0.02496953122317791
0.0523529052734375,-0.1058349609375,-0.9959259033203125,0.1402180939912796,0.022697588428854942,0.009184443391859531
0.0550537109375,-0.0990447998046875,-1.0011138916015625,0.13865801692008972,0.10385236144065857,0.04159857705235481
0.0521392822265625,-0.0818023681640625,-1.0142822265625,0.18113623559474945,0.17344023287296295,0.05530773103237152
0.0426177978515625,-0.0694580078125,-1.0193328857421875,0.2589154541492462,0.18018148839473724,0.04175463691353798
0.033172607421875,-0.0680694580078125,-1.015228271484375,0.35427844524383545,0.11011665314435959,0.013542973436415195
0.0223236083984375,-0.0756072998046875,-1.008880615234375,0.4391621947288513,-0.007984423078596592,-0.02696450613439083
0.0138092041015625,-0.089935302734375,-1.013824462890625,0.5003320574760437,-0.12587164342403412,-0.06950876861810684
0.021759033203125,-0.10382080078125,-1.015350341796875,0.5073478817939758,-0.19585604965686798,-0.10904818773269653
0.0399627685546875,-0.11138916015625,-1.0001068115234375,0.456033319234848,-0.2070770114660263,-0.12278451025485992
0.0506744384765625,-0.111083984375,-0.98712158203125,0.39007532596588135,-0.15859949588775635,-0.10125471651554108
0.052642822265625,-0.1110687255859375,-0.989044189453125,0.34666207432746887,-0.07944528758525848,-0.08292844146490097
0.05291748046875,-0.114471435546875,-0.9837188720703125,0.33804434537887573,-0.015781892463564873,-0.06710952520370483
0.0550384521484375,-0.1225128173828125,-0.970733642578125,0.33778709173202515,0.005370264407247305,-0.03864486515522003
0.0613861083984375,-0.1260528564453125,-0.95404052734375,0.3149867057800293,-0.00600436283275485,0.0027571707032620907
0.0688629150390625,-0.1284027099609375,-0.928741455078125,0.2364058792591095,-0.02900661714375019,0.03954368084669113
0.0745849609375,-0.136444091796875,-0.9062347412109375,0.12110858410596848,-0.028051340952515602,0.05892563611268997
0.0696563720703125,-0.1483001708984375,-0.899261474609375,-0.01104253064841032,0.036563336849212646,0.0674394965171814
0.0549163818359375,-0.1559906005859375,-0.911529541015625,-0.11775539815425873,0.1334773600101471,0.07002702355384827
0.0355072021484375,-0.155792236328125,-0.9401397705078125,-0.17355315387248993,0.2199837565422058,0.06661871075630188
0.02410888671875,-0.1496429443359375,-0.9840850830078125,-0.15892386436462402,0.23139195144176483,0.06235845014452934
0.02587890625,-0.1387481689453125,-1.025238037109375,-0.09242819994688034,0.15761040151119232,0.05648244917392731
0.04071044921875,-0.120819091796875,-1.0440216064453125,-0.0001699096756055951,0.05680842325091362,0.036678384989500046
0.05706787109375,-0.1055755615234375,-1.055999755859375,0.08057420700788498,-0.01972976326942444,0.02268480509519577
0.07177734375,-0.1023101806640625,-1.0553436279296875,0.13044776022434235,-0.05318385735154152,0.01064998097717762
0.0753936767578125,-0.1052398681640625,-1.0380706787109375,0.13041312992572784,-0.07425372302532196,0.009062204509973526
0.0703125,-0.1138763427734375,-1.0142059326171875,0.09599896520376205,-0.06996709853410721,0.01059085875749588
0.0581207275390625,-0.12518310546875,-0.996490478515625,0.061470817774534225,-0.021705828607082367,0.004805940669029951
0.0345001220703125,-0.13641357421875,-1.0010833740234375,0.05036277323961258,0.023563383147120476,-0.020086092874407768
0.006805419921875,-0.147064208984375,-1.011199951171875,0.07361270487308502,0.03169694170355797,-0.05789099633693695
-0.0161590576171875,-0.1523590087890625,-1.0247650146484375,0.09824960678815842,-0.02203499525785446,-0.09267427772283554
-0.009246826171875,-0.1446380615234375,-1.0264129638671875,0.10848040133714676,-0.1187191903591156,-0.12485618144273758
0.009368896484375,-0.1342315673828125,-1.00732421875,0.10553601384162903,-0.20314326882362366,-0.15962961316108704
0.0388946533203125,-0.1209716796875,-0.984130859375,0.08833572268486023,-0.2076306939125061,-0.20426179468631744
0.0542755126953125,-0.1082000732421875,-0.9675750732421875,0.0836150050163269,-0.15608440339565277,-0.2389713078737259
0.0521697998046875,-0.1014251708984375,-0.9545745849609375,0.13498178124427795,-0.139704629778862,-0.2542136311531067
0.051788330078125,-0.0978851318359375,-0.9478607177734375,0.17913992702960968,0.01571611315011978,-0.24353116750717163
0.052520751953125,-0.0999755859375,-0.992034912109375,0.23909567296504974,0.1439875364303589,-0.23130352795124054
0.04278564453125,-0.1122589111328125,-1.036468505859375,0.33790266513824463,0.08053798228502274,-0.25392335653305054
0.032989501953125,-0.1475982666015625,-1.04302978515625,0.4438844919204712,-0.1137515977025032,-0.2824820280075073
0.0417938232421875,-0.1643829345703125,-1.032562255859375,0.5450910329818726,-0.21291732788085938,-0.29002463817596436
0.0612335205078125,-0.1336669921875,-1.0366973876953125,0.6173007488250732,-0.20310118794441223,-0.2821643054485321
0.0655059814453125,-0.11102294921875,-1.0401611328125,0.6525338292121887,-0.17868345975875854,-0.2677542269229889
0.0664520263671875,-0.1157073974609375,-1.0310211181640625,0.635618269443512,-0.23732173442840576,-0.24163606762886047
0.064910888671875,-0.1401519775390625,-1.0072784423828125,0.5521345138549805,-0.3424774408340454,-0.18821145594120026
0.0668792724609375,-0.1740875244140625,-0.9856719970703125,0.4271310865879059,-0.434337854385376,-0.11892132461071014
0.0628662109375,-0.2052001953125,-0.9744873046875,0.2711670696735382,-0.4861217141151428,-0.05802122503519058
0.0542144775390625,-0.2266693115234375,-0.9601287841796875,0.12571771442890167,-0.4783143699169159,-0.025106418877840042
0.04327392578125,-0.2354888916015625,-0.941436767578125,0.026126408949494362,-0.45435312390327454,-0.0345635712146759
0.02783203125,-0.2326202392578125,-0.944854736328125,-0.019520970061421394,-0.4165745973587036,-0.0757240578532219
0.0174713134765625,-0.21929931640625,-0.961395263671875,-0.006994792725890875,-0.3534821569919586,-0.05706168711185455
0.007110595703125,-0.19671630859375,-0.98089599609375,0.05024346336722374,-0.27247440814971924,-0.15412990748882294
-0.00225830078125,-0.179229736328125,-0.994140625,0.15068325400352478,-0.1691751778125763,-0.16633224487304688
-0.018341064453125,-0.174591064453125,-1.006927490234375,0.2605378329753876,-0.06643548607826233,-0.14434359967708588
-0.0275726318359375,-0.175537109375,-1.0171051025390625,0.36336567997932434,0.001648496720008552,-0.10361321270465851
-0.0196075439453125,-0.188201904296875,-1.023529052734375,0.4256533086299896,0.00945129245519638,-0.03825045004487038
-0.0030975341796875,-0.2022705078125,-1.01055908203125,0.4465513825416565,0.005852030124515295,0.027001257985830307
0.009613037109375,-0.207794189453125,-0.995147705078125,0.46001553535461426,0.01619574800133705,0.05296840891242027
0.0111541748046875,-0.2068634033203125,-0.9970550537109375,0.46708303689956665,0.0032293491531163454,0.03605147823691368
0.0069427490234375,-0.2072906494140625,-0.9935455322265625,0.4699675142765045,0.013366937637329102,-0.0027747475542128086
-0.00152587890625,-0.2106170654296875,-0.9875030517578125,0.4567907154560089,0.03369724377989769,-0.03398220241069794
-0.0048370361328125,-0.215606689453125,-0.9746856689453125,0.3969891667366028,0.03527836129069328,-0.03200959786772728
0.0012969970703125,-0.2255706787109375,-0.9410552978515625,0.28178295493125916,0.01251312904059887,6.950850365683436e-05
0.0057525634765625,-0.23175048828125,-0.9123992919921875,0.13718342781066895,-0.04285851866006851,0.03212038427591324
0.0034332275390625,-0.233489990234375,-0.90728759765625,-0.0011771172285079956,-0.12128381431102753,0.031241808086633682
-0.0001068115234375,-0.2371368408203125,-0.9176788330078125,-0.11296144127845764,-0.22295904159545898,-0.014138189144432545
-0.0058441162109375,-0.238525390625,-0.9330596923828125,-0.19061841070652008,-0.3057151734828949,-0.08902627974748611
-0.01300048828125,-0.2332916259765625,-0.9554443359375,-0.22795699536800385,-0.28862619400024414,-0.16873867809772491
-0.02099609375,-0.2209014892578125,-0.9783935546875,-0.21454212069511414,-0.16590534150600433,-0.21912968158721924
-0.0262908935546875,-0.2061920166015625,-0.9970703125,-0.16288451850414276,-0.053461894392967224,-0.21718265116214752
-0.0168914794921875,-0.1979217529296875,-1.003265380859375,-0.09210728853940964,-0.023546604439616203,-0.18270349502563477
-0.005523681640625,-0.1963348388671875,-0.986785888671875,0.019567308947443962,-0.10884339362382889,-0.12596671283245087
-0.00555419921875,-0.1967926025390625,-0.96197509765625,0.1566585898399353,-0.15555550158023834,-0.0778319463133812
-0.0163116455078125,-0.2150726318359375,-0.95068359375,0.1990358680486679,0.021819811314344406,-0.06757238507270813
-0.0274810791015625,-0.2177581787109375,-0.9835052490234375,0.1598820686340332,0.09779447317123413,-0.058210309594869614
-0.0267181396484375,-0.22503662109375,-0.9747314453125,0.06983260810375214,0.05504700541496277,-0.041607629507780075
-0.0194091796875,-0.2498016357421875,-0.9591217041015625,0.006306897848844528,-0.009692574851214886,-0.009474461898207664
-0.0126953125,-0.2620697021484375,-0.9549102783203125,-0.014653511345386505,-0.022905316203832626,0.018788868561387062
-0.00067138671875,-0.2434234619140625,-0.9415740966796875,-0.027348000556230545,0.010230799205601215,0.04800853878259659
0.00201416015625,-0.2052001953125,-0.9186553955078125,-0.04246862977743149,0.07368434220552444,0.06125669926404953
0.005950927734375,-0.1846466064453125,-0.9159393310546875,-0.06460215896368027,0.12197037786245346,0.0449453704059124
0.003448486328125,-0.190399169921875,-0.944732666015625,-0.07116339355707169,0.11070308089256287,-0.0021260015200823545
-0.010894775390625,-0.21484375,-0.9891510009765625,-0.06516089290380478,-2.3968450477696024e-06,-0.05952830612659454
-0.026153564453125,-0.2378997802734375,-1.0298004150390625,-0.030964573845267296,-0.15240764617919922,-0.11852451413869858
-0.022705078125,-0.244659423828125,-1.0614166259765625,0.03481683507561684,-0.2826862931251526,-0.15940749645233154
-0.006378173828125,-0.2288665771484375,-1.0584869384765625,0.11435959488153458,-0.347440242767334,-0.2020103484392166
0.007110595703125,-0.20208740234375,-1.0185699462890625,0.18029893934726715,-0.371158629655838,-0.23179008066654205
0.012603759765625,-0.188018798828125,-0.961181640625,0.1995493322610855,-0.3617941737174988,-0.23446789383888245
0.005462646484375,-0.19085693359375,-0.9198760986328125,0.19287970662117004,-0.2671685814857483,-0.2142648845911026
-0.01300048828125,-0.206207275390625,-0.9202880859375,0.17353397607803345,-0.15110589563846588,-0.1872476488351822
-0.0255584716796875,-0.22894287109375,-0.93634033203125,0.15202787518501282,-0.12320662289857864,-0.15596510469913483
-0.025115966796875,-0.250732421875,-0.9442291259765625,0.12996092438697815,-0.20457923412322998,-0.13040541112422943
-0.0193939208984375,-0.2609100341796875,-0.951416015625,0.09822670370340347,-0.3369481861591339,-0.12275867909193039
-0.02459716796875,-0.2509002685546875,-0.9612274169921875,0.057242251932621,-0.4473159909248352,-0.1402367353439331
-0.0301055908203125,-0.233154296875,-0.9763641357421875,0.001365668955259025,-0.49851393699645996,-0.18063342571258545
-0.0377044677734375,-0.22027587890625,-0.9781951904296875,-0.0599869042634964,-0.4791988134384155,-0.2251867800951004
-0.05596923828125,-0.209503173828125,-0.9718170166015625,-0.08918420225381851,-0.36501818895339966,-0.26453444361686707
-0.0788726806640625,-0.2007904052734375,-0.9746856689453125,-0.07959256321191788,-0.23283378779888153,-0.2973531186580658
-0.08709716796875,-0.1972198486328125,-0.974822998046875,-0.02383689023554325,-0.15707750618457794,-0.31813883781433105
-0.08258056640625,-0.200897216796875,-0.9903564453125,0.07166273146867752,-0.1781763881444931,-0.3310176134109497
-0.0639190673828125,-0.212677001953125,-1.0238037109375,0.1746237426996231,-0.3291715085506439,-0.3361244797706604
-0.031890869140625,-0.233123779296875,-1.04815673828125,0.23924002051353455,-0.5395564436912537,-0.31747835874557495
-0.010284423828125,-0.25177001953125,-1.0418701171875,0.26052746176719666,-0.5720723271369934,-0.28277575969696045
-0.0114288330078125,-0.255767822265625,-1.02294921875,0.23756781220436096,-0.4198223054409027,-0.220920130610466
-0.0334320068359375,-0.2515106201171875,-0.9859771728515625,0.19764383137226105,-0.16290955245494843,-0.11816632002592087
-0.063873291015625,-0.248779296875,-0.957855224609375,0.16534794867038727,0.05444140359759331,-0.005013134330511093
-0.072357177734375,-0.248809814453125,-0.9438323974609375,0.1597084403038025,0.13550829887390137,0.09805599600076675
-0.0699920654296875,-0.2464141845703125,-0.9440155029296875,0.1774999499320984,0.08942468464374542,0.15405161678791046
-0.0696258544921875,-0.243072509765625,-0.96856689453125,0.21208588778972626,0.012479306198656559,0.14464347064495087
-0.0682525634765625,-0.2404632568359375,-0.98834228515625,0.23012322187423706,-0.0630604550242424,0.09152139723300934
-0.070404052734375,-0.2388916015625,-0.9895477294921875,0.2175600230693817,-0.10730541497468948,0.010435863398015499
-0.0684051513671875,-0.2447509765625,-0.9790191650390625,0.17441335320472717,-0.13251011073589325,-0.06726399064064026
-0.0689849853515625,-0.2543182373046875,-0.965362548828125,0.09649484604597092,-0.13170556724071503,-0.11401445418596268
-0.0808563232421875,-0.263397216796875,-0.958160400390625,0.03268950432538986,-0.05970008298754692,-0.13118252158164978
-0.093292236328125,-0.2612152099609375,-0.9702911376953125,0.00032197617110796273,-0.022553779184818268,-0.12557657063007355
-0.0845794677734375,-0.2465972900390625,-0.9803924560546875,0.0065383268520236015,-0.049016278237104416,-0.10637730360031128
-0.0682373046875,-0.234588623046875,-0.98614501953125,0.026940803974866867,-0.10560791939496994,-0.08075237274169922
-0.0549163818359375,-0.232757568359375,-0.9751434326171875,0.027960794046521187,-0.1088082417845726,-0.05733253061771393
-0.0560760498046875,-0.240875244140625,-0.95501708984375,-0.011772236786782742,-0.06777345389127731,-0.03110066056251526
-0.0577545166015625,-0.25311279296875,-0.9278717041015625,-0.04029708728194237,0.05831097811460495,-0.0008889631717465818
-0.065032958984375,-0.2703094482421875,-0.8833465576171875,-0.029404494911432266,0.23792947828769684,0.05440997704863548
-0.09393310546875,-0.2991180419921875,-0.8684844970703125,-0.08578867465257645,0.36961108446121216,0.09788208454847336
-0.1132354736328125,-0.2660675048828125,-0.9387664794921875,-0.194769486784935,0.2656945288181305,0.14173263311386108
-0.094573974609375,-0.2365264892578125,-0.9680938720703125,-0.30700522661209106,0.21306993067264557,0.16850778460502625
-0.0836029052734375,-0.2193450927734375,-1.0068359375,-0.3755645751953125,0.19712159037590027,0.17249533534049988
-0.0868682861328125,-0.212738037109375,-1.023834228515625,-0.4079475402832031,0.1362883299589157,0.1944967806339264
-0.0779266357421875,-0.2382965087890625,-1.0134124755859375,-0.4383707046508789,0.11601129174232483,0.2355070561170578
-0.0631256103515625,-0.2485504150390625,-0.9827728271484375,-0.5009773373603821,0.2841576933860779,0.2909921705722809
-0.059417724609375,-0.204345703125,-0.94915771484375,-0.6125432848930359,0.640700101852417,0.3428822457790375
-0.0751190185546875,-0.162811279296875,-0.9173126220703125,-0.743736207485199,0.9195362329483032,0.37825807929039
-0.09906005859375,-0.1539306640625,-0.90753173828125,-0.858738124370575,1.0726810693740845,0.3904745280742645
-0.112060546875,-0.1727752685546875,-0.9413909912109375,-0.9419273138046265,1.1677484512329102,0.3915901482105255
-0.1091766357421875,-0.186248779296875,-0.991058349609375,-0.9804962873458862,1.1284929513931274,0.40238845348358154
-0.077239990234375,-0.191497802734375,-1.0443878173828125,-0.9671716690063477,0.9205716848373413,0.48962217569351196
-0.03045654296875,-0.1889190673828125,-1.0888824462890625,-0.9071733355522156,0.6292399764060974,0.42641788721084595
0.0065765380859375,-0.17315673828125,-1.1176300048828125,-0.8135688304901123,0.3580992817878723,0.40939655900001526
0.0266876220703125,-0.1512451171875,-1.1248321533203125,-0.6934610605239868,0.19716420769691467,0.3663574755191803
0.0322113037109375,-0.13421630859375,-1.11328125,-0.5822482109069824,0.13970330357551575,0.2959544360637665
0.02911376953125,-0.125030517578125,-1.0821533203125,-0.4760405719280243,0.14982597529888153,0.20867225527763367
0.0212860107421875,-0.128936767578125,-1.05279541015625,-0.35233116149902344,0.22436492145061493,0.11815407127141953
0.017669677734375,-0.1349334716796875,-1.034912109375,-0.22493085265159607,0.3083389103412628,0.057134926319122314
0.0132598876953125,-0.1375732421875,-1.0181121826171875,-0.09975029528141022,0.35917094349861145,0.041124001145362854
0.0179901123046875,-0.1435699462890625,-1.0069122314453125,0.01317865215241909,0.37756460905075073,0.059370916336774826
0.033477783203125,-0.1554412841796875,-0.99493408203125,0.11824940890073776,0.4013229310512543,0.08536390215158463
0.0395965576171875,-0.1668853759765625,-0.98333740234375,0.20809833705425262,0.446959912776947,0.11382563412189484
0.0393524169921875,-0.1789703369140625,-0.9744415283203125,0.2550210952758789,0.4460009038448334,0.15037672221660614
0.0499267578125,-0.187255859375,-0.96221923828125,0.26846447587013245,0.3766697645187378,0.18964716792106628
0.063446044921875,-0.1893768310546875,-0.9493255615234375,0.25262531638145447,0.2630598545074463,0.21908122301101685
0.070404052734375,-0.1852264404296875,-0.9327392578125,0.2209795117378235,0.166096031665802,0.21917922794818878
0.06298828125,-0.1789398193359375,-0.9221954345703125,0.17793484032154083,0.13774028420448303,0.19266878068447113
0.03851318359375,-0.1753997802734375,-0.933135986328125,0.12353445589542389,0.18682686984539032,0.1715635061264038
0.013427734375,-0.1782073974609375,-0.9486083984375,0.046772830188274384,0.26269128918647766,0.1802254319190979
0.0126495361328125,-0.1833343505859375,-0.93994140625,-0.026157833635807037,0.33071133494377136,0.2185123711824417
0.0267333984375,-0.177642822265625,-0.926971435546875,-0.07889508455991745,0.352069616317749,0.26155489683151245
0.0465240478515625,-0.1675567626953125,-0.9204254150390625,-0.10625613480806351,0.3396212160587311,0.2868509292602539
0.0580291748046875,-0.1545562744140625,-0.924957275390625,-0.1125854030251503,0.25080984830856323,0.2755737900733948
0.063568115234375,-0.1376190185546875,-0.92919921875,-0.06239573284983635,0.028553614392876625,0.2359267771244049
0.0744171142578125,-0.1215972900390625,-0.9345245361328125,-0.04466573894023895,-0.05156572163105011,0.16276973485946655
0.0668792724609375,-0.123046875,-0.96502685546875,-0.06319494545459747,0.009528524242341518,0.07502391189336777
0.0456695556640625,-0.1366424560546875,-0.981201171875,-0.11417770385742188,0.10353092104196548,-0.02088211290538311
0.029510498046875,-0.157073974609375,-0.9690399169921875,-0.18904875218868256,0.16313086450099945,-0.10152662545442581
0.021881103515625,-0.1778564453125,-0.962249755859375,-0.2473011314868927,0.1032656654715538,-0.17089451849460602
0.023651123046875,-0.19195556640625,-0.9684906005859375,-0.25617799162864685,0.019569439813494682,-0.17551855742931366
0.0447235107421875,-0.1572418212890625,-0.9981536865234375,-0.21050263941287994,-0.0030186930671334267,-0.1314440369606018
0.06103515625,-0.120269775390625,-1.0380859375,-0.11154836416244507,0.00929416622966528,-0.07479221373796463
0.0756988525390625,-0.1026611328125,-1.057464599609375,0.001091896090656519,-0.03502749279141426,-0.024778584018349648
0.0860595703125,-0.10455322265625,-1.0498809814453125,0.08420169353485107,-0.09920807927846909,0.02900555171072483
0.095855712890625,-0.114166259765625,-1.0441741943359375,0.11401711404323578,-0.1673162877559662,0.06930717080831528
0.099090576171875,-0.12677001953125,-1.0379486083984375,0.0921512320637703,-0.21604228019714355,0.07827989012002945
0.088775634765625,-0.139739990234375,-1.024871826171875,0.05342008173465729,-0.24148613214492798,0.047867923974990845
0.0613555908203125,-0.1502227783203125,-1.0175933837890625,0.021870678290724754,-0.22510555386543274,-0.011855593882501125
0.029693603515625,-0.155731201171875,-1.0146331787109375,0.012828713282942772,-0.15478238463401794,-0.021649900823831558
0.0103302001953125,-0.152679443359375,-1.0150604248046875,0.029438849538564682,-0.09258745610713959,-0.11511833220720291
0.0128631591796875,-0.1455078125,-1.0115203857421875,0.04725752770900726,-0.09765917807817459,-0.12369983643293381
0.0330657958984375,-0.1417236328125,-1.0020904541015625,0.057077135890722275,-0.10380202531814575,-0.08831547945737839
0.048065185546875,-0.1370697021484375,-0.9945526123046875,0.05732880160212517,-0.10063446313142776,-0.039204925298690796
0.0540008544921875,-0.1347198486328125,-0.9972686767578125,0.06801819801330566,-0.10544680058956146,-0.006237922236323357
0.051971435546875,-0.1391754150390625,-0.9960174560546875,0.0914343073964119,-0.14385411143302917,-0.013049488887190819
0.0448455810546875,-0.14642333984375,-0.9947662353515625,0.11239524930715561,-0.23960274457931519,-0.04875102639198303
0.0412750244140625,-0.1499176025390625,-0.9788055419921875,0.11908857524394989,-0.34410223364830017,-0.11129536479711533
0.0389251708984375,-0.1461639404296875,-0.9644622802734375,0.10017161071300507,-0.3761216998100281,-0.17226630449295044
0.03466796875,-0.1500701904296875,-0.9602203369140625,0.050571829080581665,-0.3197455108165741,-0.20927199721336365
0.0227813720703125,-0.1602020263671875,-0.9593658447265625,-0.005783320404589176,-0.22891440987586975,-0.2186489850282669
0.012969970703125,-0.171112060546875,-0.9619598388671875,-0.02436552755534649,-0.15407371520996094,-0.21798959374427795
0.0066986083984375,-0.174346923828125,-0.9745330810546875,-0.010179666802287102,-0.16911205649375916,-0.21363718807697296
0.0119171142578125,-0.1702880859375,-0.9770965576171875,0.018909242004156113,-0.24038010835647583,-0.2226378619670868
0.0187225341796875,-0.1581268310546875,-0.967071533203125,0.06921768933534622,-0.310568243265152,-0.24976909160614014
0.0204010009765625,-0.1484222412109375,-0.9637451171875,0.13146162033081055,-0.3631739318370819,-0.3032940924167633
0.0217132568359375,-0.149505615234375,-0.9698028564453125,0.19524246454238892,-0.4657767415046692,-0.3725533187389374
0.0197906494140625,-0.15472412109375,-0.9731597900390625,0.24728915095329285,-0.60506272315979,-0.4616725444793701
0.0244140625,-0.1607818603515625,-0.973114013671875,0.27603718638420105,-0.8072030544281006,-0.568530797958374
0.0282745361328125,-0.16827392578125,-0.9597015380859375,0.24858850240707397,-0.967674732208252,-0.65647292137146
0.0203094482421875,-0.16986083984375,-0.94610595703125,0.15234160423278809,-0.9647881388664246,-0.6759406328201294
0.000701904296875,-0.1708526611328125,-0.9449005126953125,0.02249705232679844,-0.8022807240486145,-0.6288029551506042
-0.017425537109375,-0.173828125,-0.945220947265625,-0.10789584368467331,-0.5854160785675049,-0.5208719372749329
-0.028411865234375,-0.175262451171875,-0.9473876953125,-0.1966978758573532,-0.38928863406181335,-0.38566967844963074
-0.0251617431640625,-0.1736907958984375,-0.95623779296875,-0.21072794497013092,-0.2940257787704468,-0.2656676173210144
-0.020416259765625,-0.16717529296875,-0.9696197509765625,-0.16104960441589355,-0.3075471520423889,-0.1830451786518097
-0.02130126953125,-0.1632232666015625,-0.9890899658203125,-0.1101699098944664,-0.417484313249588,-0.1277904510498047
-0.0170745849609375,-0.1656494140625,-0.9931793212890625,-0.10044458508491516,-0.5551124811172485,-0.09604104608297348
-0.00787353515625,-0.170379638671875,-0.9886932373046875,-0.155821293592453,-0.6683745980262756,-0.0709543377161026
-0.0069427490234375,-0.17303466796875,-0.977142333984375,-0.2572917342185974,-0.6411168575286865,-0.05886011943221092
-0.0282440185546875,-0.1699066162109375,-0.9798431396484375,-0.33579692244529724,-0.43566253781318665,-0.036199282854795456
-0.071746826171875,-0.164093017578125,-1.01092529296875,-0.3491417467594147,-0.1659567505121231,-0.003430151380598545
-0.104400634765625,-0.1573333740234375,-1.0401153564453125,-0.26669934391975403,0.08135690540075302,0.04723355919122696
-0.1104583740234375,-0.146270751953125,-1.0617218017578125,-0.10302198678255081,0.19935917854309082,0.10499566048383713
-0.093109130859375,-0.1236419677734375,-1.0662841796875,0.09292461723089218,0.19791680574417114,0.1474408507347107
-0.0683135986328125,-0.098114013671875,-1.0646209716796875,0.2714597284793854,0.14217019081115723,0.15590251982212067
-0.0594482421875,-0.0930023193359375,-1.0710601806640625,0.42674171924591064,0.09188517928123474,0.12007047981023788
-0.0698394775390625,-0.1126861572265625,-1.084136962890625,0.542820394039154,-0.004525776021182537,0.03468288108706474
-0.084075927734375,-0.143218994140625,-1.0813446044921875,0.6070494651794434,-0.12017194926738739,-0.06565570831298828
-0.0960235595703125,-0.16253662109375,-1.045257568359375,0.6106836199760437,-0.17875829339027405,-0.1500193178653717
-0.1027679443359375,-0.16412353515625,-1.005462646484375,0.5724720358848572,-0.19061335921287537,-0.19398625195026398
-0.104736328125,-0.15582275390625,-0.9774169921875,0.5171579122543335,-0.16045279800891876,-0.21497781574726105
-0.105377197265625,-0.1490325927734375,-0.9660186767578125,0.460188627243042,-0.0964282676577568,-0.2389899492263794
-0.0961761474609375,-0.1492767333984375,-0.954925537109375,0.4031248092651367,-0.08320967108011246,-0.2538447976112366
-0.0779571533203125,-0.160919189453125,-0.9454345703125,0.3385245203971863,-0.14280003309249878,-0.25571006536483765
-0.0557861328125,-0.186859130859375,-0.9444427490234375,0.24255751073360443,-0.22861000895500183,-0.23449106514453888
-0.04168701171875,-0.2130279541015625,-0.9434356689453125,0.13079583644866943,-0.30887261033058167,-0.1878117173910141
-0.0474090576171875,-0.2259521484375,-0.9640960693359375,0.04663114994764328,-0.3137454092502594,-0.15351125597953796
-0.06414794921875,-0.21563720703125,-0.99798583984375,0.011315238662064075,-0.29553791880607605,-0.13893525302410126
-0.0808563232421875,-0.19329833984375,-1.0043792724609375,0.01877794787287712,-0.29652008414268494,-0.14935247600078583
-0.0866241455078125,-0.17523193359375,-0.9904937744140625,0.03826509788632393,-0.3028421700000763,-0.16979649662971497
-0.079254150390625,-0.1722564697265625,-0.9672088623046875,0.05137743800878525,-0.3041468560695648,-0.17909730970859528
-0.076019287109375,-0.182342529296875,-0.9653778076171875,0.04704287648200989,-0.3125365972518921,-0.16075105965137482
-0.07452392578125,-0.1969757080078125,-0.9930572509765625,0.053997986018657684,-0.31408122181892395,-0.12953323125839233
-0.07830810546875,-0.2097015380859375,-1.0208282470703125,0.08355960994958878,-0.2904201149940491,-0.11598119884729385
-0.0968017578125,-0.2143402099609375,-1.0207366943359375,0.21258017420768738,-0.1247243583202362,-0.11928671598434448
-0.1135101318359375,-0.20355224609375,-0.98358154296875,0.4409014880657196,0.1228385716676712,-0.08754049986600876
-0.1373291015625,-0.2193450927734375,-0.96240234375,0.5629754662513733,0.07608171552419662,-0.052616871893405914
-0.1241302490234375,-0.2147674560546875,-0.98736572265625,0.5443911552429199,-0.09974070638418198,0.02906733751296997
-0.08367919921875,-0.21014404296875,-0.9849395751953125,0.44443151354789734,-0.038057103753089905,0.10287205129861832
-0.062164306640625,-0.2001800537109375,-0.9856109619140625,0.2966090440750122,0.003716174978762865,0.13500654697418213
-0.062408447265625,-0.1946258544921875,-0.9540863037109375,0.15294267237186432,0.005286907311528921,0.11663873493671417
-0.076385498046875,-0.1842803955078125,-0.9362335205078125,0.06549964845180511,0.009755957871675491,0.05911045894026756
-0.103607177734375,-0.1860809326171875,-0.9618377685546875,0.04634353145956993,-0.022465627640485764,-0.021741515025496483
-0.1280670166015625,-0.200439453125,-0.987060546875,0.07810571789741516,-0.1095145121216774,-0.10699249804019928
-0.145477294921875,-0.2117767333984375,-0.990875244140625,0.1382971554994583,-0.211713045835495,-0.19449251890182495
-0.1322479248046875,-0.244903564453125,-0.9696807861328125,0.21554666757583618,-0.13605530560016632,-0.24760660529136658
-0.14349365234375,-0.24542236328125,-0.9474029541015625,0.26182281970977783,-0.05962551385164261,-0.2165653258562088
-0.1287078857421875,-0.2275238037109375,-0.9428253173828125,0.27013880014419556,-0.13687315583229065,-0.1281569004058838
-0.06439208984375,-0.2365570068359375,-0.945037841796875,0.2525622248649597,-0.21338844299316406,-0.06190411373972893
-0.0744781494140625,-0.2400360107421875,-0.9734344482421875,0.2452470362186432,-0.24047306180000305,-0.05209196358919144
-0.1124114990234375,-0.2343597412109375,-1.0005950927734375,0.2650226056575775,-0.22221256792545319,-0.09468096494674683
-0.129119873046875,-0.226837158203125,-0.99652099609375,0.30675700306892395,-0.1724521964788437,-0.12999048829078674
-0.1471405029296875,-0.2206268310546875,-0.983734130859375,0.3607454001903534,-0.07897364348173141,-0.20739953219890594
-0.1493682861328125,-0.2269744873046875,-0.9662017822265625,0.3937757909297943,-0.02045760490000248,-0.20414328575134277
-0.1195526123046875,-0.2443389892578125,-0.939178466796875,0.3824770748615265,-0.08362565189599991,-0.13023070991039276
-0.07330322265625,-0.2713165283203125,-0.9161224365234375,0.3318983018398285,-0.224466934800148,-0.005883188918232918
-0.0459136962890625,-0.2890777587890625,-0.9129486083984375,0.23648950457572937,-0.3665582835674286,0.10656771808862686
-0.0632476806640625,-0.285186767578125,-0.9295806884765625,0.11657162010669708,-0.45126545429229736,0.14131797850131989
-0.118011474609375,-0.25848388671875,-0.9532623291015625,0.011464376002550125,-0.381620317697525,0.06822352856397629
-0.17138671875,-0.231842041015625,-0.963623046875,-0.03441682830452919,-0.20049528777599335,-0.08183414489030838
-0.2102508544921875,-0.2220001220703125,-0.9604949951171875,-0.031932100653648376,-0.024269653484225273,-0.21896323561668396
-0.2138214111328125,-0.220123291015625,-0.94183349609375,0.0015329155139625072,0.0702882781624794,-0.29480820894241333
-0.183563232421875,-0.2211761474609375,-0.9324798583984375,0.031730230897665024,0.011738947592675686,-0.2765064239501953
-0.1379852294921875,-0.23626708984375,-0.9437713623046875,0.02004801109433174,-0.2111434042453766,-0.19314388930797577
-0.0959320068359375,-0.2502593994140625,-0.959991455078125,-0.05254656448960304,-0.5404880046844482,-0.10812726616859436
-0.0644378662109375,-0.2559051513671875,-0.9863128662109375,-0.16338838636875153,-0.8059516549110413,-0.06373850256204605
-0.08135986328125,-0.26715087890625,-0.982208251953125,-0.2860141694545746,-0.8629334568977356,-0.07211094349622726
-0.134674072265625,-0.2708892822265625,-0.941864013671875,-0.37996622920036316,-0.71819007396698,-0.11460460722446442
-0.1814117431640625,-0.258331298828125,-0.8935699462890625,-0.4087483584880829,-0.41084107756614685,-0.13512825965881348
-0.1998443603515625,-0.2483367919921875,-0.8801422119140625,-0.26767513155937195,0.13506700098514557,-0.1170232892036438
-0.202606201171875,-0.2600555419921875,-0.9173431396484375,-0.027524568140506744,0.38952672481536865,-0.08415509015321732
-0.2200164794921875,-0.2845916748046875,-0.99609375,0.21538688242435455,0.2915029525756836,-0.0662972629070282
-0.1852569580078125,-0.2742156982421875,-1.0620880126953125,0.3911685645580292,0.18099482357501984,-0.062256984412670135
-0.1489105224609375,-0.25921630859375,-1.076324462890625,0.4598166048526764,0.08394709974527359,-0.07175248116254807
-0.1498260498046875,-0.2431488037109375,-1.009002685546875,0.40030694007873535,0.004585430957376957,-0.08591943234205246
-0.1742095947265625,-0.2459259033203125,-0.9440765380859375,0.20050540566444397,-0.04627189040184021,-0.09772682934999466
-0.1956787109375,-0.26800537109375,-0.91705322265625,-0.0862499326467514,-0.08616684377193451,-0.10325048863887787
-0.19384765625,-0.280914306640625,-0.8848724365234375,-0.3937124013900757,-0.10404544323682785,-0.08433618396520615
-0.1836395263671875,-0.2780914306640625,-0.864227294921875,-0.6366750001907349,-0.04101747274398804,0.01073653344064951
-0.1847991943359375,-0.27618408203125,-0.877197265625,-0.7835347652435303,0.01019671093672514,0.12026728689670563
-0.16607666015625,-0.2654876708984375,-0.9106903076171875,-0.8399274349212646,0.13294793665409088,0.1682574450969696
-0.18316650390625,-0.252593994140625,-0.95001220703125,-0.8287179470062256,0.3101131319999695,0.17320826649665833
-0.2223968505859375,-0.2481536865234375,-0.991790771484375,-0.7623897790908813,0.4914810359477997,0.14975060522556305
-0.2073974609375,-0.2390289306640625,-1.0221710205078125,-0.6666930913925171,0.6123723387718201,0.11572260409593582
-0.174346923828125,-0.2078094482421875,-1.00738525390625,-0.5676463842391968,0.7106069922447205,0.100467748939991
-0.132720947265625,-0.164764404296875,-0.9563446044921875,-0.48547908663749695,0.8461722731590271,0.103335440158844
-0.098541259765625,-0.1394500732421875,-0.9149169921875,-0.4426293671131134,0.9119345545768738,0.17852766811847687
-0.0958404541015625,-0.1474609375,-0.9285125732421875,-0.42603999376296997,0.8523939847946167,0.22776977717876434
-0.11328125,-0.1762542724609375,-1.0269622802734375,-0.4145718812942505,0.5972245335578918,0.27440544962882996
-0.1121826171875,-0.2247772216796875,-1.1462249755859375,-0.4040936827659607,0.3413546681404114,0.32795870304107666
-0.1091766357421875,-0.2711944580078125,-1.2181854248046875,-0.37664154171943665,0.2611282765865326,0.36453482508659363
-0.1028594970703125,-0.2803955078125,-1.207550048828125,-0.352438747882843,0.3166152238845825,0.4067933261394501
-0.06182861328125,-0.238494873046875,-1.1056671142578125,-0.3745182156562805,0.4220476448535919,0.4806813895702362
-0.011810302734375,-0.170654296875,-0.98077392578125,-0.4555549919605255,0.5225023627281189,0.5784982442855835
0.0242462158203125,-0.1213531494140625,-0.8997802734375,-0.5724379420280457,0.6545466780662537,0.6702715754508972
0.01611328125,-0.1055145263671875,-0.8713836669921875,-0.7082226872444153,0.8535780310630798,0.7381722927093506
-0.027923583984375,-0.1154327392578125,-0.8909759521484375,-0.8303054571151733,1.03953218460083,0.7705613970756531
-0.0635223388671875,-0.1387939453125,-0.914947509765625,-0.9163426160812378,1.0904779434204102,0.7738610506057739
-0.0860443115234375,-0.15997314453125,-0.93988037109375,-0.9472123384475708,0.9997283220291138,0.7656601667404175
-0.10040283203125,-0.16387939453125,-0.9844207763671875,-0.9264774918556213,0.8447613716125488,0.7505632042884827
-0.0918121337890625,-0.1338348388671875,-1.034759521484375,-0.8484090566635132,0.7047680020332336,0.7009841799736023
-0.064300537109375,-0.09161376953125,-1.0722198486328125,-0.7139135599136353,0.6118804216384888,0.6075416207313538
-0.0457000732421875,-0.057525634765625,-1.08721923828125,-0.5464380383491516,0.5697015523910522,0.4881632924079895
-0.026397705078125,-0.045745849609375,-1.079193115234375,-0.39097973704338074,0.5536024570465088,0.3699612617492676
-0.00323486328125,-0.054473876953125,-1.048736572265625,-0.2853230834007263,0.5357020497322083,0.2827930748462677
0.015869140625,-0.0715484619140625,-1.013916015625,-0.24274207651615143,0.5258662104606628,0.22926461696624756
0.0262298583984375,-0.0901947021484375,-0.9922027587890625,-0.21575652062892914,0.5424222350120544,0.1997959315776825
0.0212249755859375,-0.09130859375,-1.002471923828125,-0.1472027599811554,0.5936841368675232,0.17266924679279327
0.0036773681640625,-0.0709228515625,-1.04541015625,0.002606169320642948,0.6462783217430115,0.14119814336299896
-0.01904296875,-0.0583343505859375,-1.1006927490234375,0.23852601647377014,0.6486160755157471,0.09540694952011108
-0.0328216552734375,-0.05633544921875,-1.142059326171875,0.5077364444732666,0.5112089514732361,0.05439293384552002
-0.0199432373046875,-0.0549774169921875,-1.132354736328125,0.718567967414856,0.27970513701438904,0.026993000879883766
0.01214599609375,-0.0563507080078125,-1.077423095703125,0.8025835156440735,0.06844297051429749,0.012164787389338017
0.0386199951171875,-0.0656585693359375,-1.0074310302734375,0.746788740158081,-0.014296647161245346,-0.009578058496117592
0.042449951171875,-0.0821075439453125,-0.9498443603515625,0.5735226273536682,0.04996170103549957,-0.04799948260188103
0.0284423828125,-0.103729248046875,-0.920501708984375,0.3607286214828491,0.19562089443206787,-0.10180412232875824
0.0102081298828125,-0.1239776611328125,-0.91326904296875,0.16681188344955444,0.329278826713562,-0.14776521921157837
-0.0042724609375,-0.13067626953125,-0.92144775390625,0.03370709717273712,0.4452621638774872,-0.16544701159000397
-0.0123138427734375,-0.1278839111328125,-0.9500579833984375,-0.026094717904925346,0.5174588561058044,-0.15247848629951477
-0.0084381103515625,-0.123748779296875,-0.98040771484375,-0.03600407391786575,0.5150625705718994,-0.11084715276956558
0.0105438232421875,-0.1163177490234375,-0.9954833984375,-0.014312893152236938,0.42231476306915283,-0.05236733332276344
0.0289154052734375,-0.1127166748046875,-0.999786376953125,0.009905627928674221,0.30128422379493713,0.005111671518534422
0.0424346923828125,-0.11248779296875,-0.99066162109375,0.02347283624112606,0.198206827044487,0.03299630060791969
0.0408782958984375,-0.11309814453125,-0.98699951171875,0.01506736595183611,0.10218176245689392,0.01200100313872099
0.023529052734375,-0.118194580078125,-0.981781005859375,-0.016346482560038567,0.0341329351067543,-0.048358213156461716
0.0061187744140625,-0.132659912109375,-0.972991943359375,-0.06769648939371109,-0.021629661321640015,-0.1342558115720749
-0.01141357421875,-0.1441497802734375,-0.9663848876953125,-0.11822384595870972,-0.09071072936058044,-0.21438100934028625
-0.0160980224609375,-0.1438446044921875,-0.9634246826171875,-0.16074174642562866,-0.13721618056297302,-0.2759527564048767
-0.0044708251953125,-0.138092041015625,-0.95635986328125,-0.16324858367443085,-0.09923870116472244,-0.31625622510910034
0.009613037109375,-0.130157470703125,-0.9547271728515625,-0.12103321403265,-0.05319451168179512,-0.326550155878067
0.0104217529296875,-0.1256866455078125,-0.9583892822265625,0.018334265798330307,-0.18058016896247864,-0.2836977541446686
0.0061492919921875,-0.13287353515625,-0.9535369873046875,0.13046959042549133,-0.20502930879592896,-0.22437424957752228
0.0155487060546875,-0.1529541015625,-0.983062744140625,0.15934598445892334,-0.15250006318092346,-0.14463254809379578
0.025787353515625,-0.169891357421875,-0.9947052001953125,0.1347721964120865,-0.05143709108233452,-0.08432500064373016
0.0394287109375,-0.1738128662109375,-0.973358154296875,0.08682757616043091,0.07082942873239517,-0.04963599517941475
0.045318603515625,-0.1613006591796875,-0.97027587890625,0.0725860521197319,0.1143667921423912,-0.06685759127140045
0.0385589599609375,-0.14111328125,-0.976104736328125,0.1209823489189148,0.004913798533380032,-0.1270999014377594
0.0303497314453125,-0.1274871826171875,-0.983642578125,0.22118857502937317,-0.17582562565803528,-0.1948280781507492
0.028228759765625,-0.1210479736328125,-1.0051116943359375,0.3367934823036194,-0.2634308338165283,-0.20409747958183289
0.026031494140625,-0.114044189453125,-1.0336456298828125,0.4221288859844208,-0.22639718651771545,-0.14258325099945068
0.0226287841796875,-0.120513916015625,-1.043060302734375,0.45509666204452515,-0.1372063308954239,-0.03789172321557999
0.039642333984375,-0.1371002197265625,-1.02935791015625,0.4575941860675812,-0.13227520883083344,0.0718747228384018
0.043487548828125,-0.1643829345703125,-1.013397216796875,0.4300469756126404,-0.2533166706562042,0.16375990211963654
0.0326690673828125,-0.188079833984375,-0.9770660400390625,0.36424320936203003,-0.3491058051586151,0.2116890847682953
0.0174560546875,-0.19329833984375,-0.945709228515625,0.28326472640037537,-0.33487680554389954,0.20557020604610443
-0.001312255859375,-0.1823577880859375,-0.9387054443359375,0.20630230009555817,-0.24874936044216156,0.1481979936361313
-0.0143890380859375,-0.1706390380859375,-0.9499053955078125,0.15426360070705414,-0.18062357604503632,0.1075030267238617
-0.0165557861328125,-0.16375732421875,-0.962890625,0.1280471831560135,-0.16432076692581177,0.028868399560451508
-0.0192108154296875,-0.157012939453125,-0.9771728515625,0.11656975746154785,-0.1544329822063446,-0.02099955826997757
-0.00958251953125,-0.1576690673828125,-0.986114501953125,0.11654552072286606,-0.18111759424209595,0.0021379857789725065
0.0037078857421875,-0.1647796630859375,-0.9867095947265625,0.10731207579374313,-0.2485075443983078,0.052742306143045425
0.0173797607421875,-0.1669464111328125,-0.9803924560546875,0.09401917457580566,-0.33434468507766724,0.11262188851833344
0.028564453125,-0.1643829345703125,-0.987640380859375,0.08715540915727615,-0.447746604681015,0.14017175137996674
0.0325927734375,-0.1654510498046875,-0.999755859375,0.08315187692642212,-0.6126149296760559,0.1255320906639099
0.0279998779296875,-0.165802001953125,-0.988525390625,0.07769425958395004,-0.7560405135154724,0.07912198454141617
0.0220184326171875,-0.1627655029296875,-0.96533203125,0.05425844341516495,-0.7663781046867371,0.024235565215349197
0.0064239501953125,-0.154632568359375,-0.9293060302734375,0.013206083327531815,-0.5927903652191162,0.008187889121472836
-0.018707275390625,-0.13812255859375,-0.9110565185546875,-0.04237648472189903,-0.3073152005672455,0.03714150935411453
-0.0334930419921875,-0.1226654052734375,-0.9101104736328125,-0.062014900147914886,-0.047868989408016205,0.07350777089595795
-0.0395965576171875,-0.1209869384765625,-0.9249420166015625,-0.026148246601223946,0.057196445763111115,0.08668189495801926
-0.04974365234375,-0.1369781494140625,-0.94384765625,0.07848362624645233,0.005312473513185978,0.06015574932098389
-0.0607147216796875,-0.1617279052734375,-0.98272705078125,0.22915595769882202,-0.15029630064964294,-0.014083595015108585
-0.0559234619140625,-0.183929443359375,-1.015228271484375,0.3798956573009491,-0.32961305975914,-0.10874911397695541
-0.0455169677734375,-0.1961822509765625,-1.0170135498046875,0.5094789862632751,-0.4548359513282776,-0.1946994513273239
-0.034027099609375,-0.19989013671875,-1.011444091796875,0.5939597487449646,-0.5625320672988892,-0.263454794883728
-0.0155487060546875,-0.2020721435546875,-0.9980316162109375,0.6211133599281311,-0.5510618090629578,-0.2953682541847229
-0.0081787109375,-0.1986083984375,-0.9781646728515625,0.6068638563156128,-0.32087334990501404,-0.2751351594924927
-0.0168609619140625,-0.192169189453125,-0.9721832275390625,0.5781466960906982,-0.001026382320560515,-0.20024095475673676
-0.0357818603515625,-0.190277099609375,-0.97418212890625,0.5474742650985718,0.22376304864883423,-0.07944928854703903
-0.0478363037109375,-0.192138671875,-0.9734954833984375,0.5221481323242188,0.20120207965373993,0.05157477781176567
-0.0395965576171875,-0.1998138427734375,-0.9752197265625,0.5044341087341309,-0.03207351267337799,0.13042618334293365
-0.0206146240234375,-0.2126922607421875,-0.9821929931640625,0.46886709332466125,-0.2991912364959717,0.14063754677772522
-0.0114288330078125,-0.22564697265625,-0.9691925048828125,0.37787672877311707,-0.4547603130340576,0.10843753069639206
-0.0167388916015625,-0.230438232421875,-0.9376678466796875,0.22703874111175537,-0.43568968772888184,0.0607251338660717
-0.0348663330078125,-0.228607177734375,-0.9110565185546875,0.05840924754738808,-0.2783682346343994,0.02472478710114956
-0.063934326171875,-0.219940185546875,-0.903900146484375,-0.08194573223590851,-0.10636292397975922,0.001537709147669375
-0.0820465087890625,-0.2071990966796875,-0.91448974609375,-0.1581622064113617,0.00032197617110796273,-0.024280039593577385
-0.09375,-0.1951904296875,-0.9438323974609375,-0.16237612068653107,-0.009121593087911606,-0.050568368285894394
-0.07867431640625,-0.19561767578125,-0.993743896484375,-0.11626775562763214,-0.07363320887088776,-0.08387839049100876
-0.057769775390625,-0.203826904296875,-1.0184478759765625,-0.03532310202717781,-0.14073394238948822,-0.11024820804595947
-0.0533599853515625,-0.211822509765625,-1.0485076904296875,0.05010657757520676,-0.2596326470375061,-0.11559903621673584
-0.0328216552734375,-0.2183837890625,-1.0551300048828125,0.11055553704500198,-0.3870273530483246,-0.11633539944887161
-0.0316619873046875,-0.2111968994140625,-1.02386474609375,0.12758804857730865,-0.4443550705909729,-0.12071762979030609
-0.053680419921875,-0.1927642822265625,-0.9928741455078125,0.12421116232872009,-0.3882894217967987,-0.14745283126831055
-0.0595855712890625,-0.192352294921875,-0.960723876953125,0.09127078950405121,-0.2563875615596771,-0.17969626188278198
-0.0742950439453125,-0.214080810546875,-0.94317626953125,0.03876417502760887,-0.09836651384830475,-0.18599410355091095
-0.1000823974609375,-0.2462615966796875,-0.9373016357421875,-0.010939200408756733,0.018182998523116112,-0.13577301800251007
-0.103271484375,-0.2657012939453125,-0.9491119384765625,-0.03283863887190819,0.03427621349692345,-0.03988003730773926
-0.0717010498046875,-0.260467529296875,-0.984161376953125,-0.017484717071056366,-0.05871071666479111,0.08666964620351791
-0.0291595458984375,-0.248199462890625,-1.0220184326171875,0.04153812304139137,-0.1568375527858734,0.21094739437103271
-0.0215911865234375,-0.2303314208984375,-1.027740478515625,0.1155252605676651,-0.14975354075431824,0.28064924478530884
-0.03656005859375,-0.2029266357421875,-1.00421142578125,0.19174759089946747,-0.06603094935417175,0.2671789824962616
-0.06536865234375,-0.179595947265625,-0.9713134765625,0.2614632844924927,0.05053960531949997,0.14873914420604706
-0.1098175048828125,-0.1629791259765625,-0.9628143310546875,0.37148672342300415,0.28157949447631836,-0.030783478170633316
-0.160369873046875,-0.1721954345703125,-0.9717559814453125,0.3451763093471527,0.34832388162612915,-0.181244358420372
-0.177215576171875,-0.215301513671875,-1.0010528564453125,0.22212627530097961,0.1829565018415451,-0.20673373341560364
-0.111083984375,-0.2470703125,-0.9769287109375,0.018075939267873764,0.0857151672244072,-0.11254891753196716
-0.0364532470703125,-0.254608154296875,-0.9466400146484375,-0.23544608056545258,0.09323833137750626,0.03399711474776268
0.003326416015625,-0.2442626953125,-0.916839599609375,-0.47918203473091125,0.17356432974338531,0.1732681840658188
-0.01361083984375,-0.2256011962890625,-0.916839599609375,-0.6163659691810608,0.3184187114238739,0.2687329351902008
-0.058074951171875,-0.2239837646484375,-0.971221923828125,-0.603636622428894,0.43703192472457886,0.31026411056518555
-0.09332275390625,-0.234710693359375,-1.0285491943359375,-0.46542468667030334,0.49843350052833557,0.3150024116039276
-0.10906982421875,-0.2216033935546875,-1.0672760009765625,-0.2963871955871582,0.5036165118217468,0.31863871216773987
-0.0944976806640625,-0.2037353515625,-1.0783233642578125,-0.1588549017906189,0.483235627412796,0.3387029469013214
-0.0663604736328125,-0.201263427734375,-1.0632781982421875,-0.13728781044483185,0.5352229475975037,0.429324746131897
-0.0420989990234375,-0.2127685546875,-1.022674560546875,-0.18770518898963928,0.5852664113044739,0.5857803821563721
-0.025726318359375,-0.2125091552734375,-0.980224609375,-0.27311035990715027,0.6146668791770935,0.7253390550613403
-0.0339202880859375,-0.1953887939453125,-0.9656829833984375,-0.39219093322753906,0.6753150820732117,0.8056296706199646
-0.0357666015625,-0.1840972900390625,-0.9672698974609375,-0.48761627078056335,0.6938083171844482,0.8720545172691345
-0.0345916748046875,-0.1832122802734375,-0.99200439453125,-0.542076051235199,0.6438325047492981,0.7813549637794495
-0.0183258056640625,-0.1809234619140625,-1.007568359375,-0.5490700602531433,0.5043270587921143,0.7028084993362427
-0.00140380859375,-0.174591064453125,-1.0016632080078125,-0.5209377408027649,0.3603946566581726,0.6148847341537476
-0.0063629150390625,-0.15972900390625,-1.00335693359375,-0.4416711628437042,0.30563873052597046,0.5159496665000916
-0.023895263671875,-0.1483917236328125,-1.0506744384765625,-0.30786940455436707,0.24542386829853058,0.4204745292663574
-0.0432891845703125,-0.1478729248046875,-1.0911865234375,-0.1519370675086975,0.09965895116329193,0.31825652718544006
-0.0408477783203125,-0.1485595703125,-1.08001708984375,0.0032237565610557795,0.0032783513888716698,0.21497862040996552
-0.033203125,-0.15087890625,-1.050933837890625,0.13201822340488434,0.009914948605000973,0.12709882855415344
-0.034210205078125,-0.1537322998046875,-1.01495361328125,0.20378269255161285,0.05315456539392471,0.06855935603380203
-0.032257080078125,-0.15771484375,-0.9691925048828125,0.2160835564136505,0.07223425060510635,0.04240045323967934
-0.0166015625,-0.167694091796875,-0.9354248046875,0.1728101223707199,0.07692008465528488,0.0347321480512619
-0.0035247802734375,-0.1760101318359375,-0.9188995361328125,0.09818169474601746,0.09249824285507202,0.04417252168059349
-0.0029449462890625,-0.1793670654296875,-0.9107208251953125,0.010000436566770077,0.1438429206609726,0.05511997640132904
-0.0214996337890625,-0.1776123046875,-0.925750732421875,-0.045411158353090286,0.24548353254795074,0.06615851074457169
-0.0450592041015625,-0.1719818115234375,-0.9587554931640625,-0.05736928433179855,0.3629198670387268,0.08696525543928146
-0.049346923828125,-0.1663055419921875,-0.98681640625,-0.019785156473517418,0.3705301284790039,0.09724453091621399
-0.0322113037109375,-0.163360595703125,-0.9867706298828125,0.03996153175830841,0.26884424686431885,0.08050043135881424
-0.0095367431640625,-0.1631927490234375,-0.974395751953125,0.09990902245044708,0.17440003156661987,0.034810710698366165
6.103515625e-05,-0.1625518798828125,-0.9633331298828125,0.12600161135196686,0.12825250625610352,-0.026749322190880775
0.0060272216796875,-0.16558837890625,-0.9609222412109375,0.11743155121803284,0.08890696614980698,-0.09974097460508347
0.021392822265625,-0.1742401123046875,-0.95538330078125,0.07013408094644547,0.02303820662200451,-0.15922054648399353
0.0363922119140625,-0.19024658203125,-0.9443511962890625,0.0019773971289396286,-0.020553478971123695,-0.19094358384609222
0.03509521484375,-0.2045135498046875,-0.9367523193359375,-0.07182758301496506,0.03945552930235863,-0.17788371443748474
0.0184173583984375,-0.2101898193359375,-0.9452972412109375,-0.1353684812784195,0.15117566287517548,-0.12385296821594238
0.0189208984375,-0.2038116455078125,-0.952392578125,-0.1753515750169754,0.2312374860048294,-0.045519016683101654
0.0303192138671875,-0.1870574951171875,-0.9493560791015625,-0.1665426343679428,0.29972440004348755,0.03829013183712959
0.03887939453125,-0.1701202392578125,-0.97296142578125,-0.11517425626516342,0.320762574672699,0.11495721340179443
0.04827880859375,-0.1621246337890625,-0.99676513671875,-0.03351055458188057,0.24860848486423492,0.16373726725578308
0.051727294921875,-0.149261474609375,-0.9872894287109375,0.15130695700645447,0.12549613416194916,0.16444380581378937
0.0364990234375,-0.1558685302734375,-0.958770751953125,0.2201150506734848,0.29041531682014465,0.1030302420258522
0.0067138671875,-0.16131591796875,-0.998382568359375,0.19889232516288757,0.35808998346328735,0.06680832803249359
0.003692626953125,-0.1465301513671875,-1.006134033203125,0.10897575318813324,0.25338032841682434,0.03857509046792984
0.027587890625,-0.157806396484375,-1.009765625,-0.004304467234760523,0.12088514119386673,0.016505740582942963
0.03594970703125,-0.15814208984375,-1.02056884765625,-0.10473919659852982,0.025725603103637695,-0.0006671218434348702
0.034149169921875,-0.1561279296875,-1.030242919921875,-0.17049823701381683,-0.013087039813399315,-0.004025900736451149
0.0187835693359375,-0.1644287109375,-1.0222015380859375,-0.21468514204025269,-0.02136813849210739,0.00697987899184227
0.02410888671875,-0.1420440673828125,-0.99407958984375,-0.24427232146263123,0.05397135764360428,0.029322734102606773
0.0237884521484375,-0.1290740966796875,-0.9709625244140625,-0.28075575828552246,0.16652905941009521,0.05390637367963791
0.033843994140625,-0.1323089599609375,-0.9526214599609375,-0.34138980507850647,0.23212990164756775,0.0756010189652443
0.055938720703125,-0.1461334228515625,-0.9432373046875,-0.41409119963645935,0.2503927946090698,0.095965676009655
0.0695037841796875,-0.1621246337890625,-0.954437255859375,-0.4754892885684967,0.2280816286802292,0.10106536746025085
0.0749664306640625,-0.170257568359375,-0.9766082763671875,-0.5063390731811523,0.2066921889781952,0.09277414530515671
0.0659637451171875,-0.166595458984375,-1.005828857421875,-0.4906653165817261,0.19318251311779022,0.03479286655783653
0.048370361328125,-0.1546173095703125,-1.0393524169921875,-0.42237043380737305,0.14705336093902588,0.042458243668079376
0.041473388671875,-0.142242431640625,-1.0610198974609375,-0.3053801655769348,0.0651792660355568,-0.013035374693572521
0.044158935546875,-0.1348876953125,-1.0677642822265625,-0.16568110883235931,-0.025483788922429085,-0.05932910367846489
0.0420074462890625,-0.133087158203125,-1.0599517822265625,-0.02647155523300171,-0.06287776678800583,-0.0934002548456192
0.0442047119140625,-0.1375274658203125,-1.043121337890625,0.08494924753904343,-0.049141980707645416,-0.09167639166116714
0.04736328125,-0.1447906494140625,-1.0169830322265625,0.15041986107826233,0.006046707276254892,-0.05410531163215637
0.0509033203125,-0.15130615234375,-0.993927001953125,0.17063778638839722,0.05403580516576767,0.0016088156262412667
0.059356689453125,-0.1570892333984375,-0.9685821533203125,0.16022402048110962,0.08593488484621048,0.05693305656313896
0.0583648681640625,-0.158721923828125,-0.9481964111328125,0.1447305530309677,0.11185222864151001,0.08925823867321014
0.044921875,-0.156494140625,-0.9526824951171875,0.1325330138206482,0.13318228721618652,0.089885413646698
0.0351104736328125,-0.153594970703125,-0.9705963134765625,0.12984880805015564,0.14762035012245178,0.06779395788908005
0.0275421142578125,-0.14813232421875,-0.9915924072265625,0.12555046379566193,0.13242541253566742,0.051366519182920456
0.0262908935546875,-0.143768310546875,-0.999053955078125,0.10901650041341782,0.0902918130159378,0.024157799780368805
0.0346221923828125,-0.1410369873046875,-0.9918060302734375,0.08265626430511475,0.029693180695176125,-0.0025039040483534336
0.03863525390625,-0.1430816650390625,-0.978607177734375,0.03314783424139023,-0.02172446995973587,-0.019642943516373634
0.042572021484375,-0.1481781005859375,-0.96533203125,-0.03898921236395836,-0.053588125854730606,-0.02575037069618702
0.05450439453125,-0.1565093994140625,-0.9562530517578125,-0.12245640903711319,-0.04441114142537117,-0.015835421159863472
0.061248779296875,-0.1630859375,-0.9517059326171875,-0.1853855699300766,0.020499948412179947,0.011658786796033382
0.0588226318359375,-0.1608428955078125,-0.95843505859375,-0.21822874248027802,0.08775195479393005,0.052148688584566116
0.05548095703125,-0.1495361328125,-0.9723052978515625,-0.2034601867198944,0.12949061393737793,0.085832878947258
0.05706787109375,-0.1393890380859375,-0.9948883056640625,-0.1472530961036682,0.11656948924064636,0.09242953360080719
0.047637939453125,-0.1326141357421875,-1.014984130859375,-0.07572352141141891,0.07554802298545837,0.07204277068376541
0.0388641357421875,-0.1311187744140625,-1.0234222412109375,-0.015789082273840904,0.03861024230718613,0.047689758241176605
0.0416107177734375,-0.1299896240234375,-1.02362060546875,0.060754694044589996,-0.08953920006752014,0.02895495295524597
0.0501251220703125,-0.13555908203125,-0.9985809326171875,0.13495248556137085,-0.09077464044094086,0.015857527032494545
0.04425048828125,-0.1491851806640625,-0.9860076904296875,0.1501636654138565,0.09449667483568192,0.024109862744808197
0.0333709716796875,-0.12945556640625,-1.010040283203125,0.13655544817447662,0.2164556086063385,0.062426626682281494
0.0454864501953125,-0.11383056640625,-1.02301025390625,0.10030316561460495,0.24614159762859344,0.10686279833316803
0.0558013916015625,-0.1162872314453125,-1.0279083251953125,0.057262223213911057,0.22346851229667664,0.15022093057632446
0.04803466796875,-0.1126708984375,-1.0355987548828125,0.023964455351233482,0.21275433897972107,0.1939830482006073
0.0218505859375,-0.1187286376953125,-1.054840087890625,0.026884611696004868,0.22076673805713654,0.22127538919448853
0.001556396484375,-0.1448822021484375,-1.0417022705078125,0.054003313183784485,0.24285365641117096,0.23448680341243744
0.0205535888671875,-0.124969482421875,-1.0121612548828125,0.05637778714299202,0.28816041350364685,0.23224735260009766
0.0349884033203125,-0.1062164306640625,-0.9796295166015625,0.022373482584953308,0.32375970482826233,0.22165915369987488
0.047882080078125,-0.105926513671875,-0.96295166015625,-0.041131459176540375,0.3506760001182556,0.20171234011650085
0.0591278076171875,-0.121368408203125,-0.9637451171875,-0.1277901828289032,0.3500562906265259,0.17016001045703888
0.061553955078125,-0.1393280029296875,-0.968719482421875,-0.22016964852809906,0.307533323764801,0.14583736658096313
0.063690185546875,-0.156463623046875,-0.968475341796875,-0.3030349612236023,0.294761598110199,0.16870778799057007
0.0622406005859375,-0.1670684814453125,-0.9785919189453125,-0.35466113686561584,0.30601823329925537,0.15673448145389557
0.0567169189453125,-0.166900634765625,-0.9905242919921875,-0.35712429881095886,0.3477872610092163,0.1447792947292328
0.0550079345703125,-0.155548095703125,-0.9962158203125,-0.3175044655799866,0.3642384111881256,0.15631823241710663
0.0525970458984375,-0.141326904296875,-0.9925384521484375,-0.263374388217926,0.34576165676116943,0.16488589346408844
0.05572509765625,-0.1344451904296875,-0.98046875,-0.22635804116725922,0.2875468134880066,0.1772719919681549
0.071533203125,-0.134613037109375,-0.9632110595703125,-0.2088882327079773,0.25065407156944275,0.1797226220369339
0.0875396728515625,-0.13104248046875,-0.955413818359375,-0.19558334350585938,0.24993979930877686,0.1751057654619217
0.1012115478515625,-0.12652587890625,-0.957000732421875,-0.18260523676872253,0.2577713429927826,0.15176396071910858
0.1095123291015625,-0.125091552734375,-0.9606475830078125,-0.15505775809288025,0.22463656961917877,0.1128903329372406
0.1121978759765625,-0.12628173828125,-0.9622802734375,-0.12365350127220154,0.1576996147632599,0.07172798365354538
0.111663818359375,-0.124298095703125,-0.967132568359375,-0.08771733194589615,0.09086732566356659,0.0390978679060936
0.106292724609375,-0.1162109375,-0.9842071533203125,-0.06691298633813858,0.03971705213189125,0.0297259371727705
0.092742919921875,-0.1092681884765625,-1.001922607421875,-0.06639154255390167,0.01299409568309784,0.03105325624346733
0.079345703125,-0.112213134765625,-1.009307861328125,-0.09048596024513245,0.0015227955300360918,0.023064039647579193
0.0701141357421875,-0.1198272705078125,-0.999298095703125,-0.1093701645731926,0.0016711335629224777,-0.0022479742765426636
0.06787109375,-0.12640380859375,-0.98248291015625,-0.12241752445697784,-0.08858312666416168,-0.033489517867565155
0.068267822265625,-0.1230926513671875,-0.9512176513671875,-0.08134385943412781,-0.2842234671115875,-0.057985272258520126
0.1009063720703125,-0.100921630859375,-0.9279937744140625,-0.06626583635807037,-0.18247553706169128,-0.06258854269981384
0.1165771484375,-0.073455810546875,-0.9725341796875,-0.03333265706896782,0.05254443362355232,-0.08263149857521057
0.1037445068359375,-0.057861328125,-1.012542724609375,0.05408347398042679,0.24007464945316315,-0.14493028819561005
0.0900726318359375,-0.0623626708984375,-1.0319061279296875,0.1441023200750351,0.3299906849861145,-0.22243013978004456
0.0779266357421875,-0.0824432373046875,-1.0483245849609375,0.20946533977985382,0.25490260124206543,-0.28793299198150635
0.0820770263671875,-0.113189697265625,-1.04730224609375,0.2492886483669281,-0.008356200531125069,-0.3158426582813263
0.1007537841796875,-0.1360931396484375,-1.02679443359375,0.2574253976345062,-0.2650255262851715,-0.2953141927719116
0.1313629150390625,-0.127655029296875,-1.0082855224609375,0.20981287956237793,-0.3845633864402771,-0.2497624307870865
0.1441650390625,-0.1173553466796875,-0.986236572265625,0.12207797169685364,-0.3939038813114166,-0.17792552709579468
0.1451416015625,-0.116668701171875,-0.9635162353515625,0.014460698701441288,-0.3305366337299347,-0.11230257153511047
0.1278228759765625,-0.1226959228515625,-0.952178955078125,-0.07790065556764603,-0.2605104148387909,-0.056360743939876556
0.1072845458984375,-0.132720947265625,-0.9588775634765625,-0.13040220737457275,-0.22334226965904236,-0.03051742911338806
0.091705322265625,-0.140167236328125,-0.974365234375,-0.1421656608581543,-0.22008202970027924,-0.034023746848106384
0.081573486328125,-0.1367034912109375,-0.991180419921875,-0.1121547669172287,-0.24506328999996185,-0.0682578831911087
0.0758209228515625,-0.1254425048828125,-1.009613037109375,-0.04032398760318756,-0.27704811096191406,-0.12381595373153687
0.0745086669921875,-0.116973876953125,-1.0259857177734375,0.05546938255429268,-0.32674935460090637,-0.19539852440357208
0.07330322265625,-0.1139984130859375,-1.035736083984375,0.13690219819545746,-0.38348454236984253,-0.2882933020591736
0.069244384765625,-0.1181488037109375,-1.036346435546875,0.1899547576904297,-0.43189334869384766,-0.2952337861061096
0.0665435791015625,-0.12109375,-1.019500732421875,0.21709609031677246,-0.4184150993824005,-0.31428390741348267
0.0584716796875,-0.1167755126953125,-1.00750732421875,0.2571937143802643,-0.33662301301956177,-0.3101746439933777
0.0500335693359375,-0.1110687255859375,-1.009368896484375,0.31739580631256104,-0.26262471079826355,-0.30123892426490784
0.0531463623046875,-0.109619140625,-1.01043701171875,0.39557716250419617,-0.24646277725696564,-0.2912430167198181
0.061737060546875,-0.1153411865234375,-1.0072784423828125,0.4764919877052307,-0.27169570326805115,-0.26145264506340027
0.074188232421875,-0.1257781982421875,-0.99774169921875,0.504646897315979,-0.2978503406047821,-0.20860300958156586
0.0793609619140625,-0.136993408203125,-0.977142333984375,0.4454523026943207,-0.2971041202545166,-0.12003319710493088
0.08624267578125,-0.148834228515625,-0.9512939453125,0.33797192573547363,-0.23697713017463684,-0.034631215035915375
0.07354736328125,-0.1608428955078125,-0.9448699951171875,0.24253274500370026,-0.14291134476661682,0.001070857048034668
0.0449371337890625,-0.166656494140625,-0.9598236083984375,0.18946313858032227,-0.08723290264606476,-0.029466545209288597
0.0225830078125,-0.1605377197265625,-0.977508544921875,0.20837503671646118,-0.0941520631313324,-0.11136167496442795
0.0104827880859375,-0.15081787109375,-0.998626708984375,0.2831358313560486,-0.15655578672885895,-0.22030973434448242
0.0175018310546875,-0.1444549560546875,-1.0145721435546875,0.35569924116134644,-0.2512202560901642,-0.3043239414691925
0.0387115478515625,-0.137847900390625,-1.0099639892578125,0.38584595918655396,-0.32034897804260254,-0.3429933190345764
0.0584564208984375,-0.1383056640625,-1.0041961669921875,0.3723229765892029,-0.3866387903690338,-0.34484341740608215
0.074462890625,-0.154052734375,-0.99853515625,0.29340898990631104,-0.557543158531189,-0.32977578043937683
0.083740234375,-0.16937255859375,-0.96661376953125,0.16930833458900452,-0.7558373212814331,-0.3129318058490753
0.07568359375,-0.175689697265625,-0.9419708251953125,0.0423586405813694,-0.8481369018554688,-0.3201526999473572
0.044464111328125,-0.179443359375,-0.9496917724609375,-0.049734268337488174,-0.7780901789665222,-0.34734490513801575
0.002166748046875,-0.1836395263671875,-0.9799346923828125,-0.053048305213451385,-0.564483106136322,-0.39662909507751465
-0.02838134765625,-0.184417724609375,-1.011871337890625,0.019863186404109,-0.3670285940170288,-0.4382636249065399
-0.0352935791015625,-0.1832427978515625,-1.01739501953125,0.1298469454050064,-0.2917253375053406,-0.4319833815097809
-0.01806640625,-0.1761322021484375,-1.0170440673828125,0.23683491349220276,-0.34210941195487976,-0.3631473183631897
0.01226806640625,-0.16510009765625,-1.0328521728515625,0.32856830954551697,-0.4327431619167328,-0.2671094536781311
0.0323486328125,-0.1550140380859375,-1.062469482421875,0.4199565351009369,-0.47544029355049133,-0.1880575269460678
0.0277557373046875,-0.1523590087890625,-1.0888519287109375,0.48877182602882385,-0.484210342168808,-0.14607198536396027
-0.0082855224609375,-0.1585845947265625,-1.065338134765625,0.5129815340042114,-0.3947979211807251,-0.13105815649032593
-0.06024169921875,-0.17144775390625,-1.018890380859375,0.4964126944541931,-0.2387494593858719,-0.11187353730201721
-0.1021881103515625,-0.180816650390625,-0.9541168212890625,0.45315471291542053,0.009359147399663925,-0.09410785883665085
-0.129913330078125,-0.195709228515625,-0.8765716552734375,0.37373578548431396,0.5005475282669067,-0.01708977110683918
-0.085662841796875,-0.1624908447265625,-0.9371337890625,0.2477053999900818,0.671565055847168,0.0976535901427269
-0.0277252197265625,-0.15570068359375,-0.944671630859375,0.09439254552125931,0.6175169944763184,0.1879400759935379
-0.0061492919921875,-0.1950531005859375,-0.955352783203125,-0.04673687741160393,0.49758180975914,0.20621255040168762
-0.0245513916015625,-0.241119384765625,-0.968414306640625,-0.16457056999206543,0.39789196848869324,0.16611520946025848
-0.0338897705078125,-0.2699432373046875,-0.9560394287109375,-0.25960707664489746,0.31597819924354553,0.1692689210176468
-0.00360107421875,-0.215667724609375,-0.937896728515625,-0.326587438583374,0.32970574498176575,0.20876359939575195
0.0051727294921875,-0.1666107177734375,-0.933685302734375,-0.3613129258155823,0.4235387444496155,0.2537696957588196
0.00042724609375,-0.1391754150390625,-0.9474945068359375,-0.3691519498825073,0.5157679915428162,0.27729180455207825
-0.01617431640625,-0.1385345458984375,-0.97052001953125,-0.35393545031547546,0.571220338344574,0.26903092861175537
-0.02978515625,-0.15570068359375,-0.997894287109375,-0.32557862997055054,0.5790359377861023,0.2388804852962494
-0.0245208740234375,-0.1755218505859375,-1.01287841796875,-0.3055436611175537,0.5485741496086121,0.20557180047035217
-0.006317138671875,-0.1812744140625,-1.005096435546875,-0.3158271908760071,0.5064456462860107,0.19144852459430695
0.017181396484375,-0.1789093017578125,-0.987518310546875,-0.35156896710395813,0.44953787326812744,0.20023030042648315
0.043487548828125,-0.175811767578125,-0.9731903076171875,-0.3964352309703827,0.4259582459926605,0.21853554248809814
0.05743408203125,-0.170989990234375,-0.977691650390625,-0.42600855231285095,0.3972000777721405,0.2267572432756424
0.0579986572265625,-0.162017822265625,-0.9963531494140625,-0.43703991174697876,0.31995484232902527,0.2210407704114914
0.0556182861328125,-0.156585693359375,-1.0112457275390625,-0.4280890226364136,0.19255267083644867,0.19610825181007385
0.047943115234375,-0.1532745361328125,-1.0200653076171875,-0.39236724376678467,0.05763399973511696,0.15801653265953064
0.035064697265625,-0.145660400390625,-1.0198211669921875,-0.3411312401294708,-0.03260481357574463,0.10529979318380356
0.0225982666015625,-0.1368408203125,-1.01654052734375,-0.2759104073047638,-0.057197242975234985,0.05817994847893715
0.014190673828125,-0.1297454833984375,-1.0161895751953125,-0.20690204203128815,-0.04519251361489296,0.013878530822694302
0.0167694091796875,-0.125030517578125,-1.0145263671875,-0.15145955979824066,-0.03433666750788689,-0.012227904051542282
0.026458740234375,-0.1221160888671875,-1.0037994384765625,-0.12317146360874176,-0.01840883493423462,-0.005423261318355799
0.0347900390625,-0.12298583984375,-0.9961090087890625,-0.13130582869052887,0.002894856035709381,0.02010340429842472
0.044769287109375,-0.1267852783203125,-0.9892120361328125,-0.16304245591163635,0.0123645244166255,0.047805074602365494
0.0547027587890625,-0.1297760009765625,-0.9835205078125,-0.20986667275428772,0.033615484833717346,0.06540004163980484
0.0568084716796875,-0.1322784423828125,-0.9862823486328125,-0.24742203950881958,0.0621107742190361,0.07262067496776581
0.0549163818359375,-0.1351165771484375,-0.9956512451171875,-0.25333985686302185,0.06439363956451416,0.05457376316189766
0.0499725341796875,-0.1394805908203125,-1.0034027099609375,-0.23183563351631165,0.0028431906830519438,0.017254620790481567
0.050537109375,-0.1415557861328125,-1.0007781982421875,-0.2070314735174179,-0.11557106673717499,-0.02864096499979496
0.053009033203125,-0.143890380859375,-0.9830169677734375,-0.20291583240032196,-0.19129805266857147,-0.054911185055971146
0.054901123046875,-0.1448822021484375,-0.9752044677734375,-0.22133851051330566,-0.1410873532295227,-0.0454108901321888
0.05438232421875,-0.14544677734375,-0.98406982421875,-0.25721368193626404,-0.03923102468252182,-0.00039787625428289175
0.04730224609375,-0.147308349609375,-0.994659423828125,-0.28193047642707825,0.046015430241823196,0.07803940773010254
0.043426513671875,-0.148895263671875,-1.0117340087890625,-0.27895814180374146,0.09275870025157928,0.16418388485908508
0.0441436767578125,-0.1380462646484375,-1.0221710205078125,-0.25773167610168457,0.10018918663263321,0.24587129056453705
0.0568695068359375,-0.11749267578125,-1.01788330078125,-0.2275247722864151,0.10161744058132172,0.30794665217399597
0.0729827880859375,-0.10064697265625,-1.0096282958984375,-0.19340994954109192,0.11199497431516647,0.35663720965385437
0.0853271484375,-0.0944976806640625,-1.0016632080078125,-0.17438165843486786,0.12625433504581451,0.38435086607933044
0.0843505859375,-0.0954742431640625,-0.9941558837890625,-0.17682404816150665,0.14976046979427338,0.39527755975723267
0.072906494140625,-0.104400634765625,-0.993988037109375,-0.17021061480045319,0.2051914930343628,0.3969747722148895
0.050567626953125,-0.1180572509765625,-1.00811767578125,-0.15849483013153076,0.24122673273086548,0.41032788157463074
0.0393829345703125,-0.12939453125,-1.01751708984375,-0.12816116213798523,0.20940808951854706,0.42027026414871216
0.037017822265625,-0.12554931640625,-1.0205078125,-0.07184436172246933,0.18202492594718933,0.4227781593799591
0.04644775390625,-0.1068267822265625,-1.0279083251953125,-0.0073380740359425545,0.16268745064735413,0.39881449937820435
0.0542449951171875,-0.086395263671875,-1.023590087890625,0.05320889130234718,0.14134620130062103,0.34944775700569153
0.0576324462890625,-0.0775146484375,-1.0120849609375,0.08492421358823776,0.08418624848127365,0.28492921590805054
0.0562896728515625,-0.0839385986328125,-0.9941864013671875,0.08198408037424088,0.0107682254165411,0.21285101771354675
0.0506439208984375,-0.09112548828125,-0.9753570556640625,0.031915854662656784,-0.04584471881389618,0.14292067289352417
0.0467071533203125,-0.099395751953125,-0.9621734619140625,-0.06610658019781113,-0.0639243870973587,0.09818568825721741
0.042694091796875,-0.10772705078125,-0.950164794921875,-0.20396378636360168,-0.06662669777870178,0.0852280780673027
0.038970947265625,-0.10968017578125,-0.9464263916015625,-0.3566204309463501,-0.05736608803272247,0.10080117732286453
0.037506103515625,-0.10577392578125,-0.9529571533203125,-0.48067474365234375,-0.030433006584644318,0.12419518828392029
0.0429229736328125,-0.1009674072265625,-0.970062255859375,-0.5395652055740356,0.005629656370729208,0.1411547213792801
0.04718017578125,-0.095672607421875,-0.9932098388671875,-0.5251433849334717,0.026313895359635353,0.14101438224315643
0.04736328125,-0.095428466796875,-1.016632080078125,-0.452751487493515,-0.0083085298538208,0.1465497612953186
0.0538330078125,-0.0967559814453125,-1.01922607421875,-0.3716462552547455,-0.08515270799398422,0.1691749095916748
0.0638275146484375,-0.096343994140625,-1.0166168212890625,-0.309294730424881,-0.12708604335784912,0.2216237336397171
0.0725555419921875,-0.089569091796875,-1.0112762451171875,-0.28749728202819824,-0.0717463567852974,0.2879018187522888
0.068267822265625,-0.0709228515625,-1.010986328125,-0.2698112428188324,0.03604934737086296,0.32270482182502747
0.0550689697265625,-0.0492095947265625,-1.0167236328125,-0.2314944714307785,0.13274073600769043,0.2891883850097656
0.0421295166015625,-0.033843994140625,-1.023284912109375,-0.16793814301490784,0.16234789788722992,0.1947692185640335
0.0316314697265625,-0.0301055908203125,-1.0231170654296875,-0.0854528471827507,0.11039095371961594,0.0933842733502388
0.03271484375,-0.03765869140625,-1.0256805419921875,-0.008102134801447392,0.023126358166337013,0.0104150902479887
0.0409698486328125,-0.0398712158203125,-1.031829833984375,0.04921787977218628,-0.08689495176076889,-0.049796584993600845
0.0468902587890625,-0.0416107177734375,-1.025726318359375,0.08520197868347168,-0.1765366792678833,-0.09506739675998688
0.04766845703125,-0.0491485595703125,-1.0161895751953125,0.09716649353504181,-0.23429186642169952,-0.12882696092128754
0.04150390625,-0.0580291748046875,-1.00714111328125,0.09108942747116089,-0.27128076553344727,-0.16583263874053955
0.02825927734375,-0.0687255859375,-0.99981689453125,0.09804427623748779,-0.30880603194236755,-0.2046000063419342
0.0137939453125,-0.076416015625,-1.002532958984375,0.12895265221595764,-0.39613693952560425,-0.2706195116043091
0.0045318603515625,-0.0781097412109375,-1.020843505859375,0.2014838457107544,-0.5137277841567993,-0.3507572114467621
0.01251220703125,-0.0725860595703125,-1.040191650390625,0.3070710003376007,-0.5323906540870667,-0.4287814497947693
0.01837158203125,-0.0564117431640625,-1.0496063232421875,0.43179935216903687,-0.47906991839408875,-0.4828060567378998
0.0216827392578125,-0.0427093505859375,-1.048919677734375,0.5333254337310791,-0.45674198865890503,-0.495078980922699
0.03729248046875,-0.048858642578125,-1.0269622802734375,0.5808774828910828,-0.4922557771205902,-0.46271783113479614
0.0493621826171875,-0.068695068359375,-0.9956512451171875,0.5535987615585327,-0.5215502977371216,-0.3907083570957184
0.044891357421875,-0.0873260498046875,-0.9714813232421875,0.45900991559028625,-0.5486729741096497,-0.3037031590938568
0.032684326171875,-0.103729248046875,-0.9661712646484375,0.3417634665966034,-0.5260741710662842,-0.22242482006549835
0.0308837890625,-0.121734619140625,-0.9713897705078125,0.23018819093704224,-0.4508875608444214,-0.1613641232252121
0.0119476318359375,-0.1292724609375,-0.976348876953125,0.1660480946302414,-0.3537532687187195,-0.12430384010076523
-0.014495849609375,-0.12762451171875,-0.9838714599609375,0.1617335081100464,-0.24963194131851196,-0.10454078763723373
-0.034454345703125,-0.1188201904296875,-0.9906005859375,0.21120944619178772,-0.1874801516532898,-0.10470084846019745
-0.04119873046875,-0.1047515869140625,-0.99700927734375,0.2962503135204315,-0.19906969368457794,-0.13412292301654816
-0.0363922119140625,-0.0868988037109375,-1.0011749267578125,0.3982113003730774,-0.27355536818504333,-0.19677697122097015
-0.0333099365234375,-0.072296142578125,-1.0096588134765625,0.503596305847168,-0.37792012095451355,-0.2864205837249756
-0.027618408203125,-0.08135986328125,-1.024932861328125,0.57166987657547,-0.42673614621162415,-0.3795183002948761
-0.0255889892578125,-0.1001434326171875,-1.022369384765625,0.5925432443618774,-0.36680835485458374,-0.43718186020851135
-0.0300140380859375,-0.11895751953125,-1.008697509765625,0.5666732788085938,-0.255313515663147,-0.4258303940296173
-0.035308837890625,-0.1380767822265625,-0.9954681396484375,0.5144507884979248,-0.18380126357078552,-0.35814908146858215
-0.0337982177734375,-0.1532440185546875,-0.9831390380859375,0.4650915265083313,-0.19828352332115173,-0.26291897892951965
-0.02447509765625,-0.162445068359375,-0.9755096435546875,0.4224782884120941,-0.27797168493270874,-0.1769939512014389
-0.01312255859375,-0.16119384765625,-0.9738922119140625,0.4034513235092163,-0.3712664842605591,-0.13603799045085907
-0.0128173828125,-0.156707763671875,-0.9825897216796875,0.397231787443161,-0.41661906242370605,-0.1413038671016693
-0.0212554931640625,-0.15283203125,-0.9791107177734375,0.38364726305007935,-0.36062049865722656,-0.16606992483139038
-0.0361175537109375,-0.152069091796875,-0.96514892578125,0.36853674054145813,-0.24232208728790283,-0.175065815448761
-0.05279541015625,-0.1561126708984375,-0.96063232421875,0.3479057848453522,-0.14993783831596375,-0.16129674017429352
-0.0642547607421875,-0.1587677001953125,-0.978240966796875,0.3514491021633148,-0.12137702852487564,-0.15634433925151825
-0.0747833251953125,-0.1523284912109375,-0.99981689453125,0.3793063163757324,-0.19498999416828156,-0.16976666450500488
-0.07537841796875,-0.1493682861328125,-1.00860595703125,0.40320712327957153,-0.335480272769928,-0.20493237674236298
-0.068023681640625,-0.1566162109375,-0.99365234375,0.4004933536052704,-0.46543774008750916,-0.24636690318584442
-0.0556793212890625,-0.1732940673828125,-0.978240966796875,0.3426625430583954,-0.5699281692504883,-0.2700085937976837
-0.0369110107421875,-0.195892333984375,-0.96539306640625,0.2421356737613678,-0.5095252990722656,-0.27195030450820923
-0.0423126220703125,-0.2070465087890625,-0.9551544189453125,0.15224333107471466,-0.3227634131908417,-0.24767877161502838
-0.067596435546875,-0.2027740478515625,-0.953826904296875,0.09788182377815247,-0.20821978151798248,-0.21804870665073395
-0.079437255859375,-0.1958770751953125,-0.94854736328125,0.0852949246764183,-0.20539496839046478,-0.20313021540641785
-0.078521728515625,-0.1852264404296875,-0.936920166015625,0.08621850609779358,-0.23798219859600067,-0.21187497675418854
-0.0752716064453125,-0.1799163818359375,-0.919219970703125,0.05946306139230728,-0.2408570796251297,-0.22423337399959564
-0.0707855224609375,-0.18341064453125,-0.8974761962890625,-0.017099890857934952,-0.1959117203950882,-0.22996927797794342
-0.0686187744140625,-0.1956787109375,-0.8885955810546875,-0.1381126046180725,-0.06624506413936615,-0.21091410517692566
-0.0778961181640625,-0.21234130859375,-0.88958740234375,-0.26438745856285095,0.08512528240680695,-0.1567171812057495
-0.0912628173828125,-0.2330474853515625,-0.9247894287109375,-0.2559548020362854,0.25640568137168884,-0.028504611924290657
-0.1206817626953125,-0.2335968017578125,-0.96905517578125,-0.14657452702522278,0.30885079503059387,0.10883407294750214
-0.1311492919921875,-0.2025146484375,-1.026123046875,-0.008831574581563473,0.13152633607387543,0.17791487276554108
-0.0897979736328125,-0.1529998779296875,-1.0514678955078125,0.09600082784891129,-0.000648479734081775,0.17738650739192963
-0.0805511474609375,-0.1280670166015625,-1.0457611083984375,0.10427900403738022,0.0385841429233551,0.13016173243522644
-0.08294677734375,-0.1431427001953125,-1.0185089111328125,-0.0033715618774294853,0.1668667495250702,0.08181790262460709
-0.07733154296875,-0.182769775390625,-0.97344970703125,-0.2006968855857849,0.3269379138946533,0.08034836500883102
-0.0809173583984375,-0.2086029052734375,-0.936859130859375,-0.4000566005706787,0.5434238910675049,0.16976746916770935
-0.1045684814453125,-0.1973876953125,-0.930023193359375,-0.5393087863922119,0.8651241660118103,0.3537503480911255
-0.1156463623046875,-0.1757354736328125,-0.944793701171875,-0.6205727458000183,1.0606294870376587,0.5230397582054138
-0.081329345703125,-0.156585693359375,-0.9509429931640625,-0.6929177641868591,1.1007076501846313,0.6645034551620483
-0.067901611328125,-0.1472320556640625,-0.94287109375,-0.7790126800537109,1.0413023233413696,0.7634076476097107
-0.0498504638671875,-0.1468048095703125,-0.944244384765625,-0.8884853720664978,0.9814597964286804,0.8351444005966187
-0.02099609375,-0.14630126953125,-0.957122802734375,-1.007659673690796,0.9123627543449402,0.8561785817146301
0.0024261474609375,-0.1378631591796875,-0.9795379638671875,-1.1048322916030884,0.8349252343177795,0.8210498690605164
0.0020294189453125,-0.124786376953125,-1.0125274658203125,-1.132112741470337,0.7423068881034851,0.727747917175293
-0.023345947265625,-0.1189422607421875,-1.064849853515625,-1.0619077682495117,0.6404220461845398,0.5949144959449768
-0.036773681640625,-0.115325927734375,-1.13531494140625,-0.8959337472915649,0.5035830140113831,0.5113061666488647
-0.0147247314453125,-0.1055450439453125,-1.1772918701171875,-0.6633926033973694,0.38456791639328003,0.3951859474182129
0.0302276611328125,-0.0913238525390625,-1.1650848388671875,-0.3964378833770752,0.3228291869163513,0.33712369203567505
0.06976318359375,-0.0796356201171875,-1.124786376953125,-0.13772989809513092,0.31549882888793945,0.3310224115848541
0.094329833984375,-0.0738983154296875,-1.07696533203125,0.0791291743516922,0.30939966440200806,0.3643729090690613
0.0958709716796875,-0.072662353515625,-1.0349884033203125,0.24607421457767487,0.29926207661628723,0.4129345715045929
0.0690765380859375,-0.0788726806640625,-1.009521484375,0.3548251986503601,0.3135067820549011,0.4551837742328644
0.038360595703125,-0.0897979736328125,-1.00213623046875,0.4027906060218811,0.3426332473754883,0.47875353693962097
0.0122833251953125,-0.1021881103515625,-0.996246337890625,0.40777018666267395,0.3560553193092346,0.4622667133808136
0.00360107421875,-0.1110076904296875,-0.9874725341796875,0.3785576820373535,0.343215674161911,0.42037466168403625
0.0103607177734375,-0.1138916015625,-0.9765625,0.3279685378074646,0.2960982322692871,0.36022767424583435
0.0182952880859375,-0.11419677734375,-0.96917724609375,0.27040326595306396,0.21025604009628296,0.2876221835613251
0.0237579345703125,-0.1160430908203125,-0.960693359375,0.21392160654067993,0.11263386905193329,0.20432864129543304
0.02423095703125,-0.11688232421875,-0.9544830322265625,0.1475210189819336,0.022703714668750763,0.11384640634059906
0.0200958251953125,-0.1139984130859375,-0.95257568359375,0.07583830505609512,-0.046961650252342224,0.015479356981813908
0.015289306640625,-0.1122283935546875,-0.9443511962890625,0.006405701395124197,-0.07456078380346298,-0.08193108439445496
0.0048828125,-0.1087188720703125,-0.9422454833984375,-0.05402355268597603,-0.044805821031332016,-0.1534564048051834
-0.0052947998046875,-0.1062469482421875,-0.9447021484375,-0.10885511338710785,0.0017259946325793862,-0.1742386519908905
0.0071563720703125,-0.1047515869140625,-0.9433441162109375,-0.15309341251850128,0.08305680006742477,-0.1350606083869934
0.020904541015625,-0.0992279052734375,-0.959014892578125,-0.1711893230676651,0.1571158468723297,-0.06932421028614044
0.0351715087890625,-0.093658447265625,-0.98309326171875,-0.14548556506633759,0.1903260052204132,-0.015324361622333527
0.049285888671875,-0.09344482421875,-0.996856689453125,-0.08590053021907806,0.18059028685092926,0.022219551727175713
0.0532073974609375,-0.0938720703125,-1.0096435546875,0.00012783173588104546,0.14081065356731415,0.028056668117642403
0.0526580810546875,-0.09686279296875,-1.0170135498046875,0.0802580863237381,0.06966669857501984,0.006085855886340141
0.04913330078125,-0.1012115478515625,-1.0130157470703125,0.12109659612178802,-0.04917073994874954,-0.03117949143052101
0.04949951171875,-0.1054840087890625,-1.000457763671875,0.09682401269674301,-0.1588764637708664,-0.07502897083759308
0.051300048828125,-0.110687255859375,-0.9848175048828125,0.019394204020500183,-0.20313313603401184,-0.11350046098232269
0.0457305908203125,-0.116973876953125,-0.9719085693359375,-0.07051810622215271,-0.158437579870224,-0.16603131592273712
0.0354156494140625,-0.1252288818359375,-0.9481048583984375,-0.1374497413635254,-0.06380055099725723,-0.20779287815093994
0.019439697265625,-0.119659423828125,-0.9263153076171875,0.07115353643894196,-0.3202137053012848,-0.1542753279209137
0.0089569091796875,-0.1074371337890625,-0.9192047119140625,0.22916926443576813,-0.08444910496473312,-0.12459465861320496
0.02166748046875,-0.102081298828125,-0.9843292236328125,0.258632630109787,0.21032553911209106,-0.06334621459245682
0.0245513916015625,-0.0684814453125,-1.0142669677734375,0.20964643359184265,0.27282461524009705,-0.03915299475193024
0.0406646728515625,-0.08563232421875,-0.9988861083984375,0.10596398264169693,0.24424143135547638,-0.041788991540670395
0.04345703125,-0.1112823486328125,-1.00030517578125,-0.0029017801862210035,0.13475994765758514,-0.07465053349733353
0.040008544921875,-0.1340789794921875,-1.006622314453125,-0.11566135287284851,-0.001119060325436294,-0.13408882915973663
0.0378570556640625,-0.1396636962890625,-0.9961090087890625,-0.1902458369731903,-0.18462923169136047,-0.21615733206272125
0.0394287109375,-0.1312713623046875,-0.984527587890625,-0.18697308003902435,-0.3847663104534149,-0.3347044885158539
0.04388427734375,-0.112091064453125,-0.9928436279296875,-0.12769165635108948,-0.49767449498176575,-0.4328976273536682
0.0569610595703125,-0.082275390625,-1.0153656005859375,-0.06379628926515579,-0.628600001335144,-0.4912189841270447
0.0697174072265625,-0.0831298828125,-1.0152587890625,-0.04772358015179634,-0.7598651051521301,-0.5081372857093811
0.08172607421875,-0.10284423828125,-0.995697021484375,-0.06728902459144592,-0.7409550547599792,-0.4767005145549774
0.0635833740234375,-0.12286376953125,-0.9961700439453125,-0.05088981240987778,-0.5376043319702148,-0.419536828994751
0.008026123046875,-0.13568115234375,-1.04168701171875,0.04556881636381149,-0.39155763387680054,-0.35295113921165466
-0.0200042724609375,-0.1400604248046875,-1.09185791015625,0.1930818408727646,-0.38716262578964233,-0.28809118270874023
-0.0119781494140625,-0.1270294189453125,-1.0883026123046875,0.3658405542373657,-0.3653542697429657,-0.22799694538116455
0.0095062255859375,-0.0938262939453125,-1.0754852294921875,0.507257878780365,-0.34681546688079834,-0.16187678277492523
0.04351806640625,-0.0880584716796875,-1.0421905517578125,0.6019002199172974,-0.36299365758895874,-0.10855284333229065
0.05584716796875,-0.112213134765625,-0.9973907470703125,0.639126181602478,-0.40807589888572693,-0.08509465306997299
0.0498809814453125,-0.1458892822265625,-0.9605560302734375,0.5991129875183105,-0.4486006796360016,-0.07126832008361816
0.0244140625,-0.1722869873046875,-0.9410858154296875,0.5176966786384583,-0.4482395648956299,-0.03811143338680267
-0.0216827392578125,-0.1749725341796875,-0.9673614501953125,0.4102330505847931,-0.40032291412353516,0.03754790872335434
-0.0584259033203125,-0.1587982177734375,-1.008056640625,0.34095919132232666,-0.24581162631511688,0.12339729815721512
-0.0877532958984375,-0.133087158203125,-1.0342559814453125,0.33827072381973267,-0.106210857629776,0.1878921389579773
-0.09344482421875,-0.1108245849609375,-1.022247314453125,0.3942950963973999,-0.055756740272045135,0.18568198382854462
-0.0848846435546875,-0.0928497314453125,-0.9882049560546875,0.4782544672489166,-0.11027856916189194,0.124451644718647
-0.068817138671875,-0.08331298828125,-0.9700164794921875,0.5301658511161804,-0.2671225070953369,0.03229482099413872
-0.050384521484375,-0.09002685546875,-0.9735260009765625,0.5279301404953003,-0.37692198157310486,-0.09248092770576477
-0.0451507568359375,-0.11456298828125,-0.99114990234375,0.4761574864387512,-0.35700392723083496,-0.22083890438079834
-0.0472259521484375,-0.1461334228515625,-0.9841461181640625,0.36244717240333557,-0.30344855785369873,-0.29997873306274414
-0.0396881103515625,-0.1807861328125,-0.939361572265625,0.22457478940486908,-0.34646525979042053,-0.32502707839012146
-0.0308380126953125,-0.2081756591796875,-0.917724609375,0.1031426340341568,-0.45631667971611023,-0.301929235458374
-0.0234375,-0.2145843505859375,-0.9376220703125,0.0076065207831561565,-0.5662540793418884,-0.23485352098941803
-0.0251617431640625,-0.1998138427734375,-0.96673583984375,-0.061460696160793304,-0.6011981964111328,-0.1738239973783493
-0.0384063720703125,-0.184814453125,-0.97723388671875,-0.08905477821826935,-0.584739625453949,-0.13865721225738525
-0.0463409423828125,-0.1848907470703125,-0.96844482421875,-0.11979324370622635,-0.5610582828521729,-0.12461010366678238
-0.0453338623046875,-0.196258544921875,-0.937408447265625,-0.165331169962883,-0.4980742335319519,-0.11705977469682693
-0.0611572265625,-0.1931304931640625,-0.9241180419921875,-0.2043006718158722,-0.36806485056877136,-0.11843983083963394
-0.082611083984375,-0.176910400390625,-0.9534454345703125,-0.20071525871753693,-0.21831315755844116,-0.15984000265598297
-0.0993804931640625,-0.14752197265625,-0.9824371337890625,-0.1500491499900818,-0.17164020240306854,-0.2265673577785492
-0.09527587890625,-0.1331329345703125,-1.01031494140625,-0.06197229027748108,-0.23795530200004578,-0.27539241313934326
-0.0780487060546875,-0.147857666015625,-1.0323638916015625,0.01110618095844984,-0.33132174611091614,-0.2835773825645447
-0.06805419921875,-0.1723175048828125,-1.039581298828125,0.049065813422203064,-0.3951638340950012,-0.2389814257621765
-0.072601318359375,-0.1855621337890625,-1.0429534912109375,0.04520955681800842,-0.4338041841983795,-0.15753956139087677
-0.0674591064453125,-0.193603515625,-1.020416259765625,0.050628822296857834,-0.42355605959892273,-0.0592593289911747
-0.0788726806640625,-0.1849212646484375,-0.982147216796875,0.08656418323516846,-0.33879855275154114,0.03825071454048157
-0.103851318359375,-0.1736602783203125,-0.9730224609375,0.20696063339710236,-0.1570492684841156,0.10497435182332993
-0.136627197265625,-0.1680755615234375,-0.982635498046875,0.4143364727497101,0.16544249653816223,0.0878257229924202
-0.16021728515625,-0.144500732421875,-1.005523681640625,0.49703481793403625,0.35457301139831543,0.05526032671332359
-0.146575927734375,-0.141021728515625,-0.9893341064453125,0.45633798837661743,0.44116276502609253,0.04219752177596092
-0.1184539794921875,-0.175994873046875,-0.96795654296875,0.28453773260116577,0.39022767543792725,0.09872258454561234
-0.0743560791015625,-0.2176666259765625,-0.941375732421875,0.04150083661079407,0.2988005578517914,0.19747792184352875
-0.0365447998046875,-0.2283477783203125,-0.9014129638671875,-0.1465364396572113,0.3945920467376709,0.3673684298992157
-0.0390777587890625,-0.2170867919921875,-0.9095306396484375,-0.19799217581748962,0.4911724030971527,0.5474111437797546
-0.0467529296875,-0.2120513916015625,-0.9557037353515625,-0.11698973923921585,0.5813331604003906,0.6418412327766418
-0.083221435546875,-0.202850341796875,-1.03509521484375,0.06542827188968658,0.6777321696281433,0.6691588759422302
-0.1187896728515625,-0.1862335205078125,-1.1005859375,0.27770110964775085,0.6383042931556702,0.6716907620429993
-0.088287353515625,-0.170135498046875,-1.104339599609375,0.4501189589500427,0.5561636090278625,0.6578420400619507
-0.051727294921875,-0.163970947265625,-1.0796356201171875,0.538864254951477,0.49765291810035706,0.6270498037338257
-0.0514678955078125,-0.1547698974609375,-1.0321502685546875,0.5339246392250061,0.5013291239738464,0.5475075840950012
-0.08282470703125,-0.1437835693359375,-0.9822998046875,0.4648419916629791,0.4715837836265564,0.41026583313941956
-0.110809326171875,-0.140777587890625,-0.9625091552734375,0.3335992693901062,0.3739296495914459,0.20600110292434692
-0.11614990234375,-0.155487060546875,-0.952178955078125,0.15084703266620636,0.1932288408279419,0.08893892914056778
-0.1035614013671875,-0.178863525390625,-0.950469970703125,-0.10405556112527847,-0.09794041514396667,-0.010373278521001339
-0.0638275146484375,-0.2150726318359375,-0.944793701171875,-0.37208354473114014,-0.23775982856750488,-0.05571732297539711
-0.04925537109375,-0.240386962890625,-0.9509735107421875,-0.5716134309768677,-0.2090163379907608,-0.07267926633358002
-0.06060791015625,-0.2426605224609375,-0.9720611572265625,-0.6226614117622375,-0.10758958011865616,-0.07491578906774521
-0.0769195556640625,-0.21282958984375,-0.989227294921875,-0.5319416522979736,-0.041615087538957596,-0.08759802579879761
-0.0803985595703125,-0.1669158935546875,-0.9960479736328125,-0.3419405519962311,-0.02413756027817726,-0.11833250522613525
-0.0817108154296875,-0.1318206787109375,-0.9974517822265625,-0.13311277329921722,-0.0031308121979236603,-0.16350983083248138
-0.082550048828125,-0.126800537109375,-0.9921417236328125,0.03446423262357712,0.0306394025683403,-0.20814068615436554
-0.0749969482421875,-0.1502838134765625,-0.9864501953125,0.12941791117191315,0.05726541951298714,-0.22188152372837067
-0.060577392578125,-0.1837005615234375,-0.9743499755859375,0.15576882660388947,0.020127905532717705,-0.21080544590950012
-0.0442352294921875,-0.206024169921875,-0.9469451904296875,0.09728127717971802,-0.13729287683963776,-0.18359273672103882
-0.03009033203125,-0.2107696533203125,-0.935028076171875,-0.035700473934412,-0.35786280035972595,-0.1601816862821579
-0.0334930419921875,-0.2109375,-0.951904296875,-0.17159785330295563,-0.307608425617218,-0.20255737006664276
-0.0637664794921875,-0.2129058837890625,-0.97076416015625,-0.24805667996406555,-0.11048922687768936,-0.277126669883728
-0.0833587646484375,-0.2109527587890625,-0.9647979736328125,-0.2502516508102417,-0.0900939404964447,-0.3159230649471283
-0.058624267578125,-0.2000274658203125,-0.924652099609375,-0.22014355659484863,-0.20916733145713806,-0.2966204881668091
-0.0259552001953125,-0.179168701171875,-0.9037017822265625,-0.21197190880775452,-0.270250141620636,-0.24801726639270782
-0.0242156982421875,-0.16302490234375,-0.9012603759765625,-0.24126268923282623,-0.1703493595123291,-0.20026518404483795
-0.0530853271484375,-0.1605072021484375,-0.915191650390625,-0.26914331316947937,0.0035052525345236063,-0.19348344206809998
-0.0920257568359375,-0.1693267822265625,-0.94793701171875,-0.27415698766708374,0.07098042964935303,-0.22036965191364288
-0.107666015625,-0.176116943359375,-0.9771270751953125,-0.19646964967250824,0.11244691908359528,-0.27123042941093445
-0.09637451171875,-0.1736602783203125,-0.9814453125,0.05186346545815468,0.2268531173467636,-0.23250114917755127
-0.0877838134765625,-0.1817779541015625,-1.0116119384765625,0.18074475228786469,0.3945789933204651,-0.08292631059885025
-0.0642852783203125,-0.1604156494140625,-1.0831146240234375,0.23493820428848267,0.23618537187576294,0.10828785598278046
-0.0019378662109375,-0.1518707275390625,-1.0872344970703125,0.26492488384246826,0.11254651844501495,0.21566838026046753
0.011810302734375,-0.14556884765625,-1.0796661376953125,0.25761449337005615,-0.01275467686355114,0.19972562789916992
-0.0276641845703125,-0.138702392578125,-1.0532684326171875,0.17134378850460052,-0.11272361874580383,0.0932399332523346
-0.064849853515625,-0.14031982421875,-0.9977264404296875,0.032114528119564056,-0.06328123807907104,-0.026255039498209953
-0.100616455078125,-0.145233154296875,-0.964691162109375,-0.1144821047782898,0.11084795743227005,-0.07333892583847046
-0.12469482421875,-0.1558990478515625,-0.9481048583984375,-0.2008066028356552,0.3233572840690613,-0.02364807203412056
-0.111480712890625,-0.1693115234375,-0.943267822265625,-0.22737190127372742,0.4783940017223358,0.05378040671348572
-0.083709716796875,-0.15533447265625,-0.952911376953125,-0.21705588698387146,0.5903967022895813,0.14528343081474304
-0.057891845703125,-0.1598968505859375,-0.9659881591796875,-0.20857691764831543,0.6463518738746643,0.2321741133928299
-0.033233642578125,-0.1726837158203125,-0.9720306396484375,-0.22219765186309814,0.658637523651123,0.2987994849681854
-0.0248260498046875,-0.189361572265625,-0.987884521484375,-0.27658897638320923,0.6255903840065002,0.3565613031387329
-0.01629638671875,-0.2004547119140625,-0.9967498779296875,-0.36546772718429565,0.5642879009246826,0.39280933141708374
-0.0144500732421875,-0.189178466796875,-0.99786376953125,-0.45909008383750916,0.4869243800640106,0.3521348834037781
-0.014892578125,-0.1634521484375,-1.00836181640625,-0.5211031436920166,0.4120059311389923,0.35731393098831177
-0.0265960693359375,-0.1439361572265625,-1.0280303955078125,-0.5451645255088806,0.3651774525642395,0.2723630666732788
-0.030242919921875,-0.13677978515625,-1.035491943359375,-0.5463866591453552,0.34162232279777527,0.19517934322357178
-0.0130767822265625,-0.13629150390625,-1.018829345703125,-0.552754819393158,0.3659553527832031,0.16348107159137726
0.0113677978515625,-0.137725830078125,-0.9918365478515625,-0.5758222937583923,0.4340217411518097,0.1893387734889984
0.0340576171875,-0.14349365234375,-0.9680023193359375,-0.5935560464859009,0.4722226560115814,0.2463272213935852
0.045928955078125,-0.1491241455078125,-0.958953857421875,-0.5599927306175232,0.4084239900112152,0.2881303131580353
0.04400634765625,-0.147003173828125,-0.9734954833984375,-0.47351428866386414,0.26224732398986816,0.28136271238327026
0.0272979736328125,-0.1317138671875,-1.00189208984375,-0.3675804138183594,0.12214960902929306,0.21558316051959991
0.0095367431640625,-0.114349365234375,-1.0179901123046875,-0.27233538031578064,0.048179514706134796,0.12182576954364777
-0.0037078857421875,-0.1070556640625,-1.0164031982421875,-0.20206893980503082,0.028678515926003456,0.0297901201993227
-0.0120391845703125,-0.1107025146484375,-1.008087158203125,-0.14930640161037445,0.05977225303649902,-0.040102411061525345
-0.0110931396484375,-0.1141204833984375,-0.9972991943359375,-0.10717146098613739,0.12002521008253098,-0.06209106743335724
-0.001373291015625,-0.1087188720703125,-0.9912872314453125,-0.07361030578613281,0.19453725218772888,-0.041017740964889526
0.016265869140625,-0.098236083984375,-0.9962615966796875,-0.057732272893190384,0.2564629316329956,0.017969412729144096
0.032989501953125,-0.0933380126953125,-0.9977874755859375,-0.05205441266298294,0.269096702337265,0.08013372123241425
0.0444183349609375,-0.0964508056640625,-0.989105224609375,-0.0621749572455883,0.2309650331735611,0.13209624588489532
0.0497283935546875,-0.10302734375,-0.969940185546875,-0.11073850095272064,0.19402965903282166,0.1654648631811142
0.0421142578125,-0.1119842529296875,-0.9517059326171875,-0.1665908396244049,0.15137913823127747,0.15889084339141846
0.02874755859375,-0.118316650390625,-0.95947265625,-0.21810410916805267,0.07830705493688583,0.11489995568990707
0.0242462158203125,-0.1163787841796875,-0.9850921630859375,-0.264129638671875,0.019453592598438263,0.06039303541183472
0.018524169921875,-0.1077117919921875,-1.0092926025390625,-0.2628662586212158,0.03894580155611038,0.00276063266210258
0.011322021484375,-0.0999603271484375,-1.02001953125,-0.21349629759788513,0.12134507298469543,-0.05187464877963066
-0.0032501220703125,-0.089141845703125,-1.008026123046875,0.011768242344260216,0.012981578707695007,-0.00920574925839901
0.000732421875,-0.05889892578125,-0.9945831298828125,0.17695321142673492,0.1982499659061432,0.0353260338306427
0.0130157470703125,-0.053436279296875,-1.0401763916015625,0.22389595210552216,0.2896949350833893,0.08366719633340836
0.0246429443359375,-0.0601348876953125,-1.0408477783203125,0.19589067995548248,0.1966017335653305,0.08696606010198593
0.03253173828125,-0.080596923828125,-1.0088043212890625,0.11664139479398727,0.11327356100082397,0.05309091508388519
0.0216217041015625,-0.10601806640625,-0.999298095703125,0.039635561406612396,0.028435636311769485,-0.025786589831113815
0.0077362060546875,-0.1230926513671875,-0.9882354736328125,-0.014959508553147316,-0.027581559494137764,-0.10709529370069504
0.018035888671875,-0.087982177734375,-0.9849395751953125,-0.029988791793584824,-0.026677150279283524,-0.1654912233352661
0.01983642578125,-0.0594940185546875,-0.991912841796875,0.011737882159650326,-0.042634014040231705,-0.2161908894777298
0.0210723876953125,-0.0579071044921875,-1.00836181640625,0.08918367326259613,-0.12906424701213837,-0.2748757600784302
0.023773193359375,-0.0735626220703125,-1.019927978515625,0.18824952840805054,-0.23386149108409882,-0.3244473338127136
0.0220947265625,-0.0912017822265625,-1.0330047607421875,0.27655303478240967,-0.3095490634441376,-0.3604623079299927
0.021331787109375,-0.102447509765625,-1.04241943359375,0.3139520585536957,-0.34839633107185364,-0.34979501366615295
0.0293731689453125,-0.10662841796875,-1.0467681884765625,0.34064361453056335,-0.30273163318634033,-0.2971653640270233
0.039825439453125,-0.1108856201171875,-1.0723724365234375,0.40641728043556213,-0.22583019733428955,-0.2541438639163971
0.04107666015625,-0.1190185546875,-1.0956268310546875,0.5023278594017029,-0.23157809674739838,-0.22191481292247772
0.0347137451171875,-0.11688232421875,-1.072967529296875,0.6016378998756409,-0.24996589124202728,-0.25015366077423096
0.035186767578125,-0.102508544921875,-1.05084228515625,0.6886764168739319,-0.3020056486129761,-0.1445944607257843
0.04656982421875,-0.0916595458984375,-1.0152587890625,0.7098354697227478,-0.41327571868896484,-0.11135182529687881
0.0517730712890625,-0.0948944091796875,-0.9619903564453125,0.6594652533531189,-0.5535017848014832,-0.08595112711191177
0.037261962890625,-0.112396240234375,-0.92767333984375,0.5873620510101318,-0.6265224814414978,-0.1121172159910202
0.0107269287109375,-0.133819580078125,-0.92254638671875,0.5356144309043884,-0.6152740716934204,-0.20486100018024445
-0.01055908203125,-0.15716552734375,-0.9495849609375,0.5027529001235962,-0.6915225386619568,-0.34955400228500366
-0.0228271484375,-0.1737213134765625,-0.967010498046875,0.4809415936470032,-0.8620279431343079,-0.5145581364631653
-0.0238037109375,-0.181884765625,-0.97113037109375,0.44641822576522827,-0.975877583026886,-0.638755738735199
-0.0275421142578125,-0.18426513671875,-0.9647064208984375,0.401979923248291,-0.9173729419708252,-0.6885398030281067
-0.0382537841796875,-0.1821441650390625,-0.9893646240234375,0.3423655927181244,-0.7374711036682129,-0.6191412806510925
-0.03912353515625,-0.177642822265625,-1.0147552490234375,0.30172017216682434,-0.539688229560852,-0.4656694233417511
-0.039306640625,-0.1741943359375,-1.0026397705078125,0.30623823404312134,-0.4974864721298218,-0.3172171115875244
-0.083770751953125,-0.1542205810546875,-0.9944305419921875,0.34977930784225464,-0.6840885877609253,-0.2473275065422058
-0.1368255615234375,-0.130218505859375,-0.9605865478515625,0.36564216017723083,-0.8388693928718567,-0.2543819546699524
-0.074310302734375,-0.15191650390625,-0.918212890625,0.30324244499206543,-0.9701714515686035,-0.3076403737068176
-0.0344085693359375,-0.17803955078125,-0.903076171875,0.17850050330162048,-0.9766528010368347,-0.38367176055908203
-0.0758819580078125,-0.1947784423828125,-0.9086456298828125,0.08108419924974442,-0.7281894683837891,-0.465971440076828
-0.16790771484375,-0.197418212890625,-0.9638671875,0.05277080461382866,-0.4446110129356384,-0.5326455235481262
-0.2118682861328125,-0.1913604736328125,-0.990936279296875,0.08193907141685486,-0.3352442979812622,-0.5726140141487122
-0.180267333984375,-0.1818389892578125,-0.9849090576171875,0.16705529391765594,-0.34208863973617554,-0.5816990733146667
-0.1259307861328125,-0.180267333984375,-0.985748291015625,0.2505696415901184,-0.42183539271354675,-0.5427775382995605
-0.067779541015625,-0.1918487548828125,-0.981781005859375,0.2790159285068512,-0.535279393196106,-0.4364428222179413
-0.0276641845703125,-0.2130279541015625,-0.9792022705078125,0.24334847927093506,-0.6403788924217224,-0.2841110825538635
-0.0236053466796875,-0.236419677734375,-0.9929656982421875,0.17768050730228424,-0.6570149064064026,-0.12307186424732208
-0.05487060546875,-0.250396728515625,-1.012847900390625,0.16005705296993256,-0.5603221654891968,-0.011809254996478558
-0.1076812744140625,-0.2394561767578125,-1.0402374267578125,0.1888018697500229,-0.5432196259498596,0.021572669968008995
-0.1360626220703125,-0.201507568359375,-1.003936767578125,0.254970520734787,-0.5459911823272705,-0.008258729241788387
-0.14300537109375,-0.1631317138671875,-0.9593963623046875,0.31870022416114807,-0.48968127369880676,-0.08821108192205429
-0.148101806640625,-0.1506500244140625,-0.9375762939453125,0.3404156267642975,-0.3780202567577362,-0.1902218759059906
-0.1526947021484375,-0.17572021484375,-0.921539306640625,0.30847448110580444,-0.23989595472812653,-0.2820678949356079
-0.1622161865234375,-0.2161407470703125,-0.9208526611328125,0.24773363769054413,-0.059602610766887665,-0.3377852439880371
-0.1801300048828125,-0.2451324462890625,-0.9448394775390625,0.1967218518257141,0.03689809516072273,-0.3317084312438965
-0.1827545166015625,-0.2497100830078125,-0.9664306640625,0.13603825867176056,-0.05074307322502136,-0.2730006277561188
-0.1513671875,-0.239501953125,-0.953887939453125,0.06017625331878662,-0.17093312740325928,-0.19364243745803833
-0.123779296875,-0.23065185546875,-0.9374237060546875,-0.027090473100543022,-0.24845348298549652,-0.12794651091098785
-0.116668701171875,-0.22509765625,-0.9400177001953125,-0.10997150838375092,-0.2914925515651703,-0.09434221684932709
-0.1306304931640625,-0.21990966796875,-0.9622955322265625,-0.16487577557563782,-0.2838311791419983,-0.09525967389345169
-0.1536407470703125,-0.21905517578125,-0.9821624755859375,-0.17337152361869812,-0.22218859195709229,-0.11432497948408127
-0.1673431396484375,-0.2220458984375,-0.971466064453125,-0.08413964509963989,-0.0461411289870739,-0.10391601175069809
-0.1709442138671875,-0.2252349853515625,-0.9442901611328125,0.0012665993999689817,0.0982208400964737,-0.009977532550692558
-0.172393798828125,-0.231201171875,-0.941314697265625,0.017235977575182915,0.15584605932235718,0.13488271832466125
-0.1772003173828125,-0.2317657470703125,-0.9528961181640625,-0.02646542899310589,0.2671384811401367,0.25691062211990356
-0.1800689697265625,-0.2359161376953125,-0.944091796875,-0.07498902082443237,0.5058956742286682,0.3223745822906494
-0.172760009765625,-0.266754150390625,-0.9322357177734375,-0.09235017001628876,0.7723137736320496,0.37713611125946045
-0.1799468994140625,-0.237762451171875,-0.945037841796875,-0.13099557161331177,0.8224818706512451,0.4357703924179077
-0.148040771484375,-0.1918792724609375,-0.947784423828125,-0.18966686725616455,0.794386088848114,0.46350666880607605
-0.135711669921875,-0.18280029296875,-0.9780731201171875,-0.28310519456863403,0.7022374868392944,0.4744373559951782
-0.1287841796875,-0.1911468505859375,-0.9800567626953125,-0.41434285044670105,0.6189756393432617,0.472439706325531
-0.1184234619140625,-0.20135498046875,-0.97039794921875,-0.5250086784362793,0.5984532833099365,0.4366372525691986
-0.1185455322265625,-0.2030792236328125,-0.9947967529296875,-0.6071458458900452,0.487531840801239,0.41596925258636475
-0.119537353515625,-0.1927337646484375,-0.9941253662109375,-0.6333580017089844,0.3724835515022278,0.2894571125507355
-0.14202880859375,-0.1644744873046875,-1.01220703125,-0.5699151158332825,0.3441661596298218,0.17332224547863007
-0.1695709228515625,-0.14385986328125,-1.0458831787109375,-0.4271419942378998,0.3372587263584137,0.05628271400928497
-0.1787567138671875,-0.14215087890625,-1.066802978515625,-0.25628212094306946,0.28186312317848206,-0.049612827599048615
-0.152130126953125,-0.1563568115234375,-1.0643310546875,-0.1069893017411232,0.19532927870750427,-0.10720368474721909
-0.0964813232421875,-0.1705169677734375,-1.03973388671875,-0.006840595509856939,0.1502520889043808,-0.07989510148763657
-0.047332763671875,-0.181060791015625,-1.0125274658203125,0.032225046306848526,0.15290246903896332,0.013855095021426678
-0.03070068359375,-0.177886962890625,-0.984100341796875,0.019936690106987953,0.20338881015777588,0.12594008445739746
-0.03857421875,-0.1775970458984375,-0.972259521484375,-0.010765562765300274,0.2686980366706848,0.2103324681520462
-0.0596771240234375,-0.194183349609375,-0.989715576171875,-0.026990605518221855,0.29660555720329285,0.2472231090068817
-0.0848236083984375,-0.208221435546875,-1.00469970703125,0.0051686628721654415,0.3044171631336212,0.24404941499233246
-0.098602294921875,-0.20440673828125,-0.9976348876953125,0.07375863939523697,0.3046880066394806,0.21437275409698486
-0.0991363525390625,-0.1821746826171875,-0.98052978515625,0.145455464720726,0.2589050531387329,0.1669149547815323
-0.0948028564453125,-0.1595611572265625,-0.9630126953125,0.17922034859657288,0.1654195934534073,0.10673363506793976
-0.0962677001953125,-0.1514129638671875,-0.9571380615234375,0.1738458275794983,0.11380486190319061,0.04346145689487457
-0.1016998291015625,-0.164703369140625,-0.9640045166015625,0.15044623613357544,0.11224184930324554,-0.0029031119775027037
-0.09747314453125,-0.1900787353515625,-0.9722137451171875,0.1187620684504509,0.09258373081684113,-0.010554639622569084
-0.0747222900390625,-0.205718994140625,-0.965179443359375,0.07772701978683472,0.09519149363040924,0.029704632237553596
-0.0616455078125,-0.2011566162109375,-0.954864501953125,0.039257656782865524,0.1439736783504486,0.08184293657541275
-0.0648956298828125,-0.1819000244140625,-0.9491424560546875,-0.026517627760767937,0.17009715735912323,0.11695831269025803
-0.0669097900390625,-0.1651458740234375,-0.9437713623046875,-0.10866469144821167,0.16224482655525208,0.1172347441315651
-0.0694732666015625,-0.166473388671875,-0.9499359130859375,-0.17964325845241547,0.13992327451705933,0.09505008161067963
-0.0748138427734375,-0.1777191162109375,-0.957611083984375,-0.22024261951446533,0.09310890734195709,0.09022443741559982
-0.0732269287109375,-0.1878814697265625,-0.9569854736328125,-0.21739543974399567,0.0809989795088768,0.1045309379696846
-0.0637664794921875,-0.1851806640625,-0.957000732421875,-0.16567951440811157,0.1274852603673935,0.12356321513652802
-0.0630035400390625,-0.1702423095703125,-0.9734344482421875,-0.06956470012664795,0.14922863245010376,0.12374910712242126
-0.0771636962890625,-0.15826416015625,-1.0093536376953125,0.04357970133423805,0.08702065050601959,0.0907200500369072
-0.0877838134765625,-0.1555633544921875,-1.0267333984375,0.1483580470085144,-0.05898582190275192,0.02383422665297985
-0.0875396728515625,-0.1340179443359375,-1.0127716064453125,0.20788449048995972,-0.17871248722076416,-0.06839876621961594
-0.07501220703125,-0.1209564208984375,-0.990478515625,0.20912285149097443,-0.2197645902633667,-0.17024309933185577
-0.0598602294921875,-0.1454315185546875,-0.973602294921875,0.16094814240932465,-0.2112983912229538,-0.25580886006355286
-0.0686798095703125,-0.180267333984375,-0.97869873046875,0.07047203928232193,-0.2471940815448761,-0.2795160710811615
-0.0748291015625,-0.204986572265625,-0.965057373046875,-0.051896486431360245,-0.2919953763484955,-0.23061484098434448
-0.0594329833984375,-0.2104949951171875,-0.9402923583984375,-0.19183121621608734,-0.3151845932006836,-0.14914287626743317
-0.04278564453125,-0.20068359375,-0.9190673828125,-0.3490149676799774,-0.3140263855457306,-0.0803089514374733
-0.047454833984375,-0.1858062744140625,-0.899322509765625,-0.4398050606250763,-0.1758035123348236,-0.04903145879507065
-0.073486328125,-0.177764892578125,-0.8980865478515625,-0.31291663646698,0.1269502192735672,-0.01949620246887207
-0.10980224609375,-0.184539794921875,-0.946075439453125,-0.13438338041305542,0.3314597010612488,0.026385001838207245
-0.1325836181640625,-0.1711273193359375,-1.01361083984375,0.015957927331328392,0.38288480043411255,0.02153884805738926
-0.1168975830078125,-0.1486053466796875,-1.0749053955078125,0.13520708680152893,0.33630797266960144,-0.030606644228100777
-0.0850372314453125,-0.140167236328125,-1.102294921875,0.2158135175704956,0.1911177635192871,-0.07710783183574677
-0.056396484375,-0.15167236328125,-1.08245849609375,0.25846269726753235,0.04772038385272026,-0.019169166684150696
