accX,accY,accZ,gyroX,gyroY,gyroZ
0.0019989013671875,-0.0134735107421875,-1.0002899169921875,-1.0298042297363281,0.905049204826355,-0.3666490912437439
-0.3759765625,-0.5829010009765625,-0.5004425048828125,-1.267061710357666,0.8667412400245667,-0.2940595746040344
-0.3517303466796875,-0.591156005859375,-0.531768798828125,-1.4612500667572021,0.8424286842346191,-0.19520437717437744
-0.3273468017578125,-0.609222412109375,-0.57403564453125,-1.5690183639526367,0.8507544994354248,-0.07341828942298889
-0.2952423095703125,-0.6060638427734375,-0.6309661865234375,-1.5304017066955566,0.8217164874076843,0.049798447638750076
-0.247467041015625,-0.5880126953125,-0.7165679931640625,-1.3362584114074707,0.6866755485534668,0.13996802270412445
-0.2019805908203125,-0.5628204345703125,-0.82647705078125,-1.0443484783172607,0.4911055564880371,0.17304395139217377
-0.1957855224609375,-0.531707763671875,-0.929351806640625,-0.7242048382759094,0.3154122829437256,0.13219745457172394
-0.2185211181640625,-0.508758544921875,-1.0169677734375,-0.4306211471557617,0.2319141924381256,0.06018184870481491
-0.2552947998046875,-0.498443603515625,-1.062652587890625,-0.22139178216457367,0.24914218485355377,-0.0022242721170186996
-0.2914581298828125,-0.49908447265625,-1.055450439453125,-0.14471884071826935,0.3756798803806305,-0.03798093646764755
-0.3159027099609375,-0.5010223388671875,-1.0036773681640625,-0.20614570379257202,0.5389391183853149,-0.07488781958818436
-0.331878662109375,-0.500213623046875,-0.9312286376953125,-0.3776913583278656,0.715714693069458,-0.12328358739614487
-0.348846435546875,-0.5087432861328125,-0.8509674072265625,-0.5857516527175903,0.8524653315544128,-0.15545989573001862
-0.353759765625,-0.5178375244140625,-0.78643798828125,-0.6828789710998535,0.8617994785308838,-0.14809386432170868
-0.3192596435546875,-0.5137176513671875,-0.7785491943359375,-0.6070414781570435,0.7678593993186951,-0.11211375147104263
-0.250091552734375,-0.50531005859375,-0.8716583251953125,-0.3832155764102936,0.5261378288269043,-0.053891994059085846
-0.2178192138671875,-0.5023956298828125,-1.001068115234375,-0.10303903371095657,0.2842860519886017,0.009498963132500648
-0.1980743408203125,-0.4985809326171875,-1.087249755859375,0.142336905002594,0.13307122886180878,0.05023733898997307
-0.1869354248046875,-0.4894561767578125,-1.1187896728515625,0.2807326018810272,0.10249468684196472,0.06326791644096375
-0.20257568359375,-0.48394775390625,-1.087677001953125,0.27860474586486816,0.24103552103042603,0.055578574538230896
-0.233184814453125,-0.488525390625,-1.0044097900390625,0.136285662651062,0.4803735315799713,0.05650375410914421
-0.258819580078125,-0.5049591064453125,-0.9041900634765625,-0.11552100628614426,0.7478989958763123,0.07839787006378174
-0.2589874267578125,-0.5142669677734375,-0.813629150390625,-0.4144134223461151,0.9141028523445129,0.11678067594766617
-0.2414703369140625,-0.514892578125,-0.7502593994140625,-0.6566390991210938,0.8529095649719238,0.14219176769256592
-0.220062255859375,-0.5185546875,-0.7346038818359375,-0.7769788503646851,0.5778955817222595,0.15323509275913239
-0.178314208984375,-0.5176544189453125,-0.7970733642578125,-0.7313487529754639,0.18928523361682892,0.14613324403762817
-0.125396728515625,-0.48681640625,-0.9210357666015625,-0.5596843361854553,-0.18699757754802704,0.14042368531227112
-0.074676513671875,-0.44281005859375,-1.065338134765625,-0.3448231518268585,-0.4817410707473755,0.12694303691387177
-0.0705413818359375,-0.40655517578125,-1.147308349609375,-0.13560177385807037,-0.5713138580322266,0.07626201212406158
-0.09417724609375,-0.3799591064453125,-1.1360321044921875,0.001606152392923832,-0.5130617022514343,-0.014425012283027172
-0.139739990234375,-0.374542236328125,-1.079925537109375,0.05766542628407478,-0.36799079179763794,-0.10438898950815201
-0.1846160888671875,-0.3837890625,-1.0041351318359375,0.040818002074956894,-0.16820365190505981,-0.14201253652572632
-0.20721435546875,-0.3969573974609375,-0.9367523193359375,-0.04924184828996658,0.024658741429448128,-0.11219285428524017
-0.194793701171875,-0.4091033935546875,-0.8908233642578125,-0.21531923115253448,0.24042777717113495,-0.026271818205714226
-0.15496826171875,-0.4202728271484375,-0.85809326171875,-0.44801560044288635,0.4623037278652191,0.10876882076263428
-0.10638427734375,-0.4248199462890625,-0.8339080810546875,-0.7167314887046814,0.6225895285606384,0.2879689335823059
-0.065948486328125,-0.4365386962890625,-0.8246917724609375,-1.056795358657837,0.7811272740364075,0.5081766843795776
-0.027099609375,-0.45941162109375,-0.8271942138671875,-1.4942173957824707,0.9558207392692566,0.7006782293319702
0.00933837890625,-0.45758056640625,-0.7930145263671875,-1.9743599891662598,1.0606768131256104,0.8140860199928284
0.01593017578125,-0.427886962890625,-0.7223663330078125,-2.4176061153411865,1.1333348751068115,0.8565450310707092
0.0159759521484375,-0.3686370849609375,-0.657470703125,-2.755406141281128,1.250030755996704,0.8827345371246338
0.0413665771484375,-0.2817535400390625,-0.657806396484375,-2.9729886054992676,1.284712314605713,0.918420135974884
0.0610504150390625,-0.2006683349609375,-0.7353363037109375,-3.1097066402435303,1.178902268409729,0.935906708240509
0.065521240234375,-0.150177001953125,-0.818145751953125,-3.1449108123779297,0.9805753827095032,0.8311006426811218
0.0459747314453125,-0.1299285888671875,-0.872894287109375,-3.0598397254943848,0.7158792614936829,0.6652405858039856
-0.0081787109375,-0.1356353759765625,-0.9383392333984375,-2.8872721195220947,0.5033057332038879,0.5408872365951538
-0.0550994873046875,-0.146728515625,-1.005157470703125,-2.6539931297302246,0.36474066972732544,0.476955384016037
-0.0562286376953125,-0.1473541259765625,-1.0594940185546875,-2.391584873199463,0.305036336183548,0.4423545300960541
-0.0327911376953125,-0.125396728515625,-1.077362060546875,-2.09997820854187,0.26272058486938477,0.41658470034599304
-0.0167236328125,-0.0739288330078125,-1.07598876953125,-1.7323492765426636,0.2290733903646469,0.31683945655822754
-0.004852294921875,-0.034637451171875,-1.0671539306640625,-1.2987139225006104,0.29550620913505554,0.13292422890663147
-0.037139892578125,-0.07415771484375,-1.0755767822265625,-0.8418654203414917,0.4692566990852356,-0.0855037122964859
-0.0980072021484375,-0.10528564453125,-1.1196136474609375,-0.3738801181316376,0.619635283946991,-0.28133687376976013
-0.1234893798828125,-0.0867156982421875,-1.1773223876953125,0.051835767924785614,0.6426279544830322,-0.4378247559070587
-0.131988525390625,-0.08099365234375,-1.2175445556640625,0.38649871945381165,0.618427038192749,-0.5384501814842224
-0.13739013671875,-0.090545654296875,-1.23187255859375,0.5591330528259277,0.6556955575942993,-0.5379380583763123
-0.1098480224609375,-0.0877685546875,-1.2125701904296875,0.580708920955658,0.7161767482757568,-0.4237059950828552
-0.03131103515625,-0.060760498046875,-1.1470184326171875,0.4916762709617615,0.757260262966156,-0.23109526932239532
0.054931640625,-0.0419464111328125,-1.056640625,0.34392860531806946,0.7746837139129639,-0.026330674067139626
0.1141204833984375,-0.0533599853515625,-0.9761962890625,0.1975780576467514,0.7011713981628418,0.12340289354324341
0.1334228515625,-0.0782470703125,-0.9269561767578125,0.08903186768293381,0.48870018124580383,0.21111437678337097
0.119140625,-0.0982818603515625,-0.9109954833984375,0.03253983333706856,0.2069728821516037,0.24717064201831818
0.0965118408203125,-0.110137939453125,-0.91912841796875,0.03236619383096695,-0.09398588538169861,0.2393457442522049
0.0787811279296875,-0.1038665771484375,-0.94500732421875,0.06360374391078949,-0.32028213143348694,0.22187301516532898
0.067718505859375,-0.0762786865234375,-0.975128173828125,0.12108541280031204,-0.4750930070877075,0.20661868155002594
0.0533294677734375,-0.068084716796875,-1.000457763671875,0.23122017085552216,-0.5850882530212402,0.20037810504436493
0.0357208251953125,-0.0710296630859375,-1.0159149169921875,0.3679572343826294,-0.5798921585083008,0.19453778862953186
0.0276031494140625,-0.092315673828125,-1.035491943359375,0.5147448182106018,-0.4633154571056366,0.1905057579278946
0.01104736328125,-0.1147918701171875,-1.054473876953125,0.6746886968612671,-0.30763399600982666,0.1825743317604065
-0.0075836181640625,-0.140289306640625,-1.0620880126953125,0.831085205078125,-0.1436098963022232,0.16441424190998077
-0.021697998046875,-0.17138671875,-1.0565032958984375,0.970812201499939,0.052739109843969345,0.1519988477230072
-0.025146484375,-0.1926116943359375,-1.036407470703125,1.0549942255020142,0.31545355916023254,0.15671797096729279
-0.0263214111328125,-0.2031097412109375,-1.00189208984375,1.0616235733032227,0.5936319231987,0.17698410153388977
-0.019805908203125,-0.2117767333984375,-0.9625701904296875,1.0030620098114014,0.7589668035507202,0.19935332238674164
-0.0118255615234375,-0.2233428955078125,-0.9246368408203125,0.918653666973114,0.7572533488273621,0.21751448512077332
-0.01007080078125,-0.2370452880859375,-0.9047088623046875,0.84235680103302,0.5559481978416443,0.2295072227716446
-0.0026092529296875,-0.255218505859375,-0.9109649658203125,0.7981195449829102,0.21706493198871613,0.2546687722206116
0.0105743408203125,-0.2636260986328125,-0.932647705078125,0.7385733723640442,-0.14508235454559326,0.28899213671684265
0.029998779296875,-0.26739501953125,-0.9624176025390625,0.6141417026519775,-0.3320961892604828,0.33139657974243164
0.04364013671875,-0.271087646484375,-0.958221435546875,0.47937697172164917,-0.31404128670692444,0.37078073620796204
0.03326416015625,-0.287506103515625,-0.946807861328125,0.41820764541625977,-0.20023509860038757,0.42954951524734497
0.01336669921875,-0.300994873046875,-0.9585418701171875,0.44113796949386597,-0.05512290820479393,0.4861384928226471
0.0053558349609375,-0.296905517578125,-0.9868011474609375,0.5533034205436707,-0.0023523701820522547,0.48966184258461
-0.0008697509765625,-0.2808837890625,-1.0245513916015625,0.7185038328170776,-0.01757979206740856,0.42543625831604004
-0.018402099609375,-0.25726318359375,-1.052215576171875,0.8861362338066101,-0.08384483307600021,0.33335426449775696
-0.0468902587890625,-0.2392578125,-1.0692901611328125,1.0194008350372314,-0.24645239114761353,0.2315397560596466
-0.0515289306640625,-0.2364654541015625,-1.0751495361328125,1.1098369359970093,-0.4757910370826721,0.14944835007190704
-0.0483856201171875,-0.2469635009765625,-1.0579833984375,1.1378520727157593,-0.6931853890419006,0.0921938419342041
-0.0426177978515625,-0.2633056640625,-1.0208740234375,1.0937319993972778,-0.71646648645401,0.041187651455402374
-0.0532684326171875,-0.28253173828125,-0.9674224853515625,0.9804150462150574,-0.43202731013298035,0.008913333527743816
-0.0700225830078125,-0.308013916015625,-0.9173431396484375,0.8367367386817932,-0.04072932153940201,0.03832821547985077
-0.0736083984375,-0.3424224853515625,-0.889801025390625,0.7251795530319214,0.21378685534000397,0.10400469601154327
-0.0724029541015625,-0.36407470703125,-0.8964080810546875,0.6489502787590027,0.31262555718421936,0.14559048414230347
-0.07061767578125,-0.360504150390625,-0.9204254150390625,0.5913413166999817,0.2709193825721741,0.13287656009197235
-0.073028564453125,-0.352264404296875,-0.9543914794921875,0.5361550450325012,0.15863598883152008,0.0815499871969223
-0.07684326171875,-0.3518829345703125,-0.9785614013671875,0.46170929074287415,0.04054316505789757,0.014871091581881046
-0.07720947265625,-0.358551025390625,-0.98724365234375,0.3871631622314453,-0.08048366010189056,-0.03398113697767258
-0.071563720703125,-0.355987548828125,-0.984344482421875,0.3023870289325714,-0.15213653445243835,-0.06651617586612701
-0.0616912841796875,-0.3447113037109375,-0.971893310546875,0.2368977665901184,-0.20519869029521942,-0.0851156935095787
-0.0617828369140625,-0.341583251953125,-0.97479248046875,0.19069671630859375,-0.3419722616672516,-0.11489809304475784
-0.065155029296875,-0.3372650146484375,-0.9962310791015625,0.1637287437915802,-0.5689492225646973,-0.16301502287387848
-0.05908203125,-0.3181915283203125,-1.0120391845703125,0.1130296140909195,-0.7552804946899414,-0.19295534491539001
-0.05084228515625,-0.286895751953125,-1.0040130615234375,0.03731274977326393,-0.8397170305252075,-0.20414993166923523
-0.03521728515625,-0.2637786865234375,-0.9846038818359375,-0.06737317889928818,-0.8534810543060303,-0.21075031161308289
-0.02825927734375,-0.2409820556640625,-0.9503631591796875,-0.1686984747648239,-0.7935610413551331,-0.22877725958824158
-0.034271240234375,-0.221282958984375,-0.9119873046875,-0.1858212649822235,-0.856121838092804,-0.21437221765518188
-0.05242919921875,-0.201080322265625,-0.8841094970703125,-0.16121125221252441,-0.6676190495491028,-0.15961310267448425
-0.0678863525390625,-0.1718902587890625,-0.8709716796875,-0.14724883437156677,-0.1281723529100418,-0.1304221898317337
-0.0787353515625,-0.1670379638671875,-0.9090728759765625,-0.02442970871925354,0.16330796480178833,-0.1358044296503067
-0.1199798583984375,-0.20184326171875,-0.9823455810546875,0.16317720711231232,0.3119778633117676,-0.14272013306617737
-0.1446075439453125,-0.223907470703125,-1.0174102783203125,0.3693431615829468,0.3415259122848511,-0.17723549902439117
-0.1262359619140625,-0.2162628173828125,-1.056976318359375,0.526154100894928,0.2813272774219513,-0.20673613250255585
-0.110565185546875,-0.2092742919921875,-1.0504913330078125,0.6424396634101868,0.0669606551527977,-0.2214844524860382
-0.0968780517578125,-0.224609375,-1.012908935546875,0.7350340485572815,-0.16777195036411285,-0.13581456243991852
-0.0560760498046875,-0.237152099609375,-0.9710235595703125,0.7438240647315979,-0.17885710299015045,0.03669010475277901
-0.017730712890625,-0.222808837890625,-0.9504241943359375,0.7278246283531189,-0.16123603284358978,0.16784626245498657
-0.0082855224609375,-0.2330474853515625,-0.972442626953125,0.7049022316932678,-0.143495112657547,0.23577257990837097
-0.03863525390625,-0.281158447265625,-0.9796600341796875,0.6740540266036987,-0.05047276243567467,0.26214107871055603
-0.089202880859375,-0.3094024658203125,-0.97088623046875,0.6466253399848938,-0.002025333931669593,0.2661992013454437
-0.1169586181640625,-0.3050384521484375,-0.9603271484375,0.6163111329078674,0.0073447320610284805,0.254112184047699
-0.1222076416015625,-0.2824249267578125,-0.926116943359375,0.575623631477356,0.029997047036886215,0.20671403408050537
-0.1269073486328125,-0.263153076171875,-0.8907318115234375,0.5336511135101318,0.011671570129692554,0.13239692151546478
-0.140869140625,-0.252838134765625,-0.8726654052734375,0.49877145886421204,-0.05699803680181503,0.05295322835445404
-0.1500396728515625,-0.2559356689453125,-0.87445068359375,0.4511890113353729,-0.159055694937706,0.00012303804396651685
-0.1486358642578125,-0.2749481201171875,-0.8893890380859375,0.3862611651420593,-0.2612646222114563,-0.00914609432220459
-0.144134521484375,-0.28759765625,-0.8964996337890625,0.31270918250083923,-0.3456258475780487,-0.02684173360466957
-0.12994384765625,-0.2887115478515625,-0.8944549560546875,0.2291322499513626,-0.39464691281318665,-0.019934559240937233
-0.119384765625,-0.2857513427734375,-0.8826751708984375,0.15265825390815735,-0.42590442299842834,0.000969923275988549
-0.1157073974609375,-0.2881317138671875,-0.8642425537109375,0.10120997577905655,-0.41214948892593384,0.034753985702991486
-0.119110107421875,-0.2988739013671875,-0.858184814453125,0.10279029607772827,-0.34874412417411804,0.05011296644806862
-0.12481689453125,-0.3050689697265625,-0.868011474609375,0.18525667488574982,-0.23557789623737335,0.025859560817480087
-0.1413116455078125,-0.30279541015625,-0.8921051025390625,0.3420944809913635,-0.09248865395784378,-0.042636677622795105
-0.1568756103515625,-0.29461669921875,-0.92572021484375,0.5227729082107544,0.0010695254895836115,-0.13308535516262054
-0.181854248046875,-0.29302978515625,-0.9645843505859375,0.6736245155334473,-0.005423527676612139,-0.1947053074836731
-0.2048187255859375,-0.3082275390625,-0.99072265625,0.7586400508880615,-0.06406287103891373,-0.1943785399198532
-0.2027587890625,-0.325653076171875,-0.9950103759765625,0.7519632577896118,-0.17052912712097168,-0.14631034433841705
-0.1803741455078125,-0.3428497314453125,-0.975311279296875,0.6371431946754456,-0.24730859696865082,-0.07677067816257477
-0.1591339111328125,-0.366790771484375,-0.9243011474609375,0.4305524528026581,-0.2780318856239319,-0.008679508231580257
-0.145599365234375,-0.3860015869140625,-0.8602142333984375,0.20162498950958252,-0.26605910062789917,0.021107681095600128
-0.146087646484375,-0.3973541259765625,-0.808258056640625,0.039382025599479675,-0.3066832423210144,0.031089741736650467
-0.1563262939453125,-0.4019622802734375,-0.8011627197265625,-0.0201641246676445,-0.4312928020954132,0.012926184572279453
-0.1581268310546875,-0.3975067138671875,-0.8424530029296875,0.0005201153689995408,-0.5429285168647766,-0.02888118289411068
-0.1572723388671875,-0.379364013671875,-0.9001617431640625,0.06336592137813568,-0.5974141359329224,-0.06890503317117691
-0.1636962890625,-0.366455078125,-0.9480133056640625,0.1353817880153656,-0.5812133550643921,-0.08418678492307663
-0.186798095703125,-0.381744384765625,-0.9726715087890625,0.20742589235305786,-0.5053102970123291,-0.06962887942790985
-0.205718994140625,-0.40618896484375,-0.9730224609375,0.28349295258522034,-0.42469748854637146,-0.03514280542731285
-0.21453857421875,-0.42083740234375,-0.9611358642578125,0.3783113658428192,-0.3945704698562622,-0.0033534523099660873
-0.21380615234375,-0.4276580810546875,-0.9510650634765625,0.4824976623058319,-0.41889286041259766,0.0051715923473238945
-0.2084197998046875,-0.42510986328125,-0.94940185546875,0.5503281354904175,-0.41459959745407104,0.023555127903819084
-0.2108154296875,-0.422698974609375,-0.9483642578125,0.5495712757110596,-0.37302151322364807,0.0640074759721756
-0.221649169921875,-0.4342041015625,-0.9288330078125,0.4815128445625305,-0.30715835094451904,0.1275172084569931
-0.22515869140625,-0.4533538818359375,-0.897705078125,0.35779860615730286,-0.2319496124982834,0.21852780878543854
-0.2042999267578125,-0.45867919921875,-0.8619537353515625,0.203436478972435,-0.14848721027374268,0.3046635091304779
-0.1845855712890625,-0.4516448974609375,-0.8241729736328125,0.07620768249034882,-0.1272634118795395,0.3406960666179657
-0.1819915771484375,-0.4454803466796875,-0.809234619140625,-0.01335681788623333,-0.14474786818027496,0.3287632465362549
-0.194580078125,-0.441070556640625,-0.8206329345703125,-0.05850565433502197,-0.1824004352092743,0.29056790471076965
-0.21380615234375,-0.438720703125,-0.844940185546875,-0.03724830225110054,-0.2413758635520935,0.24977707862854004
-0.222625732421875,-0.4279632568359375,-0.86944580078125,0.019962523132562637,-0.3016895353794098,0.24381212890148163
-0.2232818603515625,-0.4259033203125,-0.90179443359375,0.09013362228870392,-0.3766988217830658,0.26276877522468567
-0.22674560546875,-0.4376983642578125,-0.9278106689453125,0.13789795339107513,-0.4464419484138489,0.28686612844467163
-0.2213897705078125,-0.447723388671875,-0.918853759765625,0.1216992735862732,-0.4633263647556305,0.31578245759010315
-0.2197723388671875,-0.449981689453125,-0.8798828125,0.07274610549211502,-0.4272163212299347,0.3336370885372162
-0.2224884033203125,-0.4582061767578125,-0.828277587890625,0.018430672585964203,-0.33657801151275635,0.34317708015441895
-0.2334136962890625,-0.46881103515625,-0.7850494384765625,0.00014940333494450897,-0.23736168444156647,0.34124520421028137
-0.24407958984375,-0.4650421142578125,-0.7670135498046875,-0.0013116068439558148,-0.17880037426948547,0.3476916551589966
-0.2476348876953125,-0.45526123046875,-0.774169921875,0.004412857815623283,-0.22988805174827576,0.355801522731781
-0.2505645751953125,-0.452880859375,-0.798583984375,0.0143493777140975,-0.36528104543685913,0.35838770866394043
-0.2474822998046875,-0.462982177734375,-0.8336334228515625,0.015839150175452232,-0.44188418984413147,0.3716624975204468
-0.2481689453125,-0.47076416015625,-0.854583740234375,-0.0002724413643591106,-0.43411415815353394,0.404933363199234
-0.253448486328125,-0.471923828125,-0.8579254150390625,0.03230387717485428,-0.32702553272247314,0.44687336683273315
-0.2588958740234375,-0.4755401611328125,-0.840545654296875,-0.05125519633293152,0.1606522649526596,0.5209540128707886
-0.2521209716796875,-0.47265625,-0.7802276611328125,-0.1820254623889923,0.4552713930606842,0.5270472764968872
-0.285400390625,-0.47393798828125,-0.7484283447265625,-0.2751964032649994,0.40184810757637024,0.524000346660614
-0.2995758056640625,-0.481719970703125,-0.757659912109375,-0.28934818506240845,0.193982794880867,0.5410065054893494
-0.252777099609375,-0.4666748046875,-0.813323974609375,-0.23435258865356445,-0.04869403690099716,0.532742440700531
-0.21917724609375,-0.441375732421875,-0.8860321044921875,-0.1661229282617569,-0.17851142585277557,0.4883995056152344
-0.2330322265625,-0.433380126953125,-0.9181060791015625,-0.10172422975301743,-0.20455047488212585,0.4257664978504181
-0.270111083984375,-0.4286956787109375,-0.90765380859375,-0.0382845364511013,-0.14866164326667786,0.3969465494155884
-0.290283203125,-0.43304443359375,-0.87188720703125,0.02528058923780918,-0.006727677304297686,0.39355263113975525
-0.284942626953125,-0.428955078125,-0.836395263671875,0.03230094909667969,0.161484494805336,0.41382113099098206
-0.2851409912109375,-0.4369964599609375,-0.8079376220703125,-0.0023883229587227106,0.29313334822654724,0.44948911666870117
-0.280364990234375,-0.4635772705078125,-0.788604736328125,-0.028903286904096603,0.37893638014793396,0.4947926998138428
-0.2672119140625,-0.4781494140625,-0.78326416015625,-0.003022954100742936,0.4303188920021057,0.5355214476585388
-0.2545623779296875,-0.47607421875,-0.803924560546875,0.05967611446976662,0.48550304770469666,0.5496540665626526
-0.255706787109375,-0.465118408203125,-0.8294830322265625,0.13142113387584686,0.5333502292633057,0.5268920660018921
-0.26947021484375,-0.4554595947265625,-0.84619140625,0.20818355679512024,0.46383291482925415,0.5188250541687012
-0.283233642578125,-0.446258544921875,-0.863616943359375,0.2568155527114868,0.2662505805492401,0.4954230487346649
-0.27398681640625,-0.4394378662109375,-0.889312744140625,0.24765028059482574,0.08734849095344543,0.4586232304573059
-0.255126953125,-0.4371795654296875,-0.9045257568359375,0.15532301366329193,-0.041315216571092606,0.4739864766597748
-0.23095703125,-0.4337921142578125,-0.8856658935546875,0.006072539836168289,-0.04715632647275925,0.5093673467636108
-0.21588134765625,-0.4376373291015625,-0.83563232421875,-0.11254012584686279,0.06649433821439743,0.557395875453949
-0.208038330078125,-0.4461212158203125,-0.80133056640625,-0.15581382811069489,0.22794954478740692,0.599390983581543
-0.2058563232421875,-0.4544525146484375,-0.80035400390625,-0.12934812903404236,0.37018951773643494,0.627926230430603
-0.202789306640625,-0.449981689453125,-0.8267364501953125,-0.06635825335979462,0.4653559625148773,0.6220353245735168
-0.1964569091796875,-0.4385528564453125,-0.8604736328125,0.007515174336731434,0.4419925808906555,0.5983566045761108
-0.191131591796875,-0.42938232421875,-0.8842315673828125,0.0673617273569107,0.33984917402267456,0.5739210844039917
-0.17791748046875,-0.421112060546875,-0.886627197265625,0.10440896451473236,0.19751866161823273,0.5446540117263794
-0.163818359375,-0.4220733642578125,-0.87445068359375,0.11440247297286987,0.027630828320980072,0.5088456869125366
-0.1622161865234375,-0.4346466064453125,-0.846527099609375,0.12483035027980804,-0.14920440316200256,0.48102280497550964
-0.17742919921875,-0.448699951171875,-0.823760986328125,0.10923594236373901,-0.33510449528694153,0.49194231629371643
-0.191314697265625,-0.4681549072265625,-0.8151092529296875,0.03960466757416725,-0.49823641777038574,0.5549939870834351
-0.182891845703125,-0.480499267578125,-0.7996368408203125,-0.0938711017370224,-0.5978663563728333,0.6376611590385437
-0.1669769287109375,-0.4880218505859375,-0.7667083740234375,-0.22699053585529327,-0.648102343082428,0.7064855098724365
-0.17486572265625,-0.492767333984375,-0.732177734375,-0.3263933062553406,-0.5852751731872559,0.7630329132080078
-0.17120361328125,-0.4994354248046875,-0.7067108154296875,-0.3620551526546478,-0.4564216136932373,0.7912760376930237
-0.1790618896484375,-0.4914703369140625,-0.718719482421875,-0.3239136338233948,-0.3643880784511566,0.7548807263374329
-0.211029052734375,-0.4792938232421875,-0.7645416259765625,-0.24617302417755127,-0.34917768836021423,0.6887065172195435
-0.247772216796875,-0.4696807861328125,-0.8113250732421875,-0.17157815396785736,-0.41918209195137024,0.6280623078346252
-0.2729339599609375,-0.4641571044921875,-0.8504180908203125,-0.12556298077106476,-0.5147075653076172,0.5499352812767029
-0.2812347412109375,-0.46795654296875,-0.8683013916015625,-0.1067352369427681,-0.6086598634719849,0.4852553904056549
-0.2918243408203125,-0.470489501953125,-0.8684234619140625,-0.1292746365070343,-0.616425096988678,0.44954079389572144
-0.307342529296875,-0.4696502685546875,-0.859039306640625,-0.16442303359508514,-0.5737285017967224,0.42067211866378784
-0.3174591064453125,-0.478759765625,-0.8554229736328125,-0.16994403302669525,-0.5661949515342712,0.38813868165016174
-0.3269500732421875,-0.4866943359375,-0.8685455322265625,-0.12770096957683563,-0.5629187226295471,0.3711937963962555
-0.3300628662109375,-0.483184814453125,-0.898284912109375,-0.07372535020112991,-0.5298026204109192,0.38930779695510864
-0.32073974609375,-0.478546142578125,-0.9241485595703125,-0.012115252204239368,-0.496534138917923,0.4231395423412323
-0.3114776611328125,-0.483642578125,-0.93231201171875,0.04645831137895584,-0.499149352312088,0.4698338210582733
-0.3066864013671875,-0.500732421875,-0.927001953125,0.0802418440580368,-0.5411947965621948,0.5311877131462097
-0.3051910400390625,-0.508453369140625,-0.910247802734375,0.08769336342811584,-0.6438077092170715,0.5701042413711548
-0.302398681640625,-0.5067596435546875,-0.8876800537109375,0.1030837744474411,-0.7698061466217041,0.5755546689033508
-0.315185546875,-0.504180908203125,-0.868988037109375,0.13004295527935028,-0.8317208886146545,0.5772124528884888
-0.3437652587890625,-0.4951629638671875,-0.8611602783203125,0.15301911532878876,-0.8449531197547913,0.5670647621154785
-0.357513427734375,-0.481964111328125,-0.8557586669921875,0.15654033422470093,-0.8355731964111328,0.560001015663147
-0.3599090576171875,-0.4689178466796875,-0.839385986328125,0.14064499735832214,-0.7755361795425415,0.5330449938774109
-0.357818603515625,-0.45660400390625,-0.81463623046875,0.1300213783979416,-0.6946206092834473,0.5108281373977661
-0.3711090087890625,-0.461578369140625,-0.7987213134765625,0.15138445794582367,-0.5530730485916138,0.4932834804058075
-0.3900604248046875,-0.476715087890625,-0.799468994140625,0.21314769983291626,-0.2227366715669632,0.46061021089553833
-0.4015350341796875,-0.4873504638671875,-0.7996063232421875,0.26706206798553467,0.15703995525836945,0.3783917725086212
-0.4378204345703125,-0.4974822998046875,-0.792236328125,0.3143198490142822,0.36866432428359985,0.25232306122779846
-0.4776763916015625,-0.5025634765625,-0.7846832275390625,0.3685719072818756,0.39995354413986206,0.17471934854984283
-0.492431640625,-0.5092926025390625,-0.8019256591796875,0.4040446877479553,0.2540588974952698,0.15434935688972473
-0.4704742431640625,-0.502960205078125,-0.8435821533203125,0.39477047324180603,0.006724747829139233,0.17063671350479126
-0.4365997314453125,-0.4939117431640625,-0.87518310546875,0.350353479385376,-0.27156227827072144,0.19279395043849945
-0.4242401123046875,-0.4933013916015625,-0.8807220458984375,0.28375768661499023,-0.445618212223053,0.2278566062450409
-0.4221038818359375,-0.4853515625,-0.8726959228515625,0.20571161806583405,-0.4570690095424652,0.26423510909080505
-0.42919921875,-0.474700927734375,-0.8543243408203125,0.14192704856395721,-0.4250999093055725,0.29402151703834534
-0.4361572265625,-0.4692230224609375,-0.845001220703125,0.11733648180961609,-0.2388107180595398,0.30206984281539917
-0.4544525146484375,-0.4629364013671875,-0.8450164794921875,0.09703946113586426,0.14611220359802246,0.2575042247772217
-0.4785919189453125,-0.4780731201171875,-0.83172607421875,0.11722809076309204,0.5266169309616089,0.12217731028795242
-0.5389556884765625,-0.4598236083984375,-0.8083343505859375,0.20950235426425934,0.7700937986373901,-0.021922076120972633
-0.5836181640625,-0.429412841796875,-0.8360443115234375,0.3566984534263611,0.8160455226898193,-0.07197725772857666
-0.56201171875,-0.4161224365234375,-0.905975341796875,0.47313639521598816,0.7505653500556946,-0.032707344740629196
-0.50946044921875,-0.419097900390625,-0.9665679931640625,0.5256981253623962,0.6929164528846741,0.06828264892101288
-0.4382476806640625,-0.4302520751953125,-0.968353271484375,0.5615120530128479,0.7167251110076904,0.18458369374275208
-0.3791046142578125,-0.4381256103515625,-0.936920166015625,0.604685366153717,0.818073034286499,0.2909415662288666
-0.3555755615234375,-0.4342498779296875,-0.90777587890625,0.613059401512146,0.8083974719047546,0.355614572763443
-0.3646240234375,-0.429443359375,-0.8947906494140625,0.5778894424438477,0.5582374334335327,0.4038289487361908
-0.387542724609375,-0.4441070556640625,-0.891204833984375,0.4987570643424988,0.20333980023860931,0.3786349296569824
-0.420135498046875,-0.406494140625,-0.9005126953125,0.3783976435661316,-0.12437494844198227,0.3192536234855652
-0.4551849365234375,-0.35308837890625,-0.877288818359375,0.21399271488189697,-0.2831534147262573,0.28968748450279236
-0.4693603515625,-0.33795166015625,-0.8408050537109375,0.06005268543958664,-0.31891512870788574,0.28895270824432373
-0.494903564453125,-0.3342742919921875,-0.7899169921875,-0.030857248231768608,-0.28194114565849304,0.2662854790687561
-0.5119781494140625,-0.343780517578125,-0.7593536376953125,-0.040277913212776184,-0.19155772030353546,0.2177640199661255
-0.516143798828125,-0.34088134765625,-0.764312744140625,0.029462285339832306,0.0015936355339363217,0.14998364448547363
-0.5103912353515625,-0.3216552734375,-0.784881591796875,0.17081861197948456,0.29433175921440125,0.08845343440771103
-0.5066986083984375,-0.3110504150390625,-0.8080596923828125,0.3842217028141022,0.5918363928794861,0.03467435762286186
-0.505340576171875,-0.3191986083984375,-0.840789794921875,0.6313374638557434,0.8111578226089478,0.011068896390497684
-0.4984283447265625,-0.329345703125,-0.8770599365234375,0.8444300293922424,0.9204941987991333,0.0166785791516304
-0.4812164306640625,-0.3298797607421875,-0.8905792236328125,0.9634640216827393,0.9543243050575256,0.0686405822634697
-0.4586334228515625,-0.329833984375,-0.8667144775390625,0.9699450731277466,0.9449052810668945,0.13546594977378845
-0.4387359619140625,-0.3355255126953125,-0.81573486328125,0.8981785178184509,0.9388716220855713,0.20384447276592255
-0.434967041015625,-0.340667724609375,-0.7570037841796875,0.7691584825515747,0.9243954420089722,0.255120187997818
-0.42919921875,-0.3427581787109375,-0.71295166015625,0.6174871921539307,0.8535410165786743,0.2722400426864624
-0.440338134765625,-0.344085693359375,-0.6920928955078125,0.47261014580726624,0.734548032283783,0.24480868875980377
-0.4672393798828125,-0.3412322998046875,-0.6981201171875,0.34474486112594604,0.6271616220474243,0.20833322405815125
-0.492950439453125,-0.3333740234375,-0.716766357421875,0.23622532188892365,0.5665651559829712,0.2222365289926529
-0.4903717041015625,-0.3342437744140625,-0.7334747314453125,0.14191105961799622,0.5666404962539673,0.28988322615623474
-0.4562225341796875,-0.3471221923828125,-0.739166259765625,0.06517474353313446,0.6065032482147217,0.39870211482048035
-0.421600341796875,-0.3687286376953125,-0.74530029296875,0.029293706640601158,0.7047706842422485,0.5176660418510437
-0.3943634033203125,-0.388336181640625,-0.7562103271484375,0.0399993471801281,0.8244126439094543,0.6295678019523621
-0.384521484375,-0.3958740234375,-0.783111572265625,0.07773314416408539,0.947563111782074,0.7198106050491333
-0.3823699951171875,-0.3902587890625,-0.81646728515625,0.09874468296766281,1.0215736627578735,0.7700918912887573
-0.3858184814453125,-0.3766937255859375,-0.845367431640625,0.10779410600662231,1.0039573907852173,0.788272500038147
-0.3968658447265625,-0.357635498046875,-0.8676605224609375,0.10728731006383896,0.8882331848144531,0.7857033610343933
-0.3990020751953125,-0.3395538330078125,-0.8884735107421875,0.12290354818105698,0.7368998527526855,0.7732895612716675
-0.3827972412109375,-0.3293304443359375,-0.8997802734375,0.13528218865394592,0.5966660380363464,0.7585101127624512
-0.3687591552734375,-0.3220672607421875,-0.9012298583984375,0.14491936564445496,0.4781830906867981,0.734247624874115
-0.3603668212890625,-0.32366943359375,-0.8890838623046875,0.17159278690814972,0.4617564380168915,0.7319711446762085
-0.35418701171875,-0.33612060546875,-0.86785888671875,0.20882858335971832,0.5714080929756165,0.7690311670303345
-0.3442840576171875,-0.351531982421875,-0.8460693359375,0.2256496399641037,0.7953826189041138,0.8411876559257507
-0.3411102294921875,-0.3668670654296875,-0.8332672119140625,0.17750421166419983,1.0812606811523438,0.9673786163330078
-0.3458709716796875,-0.386993408203125,-0.825897216796875,0.08914292603731155,1.2212196588516235,1.1003062725067139
-0.3421630859375,-0.4103240966796875,-0.8217315673828125,0.02431359514594078,1.219536304473877,1.1903480291366577
-0.3424835205078125,-0.4240875244140625,-0.82830810546875,0.029678000137209892,1.1807286739349365,1.161864161491394
-0.3119659423828125,-0.3838043212890625,-0.8216094970703125,0.05919194966554642,1.236419677734375,1.0451780557632446
-0.3077239990234375,-0.317230224609375,-0.807861328125,0.0872933566570282,1.460943341255188,0.9259121417999268
-0.34661865234375,-0.3038330078125,-0.79217529296875,0.08863452821969986,1.8657174110412598,0.8416582345962524
-0.4043731689453125,-0.33758544921875,-0.7906951904296875,0.06699581444263458,2.383899688720703,0.804114580154419
-0.4491119384765625,-0.3850555419921875,-0.771453857421875,0.029162678867578506,2.826667070388794,0.813004195690155
-0.4824066162109375,-0.4101104736328125,-0.7563629150390625,-0.03772687166929245,3.059084892272949,0.904386043548584
-0.45587158203125,-0.4148712158203125,-0.7603912353515625,-0.15345613658428192,3.0704338550567627,1.0719151496887207
-0.3660888671875,-0.4123077392578125,-0.777313232421875,-0.22825421392917633,2.758477210998535,1.2472238540649414
-0.2637939453125,-0.41180419921875,-0.818817138671875,-0.2530255913734436,2.3895375728607178,1.2548903226852417
-0.20611572265625,-0.4247589111328125,-0.8985443115234375,-0.3378499448299408,2.122194528579712,1.0533534288406372
-0.19549560546875,-0.412078857421875,-0.971527099609375,-0.4279518723487854,1.8796439170837402,0.7676820158958435
-0.2069549560546875,-0.3897247314453125,-0.9864349365234375,-0.4400274455547333,1.4968568086624146,0.5960330367088318
-0.2030487060546875,-0.3716278076171875,-0.974853515625,-0.3832176923751831,1.1507385969161987,0.5546126365661621
-0.1523284912109375,-0.3424530029296875,-0.9478912353515625,-0.29147765040397644,0.9874750971794128,0.5185190439224243
-0.10345458984375,-0.31695556640625,-0.9402618408203125,-0.2002638578414917,0.8345001935958862,0.4874942898750305
-0.1181182861328125,-0.321685791015625,-0.954437255859375,-0.148465096950531,0.6072073578834534,0.4700703024864197
-0.1461639404296875,-0.3087158203125,-0.93963623046875,-0.1841629147529602,0.39989253878593445,0.4224039912223816
-0.1571044921875,-0.31573486328125,-0.9222869873046875,-0.29905328154563904,0.2774862051010132,0.3574516177177429
-0.1740875244140625,-0.35406494140625,-0.8980865478515625,-0.4109225571155548,0.17640726268291473,0.30839911103248596
-0.20068359375,-0.3944549560546875,-0.8831939697265625,-0.43378791213035583,0.13217908143997192,0.28419896960258484
-0.2147064208984375,-0.41351318359375,-0.896453857421875,-0.3512618839740753,0.08912002295255661,0.27113670110702515
-0.20880126953125,-0.398193359375,-0.93768310546875,-0.1781012862920761,-0.007443268783390522,0.23901711404323578
-0.198822021484375,-0.3675994873046875,-0.983551025390625,0.04927380755543709,-0.22634738683700562,0.19617164134979248
-0.1957244873046875,-0.3563690185546875,-1.0196075439453125,0.2730720043182373,-0.47409459948539734,0.16265416145324707
-0.1924591064453125,-0.361907958984375,-1.0434112548828125,0.453163206577301,-0.5913674235343933,0.14145007729530334
-0.1768646240234375,-0.367706298828125,-1.0371551513671875,0.5808892250061035,-0.5584350228309631,0.14426423609256744
-0.171844482421875,-0.3845672607421875,-1.020538330078125,0.6568574905395508,-0.4240434169769287,0.18951906263828278
-0.179534912109375,-0.398712158203125,-0.980133056640625,0.6477353572845459,-0.1868918538093567,0.25765177607536316
-0.1761932373046875,-0.4002838134765625,-0.920654296875,0.5565050840377808,0.07416371256113052,0.32175832986831665
-0.1849822998046875,-0.412506103515625,-0.863128662109375,0.419610857963562,0.25433480739593506,0.38065439462661743
-0.21295166015625,-0.431304931640625,-0.823486328125,0.2776734232902527,0.30133214592933655,0.4120389521121979
-0.2335662841796875,-0.437713623046875,-0.8092193603515625,0.1604570597410202,0.22702516615390778,0.39209267497062683
-0.2443389892578125,-0.432281494140625,-0.8155670166015625,0.10507421940565109,-0.003581951605156064,0.31743600964546204
-0.2472686767578125,-0.422821044921875,-0.8384857177734375,0.12140525877475739,-0.44075554609298706,0.20532971620559692
-0.240386962890625,-0.4079437255859375,-0.88232421875,0.18940827250480652,-0.9801895022392273,0.06729301810264587
-0.2322540283203125,-0.388336181640625,-0.931854248046875,0.2705763578414917,-1.3729671239852905,-0.05200860649347305
-0.2118377685546875,-0.362274169921875,-0.97198486328125,0.3435765504837036,-1.4513956308364868,-0.09991168230772018
-0.207794189453125,-0.356475830078125,-0.9834136962890625,0.4025868773460388,-1.2986135482788086,-0.08929312974214554
-0.2253570556640625,-0.3880767822265625,-0.9774169921875,0.43526679277420044,-1.117390513420105,-0.030768299475312233
-0.2468414306640625,-0.4293060302734375,-0.9518890380859375,0.4298701584339142,-0.9454157948493958,0.048099085688591
-0.268890380859375,-0.4669952392578125,-0.904022216796875,0.38906705379486084,-0.7299045324325562,0.12877927720546722
-0.291168212890625,-0.4923095703125,-0.8738555908203125,0.3678211569786072,-0.5644626021385193,0.19098806381225586
-0.290771484375,-0.4805908203125,-0.8704071044921875,0.4026944637298584,-0.44890081882476807,0.20585036277770996
-0.2794952392578125,-0.4511871337890625,-0.8953704833984375,0.48122334480285645,-0.2991267740726471,0.16810858249664307
-0.2725372314453125,-0.414794921875,-0.9229278564453125,0.5815818905830383,-0.11098111420869827,0.10437620431184769
-0.2812042236328125,-0.3768463134765625,-0.936553955078125,0.6711980700492859,0.10394370555877686,0.06396114081144333
-0.2861328125,-0.360748291015625,-0.95416259765625,0.731703519821167,0.26575392484664917,0.03440884128212929
-0.2822723388671875,-0.361053466796875,-0.9615325927734375,0.7482340335845947,0.33814263343811035,0.0008721852791495621
-0.2740478515625,-0.36602783203125,-0.964263916015625,0.7062852382659912,0.323750376701355,-0.01961444690823555
-0.25396728515625,-0.3653717041015625,-0.9553070068359375,0.6236755847930908,0.2256927788257599,-0.03344424441456795
-0.229522705078125,-0.367156982421875,-0.9481658935546875,0.5337145328521729,0.06729275733232498,-0.04008376970887184
-0.2011260986328125,-0.3670806884765625,-0.9448699951171875,0.44631969928741455,-0.1284748911857605,-0.026257436722517014
-0.1757049560546875,-0.35919189453125,-0.9438629150390625,0.3735820949077606,-0.3153241276741028,0.011182880029082298
-0.152008056640625,-0.356170654296875,-0.95318603515625,0.31339892745018005,-0.47193026542663574,0.07152371853590012
-0.13006591796875,-0.3527984619140625,-0.95770263671875,0.2601335644721985,-0.5422941446304321,0.1387632042169571
-0.116058349609375,-0.347259521484375,-0.939544677734375,0.21617570519447327,-0.5274412035942078,0.16536791622638702
-0.121246337890625,-0.34002685546875,-0.9107818603515625,0.21039292216300964,-0.49217772483825684,0.14050225913524628
-0.1400146484375,-0.33026123046875,-0.88299560546875,0.2387382686138153,-0.4777921438217163,0.09483649581670761
-0.162322998046875,-0.3238677978515625,-0.871673583984375,0.29621461033821106,-0.4939769506454468,0.05077742785215378
-0.184661865234375,-0.3295135498046875,-0.886474609375,0.3609278202056885,-0.5184215903282166,0.008989766240119934
-0.1995697021484375,-0.3431396484375,-0.9020538330078125,0.40227100253105164,-0.5855819582939148,-0.02731950581073761
-0.2103424072265625,-0.3472442626953125,-0.9069366455078125,0.36353346705436707,-0.6809141039848328,-0.013608752749860287
-0.2033538818359375,-0.3519134521484375,-0.882476806640625,0.22174304723739624,-0.8080965280532837,0.05116624757647514
-0.1845550537109375,-0.3632659912109375,-0.8407745361328125,0.03465411812067032,-0.9599968791007996,0.12834332883358002
-0.175689697265625,-0.3887786865234375,-0.7982940673828125,-0.11474389582872391,-1.0768758058547974,0.1828467845916748
-0.1825408935546875,-0.408905029296875,-0.767547607421875,-0.17465649545192719,-1.137352466583252,0.2217065542936325
-0.1910858154296875,-0.407440185546875,-0.7677001953125,-0.16802042722702026,-1.113524317741394,0.2397068738937378
-0.2033233642578125,-0.3901824951171875,-0.78546142578125,-0.14151744544506073,-1.0207926034927368,0.24324434995651245
-0.2276458740234375,-0.3817596435546875,-0.802398681640625,-0.14062103629112244,-0.90476393699646,0.24263687431812286
-0.26043701171875,-0.3863983154296875,-0.810455322265625,-0.17023351788520813,-0.7691898941993713,0.2634201943874359
-0.271636962890625,-0.4022369384765625,-0.7959747314453125,-0.20961473882198334,-0.6338437795639038,0.31802910566329956
-0.265777587890625,-0.4178466796875,-0.7901611328125,-0.2224104404449463,-0.532588005065918,0.38019898533821106
-0.2635040283203125,-0.4246063232421875,-0.7945556640625,-0.2051723301410675,-0.5292079448699951,0.42211610078811646
-0.2772979736328125,-0.4300537109375,-0.8202362060546875,-0.17851194739341736,-0.6141249537467957,0.4443870484828949
-0.2967376708984375,-0.4307861328125,-0.84930419921875,-0.14750289916992188,-0.7464747428894043,0.44829654693603516
-0.3155517578125,-0.4245147705078125,-0.8660888671875,-0.13928119838237762,-0.85432368516922,0.4609532356262207
-0.32440185546875,-0.4182586669921875,-0.85906982421875,-0.15285639464855194,-0.9331892132759094,0.4801993668079376
-0.3274078369140625,-0.4196624755859375,-0.837066650390625,-0.18191121518611908,-0.9874647259712219,0.5090081095695496
-0.333740234375,-0.4253082275390625,-0.8172760009765625,-0.14686134457588196,-0.8073332905769348,0.5424651503562927
-0.3335113525390625,-0.4301605224609375,-0.7918548583984375,-0.11451992392539978,-0.257177472114563,0.613731861114502
-0.3282012939453125,-0.44866943359375,-0.7570953369140625,-0.16986200213432312,0.17631670832633972,0.6019425988197327
-0.3651275634765625,-0.4673004150390625,-0.7193145751953125,-0.20496512949466705,0.22817884385585785,0.5245556235313416
-0.4029083251953125,-0.46044921875,-0.697418212890625,-0.15428437292575836,0.08321499824523926,0.46570271253585815
-0.4030303955078125,-0.4350738525390625,-0.740020751953125,-0.07379672676324844,-0.12793585658073425,0.4527056813240051
-0.3756866455078125,-0.4082794189453125,-0.8209991455078125,-0.04228620231151581,-0.3295755088329315,0.4379642903804779
-0.3626556396484375,-0.4096832275390625,-0.8528594970703125,-0.06844137609004974,-0.5435186624526978,0.4203445613384247
-0.373046875,-0.4188079833984375,-0.8341827392578125,-0.12181591987609863,-0.6840238571166992,0.42885521054267883
-0.368377685546875,-0.4133148193359375,-0.789703369140625,-0.1472693383693695,-0.6537903547286987,0.45253869891166687
-0.3568115234375,-0.409454345703125,-0.7472076416015625,-0.11636842042207718,-0.4330310523509979,0.43685615062713623
-0.3676605224609375,-0.4189453125,-0.7213592529296875,-0.06854976713657379,-0.1445438712835312,0.39178454875946045
-0.4088897705078125,-0.4292449951171875,-0.722747802734375,0.0006258428329601884,0.07708759605884552,0.3006612956523895
-0.441009521484375,-0.425262451171875,-0.73114013671875,0.10092661529779434,0.17811967432498932,0.18979816138744354
-0.4537811279296875,-0.4199981689453125,-0.754150390625,0.2079092562198639,0.12721334397792816,0.1036643460392952
-0.45196533203125,-0.4123077392578125,-0.797760009765625,0.30799058079719543,-0.07551553100347519,0.04566602036356926
-0.437469482421875,-0.410980224609375,-0.8385467529296875,0.352254182100296,-0.3647947311401367,0.03633696958422661
-0.416900634765625,-0.4232177734375,-0.855133056640625,0.3464791178703308,-0.6950634717941284,-0.014547783881425858
-0.408782958984375,-0.4391021728515625,-0.8504486083984375,0.3190714716911316,-0.9317154288291931,0.07981093972921371
-0.417816162109375,-0.4532012939453125,-0.8339385986328125,0.30059391260147095,-1.0080761909484863,0.09614597260951996
-0.4300384521484375,-0.466583251953125,-0.8134307861328125,0.3144732415676117,-0.9540385603904724,0.07655416429042816
-0.4496917724609375,-0.4757843017578125,-0.794921875,0.37098100781440735,-0.7927128076553345,0.00012916330888401717
-0.473175048828125,-0.48028564453125,-0.7806549072265625,0.4242468774318695,-0.5733886957168579,-0.10441375523805618
-0.5115966796875,-0.47882080078125,-0.770233154296875,0.4780837595462799,-0.3462918996810913,-0.17189373075962067
-0.5484619140625,-0.483917236328125,-0.7767791748046875,0.4803237318992615,-0.21005816757678986,-0.13664013147354126
-0.5538482666015625,-0.5090789794921875,-0.79205322265625,0.43761754035949707,-0.22542273998260498,-0.0333411805331707
-0.51708984375,-0.538909912109375,-0.7933349609375,0.3681926727294922,-0.3376970887184143,0.07147231698036194
-0.4737396240234375,-0.5396728515625,-0.7907562255859375,0.28899770975112915,-0.5059329867362976,0.11829761415719986
-0.4586334228515625,-0.5201873779296875,-0.7937164306640625,0.22541527450084686,-0.6729139685630798,0.09222633391618729
-0.4820709228515625,-0.50360107421875,-0.791778564453125,0.17780116200447083,-0.834746241569519,0.01877874694764614
-0.5289459228515625,-0.483673095703125,-0.7989654541015625,0.18822236359119415,-1.0578504800796509,-0.08264827728271484
-0.5628814697265625,-0.4634246826171875,-0.8228302001953125,0.23549215495586395,-1.2619314193725586,-0.15373283624649048
-0.5660247802734375,-0.45086669921875,-0.8466644287109375,0.27974775433540344,-1.3797246217727661,-0.15836860239505768
-0.5494384765625,-0.448822021484375,-0.8602752685546875,0.30752745270729065,-1.3958241939544678,-0.07597839087247849
-0.5316619873046875,-0.4753875732421875,-0.8444976806640625,0.31410813331604004,-1.2918933629989624,0.05553889274597168
-0.50994873046875,-0.511932373046875,-0.803558349609375,0.38237321376800537,-0.8508474826812744,0.16020537912845612
-0.492431640625,-0.528106689453125,-0.7577362060546875,0.47725871205329895,0.060204751789569855,0.1747955083847046
-0.510772705078125,-0.5233306884765625,-0.7027130126953125,0.4045424163341522,0.6661064028739929,-0.015529957599937916
-0.614715576171875,-0.5153045654296875,-0.626617431640625,0.30692505836486816,0.6768860816955566,-0.29010799527168274
-0.715118408203125,-0.47894287109375,-0.5968780517578125,0.3103911578655243,0.45299410820007324,-0.3732212483882904
-0.7297515869140625,-0.4584503173828125,-0.675933837890625,0.3363138437271118,0.09375578910112381,-0.3348544239997864
-0.6449432373046875,-0.4446868896484375,-0.7910919189453125,0.28604426980018616,-0.23851217329502106,-0.2531515657901764
-0.5655517578125,-0.4641571044921875,-0.812957763671875,0.19125863909721375,-0.3435930609703064,-0.15718695521354675
-0.532470703125,-0.48748779296875,-0.751190185546875,0.0987745150923729,-0.3142889440059662,-0.05512131005525589
-0.506134033203125,-0.4797210693359375,-0.68353271484375,0.0415855273604393,-0.24828357994556427,0.03941824659705162
-0.4938812255859375,-0.4644927978515625,-0.6475982666015625,0.0366315133869648,-0.07402335852384567,0.12959234416484833
-0.503875732421875,-0.45684814453125,-0.654022216796875,0.038966841995716095,0.2149764895439148,0.2115205079317093
-0.5312957763671875,-0.464202880859375,-0.6636199951171875,0.0020732709672302008,0.49664226174354553,0.25999268889427185
-0.5508270263671875,-0.44744873046875,-0.6478424072265625,-0.007225688546895981,0.5901511907577515,0.2196817547082901
-0.5863800048828125,-0.40289306640625,-0.6453094482421875,0.04177940636873245,0.4681277871131897,0.13680605590343475
-0.619354248046875,-0.356048583984375,-0.6900482177734375,0.10888733714818954,0.14821156859397888,0.04429635778069496
-0.6254730224609375,-0.314178466796875,-0.753387451171875,0.1595209538936615,-0.21586331725120544,-0.035296205431222916
-0.613555908203125,-0.2807464599609375,-0.77691650390625,0.20358029007911682,-0.5203606486320496,-0.06711459159851074
-0.5899200439453125,-0.278717041015625,-0.765228271484375,0.2577891945838928,-0.7097457647323608,-0.10929160565137863
-0.5586395263671875,-0.2995147705078125,-0.733367919921875,0.32030051946640015,-0.7531941533088684,0.06100210174918175
-0.5376129150390625,-0.3329620361328125,-0.6945648193359375,0.3430156707763672,-0.7383478283882141,0.172933429479599
-0.5137481689453125,-0.3581085205078125,-0.6599578857421875,0.2740238308906555,-0.7464417219161987,0.23861870169639587
-0.5184326171875,-0.3739013671875,-0.6206512451171875,0.1759188324213028,-0.7435497641563416,0.2291668802499771
-0.5634918212890625,-0.363739013671875,-0.587738037109375,0.1213996633887291,-0.8911128640174866,0.18840666115283966
-0.63421630859375,-0.3407135009765625,-0.61981201171875,0.09111472964286804,-1.2217434644699097,0.15599332749843597
-0.6808624267578125,-0.321563720703125,-0.680511474609375,0.06203434243798256,-1.5228804349899292,0.1543392390012741
-0.6948089599609375,-0.31988525390625,-0.7029571533203125,0.052011534571647644,-1.6961296796798706,0.21035003662109375
-0.6894683837890625,-0.3381195068359375,-0.699676513671875,0.27750271558761597,-0.6336754560470581,0.36453163623809814
-0.6557159423828125,-0.358642578125,-0.670135498046875,0.3312833905220032,0.7331551909446716,0.36589914560317993
-0.6416778564453125,-0.392791748046875,-0.5596771240234375,-0.05602119117975235,0.9820789694786072,0.04480502009391785
-0.762451171875,-0.4011993408203125,-0.377777099609375,-0.2116858810186386,0.8694350123405457,-0.029046565294265747
-0.851165771484375,-0.3392486572265625,-0.3884735107421875,-0.06380508095026016,0.5777525305747986,0.12798219919204712
-0.8077545166015625,-0.3531036376953125,-0.6334228515625,0.06709408015012741,0.4039120376110077,0.2905391454696655
-0.7170562744140625,-0.3705902099609375,-0.80682373046875,0.0922686755657196,0.5888222455978394,0.42172539234161377
-0.6926727294921875,-0.3834228515625,-0.77777099609375,0.07900293916463852,1.171051025390625,0.5025347471237183
-0.7017364501953125,-0.4006195068359375,-0.65576171875,0.046119824051856995,2.040292978286743,0.5344135761260986
-0.7300567626953125,-0.3817596435546875,-0.5597991943359375,-0.05897490307688713,2.7893362045288086,0.4645591676235199
-0.750762939453125,-0.3812255859375,-0.502197265625,-0.24587155878543854,3.0128180980682373,0.24474875628948212
-0.795745849609375,-0.3916168212890625,-0.5045318603515625,-0.3889096677303314,2.5023951530456543,0.02129649929702282
-0.7896728515625,-0.3492584228515625,-0.60552978515625,-0.40869829058647156,1.5333809852600098,-0.1196206733584404
-0.7131805419921875,-0.2718505859375,-0.7643585205078125,-0.3274063467979431,0.4797399640083313,-0.15899869799613953
-0.6010589599609375,-0.2404327392578125,-0.87982177734375,-0.18561087548732758,-0.3183281719684601,-0.13699594140052795
-0.517791748046875,-0.2664794921875,-0.913482666015625,-0.03934447467327118,-0.5878270268440247,-0.08926116675138474
-0.49713134765625,-0.3226165771484375,-0.8744659423828125,0.06793271005153656,-0.395296186208725,-0.14482936263084412
-0.535430908203125,-0.378204345703125,-0.797515869140625,0.14016589522361755,0.11453057080507278,-0.08750747889280319
-0.6067962646484375,-0.421600341796875,-0.69830322265625,0.18820159137248993,0.6438932418823242,-0.17105749249458313
-0.6513671875,-0.4357757568359375,-0.6233673095703125,0.20401038229465485,0.9354196190834045,-0.26653873920440674
-0.658660888671875,-0.4448089599609375,-0.58819580078125,0.17433877289295197,0.867914080619812,-0.3214520514011383
-0.626617431640625,-0.4318389892578125,-0.600830078125,0.16396737098693848,0.5406240820884705,-0.3113914430141449
-0.566009521484375,-0.4164886474609375,-0.643768310546875,0.18886205554008484,0.08945664763450623,-0.21684949100017548
-0.5121307373046875,-0.4310302734375,-0.6998138427734375,0.21141371130943298,-0.28589460253715515,-0.08208927512168884
-0.468414306640625,-0.4550323486328125,-0.7217254638671875,0.19839590787887573,-0.48847833275794983,0.02581694908440113
-0.464752197265625,-0.476959228515625,-0.7040557861328125,0.131784126162529,-0.5221715569496155,0.08604007959365845
-0.48211669921875,-0.487640380859375,-0.6584930419921875,0.05986519902944565,-0.42834949493408203,0.08038485050201416
-0.5083770751953125,-0.4840850830078125,-0.610687255859375,0.025716016069054604,-0.29459649324417114,0.04480768367648125
-0.5514984130859375,-0.478179931640625,-0.595001220703125,0.024333834648132324,-0.1731286346912384,0.006089051254093647
-0.578704833984375,-0.4726409912109375,-0.5978546142578125,0.023963389918208122,-0.049199238419532776,-0.026371685788035393
-0.584442138671875,-0.465606689453125,-0.60430908203125,0.03411828726530075,0.007847536355257034,-0.03569434955716133
-0.5758819580078125,-0.4617462158203125,-0.61834716796875,0.047996554523706436,-0.0024431839119642973,-0.014966166578233242
-0.544464111328125,-0.467681884765625,-0.6251678466796875,0.05636633560061455,-0.11811172962188721,0.006406500469893217
-0.5198211669921875,-0.4658355712890625,-0.638519287109375,0.074661985039711,-0.3494626581668854,0.01206917967647314
-0.512725830078125,-0.460052490234375,-0.660614013671875,0.07985781133174896,-0.682170033454895,0.009689112193882465
-0.5200958251953125,-0.4500885009765625,-0.6883087158203125,0.22824542224407196,-0.4454898536205292,0.06702430546283722
-0.5278472900390625,-0.4364776611328125,-0.700042724609375,0.25955459475517273,0.47209909558296204,0.19665659964084625
-0.5085601806640625,-0.459259033203125,-0.617034912109375,-0.04506654292345047,0.9326012134552002,0.14856044948101044
-0.54913330078125,-0.5056915283203125,-0.464813232421875,-0.23557524383068085,0.8495875000953674,0.14158350229263306
-0.5586395263671875,-0.5082855224609375,-0.396759033203125,-0.17812898755073547,0.5039185285568237,0.28599873185157776
-0.5220184326171875,-0.4820709228515625,-0.55047607421875,-0.06644000858068466,0.12990154325962067,0.3934037387371063
-0.4777984619140625,-0.4642486572265625,-0.7068328857421875,-0.03266846388578415,-0.08061681687831879,0.3860696852207184
-0.5052947998046875,-0.463958740234375,-0.74658203125,-0.05356202647089958,-0.20414061844348907,0.32558926939964294
-0.5543670654296875,-0.447021484375,-0.715362548828125,-0.08619587123394012,-0.33134517073631287,0.27772828936576843
-0.5779266357421875,-0.42767333984375,-0.671875,-0.07651607692241669,-0.42208680510520935,0.2763541042804718
-0.582794189453125,-0.42803955078125,-0.6586761474609375,0.024286430329084396,-0.4236260950565338,0.27758288383483887
-0.57891845703125,-0.4451751708984375,-0.676513671875,0.14489300549030304,-0.1760445386171341,0.2899974584579468
-0.5692291259765625,-0.467010498046875,-0.6766204833984375,0.1538630723953247,0.1557435244321823,0.23887382447719574
-0.613616943359375,-0.44390869140625,-0.6420440673828125,0.1275201439857483,0.49984389543533325,0.13002431392669678
-0.650299072265625,-0.456878662109375,-0.5821533203125,0.11131693422794342,0.607153594493866,0.060747504234313965
-0.6592559814453125,-0.4726715087890625,-0.5747528076171875,0.07982612401247025,0.34369373321533203,0.00159443449229002
-0.649200439453125,-0.451629638671875,-0.621551513671875,0.035403262823820114,-0.254189133644104,-0.05114227905869484
-0.6322174072265625,-0.4420013427734375,-0.68280029296875,0.08239127695560455,-0.9889222383499146,-0.06964672356843948
-0.62164306640625,-0.433990478515625,-0.7672882080078125,0.23984162509441376,-1.5701701641082764,0.08620040118694305
-0.6119537353515625,-0.4495086669921875,-0.8507080078125,0.4006507396697998,-1.8377912044525146,0.17487487196922302
-0.587432861328125,-0.479766845703125,-0.8804473876953125,0.5074384212493896,-1.8065952062606812,0.36346662044525146
-0.572174072265625,-0.5242767333984375,-0.8274078369140625,0.5634679198265076,-1.563542127609253,0.4975855350494385
-0.5922698974609375,-0.5680389404296875,-0.73956298828125,0.6556311249732971,-0.9830760955810547,0.531758189201355
-0.63262939453125,-0.5601043701171875,-0.676727294921875,0.7863368988037109,0.22422857582569122,0.4397677779197693
-0.70501708984375,-0.518524169921875,-0.63885498046875,0.6065964698791504,0.939506471157074,0.06529511511325836
-0.85693359375,-0.499359130859375,-0.530731201171875,0.4560311734676361,0.9913707375526428,-0.2691742181777954
-0.978607177734375,-0.4560394287109375,-0.47308349609375,0.5356922149658203,0.676272988319397,-0.29212960600852966
-0.9353179931640625,-0.4095611572265625,-0.6365814208984375,0.5816128253936768,0.1858106106519699,-0.16801750659942627
-0.7913665771484375,-0.4259033203125,-0.8173675537109375,0.4763588309288025,-0.19100883603096008,-0.018018681555986404
-0.689239501953125,-0.4635162353515625,-0.8278045654296875,0.3073447644710541,-0.3275083601474762,0.11550609022378922
-0.6307525634765625,-0.458770751953125,-0.7383270263671875,0.18053941428661346,-0.2346242219209671,0.20882219076156616
-0.6156768798828125,-0.44964599609375,-0.6554107666015625,0.1443696916103363,0.01871323399245739,0.27334925532341003
-0.619354248046875,-0.4425811767578125,-0.656768798828125,0.20000658929347992,0.5618771910667419,0.3224145174026489
-0.6382293701171875,-0.4493865966796875,-0.684173583984375,0.3168695569038391,1.3669198751449585,0.29082757234573364
-0.671142578125,-0.4816741943359375,-0.6805419921875,0.4472787082195282,2.3340468406677246,0.24791578948497772
-0.7058258056640625,-0.46270751953125,-0.6747283935546875,0.5130342841148376,3.2477548122406006,0.2922813892364502
-0.6988525390625,-0.454925537109375,-0.67535400390625,0.4151726961135864,3.785108804702759,0.49145016074180603
-0.65753173828125,-0.489532470703125,-0.677947998046875,0.24733789265155792,3.9317166805267334,0.626213014125824
-0.560333251953125,-0.5186004638671875,-0.6769256591796875,0.025769012048840523,3.815847158432007,0.7410256266593933
-0.46319580078125,-0.442718505859375,-0.6633453369140625,-0.23676779866218567,3.505450487136841,0.8307424783706665
-0.39801025390625,-0.40655517578125,-0.6782073974609375,-0.6251062154769897,2.8492591381073,0.9493178725242615
-0.362884521484375,-0.3842010498046875,-0.707977294921875,-0.985515832901001,2.0532584190368652,1.0932239294052124
-0.3295745849609375,-0.38299560546875,-0.7399444580078125,-1.2711092233657837,1.3570928573608398,1.248809814453125
-0.288177490234375,-0.3928070068359375,-0.7982940673828125,-1.4225064516067505,0.8536158204078674,1.4828883409500122
-0.2543487548828125,-0.394256591796875,-0.8375396728515625,-1.3985675573349,0.7243116497993469,1.5611900091171265
-0.2585601806640625,-0.3878173828125,-0.869232177734375,-1.2189687490463257,0.9784778952598572,1.654773473739624
-0.256591796875,-0.375885009765625,-0.8639373779296875,-1.0069390535354614,1.5339685678482056,1.6456010341644287
-0.2879791259765625,-0.37359619140625,-0.8723602294921875,-0.8243075013160706,2.1239659786224365,1.5712183713912964
-0.324676513671875,-0.3488006591796875,-0.8647308349609375,-0.7217068076133728,2.6597635746002197,1.4467414617538452
-0.3353271484375,-0.3255157470703125,-0.860137939453125,-0.718400776386261,3.046969413757324,1.286543607711792
-0.2985382080078125,-0.303131103515625,-0.86566162109375,-0.8000455498695374,3.150698661804199,1.0924590826034546
-0.2435760498046875,-0.266357421875,-0.8587646484375,-0.9191508889198303,2.9296019077301025,0.9234130382537842
-0.189971923828125,-0.2249755859375,-0.849090576171875,-1.0874704122543335,2.427493095397949,0.7797706127166748
-0.136627197265625,-0.1906890869140625,-0.8383331298828125,-1.3035681247711182,1.829748511314392,0.6634613275527954
-0.10626220703125,-0.1852264404296875,-0.8199462890625,-1.5411356687545776,1.415140986442566,0.5850136876106262
-0.0925445556640625,-0.193634033203125,-0.8224945068359375,-1.7090455293655396,1.1766929626464844,0.5481144785881042
-0.0788116455078125,-0.190460205078125,-0.8686065673828125,-1.735914945602417,1.0035302639007568,0.5316007733345032
-0.0708770751953125,-0.1783447265625,-0.9331207275390625,-1.6079580783843994,0.941512942314148,0.5079755783081055
-0.0788116455078125,-0.1750030517578125,-0.9983673095703125,-1.345455288887024,0.9954363703727722,0.47379153966903687
-0.088958740234375,-0.1766510009765625,-1.0624542236328125,-0.9516366720199585,1.1654291152954102,0.43524041771888733
-0.0958099365234375,-0.193450927734375,-1.1291656494140625,-0.5079561471939087,1.3491734266281128,0.4092889726161957
-0.103790283203125,-0.2145538330078125,-1.19354248046875,-0.0754295065999031,1.5199147462844849,0.3917190432548523
-0.106689453125,-0.2208251953125,-1.216094970703125,0.30427253246307373,1.5365374088287354,0.38690564036369324
-0.1022796630859375,-0.213409423828125,-1.214447021484375,0.5956314206123352,1.3984125852584839,0.4000083804130554
-0.099334716796875,-0.212799072265625,-1.20404052734375,0.783115804195404,1.207224726676941,0.41650480031967163
-0.086822509765625,-0.2097015380859375,-1.1756134033203125,0.8574747443199158,1.0339750051498413,0.43510353565216064
-0.0690460205078125,-0.200469970703125,-1.1336517333984375,0.8493300080299377,0.8237000107765198,0.4527589678764343
-0.053558349609375,-0.1982269287109375,-1.08251953125,0.7618579268455505,0.5846908688545227,0.46639326214790344
-0.0518798828125,-0.2025299072265625,-1.0213775634765625,0.6168568134307861,0.398507684469223,0.4753313660621643
-0.0548095703125,-0.215545654296875,-0.9597320556640625,0.4718130826950073,0.26461195945739746,0.46204352378845215
-0.0580596923828125,-0.22900390625,-0.9164581298828125,0.3468532860279083,0.16485632956027985,0.4217301905155182
-0.0694580078125,-0.2337493896484375,-0.8936004638671875,0.2583726942539215,0.064341701567173,0.3631065785884857
-0.085296630859375,-0.2299957275390625,-0.893524169921875,0.19837221503257751,-0.0860762968659401,0.2961972951889038
-0.096771240234375,-0.2227935791015625,-0.9122314453125,0.11125568300485611,-0.2734677493572235,0.21885883808135986
-0.0983428955078125,-0.209625244140625,-0.924285888671875,-0.0041191112250089645,-0.5129775404930115,0.14356835186481476
-0.09564208984375,-0.203765869140625,-0.9143524169921875,-0.14803367853164673,-0.7272301912307739,0.0886334627866745
-0.0940704345703125,-0.22125244140625,-0.89581298828125,-0.2819496691226959,-0.8528315424919128,0.062489476054906845
-0.091217041015625,-0.2454681396484375,-0.8712310791015625,-0.3364453911781311,-0.9101477861404419,0.05826650187373161
-0.0918426513671875,-0.261688232421875,-0.8652191162109375,-0.30092334747314453,-0.8716179728507996,0.04271603748202324
-0.1058197021484375,-0.26922607421875,-0.876983642578125,-0.13160143792629242,-0.8969244360923767,0.026098178699612617
-0.1200714111328125,-0.274200439453125,-0.899078369140625,0.13783030211925507,-0.8619531393051147,0.013865215703845024
-0.1265869140625,-0.2555999755859375,-0.9037628173828125,0.251536101102829,-0.18064327538013458,-0.023131152614951134
-0.1313018798828125,-0.227325439453125,-0.8928985595703125,0.30390262603759766,0.35888224840164185,-0.08334895223379135
-0.1840667724609375,-0.252593994140625,-0.930267333984375,0.3065471351146698,0.48453259468078613,-0.08485044538974762
-0.2325897216796875,-0.302032470703125,-0.909271240234375,0.2937306761741638,0.3586343228816986,-0.04273707792162895
-0.197784423828125,-0.3231048583984375,-0.9150238037109375,0.2884725332260132,0.1988646239042282,-0.021853899583220482
-0.14154052734375,-0.3095550537109375,-0.932586669921875,0.28868773579597473,0.08789150416851044,-0.022773755714297295
-0.1181182861328125,-0.31072998046875,-0.9381561279296875,0.28907307982444763,-0.06169958412647247,-0.03226472809910774
-0.115753173828125,-0.32061767578125,-0.9257659912109375,0.3579826354980469,-0.39730820059776306,-0.01888633891940117
-0.0980987548828125,-0.3271484375,-0.9157867431640625,0.5488647222518921,-0.6854047179222107,0.05179688334465027
-0.0598297119140625,-0.3215789794921875,-0.94085693359375,0.7885883450508118,-0.6782695651054382,0.11210469901561737
-0.0572662353515625,-0.3157806396484375,-1.03497314453125,1.0223052501678467,-0.7043269872665405,0.10988602042198181
-0.1121826171875,-0.34112548828125,-1.137420654296875,1.2075309753417969,-0.7585111260414124,0.10990466177463531
-0.1537322998046875,-0.37139892578125,-1.14312744140625,1.331225037574768,-0.7520420551300049,0.13072311878204346
-0.172821044921875,-0.38427734375,-1.1030731201171875,1.3656450510025024,-0.710933268070221,0.16360756754875183
-0.1800537109375,-0.38372802734375,-1.0558624267578125,1.2846428155899048,-0.5969254374504089,0.18424707651138306
-0.1955718994140625,-0.3777923583984375,-0.978271484375,1.1301803588867188,-0.448271781206131,0.1743374466896057
-0.20751953125,-0.3670501708984375,-0.90020751953125,0.9557520747184753,-0.2918137311935425,0.14046123623847961
-0.21820068359375,-0.3657379150390625,-0.854400634765625,0.8364331126213074,-0.1804957389831543,0.0850997120141983
-0.237060546875,-0.372772216796875,-0.8579254150390625,0.7873066067695618,-0.11705897748470306,0.007834753952920437
-0.2552947998046875,-0.3775482177734375,-0.8894500732421875,0.7983760237693787,-0.11899403482675552,-0.11501606553792953
-0.2697296142578125,-0.3841400146484375,-0.944091796875,0.8063732385635376,-0.1793290078639984,-0.10177376866340637
-0.2742462158203125,-0.4025115966796875,-0.990478515625,0.7861118912696838,-0.27589282393455505,-0.12763571739196777
-0.27325439453125,-0.415863037109375,-0.9951629638671875,0.7391126751899719,-0.37092533707618713,-0.1499311774969101
-0.2574615478515625,-0.4168853759765625,-0.97332763671875,0.6738681793212891,-0.3945009708404541,-0.18907858431339264
-0.2475738525390625,-0.4163055419921875,-0.9447784423828125,0.6491023898124695,-0.3355447053909302,-0.2550232410430908
-0.2533111572265625,-0.42303466796875,-0.9228668212890625,0.657652735710144,-0.22798922657966614,-0.30997171998023987
-0.2742919921875,-0.4392242431640625,-0.9216156005859375,0.6974877715110779,-0.06594732403755188,-0.3332597315311432
-0.286376953125,-0.458648681640625,-0.9176788330078125,0.7389334440231323,0.06708529591560364,-0.2955467104911804
-0.2728424072265625,-0.465972900390625,-0.921905517578125,0.7466148138046265,0.130456805229187,-0.20830899477005005
-0.2156982421875,-0.45361328125,-0.921234130859375,0.7007983326911926,0.14900705218315125,-0.10247737169265747
-0.1671142578125,-0.4393157958984375,-0.8993682861328125,0.6266564726829529,0.11571062356233597,0.00088949577184394
-0.16046142578125,-0.441375732421875,-0.876220703125,0.5651888251304626,0.0663374811410904,0.07252799719572067
-0.1642913818359375,-0.4437408447265625,-0.86175537109375,0.5826855301856995,0.0009006810723803937,0.08863559365272522
-0.17279052734375,-0.425384521484375,-0.871551513671875,0.6790208220481873,-0.087550088763237,0.06660778820514679
-0.191375732421875,-0.393646240234375,-0.9091949462890625,0.798650860786438,-0.26367664337158203,0.02990090660750866
-0.2089080810546875,-0.3610687255859375,-0.944915771484375,0.8468782901763916,-0.47096511721611023,0.006445914972573519
-0.209930419921875,-0.341156005859375,-0.9517974853515625,0.7907849550247192,-0.593410074710846,0.007669104728847742
-0.198333740234375,-0.3329620361328125,-0.9090118408203125,0.6533892750740051,-0.6164243221282959,0.03586558997631073
-0.2086181640625,-0.34033203125,-0.8413848876953125,0.4733920693397522,-0.5391550660133362,0.0686243325471878
-0.2323760986328125,-0.352325439453125,-0.774688720703125,0.2674434185028076,-0.3971468210220337,0.08449224382638931
-0.263763427734375,-0.359649658203125,-0.7262725830078125,0.09762482345104218,-0.2715601325035095,0.0644514262676239
-0.3037872314453125,-0.3597259521484375,-0.713775634765625,0.01648256927728653,-0.2383641004562378,0.015124358236789703
-0.3282012939453125,-0.3517913818359375,-0.7425994873046875,0.003861583536490798,-0.3691905438899994,-0.05799192935228348
-0.340850830078125,-0.341827392578125,-0.807159423828125,-0.0010663296561688185,-0.48574700951576233,-0.14617425203323364
-0.34783935546875,-0.3341217041015625,-0.8600311279296875,-0.017655160278081894,-0.5039329528808594,-0.20707808434963226
-0.3511810302734375,-0.3334503173828125,-0.8781280517578125,-0.0527937076985836,-0.49125123023986816,-0.22010014951229095
-0.3393096923828125,-0.34088134765625,-0.8701171875,-0.10285714268684387,-0.43863487243652344,-0.18889455497264862
-0.3135986328125,-0.355499267578125,-0.8383026123046875,-0.15831027925014496,-0.35234925150871277,-0.12905412912368774
-0.2950286865234375,-0.3705596923828125,-0.806640625,-0.17558486759662628,-0.3575088679790497,-0.08440915495157242
-0.2860870361328125,-0.3763275146484375,-0.799285888671875,-0.10604014992713928,-0.29377010464668274,-0.029040705412626266
-0.2879791259765625,-0.3706207275390625,-0.7949981689453125,-0.03965979442000389,-0.0029225528705865145,0.03446450084447861
-0.3073577880859375,-0.35601806640625,-0.795867919921875,-0.011416438966989517,0.13942447304725647,0.04685752093791962
-0.35205078125,-0.3638153076171875,-0.8265533447265625,-0.02678713947534561,0.1413443386554718,0.045045506209135056
-0.3682861328125,-0.3795928955078125,-0.8213043212890625,-0.03021303005516529,0.05044080317020416,0.0373830571770668
-0.361053466796875,-0.375091552734375,-0.82562255859375,-0.032763540744781494,-0.06150863319635391,0.035423506051301956
-0.342041015625,-0.361083984375,-0.8373260498046875,-0.04711824283003807,-0.1795884072780609,0.03073873743414879
-0.32476806640625,-0.3494415283203125,-0.828277587890625,-0.05540120601654053,-0.315498024225235,0.011473430320620537
-0.3140869140625,-0.3652801513671875,-0.8015289306640625,-0.07923756539821625,-0.16422195732593536,0.05735943093895912
-0.309051513671875,-0.3762054443359375,-0.76104736328125,-0.10280520468950272,-0.1324416697025299,0.0766335278749466
-0.3444976806640625,-0.3305206298828125,-0.7621002197265625,-0.1081557646393776,-0.3052840232849121,0.022701583802700043
-0.3428955078125,-0.3342132568359375,-0.7906951904296875,-0.09957532584667206,-0.5001326203346252,-0.03622884303331375
-0.35272216796875,-0.357452392578125,-0.8211212158203125,-0.10903647541999817,-0.7073166966438293,-0.04023929685354233
-0.3485107421875,-0.3466339111328125,-0.842620849609375,-0.16131219267845154,-0.8914111256599426,-0.008044344373047352
-0.3214263916015625,-0.33709716796875,-0.820343017578125,-0.2263074368238449,-0.9792171716690063,0.05698126181960106
-0.3119049072265625,-0.349334716796875,-0.7743682861328125,-0.2372591495513916,-0.9673019051551819,0.055685099214315414
-0.3372650146484375,-0.368499755859375,-0.7526397705078125,-0.15039217472076416,-0.9080604314804077,-0.029511552304029465
-0.38970947265625,-0.37646484375,-0.764923095703125,0.004069043789058924,-0.7655283212661743,-0.13251836597919464
-0.449066162109375,-0.3734893798828125,-0.7882843017578125,0.18635442852973938,-0.5087372660636902,-0.2208990901708603
-0.4761199951171875,-0.3681182861328125,-0.799713134765625,0.3489132523536682,-0.23118342459201813,-0.2766299843788147
-0.4716033935546875,-0.3656463623046875,-0.7949371337890625,0.4835887849330902,-0.08521689474582672,-0.319531112909317
-0.459564208984375,-0.371490478515625,-0.781280517578125,0.5537478923797607,-0.10519859194755554,-0.3230515718460083
-0.4486083984375,-0.386505126953125,-0.796173095703125,0.5269463658332825,-0.26402074098587036,-0.300100177526474
-0.4278106689453125,-0.4024505615234375,-0.8066558837890625,0.42576274275779724,-0.5272009372711182,-0.2809259295463562
-0.4306488037109375,-0.4194488525390625,-0.793701171875,0.30317237973213196,-0.8334383964538574,-0.2741473913192749
-0.4422454833984375,-0.4245147705078125,-0.777679443359375,0.19223229587078094,-1.070034384727478,-0.28476062417030334
-0.456451416015625,-0.4141693115234375,-0.7561187744140625,0.09554249793291092,-1.1378240585327148,-0.33203545212745667
-0.484222412109375,-0.40234375,-0.7387237548828125,0.028625519946217537,-1.0296247005462646,-0.3869115114212036
-0.5039825439453125,-0.412567138671875,-0.7185821533203125,-0.041302166879177094,-0.8210405707359314,-0.4235669672489166
-0.5116119384765625,-0.4217987060546875,-0.70220947265625,-0.05120912566781044,-0.6595278382301331,-0.46065574884414673
-0.515655517578125,-0.443511962890625,-0.7019500732421875,0.013687049970030785,-0.6135622262954712,-0.496383398771286
-0.523681640625,-0.4679412841796875,-0.732452392578125,0.10428565740585327,-0.6179308891296387,-0.5141887664794922
-0.52850341796875,-0.475830078125,-0.772308349609375,0.13048769533634186,-0.6680957674980164,-0.4649932384490967
-0.52667236328125,-0.4871978759765625,-0.7970428466796875,0.13889770209789276,-0.8037180304527283,-0.3585469722747803
-0.50677490234375,-0.512847900390625,-0.784149169921875,0.1006333976984024,-0.9171330332756042,-0.21750836074352264
-0.46466064453125,-0.5265045166015625,-0.7451629638671875,0.03207644447684288,-0.9407051801681519,-0.1096186414361
-0.4296112060546875,-0.52294921875,-0.6991424560546875,-0.05258837714791298,-0.8769943714141846,-0.0648125484585762
-0.442840576171875,-0.525360107421875,-0.6652679443359375,-0.13932833075523376,-0.7661805152893066,-0.08581423759460449
-0.4872283935546875,-0.53594970703125,-0.6542510986328125,-0.18668226897716522,-0.63211590051651,-0.12695714831352234
-0.5289459228515625,-0.538299560546875,-0.674285888671875,-0.16875706613063812,-0.515329897403717,-0.1661578118801117
-0.557525634765625,-0.527923583984375,-0.7243194580078125,-0.11808030307292938,-0.44623634219169617,-0.18777255713939667
-0.570770263671875,-0.5222930908203125,-0.77801513671875,-0.06970318406820297,-0.41427892446517944,-0.17865149676799774
-0.5596160888671875,-0.517974853515625,-0.8089599609375,-0.03181705251336098,-0.453086256980896,-0.1421896368265152
-0.5224609375,-0.5155029296875,-0.814544677734375,0.0021813951898366213,-0.5636370182037354,-0.09816305339336395
-0.49322509765625,-0.5208740234375,-0.807891845703125,0.024283235892653465,-0.7517160773277283,-0.0619208924472332
-0.491546630859375,-0.5278167724609375,-0.7986297607421875,0.0265333391726017,-1.0007323026657104,-0.043718453496694565
-0.4907989501953125,-0.526336669921875,-0.7808685302734375,0.027421504259109497,-1.2161684036254883,-0.019951604306697845
-0.500640869140625,-0.521728515625,-0.7611236572265625,0.018665030598640442,-1.3014636039733887,0.020202206447720528
-0.5143280029296875,-0.527313232421875,-0.7349090576171875,-0.020603278651833534,-1.2301514148712158,0.05879806727170944
-0.5033416748046875,-0.526336669921875,-0.6870269775390625,-0.05477110296487808,-1.1468082666397095,0.03713778033852577
-0.511138916015625,-0.5313873291015625,-0.6479644775390625,-0.06988028436899185,-1.1127911806106567,-0.01296613272279501
-0.5623321533203125,-0.5402984619140625,-0.6376953125,-0.055025167763233185,-1.048373818397522,-0.03904939815402031
-0.581329345703125,-0.5275726318359375,-0.6440887451171875,-0.004286890383809805,-0.9891675114631653,-0.04363376274704933
-0.5611572265625,-0.51123046875,-0.6631927490234375,0.06124977394938469,-0.9181708693504333,-0.02611762098968029
-0.55157470703125,-0.515472412109375,-0.6771392822265625,0.14684776961803436,-0.7172497510910034,-0.002793655963614583
-0.5677642822265625,-0.5316925048828125,-0.6804962158203125,0.2890437841415405,-0.1808004081249237,0.03868294879794121
-0.5885009765625,-0.5541534423828125,-0.6723175048828125,0.28325513005256653,0.2989627420902252,0.026004968211054802
-0.604827880859375,-0.575836181640625,-0.6215667724609375,0.16311302781105042,0.41948994994163513,-0.046967241913080215
-0.6247711181640625,-0.5636749267578125,-0.55303955078125,0.09186653792858124,0.3300335705280304,-0.028869731351733208
-0.635284423828125,-0.54058837890625,-0.5631866455078125,0.07271867990493774,0.1368260234594345,0.05224695801734924
-0.613372802734375,-0.5311737060546875,-0.6532440185546875,0.039137281477451324,-0.04024941846728325,0.10851608961820602
-0.592529296875,-0.5266876220703125,-0.723663330078125,-0.0056741307489573956,-0.11030653119087219,0.1362755447626114
-0.59747314453125,-0.512359619140625,-0.740234375,-0.05469786748290062,-0.047393880784511566,0.16382461786270142
-0.6067352294921875,-0.4915313720703125,-0.7400360107421875,-0.06616650521755219,0.1987202912569046,0.17880649864673615
-0.614532470703125,-0.485565185546875,-0.734405517578125,-0.030404511839151382,0.568977415561676,0.14605893194675446
-0.6404266357421875,-0.510467529296875,-0.72900390625,0.02286137267947197,0.9768456220626831,0.08580012619495392
-0.659423828125,-0.513031005859375,-0.728546142578125,0.09208492189645767,1.3070522546768188,0.012859606184065342
-0.6561431884765625,-0.4967041015625,-0.741241455078125,0.17383651435375214,1.502695083618164,-0.03283357992768288
-0.6431121826171875,-0.4976806640625,-0.7679595947265625,0.21151171624660492,1.4959439039230347,-0.017119331285357475
-0.5983428955078125,-0.4921722412109375,-0.7967376708984375,0.14235208928585052,1.2619506120681763,0.05746915191411972
-0.52178955078125,-0.471893310546875,-0.80084228515625,-0.04362604022026062,0.8619102239608765,0.17394143342971802
-0.4425811767578125,-0.4562835693359375,-0.784088134765625,-0.23191338777542114,0.48700985312461853,0.274850994348526
-0.3779754638671875,-0.4495391845703125,-0.7653045654296875,-0.27992165088653564,0.32403692603111267,0.33245572447776794
-0.3642425537109375,-0.4655609130859375,-0.7769775390625,-0.2127618044614792,0.36069533228874207,0.3786034882068634
-0.39508056640625,-0.481658935546875,-0.8174591064453125,-0.10140997916460037,0.6621025800704956,0.3925139904022217
-0.4180755615234375,-0.46929931640625,-0.8286895751953125,0.0012863067677244544,1.211671233177185,0.3146021366119385
-0.4322357177734375,-0.454315185546875,-0.8102874755859375,0.08429064601659775,1.8478201627731323,0.3430790603160858
-0.4443511962890625,-0.4572601318359375,-0.7932281494140625,0.13065148890018463,2.393458604812622,0.3994544446468353
-0.4416656494140625,-0.4706268310546875,-0.7794647216796875,0.14325836300849915,2.747316360473633,0.4625239670276642
-0.4162445068359375,-0.473236083984375,-0.7704010009765625,0.13472852110862732,3.1592624187469482,0.4785005450248718
-0.369384765625,-0.4106292724609375,-0.7435302734375,0.03244023025035858,2.985478162765503,0.44536682963371277
-0.3303070068359375,-0.376922607421875,-0.7313690185546875,0.02587873488664627,1.9546297788619995,0.3715522587299347
-0.3280181884765625,-0.393341064453125,-0.7943878173828125,0.03903980925679207,0.8926343321800232,0.33661025762557983
-0.255859375,-0.4003143310546875,-0.940185546875,-0.0022594258189201355,0.10027094185352325,0.32991930842399597
-0.171142578125,-0.359649658203125,-1.040771484375,-0.09513663500547409,-0.33376359939575195,0.3203068971633911
-0.1311187744140625,-0.3160552978515625,-1.0038604736328125,-0.23697605729103088,-0.35037240386009216,0.28619980812072754
-0.1517333984375,-0.3252105712890625,-0.9110870361328125,-0.3996451497077942,-0.07844820618629456,0.2468760907649994
-0.224700927734375,-0.3642578125,-0.8514404296875,-0.48222097754478455,0.27873682975769043,0.24341265857219696
-0.282318115234375,-0.4141387939453125,-0.822906494140625,-0.46129173040390015,0.6493598818778992,0.3098638355731964
-0.2845458984375,-0.4471893310546875,-0.8234405517578125,-0.3502829074859619,1.117532730102539,0.39263489842414856
-0.26397705078125,-0.447296142578125,-0.8502960205078125,-0.20832976698875427,1.688846230506897,0.44352471828460693
-0.248687744140625,-0.438446044921875,-0.88006591796875,-0.10135964304208755,2.1500349044799805,0.48115304112434387
-0.2487335205078125,-0.435394287109375,-0.8919219970703125,-0.032763805240392685,2.299808979034424,0.5665209293365479
-0.2559661865234375,-0.4499359130859375,-0.8953094482421875,-0.009521599858999252,2.149503707885742,0.6834627389907837
-0.2346649169921875,-0.4744720458984375,-0.905548095703125,0.034335602074861526,1.760779619216919,0.7584339380264282
-0.1923828125,-0.4707489013671875,-0.92767333984375,0.06669620424509048,1.129357099533081,0.772359311580658
-0.1539306640625,-0.4573974609375,-0.9874267578125,0.06386979669332504,0.4523719847202301,0.7208518981933594
-0.1369476318359375,-0.4314422607421875,-1.005645751953125,0.017782192677259445,-0.08745048940181732,0.5976234674453735
-0.1589202880859375,-0.4017486572265625,-0.99029541015625,-0.06422985345125198,-0.43806469440460205,0.44771626591682434
-0.1830291748046875,-0.389495849609375,-0.9431915283203125,-0.15249180793762207,-0.6015364527702332,0.35200199484825134
-0.2048492431640625,-0.40301513671875,-0.8880615234375,-0.22449195384979248,-0.5782580375671387,0.33966195583343506
-0.2274627685546875,-0.416961669921875,-0.838897705078125,-0.2827360928058624,-0.372882217168808,0.3826989233493805
-0.224639892578125,-0.424530029296875,-0.7938690185546875,-0.2832069396972656,-0.0685042291879654,0.43766656517982483
-0.224212646484375,-0.443450927734375,-0.774688720703125,-0.19539852440357208,0.24483904242515564,0.5067609548568726
-0.2354278564453125,-0.4614715576171875,-0.7881317138671875,-0.04328089579939842,0.29081371426582336,0.5669047236442566
-0.2523651123046875,-0.4693450927734375,-0.851409912109375,0.10349949449300766,0.21297645568847656,0.6229743361473083
-0.2497100830078125,-0.45916748046875,-0.88629150390625,0.20160582661628723,0.17174991965293884,0.6484591960906982
-0.240936279296875,-0.4343109130859375,-0.8829345703125,0.2449359893798828,0.16746889054775238,0.6107288599014282
-0.2322845458984375,-0.4107818603515625,-0.8573760986328125,0.2545587718486786,0.21109892427921295,0.5353028178215027
-0.2404937744140625,-0.3966522216796875,-0.8144683837890625,0.24387630820274353,0.2372458428144455,0.4555438160896301
-0.2595062255859375,-0.396881103515625,-0.7799072265625,0.17889225482940674,0.24353648722171783,0.39708396792411804
-0.2666778564453125,-0.4051666259765625,-0.7511444091796875,0.036430977284908295,0.11087245494127274,0.3829162120819092
-0.26422119140625,-0.4183807373046875,-0.7336273193359375,-0.1632174253463745,-0.029445506632328033,0.3892212510108948
-0.235260009765625,-0.4343414306640625,-0.7002716064453125,-0.3270436227321625,-0.13310426473617554,0.3956170976161957
-0.2295379638671875,-0.4499969482421875,-0.68316650390625,-0.35695067048072815,-0.24307923018932343,0.3777931034564972
-0.2460784912109375,-0.467926025390625,-0.731353759765625,-0.2680972218513489,-0.2917945683002472,0.3402438461780548
-0.2567291259765625,-0.4652557373046875,-0.8021087646484375,-0.12114106863737106,-0.23763519525527954,0.2867603898048401
-0.2705535888671875,-0.442169189453125,-0.8682098388671875,0.034939609467983246,-0.08973734080791473,0.23418746888637543
-0.2764434814453125,-0.414520263671875,-0.8992462158203125,0.16194042563438416,0.13359934091567993,0.208013117313385
-0.2736663818359375,-0.3995208740234375,-0.89654541015625,0.22131560742855072,0.3252694308757782,0.23996706306934357
-0.2685546875,-0.4160919189453125,-0.8824615478515625,0.1938198059797287,0.4583433270454407,0.3183111250400543
-0.26324462890625,-0.440643310546875,-0.8533935546875,0.10481749475002289,0.6134498119354248,0.34993988275527954
-0.287109375,-0.4531707763671875,-0.8217620849609375,-0.011203918606042862,0.7955583930015564,0.3036789298057556
-0.3174591064453125,-0.43585205078125,-0.8081817626953125,-0.11523178219795227,0.8280351161956787,0.2364455610513687
-0.3396759033203125,-0.4118804931640625,-0.80047607421875,-0.2310585230588913,0.7849635481834412,0.22988273203372955
-0.35638427734375,-0.4323883056640625,-0.8293609619140625,-0.329656720161438,0.6430167555809021,0.28848692774772644
-0.3351287841796875,-0.4551544189453125,-0.86590576171875,-0.3733123242855072,0.44228047132492065,0.38886013627052307
-0.2907562255859375,-0.478271484375,-0.9035797119140625,-0.368092805147171,0.1956733614206314,0.4832569360733032
-0.247344970703125,-0.4837646484375,-0.9425048828125,-0.3430047631263733,-0.011344267055392265,0.5192522406578064
-0.227081298828125,-0.4510498046875,-0.9638824462890625,-0.31467458605766296,-0.12654782831668854,0.4796885848045349
-0.2459259033203125,-0.4239044189453125,-0.9712982177734375,-0.27738499641418457,-0.12585806846618652,0.42244231700897217
-0.2786407470703125,-0.4151763916015625,-0.9636077880859375,-0.23699097335338593,-0.03707759454846382,0.3967023491859436
-0.3011016845703125,-0.4079132080078125,-0.9468231201171875,-0.2120688408613205,0.067936971783638,0.3958408236503601
-0.3065643310546875,-0.404571533203125,-0.914154052734375,-0.20551800727844238,0.18490460515022278,0.41482728719711304
-0.3111572265625,-0.4125823974609375,-0.88104248046875,-0.2089574784040451,0.2395220398902893,0.45629242062568665
-0.31170654296875,-0.4240875244140625,-0.865020751953125,-0.21580259501934052,0.1903209388256073,0.49769580364227295
-0.2999725341796875,-0.426361083984375,-0.8629150390625,-0.22442324459552765,0.10122755169868469,0.5190029740333557
-0.290557861328125,-0.4235382080078125,-0.88055419921875,-0.2456398606300354,0.07902291417121887,0.5392866730690002
-0.288482666015625,-0.43035888671875,-0.901641845703125,-0.2681211829185486,0.12417814135551453,0.561794638633728
-0.281341552734375,-0.4356536865234375,-0.9050750732421875,-0.2985677719116211,0.2516085207462311,0.5665292143821716
-0.287628173828125,-0.4402313232421875,-0.8889007568359375,-0.32656586170196533,0.3353298008441925,0.5049683451652527
-0.3131103515625,-0.44134521484375,-0.87750244140625,-0.34977105259895325,0.31295445561408997,0.31231316924095154
-0.3751983642578125,-0.438018798828125,-0.869476318359375,-0.3228877782821655,0.2627384066581726,0.11696790158748627
-0.441558837890625,-0.4547576904296875,-0.8865814208984375,-0.24712643027305603,0.1611553281545639,0.04947354272007942
-0.386871337890625,-0.449371337890625,-0.940887451171875,-0.16354578733444214,0.12238157540559769,0.060930460691452026
-0.3173370361328125,-0.3965606689453125,-0.9764251708984375,-0.0856320783495903,0.15479730069637299,0.07080014050006866
-0.29058837890625,-0.36614990234375,-0.985809326171875,-0.008047007024288177,0.25967657566070557,0.08154812455177307
-0.2844696044921875,-0.360198974609375,-0.982452392578125,0.0673002079129219,0.3709610402584076,0.12405989319086075
-0.2676849365234375,-0.380950927734375,-0.9678497314453125,0.1663098782300949,0.338096559047699,0.21369044482707977
-0.2565765380859375,-0.3904266357421875,-0.960296630859375,0.2947536110877991,0.20931273698806763,0.31808075308799744
-0.250274658203125,-0.39532470703125,-1.0049591064453125,0.4169556796550751,0.021033912897109985,0.39428046345710754
-0.2385406494140625,-0.389434814453125,-1.057586669921875,0.5337555408477783,-0.15092399716377258,0.4222196936607361
-0.2280120849609375,-0.3688507080078125,-1.072998046875,0.6301987171173096,-0.23737633228302002,0.3997436761856079
-0.2261810302734375,-0.343963623046875,-1.052032470703125,0.6937656998634338,-0.18499808013439178,0.3391314446926117
-0.2494659423828125,-0.328125,-1.0100860595703125,0.7093369364738464,0.014210094697773457,0.24922581017017365
-0.288909912109375,-0.321746826171875,-0.952850341796875,0.7294161319732666,0.2830018699169159,0.1512795388698578
-0.333648681640625,-0.3100738525390625,-0.9084014892578125,0.7719973921775818,0.4487841725349426,0.07063236087560654
-0.362579345703125,-0.2883758544921875,-0.8934783935546875,0.8027135133743286,0.5190697908401489,0.042564503848552704
-0.3494720458984375,-0.25982666015625,-0.8941650390625,0.7791780829429626,0.569720447063446,0.0761493593454361
-0.3037872314453125,-0.2318878173828125,-0.8877716064453125,0.6891760230064392,0.6348166465759277,0.14188577234745026
-0.2580108642578125,-0.2181854248046875,-0.8719635009765625,0.5610353350639343,0.7286696434020996,0.2029549777507782
-0.2479095458984375,-0.226959228515625,-0.86431884765625,0.41228023171424866,0.8380866646766663,0.22569863498210907
-0.2529296875,-0.2511138916015625,-0.85205078125,0.26650890707969666,0.950549304485321,0.21369338035583496
-0.2556304931640625,-0.2785491943359375,-0.8395233154296875,0.1500970870256424,1.0152009725570679,0.13317109644412994
-0.2596435546875,-0.288116455078125,-0.8205108642578125,0.06570897251367569,0.992989718914032,-0.01660693995654583
-0.2565155029296875,-0.2692413330078125,-0.795562744140625,0.01926051266491413,0.9347429275512695,-0.1653119921684265
-0.249969482421875,-0.247711181640625,-0.7906951904296875,0.053773216903209686,0.8820163011550903,-0.27604249119758606
-0.2486724853515625,-0.254119873046875,-0.83306884765625,0.160623237490654,0.8120800852775574,-0.3639771640300751
-0.24615478515625,-0.2698974609375,-0.9080810546875,0.3159254789352417,0.7173264026641846,-0.4494933784008026
-0.2519989013671875,-0.2826385498046875,-0.9632720947265625,0.4990111291408539,0.6166560053825378,-0.5306963324546814
-0.2577056884765625,-0.2960205078125,-0.9891357421875,0.6944842338562012,0.5161334276199341,-0.565097987651825
-0.246490478515625,-0.289764404296875,-0.9898681640625,0.8398318290710449,0.3922348916530609,-0.4922262132167816
-0.2341156005859375,-0.2931976318359375,-0.9804840087890625,0.9216257929801941,0.27889129519462585,-0.3857958912849426
-0.1966705322265625,-0.27789306640625,-0.95367431640625,0.932100772857666,0.23759125173091888,-0.29413095116615295
-0.17193603515625,-0.26031494140625,-0.9212493896484375,0.9023037552833557,0.2867572009563446,-0.22497506439685822
-0.1553192138671875,-0.2422332763671875,-0.899688720703125,0.8450106382369995,0.25782889127731323,-0.20462451875209808
-0.1501617431640625,-0.2444305419921875,-0.89501953125,0.7715169787406921,0.02690431848168373,-0.21504999697208405
-0.1684417724609375,-0.2706756591796875,-0.8919525146484375,0.6898514032363892,-0.2811320722103119,-0.22211802005767822
-0.185302734375,-0.3126068115234375,-0.88031005859375,0.615885853767395,-0.5225878357887268,-0.20516939461231232
-0.190032958984375,-0.3433685302734375,-0.875579833984375,0.5534485578536987,-0.618576169013977,-0.16002562642097473
-0.19329833984375,-0.348358154296875,-0.869598388671875,0.48362284898757935,-0.5432425141334534,-0.0922766700387001
-0.2069549560546875,-0.3491363525390625,-0.865753173828125,0.39792394638061523,-0.3615829646587372,-0.011522166430950165
-0.2372894287109375,-0.3729705810546875,-0.8651580810546875,0.335444837808609,-0.16759991645812988,0.04904850199818611
-0.27374267578125,-0.4107208251953125,-0.8695831298828125,0.3258153796195984,-0.1545613408088684,0.051538292318582535
-0.288543701171875,-0.4301300048828125,-0.891387939453125,0.3461419641971588,-0.25042980909347534,0.03443360701203346
-0.2823028564453125,-0.403961181640625,-0.8837432861328125,0.35963141918182373,-0.3309779167175293,0.0008612662786617875
-0.276611328125,-0.3695831298828125,-0.8686370849609375,0.3622455596923828,-0.43654191493988037,-0.07235515862703323
-0.2721405029296875,-0.3566741943359375,-0.867767333984375,0.35631096363067627,-0.5905948281288147,-0.16340729594230652
-0.27838134765625,-0.3496246337890625,-0.8558807373046875,0.31789326667785645,-0.7337405681610107,-0.20629271864891052
-0.2854156494140625,-0.356201171875,-0.837310791015625,0.23302073776721954,-0.8513635993003845,-0.17394410073757172
-0.283843994140625,-0.3752288818359375,-0.83709716796875,0.12866955995559692,-1.043501615524292,-0.11457238346338272
-0.2763214111328125,-0.3992919921875,-0.85662841796875,-0.013680391944944859,-1.1681945323944092,-0.06533213704824448
-0.270751953125,-0.4182891845703125,-0.844268798828125,-0.18364866077899933,-1.213789463043213,-0.019298596307635307
-0.2779083251953125,-0.42529296875,-0.80377197265625,-0.4130972921848297,-0.8820269703865051,0.007754592224955559
-0.2985382080078125,-0.4205474853515625,-0.73089599609375,-0.6329963803291321,-0.1884620487689972,0.031137945130467415
-0.339874267578125,-0.4346771240234375,-0.6534423828125,-0.6935641169548035,0.3447326123714447,0.07066032290458679
-0.3568572998046875,-0.4549102783203125,-0.6731414794921875,-0.5818133354187012,0.5918169617652893,0.13048237562179565
-0.3433685302734375,-0.4592742919921875,-0.75714111328125,-0.3924735188484192,0.7257801294326782,0.1666419804096222
-0.3095245361328125,-0.4480438232421875,-0.8660430908203125,-0.230729877948761,0.7850777506828308,0.16524940729141235
-0.3082122802734375,-0.460723876953125,-0.9261932373046875,-0.1512337327003479,0.8120833039283752,0.17297950387001038
-0.3231658935546875,-0.4738006591796875,-0.9175567626953125,-0.17505836486816406,0.8750422596931458,0.19710268080234528
-0.3056640625,-0.4515380859375,-0.867645263671875,-0.26646551489830017,0.918721616268158,0.19941696524620056
-0.2928009033203125,-0.4227447509765625,-0.82574462890625,-0.4060918390750885,0.8903863430023193,0.20587299764156342
-0.2852783203125,-0.4200897216796875,-0.8057708740234375,-0.5611621141433716,0.6892527341842651,0.21739943325519562
-0.264862060546875,-0.4415740966796875,-0.8237152099609375,-0.6940719485282898,0.4006803035736084,0.2642388343811035
-0.243194580078125,-0.4576416015625,-0.84918212890625,-0.8062805533409119,0.15776751935482025,0.31566447019577026
-0.2278900146484375,-0.4451446533203125,-0.866180419921875,-0.8823981881141663,-0.021330323070287704,0.35241398215293884
-0.2100067138671875,-0.4199371337890625,-0.87750244140625,-0.9525527954101562,-0.1665162742137909,0.3850454092025757
-0.2176513671875,-0.4007110595703125,-0.876434326171875,-1.0490878820419312,-0.24392132461071014,0.41461503505706787
-0.2447052001953125,-0.404937744140625,-0.8711090087890625,-1.1534448862075806,-0.20293501019477844,0.4319053292274475
-0.273468017578125,-0.4201812744140625,-0.8568267822265625,-1.2336981296539307,-0.0677231177687645,0.4332598149776459
-0.3002777099609375,-0.4256591796875,-0.844696044921875,-1.2890647649765015,0.14180400967597961,0.46040087938308716
-0.3026885986328125,-0.4151611328125,-0.835357666015625,-1.31709885597229,0.38975095748901367,0.5288276076316833
-0.288726806640625,-0.3988037109375,-0.83636474609375,-1.310774803161621,0.6145044565200806,0.6058971285820007
-0.269683837890625,-0.3793182373046875,-0.8489990234375,-1.2204630374908447,0.7389070987701416,0.6512597799301147
-0.252044677734375,-0.3618621826171875,-0.8764801025390625,-1.0825203657150269,0.9504289031028748,0.6618351936340332
-0.25299072265625,-0.34326171875,-0.919525146484375,-0.9178006649017334,1.180915355682373,0.6155646443367004
-0.25653076171875,-0.3108978271484375,-0.9760284423828125,-0.7406450510025024,1.305904507637024,0.5291112661361694
-0.2659759521484375,-0.2842864990234375,-1.006317138671875,-0.6317816972732544,1.363144040107727,0.42377737164497375
-0.2762908935546875,-0.2747802734375,-0.9947357177734375,-0.5737695097923279,1.3319346904754639,0.3095453381538391
-0.269744873046875,-0.2761993408203125,-0.9755859375,-0.5618806481361389,1.076213002204895,0.2186441868543625
-0.258453369140625,-0.280303955078125,-0.967041015625,-0.5663465261459351,0.6539716720581055,0.2072967290878296
-0.2448272705078125,-0.26556396484375,-0.96685791015625,-0.558665931224823,0.24747957289218903,0.24460095167160034
-0.1991424560546875,-0.2420806884765625,-0.9840240478515625,-0.5334678888320923,-0.09901339560747147,0.2927365303039551
-0.1678619384765625,-0.248321533203125,-1.00482177734375,-0.48027658462524414,-0.4239579439163208,0.34080764651298523
-0.17529296875,-0.2776336669921875,-1.0049896240234375,-0.42207401990890503,-0.6179593801498413,0.3653697073459625
-0.1915130615234375,-0.3005523681640625,-0.98907470703125,-0.31989118456840515,-0.6461880803108215,0.3330027163028717
-0.2200469970703125,-0.28533935546875,-0.971588134765625,-0.11096327006816864,-0.5905394554138184,0.2594209313392639
-0.24078369140625,-0.272979736328125,-0.986297607421875,0.14405304193496704,-0.5178191661834717,0.18081265687942505
-0.265289306640625,-0.274017333984375,-1.0284423828125,0.34743839502334595,-0.3861048221588135,0.11653300374746323
-0.28271484375,-0.270050048828125,-1.0438995361328125,0.47258883714675903,-0.21367765963077545,0.07194928824901581
-0.2792205810546875,-0.2667083740234375,-1.026092529296875,0.536695122718811,-0.056054215878248215,0.04965011030435562
-0.26800537109375,-0.272857666015625,-0.99517822265625,0.5693193674087524,0.0183518435806036,0.0692477822303772
-0.2641754150390625,-0.285552978515625,-0.9602508544921875,0.4915279150009155,-0.004070641472935677,0.11347676068544388
-0.256134033203125,-0.3001861572265625,-0.9295501708984375,0.4212993085384369,-0.057304300367832184,0.15569132566452026
-0.2517852783203125,-0.3067779541015625,-0.899017333984375,0.37032824754714966,-0.041422806680202484,0.17115896940231323
-0.2503204345703125,-0.3192291259765625,-0.8972015380859375,0.3890191316604614,-0.0009464874165132642,0.17643176019191742
-0.2503662109375,-0.3260498046875,-0.930938720703125,0.5205987095832825,-0.03008120320737362,0.1718231588602066
-0.2462921142578125,-0.3195648193359375,-0.9855499267578125,0.7280259728431702,-0.15393896400928497,0.15072906017303467
-0.238983154296875,-0.3142547607421875,-1.044158935546875,0.9477359056472778,-0.3095450699329376,0.10751207917928696
-0.2469329833984375,-0.314483642578125,-1.08587646484375,1.1119589805603027,-0.4081187844276428,0.04652648791670799
-0.269989013671875,-0.3208160400390625,-1.092926025390625,1.186370611190796,-0.4336182773113251,-0.008977781981229782
-0.28875732421875,-0.3255615234375,-1.0510406494140625,1.1772465705871582,-0.3669985234737396,-0.045461490750312805
-0.2888336181640625,-0.322235107421875,-0.9716339111328125,1.0756001472473145,-0.2229345440864563,-0.060086239129304886
-0.283416748046875,-0.3182220458984375,-0.892852783203125,0.9237229824066162,-0.13054469227790833,-0.06674680858850479
-0.2785491943359375,-0.323455810546875,-0.834442138671875,0.7525057196617126,-0.22375532984733582,-0.07834114134311676
-0.2619476318359375,-0.3441009521484375,-0.8139801025390625,0.5662612915039062,-0.4267462491989136,-0.09425060451030731
-0.24664306640625,-0.354827880859375,-0.8277587890625,0.4048018157482147,-0.6570963859558105,-0.10978082567453384
-0.231658935546875,-0.350830078125,-0.8614501953125,0.27809420228004456,-0.8312678933143616,-0.1208617091178894
-0.212005615234375,-0.3537750244140625,-0.8904876708984375,0.19388851523399353,-0.8479472994804382,-0.12706820666790009
-0.216278076171875,-0.35980224609375,-0.8892669677734375,0.1512552946805954,-0.7056753635406494,-0.11979990452528
-0.239959716796875,-0.3648223876953125,-0.8673858642578125,0.1534271091222763,-0.48811426758766174,-0.11479608714580536
-0.2500457763671875,-0.3614349365234375,-0.8497314453125,0.17801500856876373,-0.28982436656951904,-0.09884295612573624
-0.251739501953125,-0.3591766357421875,-0.8448333740234375,0.19735834002494812,-0.16471624374389648,-0.05752640962600708
-0.2490692138671875,-0.3697967529296875,-0.853607177734375,0.20001351833343506,-0.10580898821353912,0.0031736891251057386
-0.2332305908203125,-0.380767822265625,-0.8728485107421875,0.16982711851596832,-0.1075456365942955,0.07540740817785263
-0.2148284912109375,-0.386566162109375,-0.8848114013671875,0.11910109221935272,-0.1592935174703598,0.11114835739135742
-0.19915771484375,-0.384429931640625,-0.8909149169921875,0.06807678937911987,-0.2741897404193878,0.11146793514490128
-0.1936187744140625,-0.3719635009765625,-0.9016571044921875,0.02774587646126747,-0.4664963483810425,0.08830003440380096
-0.19781494140625,-0.358795166015625,-0.92742919921875,-0.022286662831902504,-0.7111862301826477,0.06018637493252754
-0.203094482421875,-0.3394317626953125,-0.955413818359375,-0.08862786740064621,-0.9503732919692993,0.030911576002836227
-0.208221435546875,-0.3235931396484375,-0.96978759765625,-0.16582705080509186,-1.0839507579803467,0.02485874481499195
-0.215240478515625,-0.31964111328125,-0.9577484130859375,-0.24103711545467377,-1.044694423675537,0.03626879304647446
-0.2260589599609375,-0.32293701171875,-0.9200897216796875,-0.1765659749507904,-0.8165459632873535,0.02991022914648056
-0.249481201171875,-0.3337554931640625,-0.88690185546875,0.05525499954819679,-0.30853599309921265,0.0466761589050293
-0.2642059326171875,-0.3331756591796875,-0.8658905029296875,0.16490399837493896,0.2129756510257721,0.051781438291072845
-0.290740966796875,-0.32745361328125,-0.888580322265625,0.12065078318119049,0.4115912914276123,0.03586772084236145
-0.3081512451171875,-0.3427734375,-0.891845703125,0.04207927733659744,0.43495890498161316,0.1120556965470314
-0.23797607421875,-0.368499755859375,-0.8587799072265625,-0.04331178590655327,0.4032774269580841,0.2486891746520996
-0.1456756591796875,-0.36669921875,-0.8542633056640625,-0.13979332149028778,0.3297126591205597,0.38717061281204224
-0.11041259765625,-0.3712921142578125,-0.8507232666015625,-0.20732256770133972,0.21757572889328003,0.5038085579872131
-0.12628173828125,-0.409423828125,-0.869720458984375,-0.1952347457408905,0.148446723818779,0.5540624260902405
-0.1471710205078125,-0.430084228515625,-0.8948516845703125,-0.141831174492836,0.14010517299175262,0.49227678775787354
-0.1605682373046875,-0.398712158203125,-0.901641845703125,-0.08925025165081024,0.159408837556839,0.3818778693675995
-0.1966705322265625,-0.3340911865234375,-0.9098052978515625,-0.04327663406729698,0.14554734528064728,0.3123091757297516
-0.2284698486328125,-0.31976318359375,-0.9266510009765625,-0.008334895595908165,0.0796426311135292,0.31169742345809937
-0.2256927490234375,-0.3444671630859375,-0.9467010498046875,0.012351741082966328,0.008654207922518253,0.3325137794017792
-0.2147216796875,-0.3634033203125,-0.952301025390625,0.039860066026449203,0.02328774519264698,0.3339625298976898
-0.2066802978515625,-0.3637847900390625,-0.92730712890625,0.06688236445188522,0.08491621911525726,0.3088025748729706
-0.216094970703125,-0.3580322265625,-0.8973388671875,0.08085650205612183,0.16152258217334747,0.22662994265556335
-0.240447998046875,-0.359619140625,-0.880462646484375,0.06627702713012695,0.24945563077926636,0.33201175928115845
-0.24853515625,-0.3725128173828125,-0.8748016357421875,0.03666107356548309,0.3934708535671234,0.3803441524505615
-0.2403564453125,-0.38427734375,-0.8668975830078125,0.01895930990576744,0.5740070939064026,0.4393185079097748
-0.2416229248046875,-0.39569091796875,-0.8690032958984375,0.007941014133393764,0.6878215074539185,0.5090674757957458
-0.257110595703125,-0.408782958984375,-0.9001617431640625,-0.009885920211672783,0.7791804671287537,0.6300376057624817
-0.2541046142578125,-0.4261627197265625,-0.9261627197265625,-0.016692427918314934,1.0708746910095215,0.7848615050315857
-0.22979736328125,-0.4336395263671875,-0.9180755615234375,-0.012409797869622707,1.5968817472457886,0.9128152132034302
-0.20208740234375,-0.4193267822265625,-0.8917083740234375,-0.002980609890073538,2.212186336517334,1.0055664777755737
-0.2066802978515625,-0.413482666015625,-0.8609161376953125,0.016381636261940002,2.7464914321899414,1.078749656677246
-0.2248687744140625,-0.4169769287109375,-0.8477020263671875,-0.047262322157621384,3.0077672004699707,1.120225191116333
-0.208892822265625,-0.39776611328125,-0.859527587890625,-0.20432837307453156,2.807835102081299,1.07218599319458
-0.154571533203125,-0.36663818359375,-0.8641815185546875,-0.4055589437484741,2.426792860031128,0.9500616788864136
-0.1076812744140625,-0.353973388671875,-0.861724853515625,-0.6155180335044861,2.075904130935669,0.8107740879058838
-0.0742340087890625,-0.345916748046875,-0.8655548095703125,-0.8021427989006042,1.8528189659118652,0.7195901274681091
-0.0532379150390625,-0.334228515625,-0.8645172119140625,-0.9403384923934937,1.7811589241027832,0.7097744941711426
-0.0483245849609375,-0.3312835693359375,-0.862945556640625,-1.046928882598877,1.7465596199035645,0.7101345658302307
-0.031890869140625,-0.331268310546875,-0.8801727294921875,-1.0896403789520264,1.5736533403396606,0.6391666531562805
-0.0227508544921875,-0.3297576904296875,-0.898406982421875,-1.0181989669799805,1.3145620822906494,0.5244166254997253
-0.035858154296875,-0.310150146484375,-0.92047119140625,-0.8453067541122437,1.077284336090088,0.44228819012641907
-0.0423126220703125,-0.2860870361328125,-0.9646453857421875,-0.6333710551261902,0.7833616137504578,0.3517148792743683
-0.04144287109375,-0.26373291015625,-1.01318359375,-0.4259291887283325,0.43571072816848755,0.24871021509170532
-0.04132080078125,-0.282684326171875,-1.0465850830078125,-0.26397278904914856,0.07972732186317444,0.1670963168144226
-0.032257080078125,-0.3196563720703125,-1.0744476318359375,-0.17731060087680817,-0.2680511474609375,0.1271614134311676
-0.011993408203125,-0.3334503173828125,-1.0877532958984375,-0.15911135077476501,-0.5437791347503662,0.14364024996757507
0.01324462890625,-0.3282470703125,-1.0568389892578125,-0.17942461371421814,-0.6564021110534668,0.16396869719028473
0.022308349609375,-0.324981689453125,-1.00482177734375,-0.1872338056564331,-0.5644407272338867,0.1954595148563385
0.00933837890625,-0.325469970703125,-0.960113525390625,-0.1580066829919815,-0.3900388479232788,0.21999149024486542
-0.010162353515625,-0.32379150390625,-0.9461669921875,-0.0944303646683693,-0.19461874663829803,0.22074861824512482
-0.03509521484375,-0.3182220458984375,-0.946136474609375,-0.044744301587343216,-0.018250375986099243,0.21154633164405823
-0.0571441650390625,-0.3157501220703125,-0.9485015869140625,-0.028480110689997673,0.05047329515218735,0.20819447934627533
-0.0575714111328125,-0.3161468505859375,-0.9442901611328125,-0.05893176048994064,0.05053002014756203,0.224844291806221
-0.04815673828125,-0.31964111328125,-0.9267425537109375,-0.11386558413505554,-0.034259434789419174,0.23522555828094482
-0.03851318359375,-0.322784423828125,-0.9224395751953125,-0.1399690806865692,-0.1450735628604889,0.23961737751960754
-0.0428924560546875,-0.3290557861328125,-0.9288330078125,-0.09568843990564346,-0.18874168395996094,0.24032898247241974
-0.0543212890625,-0.327239990234375,-0.95611572265625,0.01745462417602539,-0.19758844375610352,0.22979724407196045
-0.0753021240234375,-0.3209686279296875,-1.002716064453125,0.18397170305252075,-0.3042382001876831,0.18972305953502655
-0.0978851318359375,-0.3260650634765625,-1.0594940185546875,0.3500344455242157,-0.4774736166000366,0.12959741055965424
-0.112579345703125,-0.3271636962890625,-1.0963134765625,0.4402410387992859,-0.6335388422012329,0.04165956377983093
-0.116668701171875,-0.307586669921875,-1.0867767333984375,0.5726536512374878,-0.9456978440284729,-0.005732720717787743
-0.1177825927734375,-0.301605224609375,-1.0447998046875,0.6228545308113098,-0.7965394854545593,-0.0032892702147364616
-0.11297607421875,-0.2870941162109375,-0.9849853515625,0.5181789994239807,-0.2262030392885208,-0.07775364816188812
-0.12322998046875,-0.271026611328125,-0.96112060546875,0.4184925854206085,0.11452843993902206,-0.1402559131383896
-0.20025634765625,-0.3178863525390625,-0.9184722900390625,0.3143475353717804,0.19380755722522736,-0.1618078052997589
-0.1957550048828125,-0.338714599609375,-0.880859375,0.19618256390094757,0.05190687254071236,-0.19431088864803314
-0.1352081298828125,-0.30804443359375,-0.886077880859375,0.0725540965795517,-0.20753002166748047,-0.23626366257667542
-0.120941162109375,-0.316070556640625,-0.894012451171875,0.011502192355692387,-0.6902788281440735,-0.34943681955337524
-0.1248779296875,-0.344573974609375,-0.9141998291015625,0.043713126331567764,-1.1955827474594116,-0.3466391861438751
-0.1011962890625,-0.3807373046875,-0.9351806640625,0.08705740422010422,-1.4623761177062988,-0.2119452804327011
-0.052825927734375,-0.327484130859375,-0.9641876220703125,0.13874776661396027,-1.7614901065826416,-0.13279959559440613
-0.0341796875,-0.28179931640625,-1.0001678466796875,0.19645819067955017,-1.911359429359436,-0.09073203057050705
-0.0619049072265625,-0.345123291015625,-1.03515625,0.2757799029350281,-2.042114496231079,-0.060570936650037766
-0.10528564453125,-0.3525390625,-1.0662689208984375,0.4112999141216278,-2.2104976177215576,-0.06778650730848312
-0.1324462890625,-0.33636474609375,-1.073272705078125,0.5918294787406921,-2.2369043827056885,-0.08454124629497528
-0.1670379638671875,-0.3197479248046875,-1.0513458251953125,0.7899215221405029,-2.0949764251708984,-0.16340623795986176
-0.2151641845703125,-0.2958221435546875,-1.0225982666015625,0.9626746773719788,-1.8484803438186646,-0.19867448508739471
-0.26971435546875,-0.2812347412109375,-0.9734039306640625,1.0721369981765747,-1.545591115951538,-0.23202471435070038
-0.305389404296875,-0.28424072265625,-0.8993682861328125,1.072853922843933,-1.2867027521133423,-0.2719132602214813
-0.3245086669921875,-0.2933349609375,-0.86602783203125,0.9407800436019897,-1.11800217628479,-0.3184562623500824
-0.3399810791015625,-0.2893218994140625,-0.8574371337890625,0.7451942563056946,-0.9976257085800171,-0.329129159450531
-0.34246826171875,-0.2780609130859375,-0.846832275390625,0.5645714998245239,-0.9407160878181458,-0.29348939657211304
-0.328094482421875,-0.27972412109375,-0.843902587890625,0.4245486259460449,-0.9866204857826233,-0.22871600091457367
-0.319488525390625,-0.2945556640625,-0.8567047119140625,0.3162913918495178,-1.088252305984497,-0.20556993782520294
-0.3221435546875,-0.302490234375,-0.8592071533203125,0.20357336103916168,-1.1734137535095215,-0.23898941278457642
-0.34771728515625,-0.2853546142578125,-0.8575592041015625,0.04795634001493454,-1.2804206609725952,-0.2987419664859772
-0.3783416748046875,-0.268280029296875,-0.8393707275390625,-0.16764040291309357,-1.352468490600586,-0.32754775881767273
-0.375640869140625,-0.2741851806640625,-0.7970733642578125,-0.3769555389881134,-1.3187808990478516,-0.31294140219688416
-0.3584747314453125,-0.280487060546875,-0.7657928466796875,-0.5202211141586304,-1.1897296905517578,-0.2973930537700653
-0.3554840087890625,-0.2821502685546875,-0.7673492431640625,-0.5517926216125488,-0.9372841119766235,-0.27094706892967224
-0.3638916015625,-0.2947998046875,-0.777008056640625,-0.4766429662704468,-0.6266196966171265,-0.24048051238059998
-0.37615966796875,-0.3034210205078125,-0.8112640380859375,-0.33923080563545227,-0.4428751766681671,-0.2661014497280121
-0.4104766845703125,-0.3085784912109375,-0.8748931884765625,-0.18643219769001007,-0.4370462894439697,-0.307012677192688
-0.4395904541015625,-0.306671142578125,-0.91558837890625,-0.06154884770512581,-0.6402388215065002,-0.2950902283191681
-0.4209442138671875,-0.2831878662109375,-0.9182586669921875,0.011348261497914791,-1.0046887397766113,-0.22727470099925995
-0.3856658935546875,-0.2724609375,-0.907562255859375,0.06006573513150215,-1.4036813974380493,-0.13993500173091888
-0.3648834228515625,-0.2794342041015625,-0.90380859375,0.12760242819786072,-1.689278483390808,-0.07989083975553513
-0.372467041015625,-0.27935791015625,-0.907135009765625,0.4754999577999115,-1.396310567855835,0.04479090869426727
-0.39984130859375,-0.275482177734375,-0.8929290771484375,0.7402535676956177,-0.3966679871082306,0.13868863880634308
-0.4462890625,-0.2832489013671875,-0.8812103271484375,0.6367117166519165,0.5960325002670288,0.020870661363005638
-0.5337371826171875,-0.305938720703125,-0.81524658203125,0.43362945318222046,0.9576913714408875,-0.08643821626901627
-0.5993194580078125,-0.2961883544921875,-0.6910552978515625,0.2788026034832001,0.9537445306777954,-0.1309462934732437
-0.5724945068359375,-0.255828857421875,-0.639739990234375,0.12301913648843765,0.7990641593933105,-0.15029096603393555
-0.5194244384765625,-0.2420501708984375,-0.6861724853515625,-0.04044755920767784,0.4852604269981384,-0.14680728316307068
-0.5241851806640625,-0.2669525146484375,-0.748321533203125,-0.15672969818115234,0.20287588238716125,-0.13276790082454681
-0.5277557373046875,-0.284332275390625,-0.7731475830078125,-0.21273569762706757,0.026164758950471878,-0.09251555055379868
-0.4989013671875,-0.281005859375,-0.7926788330078125,-0.19016088545322418,0.010792460292577744,-0.0005811017472296953
-0.4722442626953125,-0.291015625,-0.8061981201171875,-0.0816730260848999,0.2133021503686905,0.04332297295331955
-0.4543609619140625,-0.31341552734375,-0.812347412109375,0.05885559320449829,0.4622776210308075,0.10385262966156006
-0.4521942138671875,-0.3283233642578125,-0.8315582275390625,0.1879587173461914,0.5948404669761658,0.13602600991725922
-0.466644287109375,-0.31927490234375,-0.85675048828125,0.2666780352592468,0.5907381176948547,0.1316581666469574
-0.494293212890625,-0.3190460205078125,-0.870941162109375,0.274739146232605,0.37152642011642456,0.1268274486064911
-0.4961395263671875,-0.3250732421875,-0.878814697265625,0.2501901388168335,-0.030361367389559746,0.08054251223802567
-0.4808197021484375,-0.315460205078125,-0.867950439453125,0.18851664662361145,-0.47456252574920654,0.006332997232675552
-0.4785003662109375,-0.3018798828125,-0.84539794921875,0.09063030034303665,-0.8827944993972778,-0.05173802748322487
-0.4937744140625,-0.30120849609375,-0.8195037841796875,-0.03015630505979061,-1.222772240638733,-0.1508323848247528
-0.513458251953125,-0.31341552734375,-0.7926177978515625,-0.14155313372612,-1.3940558433532715,-0.17339415848255157
-0.5272674560546875,-0.3193511962890625,-0.76153564453125,-0.2250397801399231,-1.4207870960235596,-0.21512961387634277
-0.5417327880859375,-0.325103759765625,-0.7415771484375,-0.26329901814460754,-1.3352961540222168,-0.22436173260211945
-0.5478668212890625,-0.3231353759765625,-0.7316436767578125,-0.24039369821548462,-1.1290959119796753,-0.20118238031864166
-0.5409088134765625,-0.32293701171875,-0.7321624755859375,-0.1833527833223343,-0.8369633555412292,-0.15143293142318726
-0.5375823974609375,-0.32489013671875,-0.7392730712890625,-0.13963299989700317,-0.544914722442627,-0.0995446965098381
-0.5395660400390625,-0.332061767578125,-0.7443084716796875,-0.12714409828186035,-0.3363436460494995,-0.0734715536236763
-0.5503082275390625,-0.344818115234375,-0.738128662109375,-0.14498035609722137,-0.20642881095409393,-0.07228085398674011
-0.556884765625,-0.35015869140625,-0.727752685546875,-0.17105430364608765,-0.13816852867603302,-0.09979024529457092
-0.563262939453125,-0.340667724609375,-0.728302001953125,-0.18881173431873322,-0.12897849082946777,-0.15729162096977234
-0.5780792236328125,-0.32940673828125,-0.739166259765625,-0.21940772235393524,-0.18131999671459198,-0.21103154122829437
-0.5784912109375,-0.322418212890625,-0.7496185302734375,-0.2691638171672821,-0.2971659004688263,-0.25650501251220703
-0.562469482421875,-0.3244476318359375,-0.754241943359375,-0.31855881214141846,-0.49517884850502014,-0.29450860619544983
-0.55023193359375,-0.339935302734375,-0.763458251953125,-0.19588348269462585,-0.5585370659828186,-0.3081809878349304
-0.53936767578125,-0.3510894775390625,-0.7779693603515625,0.008814796805381775,-0.21626491844654083,-0.21942582726478577
-0.525665283203125,-0.365570068359375,-0.7962188720703125,0.0408579520881176,0.20306949317455292,-0.18506918847560883
-0.5411834716796875,-0.39532470703125,-0.7819671630859375,-0.013067598454654217,0.32387128472328186,-0.17869465053081512
-0.5588836669921875,-0.4184417724609375,-0.7189483642578125,-0.007632353343069553,0.20846106112003326,-0.11350632458925247
-0.5383453369140625,-0.4102325439453125,-0.7075347900390625,0.02238200418651104,-0.03670208901166916,-0.056835051625967026
-0.506195068359375,-0.3937225341796875,-0.7571868896484375,0.030117955058813095,-0.31052857637405396,-0.03014644980430603
-0.5154571533203125,-0.3898162841796875,-0.7904052734375,0.007212372962385416,-0.5467557311058044,-0.010822554118931293
-0.5426483154296875,-0.387237548828125,-0.7866363525390625,-0.02443317137658596,-0.6793513298034668,-0.023968448862433434
-0.54827880859375,-0.3763427734375,-0.758880615234375,-0.040587108582258224,-0.7041733264923096,-0.1704186052083969
-0.5589141845703125,-0.359039306640625,-0.7224273681640625,-0.055158860981464386,-0.5997771620750427,-0.2984894812107086
-0.59698486328125,-0.315155029296875,-0.7002716064453125,-0.09558431059122086,-0.46182435750961304,-0.35320812463760376
-0.6381683349609375,-0.335052490234375,-0.69384765625,-0.18590675294399261,-0.3944895267486572,-0.30653810501098633
-0.621063232421875,-0.3785552978515625,-0.6804962158203125,-0.2348625808954239,-0.42032164335250854,-0.21865138411521912
-0.5619354248046875,-0.4070587158203125,-0.6731109619140625,-0.1604253649711609,-0.48799842596054077,-0.1421976238489151
-0.538665771484375,-0.432861328125,-0.699859619140625,-0.04890762269496918,-0.5624851584434509,-0.08530424535274506
-0.5312652587890625,-0.42877197265625,-0.7508087158203125,0.03443280979990959,-0.619403064250946,-0.0661499947309494
-0.544921875,-0.414093017578125,-0.76702880859375,0.051237888634204865,-0.6830059885978699,-0.13201528787612915
-0.5662078857421875,-0.406097412109375,-0.7500457763671875,0.012718192301690578,-0.7412320375442505,-0.03749943897128105
-0.5681610107421875,-0.406219482421875,-0.7130279541015625,-0.04056527093052864,-0.732380747795105,-0.011362110264599323
-0.5634613037109375,-0.40826416015625,-0.6772613525390625,-0.08245465904474258,-0.6561728119850159,0.01966717839241028
-0.5724029541015625,-0.41790771484375,-0.6639556884765625,-0.08443392068147659,-0.5162615180015564,0.042092327028512955
-0.5857696533203125,-0.4199371337890625,-0.6692657470703125,0.005997438915073872,-0.11716736853122711,0.07659677416086197
-0.5916748046875,-0.41131591796875,-0.68096923828125,0.08188688009977341,0.6013862490653992,0.10274342447519302
-0.586090087890625,-0.413330078125,-0.6695098876953125,0.04784528538584709,1.0921690464019775,0.016267387196421623
-0.61688232421875,-0.4100189208984375,-0.636962890625,0.004706604406237602,1.184127688407898,-0.04776885360479355
-0.638031005859375,-0.388702392578125,-0.61920166015625,-0.015429023653268814,1.0168486833572388,-0.03849652409553528
-0.606536865234375,-0.3643798828125,-0.6655426025390625,-0.020542293787002563,0.6867858171463013,0.024174844846129417
-0.5579681396484375,-0.3759002685546875,-0.726226806640625,-0.04487639293074608,0.3514280617237091,0.11903903633356094
-0.5407257080078125,-0.40533447265625,-0.76556396484375,-0.07578850537538528,0.19490663707256317,0.2248711884021759
-0.5231781005859375,-0.4149627685546875,-0.75823974609375,-0.09640882909297943,0.2995600700378418,0.34426018595695496
-0.5129241943359375,-0.412933349609375,-0.7326812744140625,-0.06731805205345154,0.8523356318473816,0.5281556844711304
-0.5200958251953125,-0.4217071533203125,-0.6946868896484375,0.015682555735111237,1.8586180210113525,0.6938466429710388
-0.52459716796875,-0.4622802734375,-0.6402587890625,0.07406064867973328,3.123945951461792,0.8074267506599426
-0.549591064453125,-0.467987060546875,-0.597198486328125,0.08689069002866745,4.472919940948486,0.820915699005127
-0.5763702392578125,-0.454132080078125,-0.587066650390625,0.040973000228405,5.564306259155273,0.7653844952583313
-0.59649658203125,-0.4220428466796875,-0.60546875,-0.2063358575105667,5.323609828948975,0.8190264105796814
-0.5958099365234375,-0.3889617919921875,-0.645904541015625,-0.1816217303276062,3.6633970737457275,0.9105097651481628
-0.549102783203125,-0.4033660888671875,-0.8119964599609375,-0.012047342024743557,1.4069833755493164,1.0350927114486694
-0.417083740234375,-0.4359283447265625,-1.1660308837890625,0.054486945271492004,0.005425125360488892,1.1495811939239502
-0.257080078125,-0.401611328125,-1.218109130859375,-0.046308908611536026,0.004091148264706135,1.231419563293457
