accX,accY,accZ,gyroX,gyroY,gyroZ
0.2491607666015625,-0.57806396484375,-0.9205474853515625,0.0332876481115818,-0.09361490607261658,-0.0019228023011237383
0.219085693359375,-0.5440216064453125,-0.9089202880859375,0.1705688089132309,-0.13267043232917786,-0.046909719705581665
0.1893768310546875,-0.5270843505859375,-0.8851470947265625,0.28153473138809204,-0.18142199516296387,-0.10453226417303085
0.1830291748046875,-0.529815673828125,-0.8770751953125,0.3722531795501709,-0.23769432306289673,-0.12654009461402893
0.206024169921875,-0.5459136962890625,-0.8817291259765625,0.42483651638031006,-0.2830548584461212,-0.1077488362789154
0.23095703125,-0.5703125,-0.8700714111328125,0.42299652099609375,-0.28318777680397034,-0.07382602244615555
0.249053955078125,-0.59063720703125,-0.8395538330078125,0.3583746552467346,-0.24746757745742798,-0.053094375878572464
0.2533721923828125,-0.5993804931640625,-0.7952423095703125,0.24758316576480865,-0.1880284994840622,-0.03696014732122421
0.2484283447265625,-0.6047515869140625,-0.74932861328125,0.12352007627487183,-0.12463806569576263,-0.02040673792362213
0.2388458251953125,-0.60711669921875,-0.722076416015625,0.007838748395442963,-0.08840762823820114,-0.007333014160394669
0.22576904296875,-0.603485107421875,-0.714385986328125,-0.08239420503377914,-0.07401856780052185,-0.0003406183095648885
0.2185821533203125,-0.600128173828125,-0.724029541015625,-0.1419539451599121,-0.08767019957304001,-0.0020066918805241585
0.2158355712890625,-0.60223388671875,-0.7436065673828125,-0.17557582259178162,-0.13186855614185333,0.003291134489700198
0.21783447265625,-0.6069488525390625,-0.7545928955078125,-0.2098589539527893,-0.18120893836021423,0.01954573765397072
0.219970703125,-0.607879638671875,-0.74603271484375,-0.2782827615737915,-0.22125542163848877,0.041612956672906876
0.2219085693359375,-0.61126708984375,-0.723388671875,-0.3763779103755951,-0.2704048454761505,0.0639297142624855
0.2275238037109375,-0.6159210205078125,-0.700347900390625,-0.5163334012031555,-0.2664676308631897,0.0707431435585022
0.2393798828125,-0.6285400390625,-0.69647216796875,-0.6448732614517212,-0.3170602321624756,0.0877160057425499
0.2376861572265625,-0.6295928955078125,-0.701873779296875,-0.7895292639732361,-0.36731621623039246,0.09813722223043442
0.2382965087890625,-0.6222076416015625,-0.69561767578125,-0.9497125148773193,-0.43729132413864136,0.10470191389322281
0.2330169677734375,-0.6144561767578125,-0.6879119873046875,-1.1054930686950684,-0.6280183792114258,0.13274019956588745
0.214141845703125,-0.60650634765625,-0.6908721923828125,-1.269089937210083,-0.8367039561271667,0.1659277230501175
0.193450927734375,-0.589752197265625,-0.6977691650390625,-1.4476981163024902,-1.005829095840454,0.17816200852394104
0.166595458984375,-0.56475830078125,-0.71295166015625,-1.6279906034469604,-1.1640576124191284,0.16346509754657745
0.1348419189453125,-0.542205810546875,-0.7466888427734375,-1.7919620275497437,-1.3533433675765991,0.13425873219966888
0.1027984619140625,-0.515777587890625,-0.789215087890625,-1.9328703880310059,-1.5447479486465454,0.10251519083976746
0.067291259765625,-0.4848175048828125,-0.8146209716796875,-2.018918991088867,-1.7069810628890991,0.06246684119105339
0.0396728515625,-0.4604034423828125,-0.8311920166015625,-2.0278241634368896,-1.7841517925262451,0.002481267089024186
0.0196533203125,-0.4340667724609375,-0.857391357421875,-1.925607681274414,-1.7366279363632202,-0.06881927698850632
-0.0087890625,-0.4267730712890625,-0.897125244140625,-1.7224452495574951,-1.438072919845581,-0.10322971642017365
-0.0126953125,-0.43267822265625,-0.949554443359375,-1.4302860498428345,-0.960487961769104,-0.09044787287712097
-0.017364501953125,-0.4075927734375,-1.0007781982421875,-1.0796793699264526,-0.5408392548561096,-0.06592682003974915
-0.0348052978515625,-0.389495849609375,-1.0249786376953125,-0.7296459674835205,-0.31092166900634766,-0.04631476849317551
-0.0571746826171875,-0.386444091796875,-1.029815673828125,-0.4854804277420044,-0.24396125972270966,-0.01739736646413803
-0.068572998046875,-0.3705596923828125,-1.00689697265625,-0.37042519450187683,-0.25281521677970886,-0.0065191518515348434
-0.0746307373046875,-0.35870361328125,-0.9690093994140625,-0.34621626138687134,-0.32526570558547974,-0.014602644369006157
-0.0819091796875,-0.349029541015625,-0.9394378662109375,-0.3866864740848541,-0.4194486737251282,-0.03732819855213165
-0.0810394287109375,-0.340362548828125,-0.9153900146484375,-0.44661903381347656,-0.4764413833618164,-0.061947256326675415
-0.080535888671875,-0.3468170166015625,-0.9116973876953125,-0.5054570436477661,-0.4663013815879822,-0.05838128551840782
-0.07513427734375,-0.3670806884765625,-0.9299774169921875,-0.5295751690864563,-0.43856483697891235,-0.028963208198547363
-0.066253662109375,-0.3737030029296875,-0.9505615234375,-0.50262451171875,-0.39356541633605957,0.0029111013282090425
-0.0546112060546875,-0.37237548828125,-0.970733642578125,-0.4255395829677582,-0.30457454919815063,0.04891108348965645
-0.0396881103515625,-0.363983154296875,-0.988067626953125,-0.31703174114227295,-0.18096153438091278,0.07844580709934235
-0.02923583984375,-0.352752685546875,-1.001617431640625,-0.20236562192440033,-0.06163353845477104,0.09022976458072662
-0.028228759765625,-0.347442626953125,-1.013214111328125,-0.08483925461769104,0.01992310769855976,0.0896473303437233
-0.0334625244140625,-0.3441925048828125,-1.017425537109375,0.020722588524222374,0.09770205616950989,0.08405043184757233
-0.040802001953125,-0.34698486328125,-1.0157318115234375,0.09421997517347336,0.1778528243303299,0.0827753096818924
-0.0418701171875,-0.353302001953125,-1.0055999755859375,0.1559448540210724,0.2404719889163971,0.0738462582230568
-0.0346221923828125,-0.3554534912109375,-0.9936065673828125,0.20545221865177155,0.2835733890533447,0.06793724000453949
-0.0157623291015625,-0.3580474853515625,-0.984771728515625,0.23746103048324585,0.3065599203109741,0.07368434220552444
0.012725830078125,-0.363677978515625,-0.974639892578125,0.2705894112586975,0.30167943239212036,0.07909881323575974
0.0354461669921875,-0.370330810546875,-0.9647979736328125,0.3009483814239502,0.2993012070655823,0.0913592055439949
0.0529022216796875,-0.3762969970703125,-0.9538421630859375,0.32841941714286804,0.28469645977020264,0.10837627202272415
0.0675048828125,-0.3771820068359375,-0.9373016357421875,0.33281683921813965,0.2617253363132477,0.11195369809865952
0.07171630859375,-0.3733978271484375,-0.9148406982421875,0.30608269572257996,0.20249691605567932,0.09668312966823578
0.07269287109375,-0.37335205078125,-0.8950958251953125,0.2701348066329956,0.11105834692716599,0.07079161703586578
0.0726470947265625,-0.37933349609375,-0.885589599609375,0.22603340446949005,0.05319824069738388,0.04938672482967377
0.069976806640625,-0.38427734375,-0.892608642578125,0.23230195045471191,0.1210918053984642,0.03351827710866928
0.065399169921875,-0.3995819091796875,-0.920257568359375,0.3954906165599823,0.30908674001693726,-0.017190704122185707
0.047088623046875,-0.405609130859375,-0.9607086181640625,0.39418378472328186,0.2578621804714203,-0.03140692412853241
0.036895751953125,-0.3805999755859375,-0.948974609375,0.13470828533172607,0.253743052482605,-0.1989748775959015
0.04962158203125,-0.3650970458984375,-0.891143798828125,-0.0038043255917727947,0.1482754945755005,-0.23654969036579132
0.0786590576171875,-0.4075775146484375,-0.8905487060546875,-0.12943682074546814,-0.0183505117893219,-0.1265249252319336
0.09423828125,-0.39996337890625,-0.8670654296875,-0.2007589340209961,-0.1737275868654251,-0.09487324953079224
0.055450439453125,-0.4097747802734375,-0.897613525390625,-0.25254756212234497,-0.19709175825119019,-0.09875161200761795
0.055206298828125,-0.41064453125,-0.9097442626953125,-0.2935487926006317,-0.1268431693315506,-0.1391506940126419
0.0696563720703125,-0.39892578125,-0.896453857421875,-0.2776678204536438,-0.07594909518957138,-0.16539216041564941
0.0835113525390625,-0.3984222412109375,-0.906829833984375,-0.18427743017673492,-0.07210481911897659,-0.09472331404685974
0.1129913330078125,-0.39630126953125,-0.931915283203125,-0.06208707392215729,-0.048172853887081146,0.022051505744457245
0.135101318359375,-0.4121246337890625,-0.9565887451171875,0.016231168061494827,0.024174312129616737,0.039690952748060226
0.142730712890625,-0.4553985595703125,-0.974029541015625,0.059055596590042114,0.11449595540761948,-0.010729876346886158
0.1392364501953125,-0.4629364013671875,-0.9735565185546875,0.09141620248556137,0.13033190369606018,0.0059566921554505825
0.1446380615234375,-0.43670654296875,-0.96246337890625,0.1351833939552307,0.11281363666057587,0.04662289470434189
0.1411895751953125,-0.419769287109375,-0.9600830078125,0.16524142026901245,0.14048227667808533,0.08029989898204803
0.1193695068359375,-0.4129638671875,-0.9384918212890625,0.1308770626783371,0.1760392040014267,0.1153593510389328
0.078582763671875,-0.4024810791015625,-0.8828887939453125,0.02599591389298439,0.18223026394844055,0.08545871078968048
0.0513458251953125,-0.40594482421875,-0.8260040283203125,-0.10659515112638474,0.17381148040294647,0.025076590478420258
0.0550537109375,-0.40252685546875,-0.793487548828125,-0.22049163281917572,0.11522592604160309,-0.012161324732005596
0.075042724609375,-0.3973388671875,-0.7886962890625,-0.288146048784256,0.038974031805992126,-0.00774793466553092
0.1110992431640625,-0.4081268310546875,-0.811309814453125,-0.30309808254241943,-0.043771713972091675,0.010630805976688862
0.13580322265625,-0.4159088134765625,-0.8519439697265625,-0.28016960620880127,-0.10089971870183945,0.056827329099178314
0.1533355712890625,-0.4274749755859375,-0.901824951171875,-0.22835993766784668,-0.10759223997592926,0.09388015419244766
0.1549072265625,-0.43316650390625,-0.9430084228515625,-0.15556535124778748,-0.06520003825426102,0.11267940700054169
0.14227294921875,-0.433990478515625,-0.9678497314453125,-0.07999975979328156,-0.016771523281931877,0.11523284763097763
0.1242828369140625,-0.4305267333984375,-0.9692840576171875,-0.012701679952442646,0.034323886036872864,0.12169288098812103
0.1125030517578125,-0.4225616455078125,-0.956085205078125,0.03947923332452774,0.10113274306058884,0.12870818376541138
0.0981597900390625,-0.4155426025390625,-0.93719482421875,0.07826151698827744,0.1479652225971222,0.1123712807893753
0.0821380615234375,-0.41070556640625,-0.910675048828125,0.10119639337062836,0.15921655297279358,0.09112884104251862
0.0806732177734375,-0.409881591796875,-0.8856201171875,0.12018632888793945,0.1504257172346115,0.07600767910480499
0.0886993408203125,-0.4052734375,-0.869781494140625,0.1306600123643875,0.14780117571353912,0.0734981819987297
0.0999603271484375,-0.3964080810546875,-0.8602447509765625,0.14293265342712402,0.13106906414031982,0.07182545214891434
0.1070709228515625,-0.3982086181640625,-0.8596343994140625,0.153694748878479,0.10336101055145264,0.09158238023519516
0.1126861572265625,-0.4049835205078125,-0.865997314453125,0.1531679779291153,0.04030561074614525,0.11005380004644394
0.1119232177734375,-0.4077606201171875,-0.8763275146484375,0.15041454136371613,-0.05161925032734871,0.13015933334827423
0.108123779296875,-0.414764404296875,-0.88189697265625,0.12001428753137589,-0.15085023641586304,0.15674540400505066
0.1054840087890625,-0.4149017333984375,-0.87939453125,0.07493656128644943,-0.20217786729335785,0.17899824678897858
0.1077728271484375,-0.417999267578125,-0.8802642822265625,0.04217248782515526,-0.22540488839149475,0.19165225327014923
0.1025238037109375,-0.4293365478515625,-0.88739013671875,0.03310655429959297,-0.24689847230911255,0.20502212643623352
0.0861968994140625,-0.4400177001953125,-0.88336181640625,0.048232510685920715,-0.2598523497581482,0.21182329952716827
0.06427001953125,-0.446929931640625,-0.87408447265625,0.13619032502174377,-0.44583261013031006,0.2252453714609146
0.0474700927734375,-0.44171142578125,-0.846527099609375,0.16955174505710602,-0.40968817472457886,0.26328304409980774
0.0560455322265625,-0.44696044921875,-0.838775634765625,0.1419622004032135,-0.13187333941459656,0.26324576139450073
0.0485687255859375,-0.4599761962890625,-0.892303466796875,0.0764194056391716,0.0889676883816719,0.22179178893566132
0.025787353515625,-0.4688568115234375,-0.919403076171875,0.022778283804655075,0.21319057047367096,0.18096739053726196
0.0274200439453125,-0.470947265625,-0.933624267578125,-0.00865980051457882,0.29082998633384705,0.1712668240070343
0.038604736328125,-0.463226318359375,-0.9416961669921875,-0.005914880894124508,0.33617615699768066,0.1719033122062683
0.0369110107421875,-0.451934814453125,-0.9506378173828125,0.05206799507141113,0.2930704951286316,0.16341182589530945
0.01910400390625,-0.4409942626953125,-0.9619598388671875,0.1429385095834732,0.20333527028560638,0.14991626143455505
0.0274658203125,-0.433868408203125,-0.97344970703125,0.23686952888965607,0.20241329073905945,0.14365889132022858
0.0491180419921875,-0.4325714111328125,-0.9904632568359375,0.3170538544654846,0.30113402009010315,0.15233680605888367
0.058563232421875,-0.4406585693359375,-1.0141448974609375,0.35347816348075867,0.41383686661720276,0.16458441317081451
0.064178466796875,-0.46142578125,-1.031585693359375,0.340525358915329,0.45329850912094116,0.17633774876594543
0.07318115234375,-0.4728546142578125,-1.0315704345703125,0.27642306685447693,0.39087268710136414,0.17118079960346222
0.0813751220703125,-0.4724578857421875,-1.022613525390625,0.198428675532341,0.2261361926794052,0.151190847158432
0.086639404296875,-0.4647979736328125,-1.006378173828125,0.12106809765100479,0.048413604497909546,0.14852848649024963
0.0840301513671875,-0.4533233642578125,-0.9876251220703125,0.05956932157278061,-0.07315676659345627,0.15676698088645935
0.071563720703125,-0.4496002197265625,-0.9800567626953125,0.025901904329657555,-0.11714526265859604,0.18421325087547302
0.046875,-0.4547882080078125,-0.986297607421875,0.018635736778378487,-0.09450626373291016,0.1313987672328949
0.0189971923828125,-0.4584197998046875,-0.9863739013671875,0.05399079620838165,-0.04229898750782013,0.09896200150251389
0.0017852783203125,-0.453033447265625,-0.9802398681640625,0.10989374667406082,0.05450691655278206,0.06977561861276627
-0.0040283203125,-0.439971923828125,-0.9701385498046875,0.15682077407836914,0.16957251727581024,0.026760241016745567
-0.0048828125,-0.4294891357421875,-0.9613494873046875,0.2029659003019333,0.19745421409606934,-0.012385030277073383
0.0016021728515625,-0.42352294921875,-0.9434356689453125,0.2057848572731018,0.1482619047164917,-0.04199112579226494
0.0319671630859375,-0.4356536865234375,-0.910980224609375,0.11842118203639984,0.11458197236061096,-0.06063351780176163
0.065826416015625,-0.41229248046875,-0.938446044921875,-0.0008404936525039375,-0.0710829645395279,-0.09963471442461014
0.076629638671875,-0.37518310546875,-0.967529296875,-0.08271751552820206,-0.3580934405326843,-0.13037531077861786
0.074432373046875,-0.37774658203125,-1.000946044921875,-0.10586012154817581,-0.5826131105422974,-0.15621782839298248
0.079132080078125,-0.4153289794921875,-1.004486083984375,-0.06260372698307037,-0.723940908908844,-0.1762613207101822
0.0835418701171875,-0.4152069091796875,-0.9829864501953125,0.04898911342024803,-0.7659139633178711,-0.17998868227005005
0.067230224609375,-0.3650054931640625,-0.9893341064453125,0.18130560219287872,-0.7417739629745483,-0.19238249957561493
0.030181884765625,-0.343597412109375,-0.993499755859375,0.282281756401062,-0.6683418154716492,-0.21602684259414673
-0.0153045654296875,-0.3415679931640625,-0.9730987548828125,0.32994168996810913,-0.5890315771102905,-0.24568672478199005
-0.0533294677734375,-0.3372039794921875,-0.936798095703125,0.3486386835575104,-0.5096073150634766,-0.26677364110946655
-0.07415771484375,-0.3331451416015625,-0.9046630859375,0.32655069231987,-0.4320922791957855,-0.28150251507759094
-0.0806884765625,-0.3276519775390625,-0.8759918212890625,0.2708192467689514,-0.4013628661632538,-0.28991782665252686
-0.0847015380859375,-0.3266143798828125,-0.8521881103515625,0.18561486899852753,-0.4426027238368988,-0.2506575286388397
-0.0868988037109375,-0.32757568359375,-0.844940185546875,0.08976557105779648,-0.5084845423698425,-0.30710482597351074
-0.0863800048828125,-0.3191680908203125,-0.854339599609375,0.012944027781486511,-0.5656002759933472,-0.30169352889060974
-0.0898284912109375,-0.3202362060546875,-0.8834228515625,-0.015033810399472713,-0.5789328813552856,-0.28573986887931824
-0.0926513671875,-0.3260498046875,-0.91949462890625,0.02261529676616192,-0.5611706376075745,-0.2578246295452118
-0.0981903076171875,-0.333740234375,-0.9514312744140625,0.0913325771689415,-0.48633742332458496,-0.23339250683784485
-0.1105194091796875,-0.3358154296875,-0.9678497314453125,0.15352191030979156,-0.37282976508140564,-0.2195691019296646
-0.13067626953125,-0.3363037109375,-0.9628143310546875,0.19335214793682098,-0.2576826810836792,-0.2130235880613327
-0.1545562744140625,-0.3338775634765625,-0.9473724365234375,0.18868203461170197,-0.1318078339099884,-0.21495677530765533
-0.1746978759765625,-0.3280487060546875,-0.92108154296875,0.13803084194660187,-0.02166960947215557,-0.22693568468093872
-0.1859283447265625,-0.319610595703125,-0.8956146240234375,0.06576250493526459,0.052197691053152084,-0.24200384318828583
-0.181793212890625,-0.31317138671875,-0.8828125,-0.01287265494465828,0.09797795861959457,-0.23705889284610748
-0.1602630615234375,-0.311981201171875,-0.8745269775390625,-0.0832967534661293,0.10142488777637482,-0.2180686891078949
-0.1390533447265625,-0.317138671875,-0.8600311279296875,-0.06692896783351898,0.2975139617919922,-0.21626785397529602
-0.12664794921875,-0.31243896484375,-0.841033935546875,-0.09033229202032089,0.1950099766254425,-0.2006548047065735
-0.1186981201171875,-0.3346099853515625,-0.847198486328125,-0.12649588286876678,-0.07799972593784332,-0.20510920882225037
-0.0767974853515625,-0.3500518798828125,-0.907684326171875,-0.20249664783477783,-0.26613980531692505,-0.17494118213653564
-0.0498504638671875,-0.3335418701171875,-0.94293212890625,-0.25377023220062256,-0.31454354524612427,-0.12809139490127563
-0.0635223388671875,-0.326171875,-0.9452667236328125,-0.21705801784992218,-0.2259226143360138,-0.10596983879804611
-0.0938720703125,-0.336700439453125,-0.942138671875,-0.13049569725990295,-0.048532381653785706,-0.09755291789770126
-0.1073150634765625,-0.3610687255859375,-0.93841552734375,-0.045758433640003204,0.1281779408454895,-0.10125844180583954
-0.1055450439453125,-0.37353515625,-0.926544189453125,-0.014271081425249577,0.17788930237293243,-0.1187700629234314
-0.1069793701171875,-0.3726043701171875,-0.9158935546875,-0.011383947916328907,0.08139019459486008,-0.1360478550195694
-0.10040283203125,-0.37689208984375,-0.9138641357421875,-0.0019438412273302674,-0.03237365186214447,-0.13471733033657074
-0.0801544189453125,-0.386962890625,-0.9094696044921875,0.02515009418129921,-0.07758799940347672,-0.1171354129910469
-0.0660552978515625,-0.3975982666015625,-0.8935699462890625,0.06101781502366066,-0.054918643087148666,-0.13970836997032166
-0.0708770751953125,-0.4089202880859375,-0.8701019287109375,0.0801939070224762,-0.0010381002211943269,-0.10346940159797668
-0.079742431640625,-0.4204864501953125,-0.84393310546875,0.06495316326618195,0.03471590206027031,-0.10706041008234024
-0.09100341796875,-0.427825927734375,-0.815277099609375,0.03092755563557148,0.04410674050450325,-0.11161760985851288
-0.1002655029296875,-0.426605224609375,-0.8010711669921875,-0.013168532401323318,0.055819589644670486,-0.11934423446655273
-0.1083984375,-0.42254638671875,-0.8033905029296875,-0.055269911885261536,0.04572514444589615,-0.13508139550685883
-0.118255615234375,-0.422454833984375,-0.8188018798828125,-0.06627009809017181,0.020079169422388077,-0.15393869578838348
-0.121978759765625,-0.42242431640625,-0.844207763671875,-0.044746965169906616,0.011285144835710526,-0.16740897297859192
-0.12017822265625,-0.4228668212890625,-0.866241455078125,-0.009711749851703644,0.04205264523625374,-0.17878146469593048
-0.112945556640625,-0.4257049560546875,-0.8770294189453125,0.007123156916350126,0.08567362278699875,-0.19103360176086426
-0.107818603515625,-0.4308624267578125,-0.8743133544921875,0.006715693045407534,0.09761230647563934,-0.20198585093021393
-0.1028289794921875,-0.4332122802734375,-0.864654541015625,0.001178182428702712,0.10320308059453964,-0.2073715627193451
-0.103424072265625,-0.4331512451171875,-0.8663787841796875,-0.02298973873257637,0.13137613236904144,-0.20310837030410767
-0.1029510498046875,-0.431640625,-0.8692626953125,-0.04845808073878288,0.13137346506118774,-0.20643199980258942
-0.1050262451171875,-0.4345245361328125,-0.8701934814453125,-0.033361684530973434,0.071532242000103,-0.2188495248556137
-0.1068572998046875,-0.432708740234375,-0.86236572265625,-0.0076270271092653275,0.019838951528072357,-0.21751262247562408
-0.09588623046875,-0.4290771484375,-0.84674072265625,0.04707430303096771,-0.23686474561691284,-0.18298552930355072
-0.0853729248046875,-0.429534912109375,-0.8001556396484375,-0.00046339002437889576,-0.2783522605895996,-0.1318770796060562
-0.073333740234375,-0.4498748779296875,-0.765960693359375,-0.09728953242301941,-0.1149502843618393,-0.10264807939529419
-0.086273193359375,-0.461669921875,-0.8099822998046875,-0.19313989579677582,0.055501874536275864,-0.11072438210248947
-0.105316162109375,-0.453582763671875,-0.8468170166015625,-0.2535228133201599,0.2186034470796585,-0.11750452220439911
-0.1082916259765625,-0.444793701171875,-0.8977508544921875,-0.25937190651893616,0.3950250744819641,-0.10284755378961563
-0.09722900390625,-0.4506683349609375,-0.9524078369140625,-0.20510095357894897,0.536469578742981,-0.08092254400253296
-0.0891876220703125,-0.4624176025390625,-0.9762115478515625,-0.1306387037038803,0.5692262053489685,-0.06841820478439331
-0.083709716796875,-0.470306396484375,-0.965362548828125,-0.048778992146253586,0.44406718015670776,-0.0643177330493927
-0.066650390625,-0.4624176025390625,-0.927032470703125,0.0011060107499361038,0.30871549248695374,-0.035363584756851196
-0.0378570556640625,-0.4384918212890625,-0.8978424072265625,0.030252443626523018,0.3333401381969452,-0.00038242992013692856
-0.0326080322265625,-0.4370880126953125,-0.9053802490234375,0.05426190793514252,0.39343276619911194,0.011825500056147575
-0.042724609375,-0.4597930908203125,-0.9221343994140625,0.040350884199142456,0.3580939769744873,-0.0016130766598507762
-0.043609619140625,-0.480712890625,-0.9204254150390625,-0.021999308839440346,0.26133492588996887,-0.004036819562315941
-0.031524658203125,-0.4886322021484375,-0.919403076171875,-0.0975838154554367,0.1637127697467804,-0.0010615360224619508
-0.02801513671875,-0.483856201171875,-0.9269866943359375,-0.14590926468372345,0.10743910819292068,0.0024226775858551264
-0.0373687744140625,-0.4683074951171875,-0.9306640625,-0.14330708980560303,0.09746477007865906,0.0071766865439713
-0.046051025390625,-0.453948974609375,-0.930633544921875,-0.10079958289861679,0.13354633748531342,0.015625564381480217
-0.0499114990234375,-0.4468536376953125,-0.9369049072265625,-0.029636722058057785,0.1750602275133133,0.019059976562857628
-0.05035400390625,-0.45123291015625,-0.9543304443359375,0.05837089940905571,0.225515678524971,-0.014937404543161392
-0.051483154296875,-0.4628448486328125,-0.968475341796875,0.17536036670207977,0.4356100559234619,0.009484581649303436
-0.0570220947265625,-0.471649169921875,-0.9619903564453125,0.26580291986465454,0.46174126863479614,0.006342584267258644
-0.0612335205078125,-0.486297607421875,-0.961212158203125,0.30938661098480225,0.3548126816749573,-0.009533051401376724
-0.0521392822265625,-0.4732666015625,-0.960601806640625,0.2802122235298157,0.2117181122303009,-0.014999189414083958
-0.037841796875,-0.46435546875,-0.9510955810546875,0.1910802125930786,0.15383324027061462,-0.003329484025016427
-0.0183563232421875,-0.4811553955078125,-0.9240570068359375,0.07177671790122986,0.11630823463201523,0.00013076121103949845
-0.0139617919921875,-0.492950439453125,-0.9007568359375,-0.04381033033132553,0.07595229148864746,-0.008581770583987236
-0.0106048583984375,-0.4858551025390625,-0.9017791748046875,-0.12922057509422302,0.15023396909236908,0.004887433256953955
0.0115966796875,-0.4656524658203125,-0.9140472412109375,-0.2051134705543518,0.27398762106895447,0.031135814264416695
0.0348968505859375,-0.434600830078125,-0.9318084716796875,-0.2747918963432312,0.3508445620536804,0.04332057759165764
0.0485076904296875,-0.401641845703125,-0.97235107421875,-0.3179124593734741,0.36550047993659973,0.054311443120241165
0.065216064453125,-0.376190185546875,-1.0290374755859375,-0.3119365870952606,0.31078317761421204,0.06966456770896912
0.091766357421875,-0.358917236328125,-1.088836669921875,-0.24864310026168823,0.26652464270591736,0.09432916343212128
0.1189422607421875,-0.345184326171875,-1.1370391845703125,-0.1286940574645996,0.23156452178955078,0.12388812005519867
0.13519287109375,-0.332855224609375,-1.1602325439453125,0.044369328767061234,0.19705021381378174,0.09908264130353928
0.147674560546875,-0.3325958251953125,-1.1669921875,0.21881650388240814,0.1656978875398636,0.16209569573402405
0.1527099609375,-0.3367767333984375,-1.1541595458984375,0.343585342168808,0.1514875292778015,0.15700186789035797
0.143707275390625,-0.3372344970703125,-1.11688232421875,0.43059372901916504,0.16766516864299774,0.1427912414073944
0.13751220703125,-0.333831787109375,-1.0775146484375,0.5047595500946045,0.19955678284168243,0.1219506710767746
0.1330413818359375,-0.3279266357421875,-1.04290771484375,0.580552339553833,0.21648703515529633,0.10367526113986969
0.122955322265625,-0.3219146728515625,-1.0051116943359375,0.6716052889823914,0.2367270588874817,0.10513573884963989
0.1132354736328125,-0.318145751953125,-0.9611968994140625,0.7525419592857361,0.2771866023540497,0.12059406191110611
0.1142120361328125,-0.3179473876953125,-0.906036376953125,0.7908304929733276,0.3417309820652008,0.14252838492393494
0.124359130859375,-0.3233489990234375,-0.8475189208984375,0.7752019762992859,0.41491198539733887,0.16858315467834473
0.142425537109375,-0.3284149169921875,-0.79876708984375,0.7036566734313965,0.46957576274871826,0.232259601354599
0.17742919921875,-0.3360748291015625,-0.7706451416015625,0.6053021550178528,0.47808775305747986,0.32212743163108826
0.2219696044921875,-0.3464202880859375,-0.7646484375,0.4990883767604828,0.47535985708236694,0.4082482159137726
0.2444610595703125,-0.3537445068359375,-0.7808990478515625,0.38924044370651245,0.49503928422927856,0.46695441007614136
0.248504638671875,-0.3526763916015625,-0.803375244140625,0.2780366837978363,0.5238251686096191,0.4992119371891022
0.2438812255859375,-0.345611572265625,-0.8244781494140625,0.18237219750881195,0.5337334275245667,0.510912299156189
0.2315826416015625,-0.3358917236328125,-0.83941650390625,0.12408013641834259,0.5348674058914185,0.5034578442573547
0.2144317626953125,-0.3324737548828125,-0.8501739501953125,0.10964660346508026,0.5332663059234619,0.4898991286754608
0.202301025390625,-0.33563232421875,-0.858184814453125,0.1438266783952713,0.5585280060768127,0.4693978428840637
0.195404052734375,-0.3439483642578125,-0.8690948486328125,0.2136790007352829,0.6107041239738464,0.44850456714630127
0.194671630859375,-0.3534698486328125,-0.8831024169921875,0.28881049156188965,0.6703325510025024,0.43921253085136414
0.2042236328125,-0.36431884765625,-0.8942718505859375,0.3270795941352844,0.7155101299285889,0.43613070249557495
0.2144622802734375,-0.370330810546875,-0.891937255859375,0.3021896779537201,0.6664930582046509,0.4389536678791046
0.2094879150390625,-0.378936767578125,-0.8882598876953125,0.21784578263759613,0.5622279047966003,0.42474356293678284
0.1997528076171875,-0.3881072998046875,-0.883087158203125,0.10087228566408157,0.4475804269313812,0.36755403876304626
0.181732177734375,-0.39373779296875,-0.8794403076171875,-0.011444135569036007,0.3351553678512573,0.2787352204322815
0.166595458984375,-0.399566650390625,-0.878753662109375,-0.11097205430269241,0.234444722533226,0.2005288451910019
0.166656494140625,-0.408203125,-0.8740234375,-0.1795322149991989,0.15624766051769257,0.13820607960224152
0.1661224365234375,-0.41497802734375,-0.8736724853515625,-0.18766310811042786,0.09834574162960052,0.09014693647623062
0.1649627685546875,-0.42547607421875,-0.87139892578125,-0.15169231593608856,0.06687384098768234,0.05386855825781822
0.167083740234375,-0.4333343505859375,-0.8583831787109375,-0.06439709663391113,0.07325637340545654,0.04984452202916145
0.1749725341796875,-0.438873291015625,-0.8388519287109375,0.07495173811912537,0.07178018242120743,0.07877710461616516
0.198272705078125,-0.456268310546875,-0.7837066650390625,0.12732918560504913,0.26427799463272095,0.1201985776424408
0.2390899658203125,-0.4529876708984375,-0.790771484375,0.10034257918596268,0.3187790513038635,0.11182267218828201
0.23382568359375,-0.429840087890625,-0.796783447265625,0.010123474523425102,0.27876532077789307,0.1179729774594307
0.2270660400390625,-0.42279052734375,-0.8374176025390625,-0.06932660937309265,0.2039310336112976,0.1361144334077835
0.2212677001953125,-0.4363555908203125,-0.8867340087890625,-0.13053271174430847,0.08699828386306763,0.15188486874103546
0.210296630859375,-0.4581146240234375,-0.908599853515625,-0.1722886711359024,0.0031795480754226446,0.13385872542858124
0.206787109375,-0.494781494140625,-0.9142303466796875,-0.17974792420864105,-0.043965861201286316,0.11087937653064728
0.224822998046875,-0.5149993896484375,-0.8998260498046875,-0.17072807252407074,-0.05594502389431,0.10947190225124359
0.22845458984375,-0.480010986328125,-0.8846588134765625,-0.1693168580532074,-0.11154703050851822,0.1074281856417656
0.19970703125,-0.4677581787109375,-0.88232421875,-0.19657963514328003,-0.18905673921108246,0.07525534182786942
0.1638031005859375,-0.4801025390625,-0.8860626220703125,-0.22577720880508423,-0.2220357209444046,0.04770174250006676
0.129791259765625,-0.4805145263671875,-0.89068603515625,-0.2086738497018814,-0.19870802760124207,0.06340666860342026
0.095947265625,-0.4627227783203125,-0.8994140625,-0.1577262431383133,-0.1354110836982727,0.07664444297552109
0.072113037109375,-0.4537506103515625,-0.9181671142578125,-0.0798940360546112,-0.10138494521379471,0.013458284549415112
0.073211669921875,-0.45013427734375,-0.9367828369140625,-0.011455054394900799,-0.12149367481470108,0.09797822684049606
0.0879974365234375,-0.444610595703125,-0.9388275146484375,0.02684839256107807,-0.15161775052547455,0.10063420236110687
0.0931243896484375,-0.4494781494140625,-0.9226226806640625,0.03732260316610336,-0.13092339038848877,0.08402539789676666
0.0975341796875,-0.464324951171875,-0.89306640625,0.01895451545715332,-0.06416540592908859,0.06373424082994461
0.109375,-0.4775848388671875,-0.8533172607421875,0.06775747239589691,-0.026161562651395798,0.06823178380727768
0.127227783203125,-0.4931640625,-0.7883148193359375,0.10814830660820007,0.01745089516043663,0.12331447750329971
0.17572021484375,-0.5491485595703125,-0.6991119384765625,0.06615478545427322,0.07695310562849045,0.1450919508934021
0.2183837890625,-0.55987548828125,-0.7334747314453125,-0.07979097217321396,-0.1278383880853653,0.10489126294851303
0.1987762451171875,-0.5282135009765625,-0.78900146484375,-0.1853935569524765,-0.44065061211586,0.07443694770336151
0.1613922119140625,-0.50982666015625,-0.87164306640625,-0.20291902124881744,-0.5607136487960815,0.052627526223659515
0.143524169921875,-0.50897216796875,-0.9108123779296875,-0.14102396368980408,-0.5623615980148315,0.02304326742887497
0.1162261962890625,-0.52777099609375,-0.913482666015625,-0.05373540148139,-0.5392781496047974,-0.006142314523458481
0.113372802734375,-0.53802490234375,-0.89593505859375,-0.017299627885222435,-0.5578278303146362,-0.051467716693878174
0.1197052001953125,-0.5221710205078125,-0.8837738037109375,-0.06968666613101959,-0.6709551811218262,-0.11595829576253891
0.110870361328125,-0.50579833984375,-0.8770294189453125,-0.15210431814193726,-0.8362932801246643,-0.1662939041852951
0.0897064208984375,-0.4921112060546875,-0.8707733154296875,-0.21944287419319153,-0.953996479511261,-0.1875547170639038
0.0659027099609375,-0.48187255859375,-0.86175537109375,-0.2713276445865631,-0.968343198299408,-0.1921374797821045
0.0375213623046875,-0.478363037109375,-0.8441162109375,-0.3028472065925598,-0.8999888896942139,-0.13664759695529938
0.01171875,-0.4817962646484375,-0.8342742919921875,-0.3042789399623871,-0.800668478012085,-0.21905112266540527
-0.0046234130859375,-0.480926513671875,-0.834564208984375,-0.2981504797935486,-0.7065824270248413,-0.23551104962825775
-0.005462646484375,-0.4749298095703125,-0.840911865234375,-0.2787458896636963,-0.6334339380264282,-0.22117339074611664
0.0046844482421875,-0.462799072265625,-0.8536224365234375,-0.26574593782424927,-0.5632026195526123,-0.18961094319820404
0.015838623046875,-0.4577789306640625,-0.859039306640625,-0.25360777974128723,-0.5110928416252136,-0.16815918684005737
0.019195556640625,-0.459228515625,-0.8617706298828125,-0.24262143671512604,-0.5141309499740601,-0.15937554836273193
0.022430419921875,-0.4671630859375,-0.866302490234375,-0.2226083129644394,-0.5238301753997803,-0.15626923739910126
0.032318115234375,-0.481292724609375,-0.8788604736328125,-0.1866351217031479,-0.5119082927703857,-0.15253707766532898
0.041534423828125,-0.4980316162109375,-0.8929595947265625,-0.14037415385246277,-0.4761641323566437,-0.14677399396896362
0.042205810546875,-0.5118560791015625,-0.900390625,-0.09104841947555542,-0.3873506486415863,-0.1329849511384964
0.0371551513671875,-0.519287109375,-0.9011688232421875,-0.056288838386535645,-0.29079216718673706,-0.13347949087619781
0.02764892578125,-0.520965576171875,-0.89752197265625,-0.04773130267858505,-0.2119055986404419,-0.14492949843406677
0.0159454345703125,-0.5179595947265625,-0.8915557861328125,-0.08063412457704544,-0.18378953635692596,-0.16673491895198822
0.01263427734375,-0.513641357421875,-0.8827362060546875,-0.14919348061084747,-0.20903576910495758,-0.1787516325712204
0.0204010009765625,-0.5153350830078125,-0.8818511962890625,-0.23541384935379028,-0.2479110062122345,-0.1692417562007904
0.0349578857421875,-0.5157623291015625,-0.87554931640625,-0.2986154556274414,-0.2784159183502197,-0.14291001856327057
0.043609619140625,-0.515899658203125,-0.8697509765625,-0.3289637863636017,-0.25043967366218567,-0.13889770209789276
0.0404052734375,-0.5119171142578125,-0.8655853271484375,-0.2175253927707672,0.1774778515100479,-0.14508502185344696
0.0289154052734375,-0.5081634521484375,-0.8328857421875,-0.16889581084251404,0.055036887526512146,-0.165986567735672
0.0276947021484375,-0.548736572265625,-0.8891754150390625,-0.1621207296848297,-0.12990500032901764,-0.1974901705980301
0.0465240478515625,-0.517913818359375,-0.9573516845703125,-0.16921059787273407,-0.39906057715415955,-0.21513494849205017
0.03594970703125,-0.480438232421875,-1.0112762451171875,-0.13425473868846893,-0.5696959495544434,-0.21444171667099
0.03753662109375,-0.475006103515625,-1.035980224609375,-0.06401120871305466,-0.6262207627296448,-0.22820787131786346
0.0358123779296875,-0.48828125,-1.0345458984375,0.0020090886391699314,-0.5613946318626404,-0.2337445765733719
0.0320892333984375,-0.5110321044921875,-1.001251220703125,0.0766468420624733,-0.3424670696258545,-0.22338488698005676
0.015350341796875,-0.519287109375,-0.9677276611328125,0.12912683188915253,-0.07272294163703918,-0.22617854177951813
-0.0088653564453125,-0.5105133056640625,-0.946014404296875,0.1284056454896927,0.08077500760555267,-0.23656700551509857
-0.0188140869140625,-0.4959564208984375,-0.9223480224609375,0.05579828470945358,0.06296058744192123,-0.2536522448062897
-0.0183868408203125,-0.481658935546875,-0.91473388671875,-0.05127410590648651,-0.06572708487510681,-0.2538061738014221
-0.005035400390625,-0.4715118408203125,-0.924896240234375,-0.13414768874645233,-0.18592458963394165,-0.23751269280910492
0.0145416259765625,-0.4651641845703125,-0.9466094970703125,-0.20319919288158417,-0.22848589718341827,-0.21618050336837769
0.025909423828125,-0.45245361328125,-0.963470458984375,-0.22233347594738007,-0.23351368308067322,-0.2704871594905853
0.01776123046875,-0.4355621337890625,-0.9847412109375,-0.1736018806695938,-0.195665642619133,-0.20061832666397095
0.006866455078125,-0.4160919189453125,-1.014495849609375,-0.07644017785787582,-0.08647763729095459,-0.18258365988731384
0.0003814697265625,-0.399688720703125,-1.0294189453125,0.07866685092449188,0.11574310809373856,-0.15500690042972565
0.0025482177734375,-0.38677978515625,-1.016265869140625,0.32199615240097046,0.5093090534210205,-0.1148325726389885
0.0057373046875,-0.39984130859375,-0.9465179443359375,0.4609503149986267,0.5547503232955933,-0.11476413160562515
0.0214080810546875,-0.4233551025390625,-0.9322967529296875,0.4792587459087372,0.4066058397293091,-0.11264985054731369
0.0538787841796875,-0.3841400146484375,-0.9250030517578125,0.42987707257270813,0.06874897330999374,-0.10784231126308441
0.067626953125,-0.35162353515625,-0.9564971923828125,0.3746814727783203,-0.211597740650177,-0.11007323861122131
0.0653228759765625,-0.357666015625,-0.9682159423828125,0.34366363286972046,-0.3490200340747833,-0.1357751488685608
0.0399932861328125,-0.3844451904296875,-0.962921142578125,0.38009485602378845,-0.321770042181015,-0.1498613953590393
0.022369384765625,-0.403594970703125,-0.9399566650390625,0.43299829959869385,-0.11776737868785858,-0.1489229053258896
0.0078582763671875,-0.4158477783203125,-0.8880462646484375,0.44912558794021606,0.07720983028411865,-0.1682949960231781
-0.005401611328125,-0.408843994140625,-0.8274993896484375,0.40600183606147766,0.06860729306936264,-0.21360228955745697
-0.0142669677734375,-0.393463134765625,-0.7954864501953125,0.324089378118515,-0.0992024838924408,-0.2424483299255371
-0.0154571533203125,-0.3810272216796875,-0.80413818359375,0.2401614636182785,-0.2256925106048584,-0.23019352555274963
-0.00543212890625,-0.3748016357421875,-0.829803466796875,0.19917061924934387,-0.2931634485721588,-0.1905031055212021
-0.0048980712890625,-0.3752899169921875,-0.851043701171875,0.18720345199108124,-0.33280378580093384,-0.1793372631072998
-0.0144195556640625,-0.37872314453125,-0.8604888916015625,0.18809214234352112,-0.34981048107147217,-0.20331503450870514
-0.020660400390625,-0.377349853515625,-0.8630218505859375,0.1674659550189972,-0.3886132538318634,-0.22011879086494446
-0.0286865234375,-0.3712005615234375,-0.855804443359375,0.13495968282222748,-0.46929532289505005,-0.2545201778411865
-0.0332183837890625,-0.3564453125,-0.841461181640625,0.0842091515660286,-0.5111583471298218,-0.26468172669410706
-0.0285186767578125,-0.346405029296875,-0.8367919921875,0.06734868139028549,-0.6901219487190247,-0.22297395765781403
-0.026702880859375,-0.33795166015625,-0.82177734375,-0.024332502856850624,-0.5332854986190796,-0.16742494702339172
-0.0402679443359375,-0.3406524658203125,-0.834259033203125,-0.12765569984912872,-0.17277656495571136,-0.13921861350536346
-0.0909423828125,-0.33123779296875,-0.891845703125,-0.21577037870883942,0.1150062158703804,-0.1794070452451706
-0.1358184814453125,-0.3075714111328125,-0.937255859375,-0.25084394216537476,0.22221043705940247,-0.2284954935312271
-0.1453094482421875,-0.2922515869140625,-0.9787750244140625,-0.21839465200901031,0.19162829220294952,-0.23368999361991882
-0.1273193359375,-0.3021697998046875,-0.9941864013671875,-0.1648177057504654,0.13810886442661285,-0.20402370393276215
-0.1037750244140625,-0.3275146484375,-0.97918701171875,-0.1196528971195221,0.05524594336748123,-0.16800524294376373
-0.0834503173828125,-0.339752197265625,-0.939453125,-0.09386231005191803,-0.018634937703609467,-0.14126604795455933
-0.0731201171875,-0.3274078369140625,-0.91363525390625,-0.0689641535282135,0.01455763727426529,-0.11637134850025177
-0.07330322265625,-0.3258819580078125,-0.9190673828125,-0.052564140409231186,0.12511397898197174,-0.09183671325445175
-0.0800933837890625,-0.3415985107421875,-0.933380126953125,-0.05636607110500336,0.20813535153865814,-0.08219766616821289
-0.087310791015625,-0.3606414794921875,-0.9288482666015625,-0.08467893302440643,0.20387482643127441,-0.09694705158472061
-0.09283447265625,-0.3702239990234375,-0.9121551513671875,-0.1400146335363388,0.1714729517698288,-0.12087874859571457
-0.1031036376953125,-0.3719329833984375,-0.8857269287109375,-0.08728750050067902,0.4945937395095825,-0.2484995573759079
-0.108489990234375,-0.36273193359375,-0.84271240234375,-0.15741385519504547,0.3268737196922302,-0.17732205986976624
-0.0989227294921875,-0.39642333984375,-0.841064453125,-0.22351059317588806,0.008640093728899956,-0.24393010139465332
-0.055084228515625,-0.3816070556640625,-0.918060302734375,-0.3033340573310852,-0.31280237436294556,-0.2464689016342163
-0.0274810791015625,-0.3570098876953125,-0.9808349609375,-0.3095828890800476,-0.4718967080116272,-0.21480843424797058
-0.025909423828125,-0.3675079345703125,-1.0188140869140625,-0.20560376346111298,-0.3812192678451538,-0.1794842779636383
-0.0469512939453125,-0.3797454833984375,-1.0113372802734375,-0.06559845060110092,-0.14620381593704224,-0.16859354078769684
-0.0865631103515625,-0.3780059814453125,-0.9734649658203125,0.028298748657107353,0.07355198264122009,-0.18478423357009888
-0.1082305908203125,-0.3768463134765625,-0.9318695068359375,0.04916088655591011,0.19046342372894287,-0.1964816302061081
-0.092681884765625,-0.3811798095703125,-0.904876708984375,0.025020131841301918,0.17401280999183655,-0.19131030142307281
-0.06695556640625,-0.3836212158203125,-0.892913818359375,-0.017425594851374626,0.06631084531545639,-0.17552389204502106
-0.05078125,-0.384429931640625,-0.88470458984375,-0.048702824860811234,-0.027593011036515236,-0.14992451667785645
-0.037139892578125,-0.3927001953125,-0.87835693359375,-0.06655239313840866,-0.06437366455793381,-0.05309144780039787
-0.034027099609375,-0.4093170166015625,-0.863739013671875,-0.07703539729118347,-0.07888895273208618,-0.11673726886510849
-0.0349884033203125,-0.422821044921875,-0.8441314697265625,-0.08907261490821838,-0.10147282481193542,-0.09147346019744873
-0.02911376953125,-0.4342193603515625,-0.829132080078125,-0.12616433203220367,-0.09592386335134506,-0.06828824430704117
-0.0294647216796875,-0.437286376953125,-0.8183135986328125,-0.16664864122867584,-0.09480267763137817,-0.05342673882842064
-0.0289459228515625,-0.44024658203125,-0.830780029296875,-0.17756333947181702,-0.10065124183893204,-0.03275128826498985
-0.02288818359375,-0.4395599365234375,-0.8566436767578125,-0.14819718897342682,-0.08980978280305862,-0.00987287051975727
-0.020416259765625,-0.436767578125,-0.8881072998046875,-0.10071675479412079,-0.05404698848724365,0.0059686764143407345
-0.026947021484375,-0.435516357421875,-0.9098052978515625,-0.04875129461288452,0.004141215234994888,0.022346584126353264
-0.042388916015625,-0.435516357421875,-0.91827392578125,-0.004297276493161917,0.04833557456731796,0.024030234664678574
-0.0565948486328125,-0.4293975830078125,-0.9096527099609375,0.01979793980717659,0.10031329095363617,0.018003500998020172
-0.0647735595703125,-0.4219970703125,-0.897003173828125,0.01853027381002903,0.11736231297254562,0.017127854749560356
-0.0673370361328125,-0.41375732421875,-0.8841552734375,-0.005388906225562096,0.13059715926647186,0.004878378473222256
-0.0702056884765625,-0.4064483642578125,-0.8758544921875,-0.02545902132987976,0.14264929294586182,-0.018666362389922142
-0.0731658935546875,-0.3994293212890625,-0.87451171875,-0.043603669852018356,0.17986217141151428,-0.061470016837120056
-0.0751190185546875,-0.392608642578125,-0.882476806640625,-0.042810048907995224,0.22574737668037415,-0.09499149024486542
-0.0713653564453125,-0.3903656005859375,-0.89178466796875,-0.02677648700773716,0.28214967250823975,-0.09389559924602509
-0.053466796875,-0.401611328125,-0.9005279541015625,0.010698184370994568,0.34027421474456787,-0.07722234725952148
-0.0440216064453125,-0.41455078125,-0.907257080078125,0.0667065903544426,0.375638872385025,-0.07144568860530853
-0.0552520751953125,-0.418609619140625,-0.9006195068359375,0.09033628553152084,0.39462587237358093,-0.08462779968976974
-0.0668182373046875,-0.4254608154296875,-0.88916015625,0.11673620343208313,0.3823913037776947,-0.10532775521278381
-0.0572052001953125,-0.4391632080078125,-0.899169921875,0.16643691062927246,0.37623435258865356,-0.12312299758195877
-0.0405426025390625,-0.4384918212890625,-0.9085540771484375,0.2434118539094925,0.41671067476272583,-0.1447577178478241
-0.015106201171875,-0.4550628662109375,-0.911895751953125,0.3060624599456787,0.5080983638763428,-0.1250266283750534
0.0202178955078125,-0.4880828857421875,-0.9138336181640625,0.35027173161506653,0.5992458462715149,-0.06856734305620193
0.0545806884765625,-0.51934814453125,-0.906707763671875,0.3697247803211212,0.6533058881759644,-0.002703641075640917
0.072479248046875,-0.5415191650390625,-0.8919830322265625,0.3600734770298004,0.6606026887893677,0.06010541319847107
0.07598876953125,-0.5466461181640625,-0.87310791015625,0.32306140661239624,0.6252516508102417,0.11120002716779709
0.0734100341796875,-0.54058837890625,-0.853363037109375,0.2578078508377075,0.5502048134803772,0.14900332689285278
0.066864013671875,-0.540069580078125,-0.838470458984375,0.1884327530860901,0.45026063919067383,0.17414729297161102
0.05950927734375,-0.5393829345703125,-0.8365020751953125,0.12674489617347717,0.3456133306026459,0.1870202124118805
0.058258056640625,-0.5388946533203125,-0.84710693359375,0.0702696368098259,0.2580110430717468,0.20288360118865967
0.057647705078125,-0.542449951171875,-0.857086181640625,0.02419455163180828,0.20397204160690308,0.20468443632125854
0.0515289306640625,-0.54888916015625,-0.866058349609375,-0.0005661880713887513,0.16441769897937775,0.1905592978000641
0.0494384765625,-0.5504608154296875,-0.88262939453125,-0.02293327823281288,0.10258736461400986,0.17156429588794708
0.0522613525390625,-0.5453948974609375,-0.9033203125,-0.02840261347591877,0.04608520492911339,0.18447530269622803
0.0474853515625,-0.533294677734375,-0.9217681884765625,-0.021854165941476822,0.034203775227069855,0.22721824049949646
0.0272979736328125,-0.51800537109375,-0.9210357666015625,-0.08492261171340942,0.2399047464132309,0.2677518129348755
0.0109405517578125,-0.484893798828125,-0.796905517578125,-0.13945616781711578,0.2188710868358612,0.24033138155937195
-0.0488128662109375,-0.5042572021484375,-0.80517578125,-0.18625536561012268,0.12028832733631134,0.15932467579841614
-0.067962646484375,-0.5023040771484375,-0.87567138671875,-0.19259421527385712,0.006737264804542065,0.11641742289066315
-0.04290771484375,-0.5083160400390625,-0.93243408203125,-0.0842570886015892,-0.021452561020851135,0.14265649020671844
-0.0075531005859375,-0.5125732421875,-0.994171142578125,0.07875020802021027,0.07005312293767929,0.20322741568088531
0.0220947265625,-0.53460693359375,-1.005615234375,0.22624458372592926,0.269506573677063,0.22380566596984863
0.01373291015625,-0.5277252197265625,-0.9730224609375,0.32324597239494324,0.44416573643684387,0.21670381724834442
0.00103759765625,-0.511016845703125,-0.926422119140625,0.33258089423179626,0.478787362575531,0.20997214317321777
0.003204345703125,-0.521881103515625,-0.8834686279296875,0.2570919692516327,0.3929310441017151,0.22053930163383484
0.0186614990234375,-0.54833984375,-0.8591156005859375,0.13438017666339874,0.2446233332157135,0.24971529841423035
0.039154052734375,-0.57080078125,-0.84527587890625,0.015484949573874474,0.11613033711910248,0.30370795726776123
0.0540313720703125,-0.5752410888671875,-0.84283447265625,-0.06585092097520828,0.05723878741264343,0.3463797867298126
0.0531158447265625,-0.571990966796875,-0.8535919189453125,-0.11146926879882812,0.05903642252087593,0.3772066831588745
0.0462799072265625,-0.572906494140625,-0.867156982421875,-0.12216931581497192,0.11379314213991165,0.4049546718597412
0.04156494140625,-0.570556640625,-0.8790740966796875,-0.11920841783285141,0.19390182197093964,0.4245539605617523
0.0385894775390625,-0.553802490234375,-0.8774261474609375,-0.12983176112174988,0.29238632321357727,0.4335908591747284
0.039825439453125,-0.5202789306640625,-0.8679046630859375,-0.17257151007652283,0.3899323344230652,0.4207648038864136
0.0460205078125,-0.491241455078125,-0.8711700439453125,-0.23951618373394012,0.42182421684265137,0.3888188600540161
0.056671142578125,-0.4740753173828125,-0.8894195556640625,-0.30206984281539917,0.3703514337539673,0.3609805703163147
0.0771026611328125,-0.453643798828125,-0.9186248779296875,-0.3479406535625458,0.260053426027298,0.33410048484802246
0.0914764404296875,-0.431671142578125,-0.95086669921875,-0.36951813101768494,0.12781468033790588,0.3090912699699402
0.08953857421875,-0.411346435546875,-0.9785919189453125,-0.3413935601711273,-0.016150474548339844,0.27941858768463135
0.0739898681640625,-0.3938446044921875,-1.00494384765625,-0.2614920437335968,-0.12360423058271408,0.24829049408435822
0.0535430908203125,-0.383636474609375,-1.018829345703125,-0.1448831558227539,-0.15794596076011658,0.21618236601352692
0.03192138671875,-0.3810272216796875,-1.01275634765625,-0.011145861819386482,-0.11433562636375427,0.17994660139083862
0.0157928466796875,-0.3809661865234375,-0.9940338134765625,0.1250026524066925,-0.009097091853618622,0.1489737629890442
0.0132293701171875,-0.3842010498046875,-0.9702911376953125,0.24344807863235474,0.10394690185785294,0.12136158347129822
0.0188751220703125,-0.3889923095703125,-0.94781494140625,0.32724231481552124,0.1902756690979004,0.11162266880273819
0.035797119140625,-0.3934173583984375,-0.92974853515625,0.37635526061058044,0.23053467273712158,0.11346983909606934
0.0597991943359375,-0.3951873779296875,-0.9142303466796875,0.3632495701313019,0.2465096414089203,0.12437787652015686
0.0855560302734375,-0.389495849609375,-0.891510009765625,0.3109935522079468,0.21682098507881165,0.13721963763237
0.1026153564453125,-0.384918212890625,-0.8685302734375,0.255531907081604,0.17753483355045319,0.15549851953983307
0.1126708984375,-0.3879241943359375,-0.8593902587890625,0.17258109152317047,0.09022469818592072,0.16076438128948212
0.1197509765625,-0.389556884765625,-0.8494720458984375,0.087662473320961,0.01793745532631874,0.18428808450698853
0.1347503662109375,-0.39361572265625,-0.8459014892578125,0.011663313955068588,-0.028871862217783928,0.20769406855106354
0.1499786376953125,-0.3974761962890625,-0.8495941162109375,-0.04638747125864029,-0.01882668398320675,0.2339930534362793
0.170013427734375,-0.39971923828125,-0.8566741943359375,-0.08467493951320648,0.02016039565205574,0.2687305212020874
0.1933746337890625,-0.402435302734375,-0.87213134765625,-0.1104615330696106,0.0818362757563591,0.3111402988433838
0.2111663818359375,-0.3996734619140625,-0.891845703125,-0.13623960316181183,0.13700978457927704,0.3528462052345276
0.21759033203125,-0.3937835693359375,-0.9185333251953125,-0.17475689947605133,0.16881884634494781,0.3927241265773773
0.211151123046875,-0.3848419189453125,-0.9384307861328125,-0.23575100302696228,0.174613356590271,0.41608670353889465
0.197906494140625,-0.373016357421875,-0.9398040771484375,-0.31220024824142456,0.14563629031181335,0.41393059492111206
0.178314208984375,-0.3638916015625,-0.9335784912109375,-0.3910521864891052,0.10810836404561996,0.4050598740577698
0.171417236328125,-0.3493499755859375,-0.9207000732421875,-0.46080702543258667,0.05092150345444679,0.40749239921569824
0.1823883056640625,-0.3359375,-0.9072723388671875,-0.5082980990409851,-0.0074030552059412,0.4016158878803253
0.190399169921875,-0.33746337890625,-0.9000091552734375,-0.5238595008850098,-0.049908172339200974,0.37505510449409485
0.1910247802734375,-0.3434295654296875,-0.8973388671875,-0.5170223712921143,-0.08574552834033966,0.3314895033836365
0.1852569580078125,-0.3436431884765625,-0.89569091796875,-0.5047633051872253,-0.1157337874174118,0.27758899331092834
0.1845245361328125,-0.3404693603515625,-0.8900299072265625,-0.4967525005340576,-0.12170512974262238,0.23627512156963348
0.192626953125,-0.3303375244140625,-0.8867645263671875,-0.4893721044063568,-0.12280847877264023,0.20598138868808746
0.18865966796875,-0.3249053955078125,-0.897735595703125,-0.4683168828487396,-0.10814084857702255,0.1865677535533905
0.1736907958984375,-0.3352203369140625,-0.9282379150390625,-0.4288906455039978,-0.0783427432179451,0.1718740165233612
0.146728515625,-0.3515472412109375,-0.9595184326171875,-0.3994129002094269,-0.004797152243554592,0.18190908432006836
0.1324920654296875,-0.350189208984375,-0.9657135009765625,-0.40205448865890503,0.07045206427574158,0.1965295672416687
0.1201019287109375,-0.34014892578125,-0.93524169921875,-0.4178515672683716,0.11124902963638306,0.19848033785820007
0.1053619384765625,-0.3270111083984375,-0.8995819091796875,-0.42641550302505493,0.08704595267772675,0.18607427179813385
0.0984344482421875,-0.3152618408203125,-0.8877716064453125,-0.4132903814315796,0.04288594797253609,0.18838508427143097
0.1020660400390625,-0.3119049072265625,-0.89227294921875,-0.3788895308971405,0.0018972359830513597,0.2322862297296524
0.10540771484375,-0.3141632080078125,-0.905517578125,-0.3241594433784485,0.032698556780815125,0.2657374143600464
0.1035919189453125,-0.321533203125,-0.9255523681640625,-0.249949112534523,0.10762552917003632,0.21393385529518127
0.0872955322265625,-0.3526153564453125,-0.956207275390625,-0.19181124866008759,0.05969741940498352,0.19476069509983063
0.07666015625,-0.320068359375,-0.9821624755859375,-0.10980532318353653,0.012822321616113186,0.1903853863477707
0.0597076416015625,-0.292755126953125,-1.00244140625,-0.02617328055202961,0.012020443566143513,0.1741744577884674
0.03619384765625,-0.2941741943359375,-1.005828857421875,0.03304876387119293,0.01404657680541277,0.14160214364528656
0.017242431640625,-0.3025054931640625,-0.9851837158203125,0.0486796535551548,0.03851490095257759,0.1101270392537117
0.0220794677734375,-0.3163299560546875,-0.9503173828125,0.026861175894737244,0.06763843446969986,0.08900950103998184
0.0399932861328125,-0.3346099853515625,-0.919464111328125,-0.0010969560826197267,0.07000251859426498,0.08018245548009872
0.0617218017578125,-0.3515167236328125,-0.8985748291015625,-0.01158608216792345,0.04048058018088341,0.08275400102138519
0.0806427001953125,-0.3587799072265625,-0.89202880859375,-0.025361282750964165,0.016415724530816078,0.09406205266714096
0.091156005859375,-0.360748291015625,-0.883056640625,-0.05650375410914421,0.00449941074475646,0.1029902994632721
0.092376708984375,-0.3650054931640625,-0.8754119873046875,-0.09368414431810379,-0.03686640411615372,0.10258682817220688
0.08428955078125,-0.3741912841796875,-0.873291015625,-0.09546580165624619,-0.1312890499830246,0.08770082145929337
0.0774078369140625,-0.376129150390625,-0.8796844482421875,0.05674264207482338,-0.3705431818962097,0.10950225591659546
0.0836029052734375,-0.3656158447265625,-0.88922119140625,0.189782977104187,-0.45187079906463623,0.19382965564727783
0.0885772705078125,-0.3933258056640625,-0.8990631103515625,0.172951802611351,-0.2646830677986145,0.21417993307113647
0.0471343994140625,-0.4207305908203125,-0.90625,0.10154180228710175,-0.13750059902668,0.1557997167110443
0.0140533447265625,-0.4124755859375,-0.90631103515625,0.04421353340148926,-0.12591825425624847,0.06509165465831757
0.01434326171875,-0.3940582275390625,-0.910858154296875,-0.010549047030508518,-0.1308903694152832,0.048767540603876114
0.044158935546875,-0.380035400390625,-0.910003662109375,-0.05342594161629677,-0.12457948178052902,0.05359957739710808
0.055389404296875,-0.3848114013671875,-0.9129791259765625,-0.0823340192437172,-0.13982447981834412,0.04632249101996422
0.038238525390625,-0.3980560302734375,-0.924041748046875,-0.09143590927124023,-0.1720990538597107,0.037399835884571075
0.0262298583984375,-0.4091796875,-0.9324951171875,-0.0835215225815773,-0.20379360020160675,0.025913622230291367
0.0247802734375,-0.416839599609375,-0.935516357421875,-0.028751753270626068,-0.22041413187980652,0.006678941659629345
0.0316314697265625,-0.41650390625,-0.94000244140625,0.06613188236951828,-0.1912439912557602,0.0018485001055523753
0.0285186767578125,-0.4095916748046875,-0.9489593505859375,0.16664063930511475,-0.08592529594898224,0.001719869440421462
0.0157928466796875,-0.4097900390625,-0.9571533203125,0.22427624464035034,0.03411535918712616,-0.019124425947666168
-0.0025177001953125,-0.4256439208984375,-0.95361328125,0.23022335767745972,0.12235147505998611,-0.06991463899612427
-0.01611328125,-0.44219970703125,-0.9497222900390625,0.19436894357204437,0.14877963066101074,-0.12536324560642242
-0.006256103515625,-0.4462127685546875,-0.9396514892578125,0.12034425139427185,0.13429389894008636,-0.15158286690711975
0.021087646484375,-0.44427490234375,-0.9241485595703125,0.02022564224898815,0.061410099267959595,-0.19345468282699585
0.0475006103515625,-0.44891357421875,-0.9021759033203125,-0.09303274005651474,-0.04707350209355354,-0.1377759724855423
0.057830810546875,-0.4548797607421875,-0.8873748779296875,-0.20288413763046265,-0.12078473716974258,-0.1411541998386383
0.055450439453125,-0.4544525146484375,-0.8857574462890625,-0.28527700901031494,-0.11604644358158112,-0.15193013846874237
0.05255126953125,-0.445343017578125,-0.900665283203125,-0.3118430972099304,-0.06033417955040932,-0.1607966125011444
0.0463409423828125,-0.437744140625,-0.9322357177734375,-0.286318838596344,0.004655205644667149,-0.17179173231124878
0.042877197265625,-0.4311981201171875,-0.961151123046875,-0.14331987500190735,0.191278874874115,-0.16494686901569366
0.054840087890625,-0.4358367919921875,-0.9757537841796875,-0.007214503362774849,0.16260382533073425,-0.14838680624961853
0.0760345458984375,-0.449859619140625,-1.0069122314453125,0.11190736293792725,-0.014999988488852978,-0.14073820412158966
0.11669921875,-0.4387664794921875,-1.060760498046875,0.18133650720119476,-0.22199444472789764,-0.1460253894329071
0.1323089599609375,-0.4256744384765625,-1.08624267578125,0.232781320810318,-0.39130544662475586,-0.15590065717697144
0.110504150390625,-0.42364501953125,-1.09564208984375,0.29827991127967834,-0.40916645526885986,-0.15274587273597717
0.0894775390625,-0.4361572265625,-1.07598876953125,0.352888286113739,-0.30662545561790466,-0.15341751277446747
0.0680084228515625,-0.4395904541015625,-1.032073974609375,0.3765805661678314,-0.1667221337556839,-0.18059507012367249
0.040435791015625,-0.436798095703125,-0.986236572265625,0.3710675537586212,-0.03828640282154083,-0.22782091796398163
0.0177764892578125,-0.4373321533203125,-0.9426422119140625,0.35438045859336853,0.032411202788352966,-0.2667084038257599
0.01556396484375,-0.4358367919921875,-0.909637451171875,0.3284039795398712,0.03087562508881092,-0.2787802219390869
0.03155517578125,-0.436981201171875,-0.89373779296875,0.290646493434906,-0.03241759538650513,-0.27472370862960815
0.0507965087890625,-0.439361572265625,-0.88946533203125,0.24385687708854675,-0.11330791562795639,-0.24853737652301788
0.059906005859375,-0.4394378662109375,-0.887847900390625,0.16600094735622406,-0.16893336176872253,-0.25461897253990173
0.06317138671875,-0.4404754638671875,-0.8917694091796875,0.07804899662733078,-0.19045063853263855,-0.23662559688091278
0.0594940185546875,-0.44158935546875,-0.895416259765625,-0.0026059031952172518,-0.19675327837467194,-0.2213672697544098
0.0519561767578125,-0.431976318359375,-0.9030609130859375,-0.07091465592384338,-0.20987626910209656,-0.20641495287418365
0.0487518310546875,-0.4154510498046875,-0.9152069091796875,-0.09094055742025375,-0.22065141797065735,-0.20898783206939697
0.044891357421875,-0.3981475830078125,-0.93450927734375,-0.07631421089172363,-0.20354141294956207,-0.21181638538837433
0.0353851318359375,-0.388092041015625,-0.95135498046875,-0.03946591541171074,-0.18151120841503143,-0.2146502435207367
0.0263824462890625,-0.37664794921875,-0.955657958984375,0.017047425732016563,-0.17047905921936035,-0.21696826815605164
0.0227203369140625,-0.3670654296875,-0.959808349609375,0.10162010043859482,-0.20148970186710358,-0.23021508753299713
0.0267791748046875,-0.3562774658203125,-0.9579010009765625,0.20154163241386414,-0.24195536971092224,-0.24550962448120117
0.0355072021484375,-0.35272216796875,-0.954742431640625,0.31711724400520325,-0.2677667438983917,-0.2380266785621643
0.045989990234375,-0.3566741943359375,-0.94671630859375,0.4074157178401947,-0.30578362941741943,-0.20276349782943726
0.051422119140625,-0.3661346435546875,-0.9215240478515625,0.46747133135795593,-0.39906376600265503,-0.13751472532749176
0.04705810546875,-0.3750457763671875,-0.8744049072265625,0.46770620346069336,-0.4523288607597351,-0.05926811695098877
0.02325439453125,-0.394775390625,-0.812469482421875,0.3632865846157074,-0.2207547426223755,-0.042398855090141296
-0.02008056640625,-0.3968353271484375,-0.83905029296875,0.231588214635849,-0.0006439523422159255,-0.0528901107609272
-0.0481719970703125,-0.3626708984375,-0.8506622314453125,0.11117472499608994,0.10215353220701218,-0.12291979789733887
-0.05548095703125,-0.3371124267578125,-0.8674774169921875,0.018917232751846313,0.13280172646045685,-0.15515576303005219
-0.0538177490234375,-0.3349456787109375,-0.8843231201171875,-0.053533267229795456,0.16846038401126862,-0.1563139706850052
-0.044708251953125,-0.3498382568359375,-0.9000701904296875,-0.0930364653468132,0.163948193192482,-0.14185860753059387
-0.044708251953125,-0.372344970703125,-0.909271240234375,-0.07885566353797913,0.08398571610450745,-0.11855221539735794
-0.0465087890625,-0.3735809326171875,-0.909515380859375,-0.053096506744623184,0.1253368854522705,-0.11856979131698608
-0.064544677734375,-0.339630126953125,-0.911468505859375,-0.022906381636857986,0.36604535579681396,-0.12537522614002228
-0.0811920166015625,-0.3181304931640625,-0.9290008544921875,-0.018268486484885216,0.6786759495735168,-0.12480132281780243
-0.0749359130859375,-0.320098876953125,-0.9505157470703125,0.20433369278907776,1.0789730548858643,-0.12760590016841888
-0.050079345703125,-0.336273193359375,-0.95660400390625,0.2506473958492279,1.3183614015579224,-0.07943224161863327
-0.001251220703125,-0.373809814453125,-0.9534759521484375,0.21473094820976257,1.359552025794983,-0.10442973673343658
0.0537109375,-0.3378753662109375,-0.9573974609375,0.041126664727926254,1.0926225185394287,-0.12920325994491577
0.083251953125,-0.3157196044921875,-0.9484710693359375,-0.10948335379362106,0.6024107336997986,-0.15726712346076965
0.0843048095703125,-0.311309814453125,-0.9813385009765625,-0.16064879298210144,0.1288623809814453,-0.1319660246372223
0.08251953125,-0.3141937255859375,-1.0273590087890625,-0.12850044667720795,-0.23251500725746155,-0.10500231385231018
0.0680389404296875,-0.308319091796875,-1.0460357666015625,-0.05870965123176575,-0.5024080276489258,-0.1419701874256134
0.0494842529296875,-0.3242034912109375,-1.035614013671875,0.02581402100622654,-0.6525517106056213,-0.15888231992721558
0.03802490234375,-0.356201171875,-1.002655029296875,0.12089099735021591,-0.7016500234603882,-0.13000886142253876
0.017578125,-0.37384033203125,-0.9586639404296875,0.21826575696468353,-0.7430363297462463,-0.13144484162330627
-0.0056610107421875,-0.3747100830078125,-0.9122314453125,0.2752091884613037,-0.7645381689071655,-0.15943706035614014
-0.023193359375,-0.361602783203125,-0.8723602294921875,0.29480260610580444,-0.7912262082099915,-0.20681576430797577
-0.0349273681640625,-0.3538055419921875,-0.84527587890625,0.26127076148986816,-0.8602745532989502,-0.23109181225299835
-0.0475921630859375,-0.3711090087890625,-0.818756103515625,0.20475181937217712,-0.9336102604866028,-0.22950004041194916
-0.0601959228515625,-0.3997955322265625,-0.7984161376953125,0.17306019365787506,-1.075548768043518,-0.22199498116970062
-0.0729522705078125,-0.4149017333984375,-0.773773193359375,0.04182121530175209,-0.957808792591095,-0.07374612241983414
-0.0836334228515625,-0.422088623046875,-0.744873046875,-0.17294248938560486,-0.4465780258178711,-0.014179201796650887
-0.1190948486328125,-0.4123992919921875,-0.7788543701171875,-0.38665875792503357,0.0558512806892395,-0.014272945001721382
-0.156158447265625,-0.398895263671875,-0.8147125244140625,-0.5384538769721985,0.32602018117904663,-0.06976869702339172
-0.1586456298828125,-0.3853912353515625,-0.854095458984375,-0.604682445526123,0.3870915174484253,-0.07430539280176163
-0.116485595703125,-0.359375,-0.904510498046875,-0.5553974509239197,0.3417709171772003,-0.008049936965107918
-0.0630950927734375,-0.35406494140625,-0.9453887939453125,-0.39431774616241455,0.3571975529193878,0.06665386259555817
-0.0379180908203125,-0.3742218017578125,-0.9893646240234375,-0.18194769322872162,0.4723970890045166,0.11492179334163666
-0.040618896484375,-0.3939361572265625,-1.0268096923828125,-0.004518052563071251,0.6240787506103516,0.13182887434959412
-0.054107666015625,-0.39532470703125,-1.018035888671875,0.2934127151966095,1.1629273891448975,0.11310391873121262
-0.0612640380859375,-0.3865966796875,-0.956207275390625,0.3063037395477295,0.9403089284896851,0.10126297175884247
-0.0486602783203125,-0.4288177490234375,-0.9022674560546875,0.17720353603363037,0.5094467401504517,0.05573037266731262
0.0144805908203125,-0.417510986328125,-0.8875885009765625,-0.05091910809278488,0.03458567336201668,0.07953210920095444
0.0540618896484375,-0.4079437255859375,-0.878997802734375,-0.21939679980278015,-0.30676978826522827,0.04325532913208008
0.04827880859375,-0.4069976806640625,-0.873199462890625,-0.26676246523857117,-0.3936077356338501,0.05038034915924072
0.0120849609375,-0.4109344482421875,-0.883636474609375,-0.22512713074684143,-0.2376871258020401,0.04387238249182701
-0.0290374755859375,-0.42327880859375,-0.9026947021484375,-0.14298778772354126,-0.04250058904290199,0.012778645381331444
-0.051849365234375,-0.4284210205078125,-0.9250030517578125,-0.06598833948373795,0.02808995731174946,-0.013637514784932137
-0.0477447509765625,-0.4278564453125,-0.9477691650390625,-0.006095975637435913,-0.0007592672482132912,-0.023272300139069557
-0.0326080322265625,-0.4221954345703125,-0.9569091796875,0.02039581909775734,-0.03266899660229683,-0.013265471905469894
-0.0232086181640625,-0.4187469482421875,-0.953216552734375,0.027653731405735016,-0.04759787768125534,0.011322695761919022
-0.024444580078125,-0.4186553955078125,-0.9358062744140625,0.02123231813311577,-0.04922453686594963,-0.02382197603583336
-0.030609130859375,-0.4197998046875,-0.9139404296875,0.02213219925761223,-0.031921714544296265,-0.0036400086246430874
-0.03826904296875,-0.4188232421875,-0.8962860107421875,0.009063003584742546,-0.004452539142221212,-0.0023097596131265163
-0.053741455078125,-0.4158477783203125,-0.87646484375,-0.02322303131222725,0.049184057861566544,-0.013966416008770466
-0.064849853515625,-0.4119415283203125,-0.8584747314453125,-0.06993301212787628,0.08706672489643097,-0.027873443439602852
-0.070404052734375,-0.40777587890625,-0.8520660400390625,-0.11660517752170563,0.10571018606424332,-0.0324130654335022
-0.057891845703125,-0.4031524658203125,-0.8553314208984375,-0.12993083894252777,0.11882438510656357,-0.028921930119395256
-0.0417022705078125,-0.40484619140625,-0.876251220703125,-0.10296819359064102,0.1321313977241516,-0.018676215782761574
-0.0263824462890625,-0.4123992919921875,-0.908050537109375,-0.030727818608283997,0.14173822104930878,0.018210696056485176
-0.006011962890625,-0.4149932861328125,-0.9368896484375,0.06279121339321136,0.14701101183891296,0.06475236266851425
0.014801025390625,-0.418853759765625,-0.9552001953125,0.13163605332374573,0.16030898690223694,0.10919945687055588
0.01788330078125,-0.424560546875,-0.9518585205078125,0.16869474947452545,0.2051728516817093,0.1393570899963379
0.0007171630859375,-0.431243896484375,-0.937408447265625,0.17873752117156982,0.2821800112724304,0.1406513899564743
-0.0167694091796875,-0.434356689453125,-0.91748046875,0.17102687060832977,0.34973829984664917,0.12295521795749664
-0.0277557373046875,-0.428466796875,-0.88616943359375,0.14653325080871582,0.39378538727760315,0.09962033480405807
-0.030426025390625,-0.421844482421875,-0.8618316650390625,0.10858746618032455,0.4205549359321594,0.069121815264225
-0.0231170654296875,-0.42401123046875,-0.854095458984375,0.0673164576292038,0.4278796911239624,0.051542818546295166
-0.00787353515625,-0.432403564453125,-0.8612518310546875,0.037992388010025024,0.42500561475753784,0.0638388991355896
0.01123046875,-0.44580078125,-0.8759918212890625,0.012374910525977612,0.4207884967327118,0.09074721485376358
0.0279388427734375,-0.45965576171875,-0.8875732421875,-0.014780543744564056,0.39103248715400696,0.11371032148599625
0.0411529541015625,-0.466064453125,-0.8900146484375,-0.03784618154168129,0.3495819568634033,0.1269022822380066
0.0493927001953125,-0.4652099609375,-0.8856048583984375,-0.05109008029103279,0.3002711534500122,0.13016653060913086
0.0462493896484375,-0.458587646484375,-0.877716064453125,-0.05128209665417671,0.2640710473060608,0.13500761985778809
0.03814697265625,-0.454345703125,-0.874298095703125,-0.04379009082913399,0.25985899567604065,0.1346110701560974
0.0293121337890625,-0.4563751220703125,-0.8802032470703125,-0.021567875519394875,0.28327831625938416,0.1348920315504074
0.0222930908203125,-0.4582061767578125,-0.8845672607421875,-0.008888565935194492,0.31495633721351624,0.1333276927471161
0.0215911865234375,-0.45867919921875,-0.88726806640625,-0.020532971248030663,0.3228563368320465,0.12352246791124344
0.022216796875,-0.4609832763671875,-0.8857421875,-0.07024193555116653,0.2809200882911682,0.11218859255313873
0.027801513671875,-0.46881103515625,-0.8768157958984375,-0.1425779163837433,0.1901520937681198,0.10860930383205414
0.0425872802734375,-0.4840087890625,-0.874176025390625,-0.20361624658107758,0.087073914706707,0.09650789946317673
0.061004638671875,-0.4954833984375,-0.8802032470703125,-0.22901374101638794,0.0033910030033439398,0.10199134796857834
0.0696258544921875,-0.4962921142578125,-0.8894805908203125,-0.21414372324943542,-0.05413620546460152,0.1123017743229866
0.05389404296875,-0.49530029296875,-0.900482177734375,-0.1485671103000641,-0.07111731916666031,0.11348129063844681
0.0192108154296875,-0.4879913330078125,-0.9131317138671875,-0.046543266624212265,-0.0380251482129097,0.11433083564043045
-0.014495849609375,-0.4716339111328125,-0.915985107421875,0.057624947279691696,0.057805776596069336,0.115447498857975
-0.0330810546875,-0.4588623046875,-0.9074859619140625,0.1277177482843399,0.17389988899230957,0.09931353479623795
-0.0379180908203125,-0.46038818359375,-0.891632080078125,0.147419273853302,0.2625914216041565,0.08412739634513855
-0.0320587158203125,-0.46832275390625,-0.8749237060546875,0.12704236805438995,0.2906981408596039,0.07963703572750092
-0.0166015625,-0.4769287109375,-0.8607177734375,0.07154662162065506,0.26308488845825195,0.08294601738452911
-0.00201416015625,-0.48284912109375,-0.8517608642578125,-0.005571865476667881,0.19319236278533936,0.08823025971651077
0.0062713623046875,-0.486724853515625,-0.8537139892578125,-0.08529359102249146,0.1126977875828743,0.08361580222845078
0.00897216796875,-0.492156982421875,-0.8674163818359375,-0.1442011147737503,0.013553093187510967,0.06970824301242828
0.0064239501953125,-0.496917724609375,-0.8950347900390625,-0.16154655814170837,-0.09816491603851318,0.05944707989692688
0.0042724609375,-0.499298095703125,-0.9270477294921875,-0.13092951476573944,-0.1788797378540039,0.05167225003242493
0.0029754638671875,-0.4981231689453125,-0.95196533203125,-0.08823452144861221,-0.23041722178459167,0.04219086468219757
0.00408935546875,-0.4979248046875,-0.9551849365234375,-0.05017661675810814,-0.23011043667793274,0.0494501069188118
0.0103759765625,-0.50311279296875,-0.9409942626953125,-0.017047161236405373,-0.17137201130390167,0.09741896390914917
0.0231170654296875,-0.51580810546875,-0.92608642578125,-0.009181514382362366,-0.10468806326389313,0.14245648682117462
0.023193359375,-0.5312347412109375,-0.9079437255859375,-0.04605111479759216,-0.07341908663511276,0.16445764899253845
0.0097198486328125,-0.5313568115234375,-0.8867950439453125,-0.13124297559261322,-0.07191786915063858,0.1728130578994751
-0.0022125244140625,-0.5098876953125,-0.8771820068359375,-0.23176798224449158,-0.11103304475545883,0.16507017612457275
-0.0146331787109375,-0.47698974609375,-0.88482666015625,-0.3335358798503876,-0.19693569839000702,0.13946521282196045
-0.0330047607421875,-0.4477081298828125,-0.9009552001953125,-0.42776253819465637,-0.27626967430114746,0.10900744050741196
-0.050445556640625,-0.425567626953125,-0.9167327880859375,-0.5186666250228882,-0.30864810943603516,0.07004193216562271
-0.061065673828125,-0.4107666015625,-0.93231201171875,-0.5864496231079102,-0.3183950185775757,0.038660045713186264
-0.0640869140625,-0.3970794677734375,-0.9434967041015625,-0.6094042062759399,-0.2651832103729248,0.024764202535152435
-0.0482025146484375,-0.383331298828125,-0.961273193359375,-0.5702163577079773,-0.16666008532047272,0.031245004385709763
-0.0255889892578125,-0.3668060302734375,-0.984466552734375,-0.4737433195114136,-0.047999218106269836,0.05799539387226105
-0.005035400390625,-0.3456878662109375,-1.0142364501953125,-0.34006062150001526,0.06783018261194229,0.08267490565776825
0.0076141357421875,-0.324127197265625,-1.051239013671875,-0.18181374669075012,0.1548929065465927,0.10409338027238846
0.0110015869140625,-0.3086700439453125,-1.0949554443359375,-0.038478150963783264,0.19121655821800232,0.11311483383178711
0.0115203857421875,-0.303497314453125,-1.130706787109375,0.07705989480018616,0.19171404838562012,0.11166314780712128
0.014129638671875,-0.3012542724609375,-1.135833740234375,0.1840028613805771,0.15877872705459595,0.09358081966638565
0.022430419921875,-0.2992706298828125,-1.12408447265625,0.2780793011188507,0.14768825471401215,0.07603218406438828
0.040313720703125,-0.3042755126953125,-1.109832763671875,0.36963796615600586,0.19562888145446777,0.06365247815847397
0.051910400390625,-0.314056396484375,-1.0850677490234375,0.4720737934112549,0.2964729368686676,0.058211639523506165
0.0520477294921875,-0.3234710693359375,-1.05914306640625,0.5894283652305603,0.4194752871990204,0.06141382455825806
0.054229736328125,-0.32684326171875,-1.031036376953125,0.6991043090820312,0.531239926815033,0.07461485266685486
0.0597076416015625,-0.3255462646484375,-0.9996795654296875,0.7849390506744385,0.5999206900596619,0.09274405241012573
0.0662078857421875,-0.3271484375,-0.9730072021484375,0.8262534737586975,0.6139784455299377,0.10729929059743881
0.0823516845703125,-0.3272705078125,-0.953643798828125,0.8259631395339966,0.5608281493186951,0.13680525124073029
0.109649658203125,-0.3304290771484375,-0.9384307861328125,0.792971670627594,0.49271222949028015,0.15709827840328217
0.139251708984375,-0.3402252197265625,-0.92608642578125,0.7399520874023438,0.38242194056510925,0.19092415273189545
0.16943359375,-0.3404541015625,-0.910064697265625,0.6786373853683472,0.3231346607208252,0.22238513827323914
0.1909332275390625,-0.337799072265625,-0.895904541015625,0.6150913834571838,0.3311920464038849,0.2388746291399002
0.1947021484375,-0.3398590087890625,-0.8848419189453125,0.565236508846283,0.39257150888442993,0.24991795420646667
0.1899566650390625,-0.3418121337890625,-0.878692626953125,0.5289146900177002,0.470792293548584,0.25821158289909363
0.1866607666015625,-0.342559814453125,-0.8769378662109375,0.4991973042488098,0.5434255003929138,0.28175365924835205
0.187225341796875,-0.3387451171875,-0.873748779296875,0.46780288219451904,0.586686372756958,0.2969304621219635
0.1841583251953125,-0.32611083984375,-0.86090087890625,0.41211485862731934,0.5840397477149963,0.29083770513534546
0.182464599609375,-0.320068359375,-0.8423309326171875,0.3334418833255768,0.5604957938194275,0.27196574211120605
0.191436767578125,-0.320892333984375,-0.8341522216796875,0.24681511521339417,0.5135861039161682,0.27874934673309326
0.2057342529296875,-0.323516845703125,-0.83990478515625,0.16938503086566925,0.47704192996025085,0.294607937335968
0.2115325927734375,-0.32940673828125,-0.8596343994140625,0.08961830288171768,0.47441577911376953,0.2913040220737457
0.20404052734375,-0.3413848876953125,-0.8815155029296875,0.008857673965394497,0.5189496874809265,0.2637554705142975
0.201507568359375,-0.352630615234375,-0.89556884765625,-0.05404965206980705,0.5681073665618896,0.22835035622119904
0.2111358642578125,-0.35504150390625,-0.89935302734375,-0.06782005727291107,0.6002541184425354,0.1937529593706131
0.226715087890625,-0.350341796875,-0.88775634765625,-0.03759611025452614,0.623746931552887,0.1884537935256958
0.2659912109375,-0.3742218017578125,-0.7669830322265625,-0.01768791675567627,0.5817648768424988,0.188066303730011
0.290557861328125,-0.387298583984375,-0.8294830322265625,-0.004522580187767744,0.36800330877304077,0.14393560588359833
0.3002166748046875,-0.384124755859375,-0.873199462890625,-0.04096048325300217,-0.007487210910767317,0.07093702256679535
0.27740478515625,-0.399749755859375,-0.9070281982421875,-0.08726060390472412,-0.35881221294403076,0.015800533816218376
0.2330474853515625,-0.404388427734375,-0.9283905029296875,-0.10954087227582932,-0.5067675709724426,-0.03326448053121567
0.199249267578125,-0.407501220703125,-0.9051055908203125,-0.13121367990970612,-0.5237817168235779,-0.08530264347791672
