accX,accY,accZ,gyroX,gyroY,gyroZ
-0.7628883719444275,6.926233768463135,7.062463760375977,-0.14090043306350708,-0.05276130139827728,0.03759439289569855
-0.8234904408454895,6.8619160652160645,7.2606940269470215,-0.5006651282310486,0.028204521164298058,0.2615026831626892
-0.6639887094497681,6.412351608276367,7.239117622375488,-0.34515631198883057,-0.0673871636390686,0.12522737681865692
-0.6115748286247253,6.363653659820557,7.294346809387207,-0.20692624151706696,0.0818210318684578,0.20242328941822052
-0.35569217801094055,6.112837314605713,7.798824310302734,-0.026511551812291145,0.17015214264392853,0.21741566061973572
-0.5595153570175171,6.430729866027832,7.337059497833252,-0.11588986217975616,-0.0309621412307024,0.030403634533286095
-0.4594089686870575,6.397087574005127,7.429954528808594,-0.06544984877109528,0.012339477427303791,-0.009477137587964535
-0.6238235831260681,6.472092151641846,7.4949140548706055,0.054942965507507324,0.07435102760791779,-0.016441000625491142
-0.6888692378997803,6.525951862335205,7.17940616607666,0.06466444581747055,0.0636521577835083,-0.014957471750676632
-0.6804704070091248,6.59035587310791,7.023543834686279,0.0035604715812951326,0.06618288159370422,-0.0012391837080940604
-0.5183733701705933,6.452631950378418,7.248837947845459,-0.03623303398489952,0.0679805725812912,-0.03520328924059868
-0.7111353278160095,6.525262355804443,7.538220405578613,-0.014364060014486313,0.013281955383718014,-0.09316567331552505
-0.8947131633758545,6.681297302246094,7.383947372436523,0.012705996632575989,-0.0026354470755904913,-0.09829694032669067
-0.9820153117179871,6.814070224761963,7.258951187133789,0.01713913306593895,0.02640683203935623,-0.06290166825056076
-0.9752827882766724,6.7829742431640625,7.313175201416016,0.017296213656663895,0.03605850040912628,-0.04173082113265991
-0.7970201373100281,6.676939964294434,7.444032669067383,0.04078834503889084,0.020001472905278206,-0.039618972688913345
-0.8168824315071106,6.680531024932861,7.4432759284973145,0.045640360563993454,-0.02591813914477825,-0.08400269597768784
-0.9647483229637146,6.791325092315674,7.2193989753723145,0.03450515866279602,-0.060440752655267715,-0.08567821234464645
-1.0252546072006226,6.844572067260742,7.10624885559082,0.03104940801858902,-0.04490732029080391,-0.06230825558304787
-1.3102412223815918,6.745884418487549,7.0783610343933105,0.1454382836818695,-0.21615903079509735,-0.017680184915661812
-0.6702136397361755,6.950185298919678,6.52968692779541,-0.17647023499011993,0.25788983702659607,0.05604252219200134
-1.0138294696807861,6.546178340911865,8.289071083068848,-0.2001543641090393,-0.021694442257285118,0.003630284918472171
-0.9030928611755371,6.398696422576904,8.197564125061035,0.0018151424592360854,0.029199358075857162,0.05380849912762642
-0.6792829036712646,6.411921977996826,8.011458396911621,0.20671679079532623,0.11023499816656113,0.05775294452905655
-0.6812556982040405,6.441953659057617,7.635798454284668,0.2530902028083801,0.06274458765983582,0.031555552035570145
-0.7239203453063965,6.641122817993164,7.237115859985352,0.28298768401145935,0.08309512585401535,0.03865904361009598
-0.7185860872268677,6.482138156890869,7.144010066986084,0.2286730408668518,0.07677703350782394,0.011571533046662807
-0.7711532115936279,6.627810955047607,7.181436538696289,0.1595405489206314,-0.013875367119908333,-0.03256784379482269
-0.892941415309906,6.762259483337402,6.949563026428223,0.1664869636297226,0.0027576202992349863,-0.04478514939546585
-1.0277254581451416,6.994324684143066,7.210693359375,0.22544418275356293,0.10924015939235687,-0.0008552113431505859
-1.0036301612854004,7.04792594909668,7.11949348449707,0.3255388140678406,0.11557570099830627,-0.032358404248952866
-1.202961802482605,7.156566619873047,6.929144859313965,0.31815606355667114,0.07751007378101349,-0.04300491139292717
-1.1664454936981201,7.23615837097168,6.796717166900635,0.03289945796132088,-0.03012438304722309,-0.022532200440764427
-1.0487943887710571,7.241281986236572,6.713743686676025,0.016493361443281174,-0.025813419371843338,-0.0286583062261343
-1.0627573728561401,7.276342391967773,6.817356109619141,0.0547160729765892,0.0013613568153232336,-0.01136209350079298
-1.138883352279663,7.2300004959106445,6.839822292327881,0.11899654567241669,0.05403539165854454,0.029199358075857162
-1.0310198068618774,7.209506034851074,6.813878536224365,0.13381439447402954,0.055571284145116806,0.05489060655236244
-0.8593555688858032,7.113192081451416,6.597643852233887,0.07456046342849731,0.007016223389655352,0.0309621412307024
-0.9423194527626038,7.067885398864746,6.6363630294799805,0.006510077975690365,-0.019809486344456673,-0.012967796064913273
-1.119490385055542,7.079730987548828,6.729392051696777,0.017505653202533722,-0.016510814428329468,-0.01837831735610962
-1.1407126188278198,7.185927867889404,6.721692085266113,0.028536133468151093,-0.0026179938577115536,-0.0013613568153232336
-1.0149403810501099,7.235220909118652,6.730799674987793,0.006824237294495106,0.012723450548946857,0.004625122528523207
-0.9303388595581055,7.170289039611816,6.887207984924316,-0.015882495790719986,-0.03251548483967781,-0.0017802357906475663
-1.0328394174575806,7.1778740882873535,6.951909065246582,0.0035953782498836517,-0.03764675185084343,-0.0062831854447722435
-0.9477686285972595,7.075124263763428,6.746353626251221,0.0269304309040308,-0.013631021603941917,-0.0031939526088535786
-0.9971849918365479,7.11393928527832,6.824978351593018,0.0391651876270771,-0.004188789986073971,-0.018133969977498055
-1.1097028255462646,7.253722190856934,6.778003692626953,0.02347467839717865,-0.03127630054950714,-0.023352505639195442
-1.1615996360778809,7.376899242401123,6.6561198234558105,-0.022043507546186447,-0.05651376023888588,-0.0027576202992349863
-1.0512460470199585,7.293591499328613,6.764702796936035,-0.026633724570274353,-0.05593780055642128,0.017645278945565224
-0.9498947262763977,7.164485454559326,6.718502998352051,0.02316051907837391,-0.022427480667829514,0.011798425577580929
-1.0635713338851929,7.173928260803223,6.690213203430176,0.04872959107160568,0.005619960371404886,-0.0006457717972807586
-1.1034396886825562,7.212838649749756,6.627485275268555,0.03188716620206833,0.004188789986073971,0.016371188685297966
-1.0154287815093994,7.218967914581299,6.619019508361816,0.01785471849143505,0.0009075712296180427,0.021031217649579048
-0.9396570920944214,7.192488193511963,6.611875057220459,-0.03007202222943306,-0.01377064734697342,0.00808087456971407
-0.9615784287452698,7.2203850746154785,6.777524948120117,-0.04197516664862633,-0.02497566118836403,0.0044156829826533794
-0.9690674543380737,7.170720100402832,6.853009223937988,-0.019739674404263496,-0.02237512171268463,0.0007679448463022709
-0.9126505255699158,7.145236015319824,6.830178260803223,0.008115780539810658,-0.012234757654368877,-0.0012915435945615172
-0.9573454260826111,7.132882118225098,6.815908908843994,0.01869247667491436,-0.01096066739410162,-0.00923279207199812
-0.9747081995010376,7.25709342956543,6.672822952270508,0.0036128314677625895,-0.0385892279446125,0.02560397982597351
-0.9079770445823669,7.2132887840271,6.670724391937256,-0.013386675156652927,-0.016667895019054413,0.030805060639977455
-0.7458033561706543,7.046537399291992,6.786355018615723,0.015795229002833366,0.013439035043120384,0.012007865123450756
-0.8614912033081055,7.012558937072754,6.780943870544434,0.04769985005259514,0.021153390407562256,-0.02117084339261055
-0.8820621967315674,7.12064266204834,6.653629779815674,-0.0013089969288557768,0.020228365436196327,0.020525071769952774
-0.6993175745010376,7.023993968963623,6.785176753997803,0.00017453292093705386,0.019250981509685516,-0.025272367522120476
-1.0006134510040283,7.147027015686035,6.739850044250488,0.04864232614636421,0.04244640842080116,-0.07155849784612656
-1.1562461853027344,7.320424556732178,6.692961692810059,0.034400440752506256,0.044087015092372894,-0.04447098821401596
-0.27346569299697876,6.835713863372803,6.751782417297363,-0.22893483936786652,-0.15770794451236725,0.04686209186911583
-0.48567816615104675,6.874030590057373,6.977785587310791,-0.11501719802618027,-0.052778758108615875,0.02192133478820324
-0.5925648808479309,6.920209884643555,7.029452323913574,-0.03145083412528038,0.011728612706065178,0.03207915276288986
-0.6005040407180786,6.977977275848389,7.193637371063232,0.0950506329536438,0.06551966071128845,0.04590215906500816
-0.48128241300582886,7.019645690917969,7.077805995941162,0.05930628627538681,-0.02382374368607998,0.02275909297168255
-0.4153556823730469,7.055453777313232,6.871952533721924,-0.008028514683246613,-0.08597491681575775,-0.017662731930613518
-0.6522858738899231,7.313960075378418,6.529304027557373,0.05513495206832886,-0.07187265902757645,-0.030578168109059334
-0.9510822296142578,7.455315113067627,6.133752822875977,0.10346312075853348,0.3245963454246521,0.05705481395125389
-0.6030132174491882,7.049793720245361,7.4080810546875,-0.1298699527978897,-0.17652259767055511,-0.04459316283464432
-0.6145628094673157,7.372848033905029,6.7234063148498535,-0.20655971765518188,-0.1592612862586975,-0.06773623079061508
-0.8430367112159729,7.203376770019531,7.4187211990356445,0.006056292448192835,0.07799876481294632,0.011082841083407402
-0.6339079737663269,7.069665431976318,7.2428812980651855,0.0976337194442749,0.002827433403581381,0.044575709849596024
-0.6076962351799011,7.140227317810059,6.587368011474609,-0.00022689280740451068,-0.05777039751410484,-0.03817034885287285
-0.8089720010757446,7.320713043212891,6.622811794281006,0.03148574009537697,0.005305801052600145,-0.021048670634627342
-0.7667382955551147,7.359306335449219,6.634754180908203,0.014433872886002064,-0.0015882495790719986,0.00062831852119416
-0.705657422542572,7.188436985015869,6.797952175140381,-0.01104793418198824,-0.0009599310578778386,-0.00188495556358248
-0.7035121917724609,7.20320463180542,6.856188774108887,0.0004886921960860491,0.011571533046662807,0.01918116770684719
-0.6432070732116699,7.191549777984619,6.873944282531738,-0.02453932911157608,-0.00617846567183733,0.021135937422513962
-0.5608465075492859,7.186052322387695,6.904982566833496,-0.01186823844909668,-0.020786872133612633,0.01736602559685707
-0.5804502367973328,7.17013692855835,6.857654094696045,0.015777776017785072,-0.00094247778179124,0.0031415927223861217
-0.6482540369033813,7.139585971832275,6.8030853271484375,0.02586578018963337,0.0039618974551558495,-0.0044156829826533794
-0.666153073310852,7.127385139465332,6.808764457702637,0.002949606394395232,-0.02923426404595375,-0.005846852902323008
-0.5998911261558533,7.183246612548828,6.669000625610352,-0.0015533430268988013,-0.02356194518506527,-0.008499753661453724
-0.5148778557777405,7.135056018829346,6.806839466094971,-0.03237585723400116,-0.03637266159057617,-0.011571533046662807
-0.596012532711029,7.181101322174072,6.8092241287231445,-0.010070549324154854,-0.009721484035253525,-0.029478611424565315
-0.7082431316375732,7.219666957855225,6.861178398132324,0.014102260582149029,-0.0009599310578778386,-0.016057029366493225
-0.5986270308494568,7.219178676605225,6.799752712249756,0.01811651699244976,-0.0028448866214603186,0.0031066860537976027
-0.4783902168273926,7.177213191986084,6.709587097167969,0.004974188283085823,0.006422811653465033,-0.017819812521338463
-0.6783539056777954,7.198550224304199,6.738691329956055,-0.011938052251935005,0.001483529806137085,-0.0159872155636549
-0.6160280704498291,7.189720153808594,6.764414310455322,-0.0038920841179788113,-0.0025830871891230345,-0.014119713567197323
-0.7049965858459473,7.2634711265563965,6.750690937042236,-0.016510814428329468,0.004136430099606514,-0.01687733456492424
-0.7487817406654358,7.252535820007324,6.861034870147705,-0.017296213656663895,-0.003176499158143997,-0.009442231617867947
-0.7735761404037476,7.294193744659424,6.917164325714111,-0.00502654816955328,-0.03729768469929695,-0.0007504915702156723
-0.7331523895263672,7.311825752258301,6.69646692276001,-0.0021816615480929613,-0.02949606440961361,0.01326450239866972
-0.6446722745895386,7.2604546546936035,6.691391468048096,0.002286381321027875,0.01029744278639555,0.028675759211182594
-0.5840702652931213,7.186521530151367,6.794284343719482,-0.015882495790719986,-0.0006806784076616168,0.015376350842416286
-0.6261507272720337,7.193072319030762,6.856389999389648,-0.012897983193397522,0.002827433403581381,0.008447393774986267
-0.6357083916664124,7.146423816680908,6.919884204864502,0.016109388321638107,0.005951572675257921,0.01811651699244976
-0.553041398525238,7.099679470062256,6.819117069244385,0.020472712814807892,-0.015620696358382702,0.0184306763112545
-0.37290167808532715,6.98148250579834,6.719805717468262,0.008918632753193378,-0.010088003240525723,-0.013369222171604633
-0.6837360858917236,7.280039310455322,6.810019016265869,0.020978856831789017,0.004450589418411255,-0.06255260109901428
-0.8464747667312622,7.387031078338623,6.757365703582764,0.03511602431535721,0.02830924093723297,-0.03073524869978428
-0.6900088787078857,7.295697212219238,6.88237190246582,0.0006806784076616168,-0.016318827867507935,-0.009250245057046413
-0.6139498949050903,7.305437088012695,6.719451427459717,-0.03593632951378822,-0.027122415602207184,-0.02370157092809677
-0.638648509979248,7.088225364685059,6.95236873626709,0.02082177810370922,0.003525565145537257,-0.023352505639195442
-0.6808247566223145,7.166879653930664,6.951947212219238,0.057560957968235016,0.00823795422911644,-0.03701843321323395
-0.8204737305641174,7.2260260581970215,6.697616100311279,0.028012534603476524,-0.01794198527932167,-0.03728023171424866
-0.9542329907417297,7.595010757446289,5.198462963104248,-0.008482299745082855,-0.05035274848341942,-0.0038920841179788113
-0.550235390663147,7.258721351623535,6.5821967124938965,-0.13697344064712524,0.10937978327274323,0.05567600205540657
-0.6158365607261658,7.145820140838623,7.574881553649902,-0.12260937690734863,0.0023911010939627886,-0.07379251718521118
-1.0084664821624756,7.346128940582275,7.566778182983398,-0.01984439417719841,-0.011484266258776188,-0.0012217304902151227
-0.7714213132858276,7.083714485168457,7.517601490020752,0.07010987401008606,-0.0024085543118417263,0.04452335089445114
-0.5855642557144165,7.056641101837158,7.182317733764648,0.08463101834058762,-0.05504768341779709,0.024905849248170853
-0.5161898732185364,7.126111030578613,6.898719310760498,0.05544910952448845,-0.08836601674556732,0.00411897711455822
-0.5012692213058472,7.126168727874756,6.607326030731201,0.06876597553491592,-0.06857398897409439,-0.0017802357906475663
-0.6078782081604004,7.140294551849365,6.476717472076416,0.11962486803531647,0.0009599310578778386,-0.00890117883682251
-0.7308156490325928,7.552222728729248,4.742827415466309,0.10649999231100082,0.12950342893600464,-0.003490658476948738
-0.7377684116363525,7.201509475708008,6.302525043487549,-0.09594074636697769,0.10440559685230255,0.03752457723021507
-0.6338121891021729,7.200101852416992,7.125575065612793,-0.2667037546634674,-0.10119418799877167,-0.07860963046550751
-0.8020862936973572,7.25331974029541,7.294538497924805,-0.1558579057455063,0.0009075712296180427,-0.03787364438176155
-0.8821771144866943,7.139279365539551,7.655449867248535,0.02595304511487484,0.05801474303007126,0.004764748737215996
-0.7348570823669434,7.232432842254639,7.313663482666016,0.0794997438788414,0.017069319263100624,0.013229595497250557
-0.6682599782943726,7.293753147125244,7.073984622955322,0.02497566118836403,-0.04490732029080391,0.006911503616720438
-0.6299239993095398,7.213422775268555,6.842503547668457,0.00945968460291624,-0.08852309733629227,0.006230825558304787
-0.610846996307373,7.150886535644531,6.72704553604126,0.033684853464365005,-0.0613483227789402,0.0028972465079277754
-0.7512621283531189,7.171869277954102,6.546618461608887,0.1022413894534111,0.019320795312523842,0.010384708642959595
-0.7861887812614441,7.201183795928955,6.499989032745361,0.1082802265882492,0.0440695621073246,0.023544492200016975
-0.6716693043708801,7.195801734924316,6.4237961769104,0.053616516292095184,0.029618237167596817,0.02410299703478813
-0.6238427758216858,7.248091220855713,6.40378999710083,-0.041259583085775375,-0.0007679448463022709,0.00020943951676599681
-0.6695911288261414,7.185688495635986,6.721280574798584,-0.07506661117076874,-0.0018325956771150231,-0.003926991019397974
-0.656729519367218,7.151604652404785,6.925180435180664,-0.019233528524637222,0.015062191523611546,-0.009442231617867947
-0.7244088053703308,7.19933557510376,6.934757232666016,0.027646014466881752,0.04012512043118477,-0.0028448866214603186
-0.6882275938987732,7.170997619628906,6.959963321685791,0.006422811653465033,0.008133234456181526,0.0023561944253742695
-0.6186138391494751,7.216564178466797,6.846018314361572,-0.025132741779088974,-0.0247662216424942,-0.006440265104174614
-0.8054860234260559,7.395793914794922,6.849015712738037,-0.04703662171959877,-0.012828170321881771,0.04054399952292442
-0.7381227612495422,7.2682695388793945,6.930869102478027,-0.030176742002367973,-0.02981022372841835,0.04977678880095482
-0.6845309734344482,7.137115001678467,6.855815410614014,-0.03885103017091751,-0.06143558770418167,0.0408930629491806
-0.5943557620048523,7.0200958251953125,6.804359436035156,-0.03274237737059593,-0.0593411959707737,0.027576202526688576
-0.6387059688568115,6.953795909881592,6.981242656707764,-0.06037093698978424,-0.1800132542848587,-0.014224433340132236
-0.16004759073257446,7.094785690307617,6.847589015960693,-0.06262241303920746,-0.163013756275177,-0.040369465947151184
-0.5228170156478882,7.070230484008789,6.94612455368042,-0.01762782596051693,-0.13313370943069458,-0.07211700081825256
-0.6697539687156677,7.271468162536621,6.618685245513916,0.01904154196381569,-0.04858996719121933,-0.04907865822315216
-0.780040442943573,7.264746189117432,6.667363166809082,-0.049096111208200455,-0.04581489413976669,-0.020699605345726013
-0.7781729698181152,7.486476898193359,7.1770501136779785,-0.1123119369149208,-0.007016223389655352,-0.013526301831007004
-0.8973563313484192,7.374590873718262,7.405410289764404,0.0377340167760849,0.034487705677747726,0.0708603709936142
-0.5049179792404175,7.189768314361572,6.990972995758057,0.04761258140206337,-0.03666936606168747,0.023998277261853218
-0.5183637738227844,7.185842990875244,6.737245082855225,0.02658136375248432,-0.06218608096241951,0.041119955480098724
-0.4438849687576294,7.045694828033447,6.5867838859558105,0.03958406671881676,-0.02117084339261055,0.04064871743321419
-0.439546674489975,7.012807846069336,6.5485148429870605,0.03757693991065025,0.011170106939971447,0.01855284906923771
-0.4449671506881714,7.068401336669922,6.606023788452148,-0.005654866807162762,-0.0008901178953237832,-0.0013089969288557768
-0.45746487379074097,7.141636371612549,6.682034492492676,-0.03459242731332779,0.005497787147760391,-0.004921828396618366
-0.5080878734588623,7.1081929206848145,6.905921459197998,-0.03487167879939079,0.01235693134367466,-0.0018500490114092827
-0.5522944331169128,7.170835018157959,6.883616924285889,0.0224623866379261,0.011431906372308731,0.01251401100307703
-0.533993124961853,7.195677280426025,6.762585163116455,0.045553091913461685,0.02485348843038082,0.009477137587964535
-0.5179615616798401,7.169005870819092,6.67556095123291,0.012409291230142117,0.02237512171268463,0.01633628085255623
-0.47790178656578064,7.124166965484619,6.841986656188965,-0.029513517394661903,-0.003054326167330146,0.0020943949930369854
-0.5055117011070251,7.143234729766846,6.892571449279785,-0.024417156353592873,-0.00954695139080286,-0.005166174378246069
-0.518402099609375,7.16880464553833,6.964981555938721,0.009599311277270317,0.012130037881433964,0.004817108623683453
-0.5918753743171692,7.284455299377441,6.753631114959717,0.011588986031711102,0.023492131382226944,0.00874409917742014
-0.5252399444580078,7.203444004058838,6.811407566070557,-0.007016223389655352,0.008360126987099648,0.018186330795288086
-0.49193182587623596,7.159974575042725,6.820706844329834,-0.02892010472714901,-0.012758356519043446,0.006649704650044441
-0.5516144633293152,7.122241973876953,6.684974670410156,-0.07326892018318176,0.030595621094107628,0.004380776546895504
-0.4798554480075836,7.163039207458496,6.771194934844971,-0.11065387725830078,0.020717058330774307,0.0038746309000998735
-0.4861665666103363,7.188494682312012,6.766857624053955,-0.1215272769331932,0.024609142914414406,-0.006684611085802317
-0.5980236530303955,7.135170936584473,6.680214881896973,-0.13990558683872223,0.04412192478775978,-0.013002702966332436
-0.9139529466629028,7.2449212074279785,7.110281944274902,-0.10121164470911026,0.19491836428642273,0.09021607041358948
-0.6016149520874023,7.160989761352539,7.188906192779541,-0.00930260494351387,0.20895081758499146,0.12842132151126862
-0.5309094190597534,7.0043134689331055,7.3577070236206055,0.03047344833612442,0.1382300704717636,0.09279915690422058
-0.6061160564422607,7.061392307281494,7.153414726257324,0.02848377265036106,0.01771509274840355,-0.01595230959355831
-0.5720418095588684,7.086089611053467,7.20009183883667,0.06880088150501251,-0.012287117540836334,-0.05002113804221153
-0.8126303553581238,7.703429698944092,4.4355268478393555,-0.010663961991667747,0.014102260582149029,-0.035465091466903687
-0.5646293759346008,7.293666839599609,6.20011043548584,-0.1595929116010666,0.2993239760398865,0.06578145921230316
-0.3693103790283203,6.962654113769531,6.835847854614258,-0.05319763720035553,0.027122415602207184,-0.004188789986073971
-0.37477874755859375,6.866512775421143,7.035840034484863,-0.04948008432984352,0.021991148591041565,-0.036651913076639175
-0.5621201992034912,6.951430320739746,7.175460338592529,-0.05403539165854454,0.011885692365467548,-0.058259088546037674
-0.6381887793540955,7.029203414916992,7.330087661743164,-0.03490658476948738,-0.022828906774520874,-0.029600784182548523
-0.41970354318618774,7.0239458084106445,7.269639015197754,0.03663446009159088,0.0,-0.032707471400499344
-0.7354508638381958,7.0698089599609375,5.336445331573486,0.059498272836208344,0.029600784182548523,-0.03892084211111069
-0.6614221334457397,7.632791519165039,5.388993263244629,0.07330382615327835,0.22947588562965393,-0.00548033369705081
-0.773758053779602,7.020632266998291,7.454672336578369,-0.10812314599752426,-0.0746128261089325,0.0021118484437465668
-0.6268402934074402,7.361221790313721,7.1127610206604,-0.20991075038909912,-0.12884020805358887,-0.043423790484666824
-0.6844831109046936,7.311326503753662,7.283237934112549,-0.1224173903465271,-0.025900686159729958,-0.008360126987099648
-0.7457938194274902,7.065269947052002,7.591898441314697,0.061453044414520264,0.012095131911337376,0.04475024342536926
-0.44522571563720703,7.03519868850708,7.102084159851074,0.1391027420759201,0.022479841485619545,0.054192472249269485
-0.34266769886016846,6.983119964599609,6.856677532196045,0.07490953058004379,0.0006457717972807586,0.02954842336475849
-0.3281109631061554,6.909196376800537,6.7735795974731445,0.019966566935181618,-0.04384266957640648,0.010332348756492138
-0.33774521946907043,6.856983661651611,6.596561908721924,-0.025045474991202354,-0.06059783324599266,-0.03179989755153656
-0.600130558013916,6.955759048461914,6.688029766082764,0.0035953782498836517,0.008936085738241673,-0.044575709849596024
-0.746253490447998,7.159390449523926,6.740175724029541,0.008796459063887596,0.030351275578141212,-0.02790781483054161
-0.676859974861145,7.271324157714844,6.818686008453369,-0.011938052251935005,0.037227872759103775,-0.007051130291074514
-0.5715629458427429,7.170921325683594,7.0149149894714355,-0.03033382259309292,0.003054326167330146,-0.007627088576555252
-0.5921052098274231,7.142813205718994,7.002062797546387,-0.024469515308737755,-0.013089969754219055,-0.018395770341157913
-0.5965009927749634,7.064877033233643,6.9572062492370605,-0.00996582955121994,0.001117010717280209,0.0026179938577115536
-0.4992772340774536,6.987927436828613,7.014292240142822,-0.005916666239500046,0.0009599310578778386,-0.002548180753365159
-0.5756522417068481,7.069416522979736,6.989564895629883,0.0074525559321045876,0.007417649496346712,-0.012915436178445816
-0.5734496116638184,7.091491222381592,6.930744171142578,0.006318091880530119,0.005986479111015797,-0.012845623306930065
-0.6511749625205994,7.178055763244629,6.932314872741699,-0.01401499379426241,-0.020315632224082947,0.0010995573829859495
-0.49809926748275757,7.031559467315674,6.821348667144775,0.0005585053586401045,-0.00989601667970419,0.0028448866214603186
-0.503902792930603,6.977593898773193,6.7956061363220215,0.01516691129654646,0.02773328125476837,-0.0073303827084600925
-0.5246366262435913,6.964789867401123,6.814577579498291,-0.00724311638623476,0.027209682390093803,-0.021554816514253616
-0.5556750297546387,7.009226322174072,6.920592784881592,-0.024591689929366112,0.03358013555407524,-0.02768092229962349
-0.6133561134338379,7.065327167510986,7.076263904571533,-0.015428710728883743,0.013439035043120384,-0.03672172874212265
-0.6440306305885315,7.1704421043396,7.082651615142822,0.012007865123450756,0.009267698042094707,-0.03021164983510971
-0.674053966999054,7.188149929046631,6.950530052185059,0.020629791542887688,0.016231561079621315,-0.012740903533995152
-0.6454671621322632,7.096107006072998,6.895808219909668,0.016441000625491142,0.024347342550754547,0.003176499158143997
-0.6737570762634277,7.001392364501953,7.038215160369873,0.05572836101055145,0.06686356663703918,0.010070549324154854
-0.644183874130249,7.153912544250488,6.752309322357178,0.10967648774385452,0.09658651798963547,-0.0028448866214603186
-0.6702232360839844,7.117185592651367,6.869308948516846,0.13899801671504974,0.15454889833927155,0.027262043207883835
-0.6393954753875732,7.079720973968506,7.275040149688721,0.2539977729320526,0.21493729948997498,0.02370157092809677
-0.7143435478210449,7.138426780700684,7.277443885803223,0.32075661420822144,0.1416683793067932,-0.00038397242315113544
-0.7287757992744446,7.201873302459717,6.669383525848389,0.2750289738178253,0.08909905701875687,-0.05815437063574791
-0.8409585356712341,7.4009270668029785,6.5143256187438965,0.19493582844734192,0.01127482671290636,-0.05984733998775482
-0.748207151889801,7.41748571395874,6.417705059051514,0.09086184203624725,-0.07246606796979904,-0.06429792940616608
-0.8811236619949341,7.476545810699463,7.095532417297363,0.09068730473518372,0.012164944782853127,0.05892231687903404
-0.7063086032867432,7.349222183227539,6.840195655822754,0.0725882425904274,-0.05003859102725983,0.052202798426151276
-0.6741880178451538,7.383612155914307,6.504969120025635,0.03539527580142021,-0.06909758597612381,0.041748274117708206
-0.7757883667945862,7.340641498565674,6.309267044067383,0.013823007233440876,0.005829399451613426,0.008115780539810658
-0.7129932641983032,7.442327976226807,6.358166217803955,-0.02183406800031662,-0.008883725851774216,0.007016223389655352
-0.7317733764648438,7.219418048858643,6.83103084564209,-0.015341443940997124,0.003508111694827676,-0.014940018765628338
-0.7748211026191711,7.315837383270264,6.7739338874816895,0.0005061454721726477,-0.0016406094655394554,-0.0165631752461195
-0.8284703493118286,7.415800094604492,6.688958644866943,-0.02719222940504551,-0.04122467711567879,-0.01745329238474369
-0.7382568717002869,7.454634189605713,6.631363868713379,-0.0302465558052063,-0.053878314793109894,-0.0017627825727686286
-0.7057148814201355,7.447030067443848,6.512956142425537,-0.021467549726366997,-0.03499384969472885,-0.0037350046914070845
-0.7806533575057983,7.420808792114258,6.564316749572754,-0.0038397242315113544,0.0006806784076616168,0.023457225412130356
-0.7014340162277222,7.333918571472168,6.573567867279053,0.0,0.0004886921960860491,0.021694442257285118
-0.6774536967277527,7.364937782287598,6.5438032150268555,-0.07567747682332993,-0.04660028964281082,-0.015289084054529667
-0.7845415472984314,7.4427971839904785,6.4734039306640625,-0.1399753987789154,-0.07566002011299133,-0.0031415927223861217
-0.7142669558525085,7.366575241088867,6.592684268951416,-0.12714724242687225,-0.03937462717294693,0.02666863054037094
-0.5805842876434326,7.254660606384277,6.677131175994873,-0.06845181435346603,0.003403391921892762,0.024591689929366112
-0.7259697914123535,7.225987911224365,6.602298259735107,-0.1351059377193451,-0.04571017250418663,-0.026110125705599785
-0.6725407838821411,7.247928142547607,6.6689910888671875,-0.20041616261005402,-0.08197811245918274,-0.02679080329835415
-0.6846650242805481,7.331389904022217,6.763083457946777,-0.22071433067321777,-0.10705849528312683,-0.03796090930700302
-0.7492414712905884,7.3440985679626465,6.789017200469971,-0.17404423654079437,-0.08250171691179276,-0.02298598550260067
-0.8097668886184692,7.313031196594238,6.853574275970459,-0.09998991340398788,-0.033510319888591766,0.004921828396618366
-0.7210186123847961,7.22893762588501,6.771664142608643,-0.07307693362236023,-0.02028072625398636,0.02330014482140541
-0.6333908438682556,7.178055763244629,6.745844841003418,-0.15311773121356964,-0.06318091601133347,0.017243852838873863
-0.6147543787956238,7.038004398345947,7.087382793426514,-0.05145230516791344,-0.02342231757938862,0.011100294068455696
-0.6104064583778381,7.011228084564209,7.008938789367676,-0.01061160210520029,0.0005410520825535059,0.018797196447849274
-0.5794829726219177,7.014225482940674,7.010720252990723,0.012653636746108532,0.019774580374360085,0.0213104709982872
-0.5199248194694519,6.982468605041504,6.984039306640625,0.03211405873298645,0.022794000804424286,0.011746065691113472
-0.5247706770896912,7.02192497253418,6.93358850479126,-0.004014257341623306,-0.025272367522120476,-0.009564404375851154
-0.5779698491096497,7.083657264709473,6.886508941650391,-0.018675023689866066,-0.032358404248952866,-0.024347342550754547
-0.6823378801345825,7.182183265686035,6.848757266998291,0.002722713630646467,-0.006806783843785524,0.010175269097089767
-0.6616711020469666,7.137105464935303,6.844390392303467,-0.027872908860445023,-0.028850292786955833,0.007103490177541971
-0.6941843628883362,7.135410308837891,6.932161808013916,-0.022916173562407494,-0.020367993041872978,0.010768681764602661
-0.5758246183395386,7.054045677185059,6.893557548522949,0.0028797932900488377,-0.01417207345366478,0.020542524755001068
-0.6653199195861816,7.095609188079834,6.931414604187012,0.013526301831007004,-0.02560397982597351,0.0080634206533432
-0.6091327667236328,7.0730462074279785,6.960269451141357,-0.010855947621166706,-0.0587477833032608,0.029653143137693405
-0.5109034776687622,6.975688457489014,6.8387017250061035,-0.04066617041826248,-0.10183995962142944,0.019024088978767395
-0.5102139115333557,7.091194152832031,6.872938632965088,-0.10934487730264664,-0.09009389579296112,0.0005934119690209627
-0.3313000500202179,7.000072002410889,7.150417327880859,-0.12489575892686844,-0.14728833734989166,-0.007120943162590265
-0.38909608125686646,6.953958511352539,7.02768087387085,0.013997540809214115,-0.06058037653565407,-0.016423547640442848
-0.5029355883598328,6.9970927238464355,6.885178089141846,0.04590215906500816,-0.02007128670811653,-0.008691739290952682
-0.5152417421340942,7.074943542480469,6.722841262817383,-0.0005061454721726477,-0.02750638872385025,-0.018622662872076035
-0.5266094207763672,7.215816974639893,7.01140022277832,0.008360126987099648,-0.01780235767364502,0.005270894151180983
-0.49698835611343384,7.113000392913818,6.967634201049805,0.041661009192466736,0.001343903481028974,0.018971728160977364
-0.5052244067192078,7.089632987976074,6.842953681945801,0.00251327408477664,-0.02883283980190754,0.03487167879939079
-0.3348434567451477,6.911207675933838,6.900146484375,-0.03883357718586922,-0.058660514652729034,0.031433381140232086
-0.32519960403442383,6.796267032623291,7.247487545013428,-0.028850292786955833,-0.0990648865699768,-0.005777040030807257
-0.4367023706436157,6.835684776306152,7.28556489944458,-0.02860594540834427,-0.1854935884475708,-0.03822271153330803
-0.36788344383239746,6.9424662590026855,6.92592716217041,-0.054995324462652206,-0.20032888650894165,-0.04951499029994011
-0.3783987760543823,7.046623706817627,7.0746073722839355,-0.042411502450704575,-0.12632693350315094,-0.03422590717673302
-0.3558070957660675,7.253310203552246,2.511124849319458,0.12910200655460358,0.28958502411842346,-0.020298179239034653
-1.1568495035171509,7.424074172973633,5.590020179748535,0.20380209386348724,0.5982988476753235,0.1103048101067543
-0.5578106641769409,6.736258506774902,7.483737945556641,-0.32988467812538147,-0.20458748936653137,-0.010402162559330463
-0.1475115418434143,6.916082382202148,6.758764266967773,0.016022123396396637,-0.0044156829826533794,-0.017680184915661812
-0.40416038036346436,7.024922847747803,6.737666606903076,0.0126710906624794,0.021676989272236824,-0.025848325341939926
-0.5190437436103821,6.983129501342773,6.813486099243164,-0.026895523071289062,0.023143066093325615,-0.0032463124953210354
-0.3701435625553131,6.920497417449951,6.918677806854248,-0.04211479425430298,0.029164452105760574,0.00678933085873723
-0.4894610047340393,6.933339595794678,7.2387824058532715,0.01638864167034626,0.04928809776902199,-0.006824237294495106
-0.4472559988498688,6.925515651702881,7.1811394691467285,0.015498523600399494,0.04040437191724777,0.010698867961764336
-0.30832529067993164,6.911140441894531,7.1125311851501465,0.016441000625491142,0.026337018236517906,-0.00013962633966002613
-0.3742711842060089,6.931357383728027,7.008488655090332,0.03214896470308304,0.05333726108074188,-0.01745329238474369
-0.4784189462661743,6.980017185211182,7.013077259063721,-0.023369958624243736,0.00753982225432992,0.006963863503187895
-0.41799888014793396,6.980897903442383,7.012012958526611,-0.02715732343494892,0.012130037881433964,0.005270894151180983
-0.39453569054603577,6.977614402770996,7.125201225280762,0.0009599310578778386,0.03459242731332779,-0.0017278759041801095
-0.33345481753349304,6.839601993560791,7.182365417480469,0.029827676713466644,0.003909537568688393,-0.03134611248970032
-0.4805354177951813,6.945934295654297,7.047255992889404,0.04778711497783661,0.010489428415894508,-0.04054399952292442
-0.545360803604126,7.030898571014404,6.944334030151367,0.0015882495790719986,-0.013089969754219055,-0.02223549410700798
-0.5230564475059509,7.181005477905273,5.888749599456787,0.00923279207199812,0.015603243373334408,-0.02206096239387989
-0.4460780620574951,7.030965805053711,7.227730751037598,-0.06461209058761597,0.07285004109144211,0.00010471975838299841
-0.7300016283988953,7.181972503662109,7.63473653793335,-0.09834930300712585,-0.0757647454738617,-0.028501227498054504
-0.6172922253608704,7.047791957855225,7.405198574066162,-0.014294246211647987,-0.033719759434461594,0.014748032204806805
-0.518497884273529,7.041452407836914,7.3427863121032715,0.08326965570449829,1.7453292457503267e-05,0.03977605327963829
-0.36988499760627747,6.9322285652160645,6.856581687927246,-0.013386675156652927,-0.04726351425051689,0.04483750835061073
-0.31856289505958557,6.8677191734313965,6.883387088775635,-0.011641345918178558,-0.029565878212451935,0.02542944625020027
-0.3646368980407715,6.882477283477783,6.883635997772217,0.004136430099606514,-0.012147491797804832,0.008115780539810658
-0.3891918361186981,6.943366527557373,6.876367092132568,-0.007923794910311699,0.00020943951676599681,0.01507964450865984
-0.285561203956604,6.821156978607178,6.967164993286133,-0.05555383116006851,-0.00855211354792118,0.012618730776011944
-0.21303606033325195,6.726317882537842,7.179943561553955,-0.0357094369828701,-0.00020943951676599681,-0.03113667294383049
-0.31478962302207947,6.798670768737793,7.217473983764648,-0.002722713630646467,0.006352998316287994,-0.06173229590058327
-0.44831904768943787,6.878742218017578,7.154707431793213,0.007173303049057722,0.01226966455578804,-0.044540803879499435
-0.3793085813522339,6.907223701477051,7.103711128234863,0.0031066860537976027,0.005759586580097675,-0.043161991983652115
-0.4860899746417999,7.030515670776367,7.084193706512451,-0.005061454605311155,-0.0033335788175463676,-0.05028293654322624
-0.5899887084960938,7.150876998901367,7.0918169021606445,-0.012758356519043446,-0.007853982038795948,-0.02830924093723297
-0.5893757939338684,7.0732855796813965,7.167674541473389,0.0028448866214603186,-0.010419615544378757,-0.01045452244579792
-0.3999370038509369,6.858152389526367,6.4604082107543945,0.058939769864082336,0.07707373797893524,-0.0038397242315113544
-0.5120814442634583,7.083666801452637,7.177596092224121,-0.1411273181438446,-0.06731735169887543,-0.00808087456971407
-0.5161228179931641,6.909416675567627,7.675350666046143,0.01186823844909668,0.0012740903766825795,0.03799581900238991
-0.2984611690044403,6.8283586502075195,7.268336296081543,0.1157851442694664,-6.981316983001307e-05,0.015865042805671692
-0.4080294072628021,6.9400529861450195,6.964109897613525,0.09515535086393356,0.004502949304878712,-0.00017453292093705386
-0.44580990076065063,6.946574687957764,6.784449100494385,0.0142593402415514,-0.031084313988685608,0.011990412138402462
-0.3624534010887146,6.905825614929199,6.792848110198975,-0.0031241392716765404,-0.00062831852119416,0.01401499379426241
-0.385792076587677,6.924222469329834,6.938941955566406,0.010000736452639103,0.019303342327475548,0.0012740903766825795
-0.41635164618492126,6.9695305824279785,6.947216510772705,-0.0011868239380419254,0.007522369269281626,-0.008953538723289967
-0.43435606360435486,6.951104640960693,7.0092549324035645,-0.01647590845823288,0.016423547640442848,-0.008534659631550312
-0.4163037836551666,6.885254383087158,7.1400837898254395,-0.014433872886002064,0.0080634206533432,-0.013089969754219055
-0.4334845542907715,6.875064849853516,7.109601020812988,-0.014311700128018856,-0.010332348756492138,-0.020751964300870895
-0.46194684505462646,6.963497161865234,7.072768211364746,-0.009599311277270317,-0.00045378561480902135,-0.017069319263100624
-0.448682963848114,6.993041515350342,7.123151779174805,-0.0034382985904812813,0.0005934119690209627,-0.008970992639660835
-0.47453075647354126,7.0176920890808105,7.097428798675537,-0.0037350046914070845,-0.00783652812242508,-0.015568336471915245
-0.5154428482055664,7.0304388999938965,7.100435733795166,-0.0027052604127675295,-0.01160643994808197,-0.015097098425030708
-0.5653954744338989,7.04197883605957,7.078600883483887,-0.005288347601890564,-0.015306537039577961,-0.004171337001025677
-0.5274809002876282,7.047840118408203,7.100024223327637,-0.009599311277270317,-0.0270700566470623,0.012391837313771248
-0.46223413944244385,6.992811679840088,7.069253921508789,0.015306537039577961,-0.008534659631550312,0.024609142914414406
-0.4057980179786682,6.942657947540283,6.996882915496826,0.02684316411614418,0.002914699725806713,0.023509584367275238
-0.4007127285003662,6.896919250488281,6.988894939422607,-0.0025830871891230345,-0.015358896926045418,0.014817845076322556
-0.39632654190063477,6.9269232749938965,7.034624099731445,-0.014905111864209175,-0.019861847162246704,0.010943214409053326
-0.38801389932632446,6.915278911590576,7.0512590408325195,-0.0005410520825535059,0.0019547687843441963,0.017662731930613518
-0.2928300201892853,6.880130767822266,7.066897869110107,0.0019373154500499368,-0.015620696358382702,0.009110618382692337
-0.40414121747016907,6.852023124694824,7.083149433135986,-0.002286381321027875,-0.010000736452639103,-0.019338248297572136
-0.38309141993522644,6.913545608520508,7.069282531738281,-0.004310963209718466,-0.010995574295520782,-0.03160791099071503
-0.4607401490211487,7.038339614868164,7.157513618469238,0.0126710906624794,-0.0013788101496174932,-0.019058994948863983
-0.47113099694252014,7.053921222686768,7.101661682128906,0.03324852138757706,0.00047123889089562,-0.00921533815562725
-0.45696690678596497,6.984930038452148,7.046911239624023,0.03324852138757706,-0.010698867961764336,-0.0003490658418741077
-0.42220309376716614,6.947800636291504,6.968947410583496,0.026598818600177765,-0.014346606098115444,-0.006544984877109528
-0.46594035625457764,6.93841552734375,5.612765312194824,0.05700245499610901,0.12236503511667252,-0.011431906372308731
-0.8425578474998474,6.828559875488281,7.189634323120117,0.05766567960381508,0.13589133322238922,0.056356679648160934
-0.33173099160194397,7.001469135284424,6.943720817565918,-0.21361084282398224,-0.19196876883506775,-0.04646066576242447
-0.5630396008491516,7.09853982925415,7.463377475738525,-0.08688248693943024,0.0270700566470623,0.005393067374825478
-0.5105203986167908,6.871904373168945,7.685502052307129,0.10819295793771744,0.03202679008245468,0.052691489458084106
-0.21510465443134308,6.9685821533203125,6.931817054748535,0.11801916360855103,0.016685348004102707,0.02396337129175663
-0.331941694021225,6.96226167678833,6.777093887329102,0.0010122909443452954,-0.020472712814807892,0.007801621686667204
-0.37857115268707275,6.850720405578613,6.80640983581543,-0.05052728205919266,-0.0443488173186779,0.0020420351065695286
-0.41658151149749756,6.815257549285889,6.958641529083252,0.0368788056075573,0.043423790484666824,-0.005323254037648439
-0.5732580423355103,7.0475335121154785,6.860507965087891,0.060475658625364304,0.06024876609444618,-0.007400196045637131
-0.47816038131713867,7.146998405456543,6.790664196014404,-0.013631021603941917,0.03050835430622101,0.008011061698198318
-0.4355722963809967,6.94563627243042,7.170643329620361,-0.03202679008245468,0.011641345918178558,-0.008970992639660835
-0.43210551142692566,6.93604040145874,7.0795392990112305,0.019146261736750603,0.045640360563993454,0.0063355453312397
-0.3655754327774048,6.847167491912842,7.08957576751709,0.03728023171424866,0.058939769864082336,-0.010681414976716042
-0.45266690850257874,6.968055725097656,6.976205348968506,0.04907865822315216,0.06468190252780914,-0.02085668407380581
-0.5077143907546997,6.895923137664795,7.441370010375977,0.6784269213676453,0.45231953263282776,-0.011414453387260437
-0.291939377784729,6.876281261444092,6.946191787719727,0.8418770432472229,0.5463578701019287,-0.03338814899325371
-0.41242516040802,7.012099266052246,6.5574212074279785,0.7604225277900696,0.5583831667900085,-0.15414747595787048
-0.7037707567214966,7.40205717086792,6.19649076461792,0.5475272536277771,0.5009269714355469,-0.17929767072200775
-1.2881091833114624,7.742407321929932,6.782017707824707,0.2065248042345047,0.1034107580780983,-0.09168214350938797
-1.1712626218795776,7.706695556640625,6.580961227416992,0.22301816940307617,-0.0015358896926045418,-0.07082545757293701
-1.146018147468567,7.792561054229736,5.881174087524414,0.1639038622379303,-0.027611108496785164,-0.03822271153330803
-1.0330979824066162,7.6819586753845215,5.716510772705078,-0.033283427357673645,-0.10307914763689041,-0.02528982050716877
-1.065582513809204,7.575732707977295,6.038176536560059,-0.15083135664463043,-0.12863077223300934,-0.03330088034272194
-1.1438250541687012,7.549434661865234,6.538219928741455,-0.10564477741718292,-0.11362093687057495,-0.029426250606775284
-1.2295565605163574,7.641027450561523,6.6557464599609375,-0.03848451003432274,-0.09381144493818283,-0.03366740047931671
-1.017851710319519,7.612316131591797,6.102848529815674,0.0008203047327697277,-0.10510372370481491,0.012758356519043446
-0.8894459009170532,7.52937126159668,6.357898235321045,-0.10786134749650955,-0.16980308294296265,0.025900686159729958
-0.6022757887840271,7.4074201583862305,6.6159257888793945,-0.23699826002120972,-0.2950304448604584,-0.010524335317313671
-0.7925381660461426,7.42146110534668,6.469381809234619,-0.5757492184638977,-0.6471506357192993,-0.10131636261940002
-0.880692720413208,7.203444004058838,4.659069538116455,-0.48495718836784363,-0.6530149579048157,-0.08175121992826462
-0.7658188939094543,7.974071502685547,1.6832003593444824,1.8144093751907349,2.442396402359009,-0.005986479111015797
-4.0000691413879395,7.691497325897217,6.162435531616211,1.566275954246521,2.3924624919891357,0.6096958518028259
-4.177201747894287,8.121333122253418,5.3162970542907715,-0.46067965030670166,-0.12712977826595306,0.7458140850067139
0.6781432628631592,8.666482925415039,6.274168014526367,-2.7785990238189697,-1.8154041767120361,0.59690260887146
2.963178873062134,7.205244541168213,7.882890701293945,-2.9163928031921387,-1.2988566160202026,-0.062430426478385925
0.5477933287620544,5.125793933868408,11.066813468933105,-1.5943058729171753,-0.18739600479602814,-0.4414810240268707
-1.3565641641616821,6.192219257354736,11.276680946350098,-0.056583575904369354,-0.274854451417923,-0.1425759494304657
-0.9261155128479004,6.133695602416992,8.914532661437988,0.6028017997741699,-0.17114698886871338,0.008656833320856094
-0.5097638368606567,6.328094959259033,7.324131965637207,0.664918065071106,-0.2848202884197235,-0.002740166848525405
-0.30634286999702454,7.009839057922363,2.8833560943603516,1.9410853385925293,1.3783912658691406,0.03548254445195198
-1.3048973083496094,7.924222946166992,5.540201663970947,0.9522690773010254,0.6128548979759216,0.06400122493505478
-0.9551619291305542,8.090045928955078,5.942437171936035,-0.9947329759597778,-0.965952455997467,-0.13587388396263123
-0.4611998498439789,7.921761989593506,5.643660068511963,-1.4520615339279175,-1.0979342460632324,-0.13386675715446472
-0.49420151114463806,7.035313606262207,7.597588062286377,-1.157380223274231,-0.5545958280563354,-0.12306316196918488
-0.8190371990203857,6.901008605957031,8.628941535949707,-0.07529350370168686,-0.11756537854671478,-0.0200189258903265
-0.5318958163261414,7.086942195892334,7.591553688049316,0.6723706126213074,0.225845605134964,0.06466444581747055
-0.5374791026115417,7.135094165802002,6.856466770172119,0.709162175655365,0.2246762365102768,0.06895796209573746
-0.4820868670940399,7.186751365661621,5.925543785095215,0.41865211725234985,0.10114183276891708,0.08234463632106781
-0.2493225783109665,6.910585403442383,5.584321975708008,0.005340707488358021,-0.029949849471449852,0.028623400256037712
-0.4381101727485657,6.965287685394287,6.06606388092041,-0.3018023371696472,-0.10185741633176804,-0.05176646634936333
-0.535190224647522,7.1446614265441895,6.975008487701416,-0.2091078907251358,-0.020141098648309708,-0.044366270303726196
-0.6025343537330627,7.142889976501465,7.149660587310791,0.009843656793236732,0.07848745584487915,-0.02736676298081875
-0.5900653600692749,7.215692520141602,7.019425392150879,0.11597713083028793,0.12805481255054474,0.013875367119908333
-0.5002540349960327,7.087315559387207,6.859713077545166,-0.11430161446332932,-0.020559977740049362,-0.016441000625491142
-0.4054436683654785,6.98417329788208,7.098204612731934,-0.14482742547988892,-0.06894050538539886,-0.023090705275535583
-0.5728462338447571,6.937745094299316,7.1176934242248535,-0.08723155409097672,-0.03672172874212265,-0.05974261835217476
-0.7951622605323792,7.115758895874023,7.16057825088501,-0.00205948855727911,0.01377064734697342,-0.03741985931992531
-0.6189011335372925,7.105530738830566,6.99785852432251,0.019076447933912277,0.003996803890913725,-0.009581857360899448
-0.523487389087677,7.099075794219971,6.8458075523376465,-0.018849555402994156,-0.02542944625020027,-0.020228365436196327
-0.627845823764801,7.154181003570557,6.813352108001709,-0.0578925721347332,-0.03070034086704254,-0.024958208203315735
-0.5433496832847595,7.105329513549805,6.887246608734131,-0.07496189326047897,-0.01532399095594883,-0.026075219735503197
-0.5756235122680664,7.078131198883057,7.029251575469971,-0.06290166825056076,-0.013037609867751598,-0.018343409523367882
-0.5757097005844116,6.946384429931641,6.831614971160889,-0.10958922654390335,-0.053284902125597,-0.044313911348581314
-0.501728892326355,6.954169273376465,6.773090839385986,-0.19149751961231232,-0.07103490084409714,-0.037367500364780426
-0.3529340326786041,6.7513227462768555,6.959005355834961,-0.16690583527088165,-0.0457974411547184,-0.05391322076320648
-0.1725165843963623,6.61177921295166,7.058077812194824,-0.053127821534872055,0.04501204192638397,-0.11438887566328049
-0.4057597219944,6.698554515838623,7.047591209411621,0.07204718887805939,0.12426744401454926,-0.12768828868865967
-0.8491466641426086,7.059582233428955,6.803698539733887,0.023666664958000183,0.1422792375087738,-0.10423105955123901
-0.7321851849555969,6.985370635986328,6.922125339508057,-0.10911798477172852,0.08206538110971451,-0.07780677825212479
-0.7894065976142883,6.930150508880615,6.9508376121521,0.26745426654815674,0.041294489055871964,0.06621779501438141
-0.9681768417358398,8.053692817687988,4.094812393188477,0.06328564137220383,0.1970302164554596,0.10459758341312408
-0.5599175691604614,6.863630294799805,7.014062404632568,-0.25567328929901123,0.09498082101345062,0.05274384841322899
-0.9617699384689331,7.540375232696533,7.444884777069092,-0.12348204106092453,-0.06037093698978424,-0.04132939502596855
