accX,accY,accZ,gyroX,gyroY,gyroZ
0.05712890625,-0.3855743408203125,-0.97088623046875,0.29251787066459656,0.0202229805290699,0.02165789157152176
0.043365478515625,-0.4120635986328125,-0.9200439453125,0.21151039004325867,0.0985310971736908,0.0421767495572567
0.03662109375,-0.4300689697265625,-0.8835601806640625,0.08488399535417557,0.12241033464670181,0.06851167976856232
0.0439453125,-0.43121337890625,-0.87127685546875,-0.02876640111207962,0.07413787394762039,0.0937643051147461
0.0509185791015625,-0.428741455078125,-0.8797607421875,-0.11597666889429092,-0.0028184233233332634,0.10785109549760818
0.0442657470703125,-0.4279327392578125,-0.8964996337890625,-0.15766926109790802,-0.05501291900873184,0.11254385858774185
0.0316619873046875,-0.42791748046875,-0.917022705078125,-0.16581612825393677,-0.10565079748630524,0.10899385809898376
0.02374267578125,-0.4241790771484375,-0.93316650390625,-0.1577715277671814,-0.1465071439743042,0.09788767993450165
0.023651123046875,-0.417755126953125,-0.935455322265625,-0.1413818895816803,-0.18141666054725647,0.08099338412284851
0.0246429443359375,-0.410797119140625,-0.934173583984375,-0.13286909461021423,-0.20634011924266815,0.06189718842506409
0.0280914306640625,-0.4038848876953125,-0.9283447265625,-0.1231943666934967,-0.1974467635154724,0.05251460522413254
0.032684326171875,-0.4028472900390625,-0.9290924072265625,-0.11004980653524399,-0.17488180100917816,0.06220744922757149
0.035675048828125,-0.4040069580078125,-0.9247894287109375,-0.10565292835235596,-0.14313079416751862,0.08110444247722626
0.0358428955078125,-0.4049224853515625,-0.918426513671875,-0.11246529221534729,-0.1001572236418724,0.1087896004319191
0.0335693359375,-0.404083251953125,-0.913787841796875,-0.13017478585243225,-0.06439390033483505,0.12994813919067383
0.0281219482421875,-0.404876708984375,-0.910186767578125,-0.13739381730556488,-0.03573242947459221,0.1480320692062378
0.0187835693359375,-0.4038543701171875,-0.91534423828125,-0.12733958661556244,-0.021799305453896523,0.14738786220550537
0.0126190185546875,-0.3941650390625,-0.9216156005859375,-0.09282554686069489,-0.02027464471757412,0.14088894426822662
0.0121917724609375,-0.3824462890625,-0.93072509765625,-0.04411100223660469,-0.011301123537123203,0.142131045460701
0.0114593505859375,-0.3755645751953125,-0.9358062744140625,-0.0022740731947124004,0.011059309355914593,0.15004169940948486
0.007293701171875,-0.376495361328125,-0.93682861328125,0.0193710345774889,0.04765566810965538,0.16092097759246826
-0.000701904296875,-0.3810577392578125,-0.9326324462890625,0.026016419753432274,0.07704338431358337,0.15495683252811432
-0.008087158203125,-0.3883056640625,-0.926025390625,0.026463830843567848,0.10854325443506241,0.15177194774150848
-0.0128631591796875,-0.3863372802734375,-0.92144775390625,0.03729703649878502,0.15692836046218872,0.14747494459152222
-0.0126953125,-0.37615966796875,-0.9233551025390625,0.06499497592449188,0.2143879234790802,0.14664004743099213
-0.0176239013671875,-0.3687286376953125,-0.9248809814453125,0.11242001503705978,0.28693750500679016,0.1394532322883606
-0.02374267578125,-0.3626251220703125,-0.9332275390625,0.16794613003730774,0.335929811000824,0.119473397731781
-0.0306854248046875,-0.3555908203125,-0.9384765625,0.2104637622833252,0.3259512186050415,0.07642526924610138
-0.0379486083984375,-0.35137939453125,-0.9362945556640625,0.22771331667900085,0.28341707587242126,0.03503281995654106
-0.03857421875,-0.355865478515625,-0.929351806640625,0.19716553390026093,0.22271296381950378,0.013627128675580025
-0.027252197265625,-0.3724365234375,-0.913360595703125,0.11604644358158112,0.1346142739057541,0.013272661715745926
-0.0101776123046875,-0.38409423828125,-0.8928070068359375,0.0037798245903104544,0.020257867872714996,0.02858690358698368
0.0017547607421875,-0.391571044921875,-0.8779449462890625,-0.11233959347009659,-0.09260103851556778,0.044016458094120026
0.0032958984375,-0.402130126953125,-0.8739776611328125,-0.22037631273269653,-0.1611180454492569,0.04415654391050339
-0.002410888671875,-0.4080352783203125,-0.8802032470703125,-0.29307234287261963,-0.17845283448696136,0.03596971929073334
-0.00933837890625,-0.40594482421875,-0.8980865478515625,-0.32081955671310425,-0.15971136093139648,0.03788666054606438
-0.00848388671875,-0.3999481201171875,-0.9251708984375,-0.30224719643592834,-0.16331303119659424,0.029692381620407104
-0.0031890869140625,-0.3902435302734375,-0.95098876953125,-0.26583513617515564,-0.2009221911430359,0.025597238913178444
0.0058441162109375,-0.379913330078125,-0.9603271484375,-0.2301035076379776,-0.2338244765996933,0.029279058799147606
0.0175018310546875,-0.3764801025390625,-0.960906982421875,-0.20793801546096802,-0.261067271232605,0.03279949352145195
0.0230712890625,-0.3749847412109375,-0.9474945068359375,-0.2141202837228775,-0.27178943157196045,0.03181758522987366
0.0233001708984375,-0.374481201171875,-0.9220733642578125,-0.25021782517433167,-0.24634958803653717,0.03309350460767746
0.0215606689453125,-0.3756103515625,-0.8969879150390625,-0.3081285357475281,-0.1969365030527115,0.035051725804805756
0.0211029052734375,-0.37603759765625,-0.8832244873046875,-0.35958266258239746,-0.14451457560062408,0.03699130564928055
0.024566650390625,-0.377777099609375,-0.8878936767578125,-0.3891245722770691,-0.09413262456655502,0.05573410168290138
0.033233642578125,-0.3778228759765625,-0.9039459228515625,-0.3957502543926239,-0.05813414230942726,0.08720280975103378
0.037384033203125,-0.378204345703125,-0.920928955078125,-0.3849031925201416,-0.0481233187019825,0.12072908133268356
0.0391082763671875,-0.3787994384765625,-0.934722900390625,-0.376841276884079,-0.07538104057312012,0.14910559356212616
0.03656005859375,-0.375396728515625,-0.9375457763671875,-0.36908990144729614,-0.11978206038475037,0.15337491035461426
0.02978515625,-0.369598388671875,-0.9422454833984375,-0.34730949997901917,-0.16982817649841309,0.14747999608516693
0.0213470458984375,-0.36492919921875,-0.9467010498046875,-0.3187289834022522,-0.18100307881832123,0.14886245131492615
0.01275634765625,-0.3582611083984375,-0.943572998046875,-0.2972537875175476,-0.1410234272480011,0.14937616884708405
0.006439208984375,-0.3512115478515625,-0.939056396484375,-0.2781040668487549,-0.07622126489877701,0.1457848995923996
0.00140380859375,-0.34979248046875,-0.9345855712890625,-0.2697718143463135,-0.006680805701762438,0.15133492648601532
0.0012969970703125,-0.3476715087890625,-0.9351806640625,-0.2648257911205292,0.03831356763839722,0.16937598586082458
0.0042724609375,-0.3448486328125,-0.940765380859375,-0.24822019040584564,0.06544851511716843,0.19012945890426636
0.0048980712890625,-0.3444061279296875,-0.9546051025390625,-0.22397343814373016,0.06478272378444672,0.21258603036403656
-0.0021820068359375,-0.339508056640625,-0.9661407470703125,-0.19829924404621124,0.06258295476436615,0.22560995817184448
-0.0140380859375,-0.329986572265625,-0.972869873046875,-0.1607888787984848,0.05778633430600166,0.21830277144908905
-0.025177001953125,-0.3244171142578125,-0.978973388671875,-0.1120770052075386,0.025186846032738686,0.19713543355464935
-0.0355377197265625,-0.3211669921875,-0.98040771484375,-0.06821713596582413,0.007610781583935022,0.17746666073799133
-0.041473388671875,-0.3149566650390625,-0.9744873046875,-0.03563469275832176,0.01738964207470417,0.16819113492965698
-0.0404510498046875,-0.3101348876953125,-0.9652252197265625,-0.017522001639008522,0.042425487190485,0.15937075018882751
-0.044189453125,-0.3126373291015625,-0.9619903564453125,-0.0026431872975081205,0.056718405336141586,0.14692792296409607
-0.0468292236328125,-0.314666748046875,-0.9623260498046875,0.01224335003644228,0.07061398029327393,0.13874642550945282
-0.0451202392578125,-0.307220458984375,-0.9623565673828125,0.02257721498608589,0.1028779149055481,0.1342211812734604
-0.045989990234375,-0.30084228515625,-0.9598236083984375,0.03471536934375763,0.1362699568271637,0.12167023867368698
-0.0531005859375,-0.3038787841796875,-0.9629364013671875,0.04699254408478737,0.1417539417743683,0.10242970287799835
-0.0574493408203125,-0.3070526123046875,-0.9665985107421875,0.05934534966945648,0.13044056296348572,0.08248875290155411
-0.053466796875,-0.3039093017578125,-0.9672698974609375,0.0647137463092804,0.0968535766005516,0.058882225304841995
-0.0507354736328125,-0.2976837158203125,-0.960113525390625,0.04520156607031822,0.05101258307695389,0.026502180844545364
-0.0539093017578125,-0.2960968017578125,-0.9512939453125,0.031242074444890022,0.009681389667093754,-0.013056679628789425
-0.0541229248046875,-0.3010101318359375,-0.950897216796875,0.019043199717998505,-0.04542793706059456,-0.045994389802217484
-0.0517578125,-0.30181884765625,-0.9528045654296875,0.02947586588561535,-0.06256964057683945,-0.07172531634569168
-0.05145263671875,-0.3000946044921875,-0.9553985595703125,0.054968178272247314,-0.0277959443628788,-0.09405326098203659
-0.04486083984375,-0.30322265625,-0.9555206298828125,0.09027156978845596,0.04638587310910225,-0.10072847455739975
-0.0396575927734375,-0.3114166259765625,-0.95611572265625,0.13680818676948547,0.11223173141479492,-0.09200875461101532
-0.03448486328125,-0.32171630859375,-0.9657745361328125,0.18103715777397156,0.13693813979625702,-0.07768706977367401
-0.0254669189453125,-0.32476806640625,-0.9707794189453125,0.20550788938999176,0.11962280422449112,-0.07257033884525299
-0.0183258056640625,-0.320892333984375,-0.959747314453125,0.1957588493824005,0.0882534310221672,-0.06989838927984238
-0.0186614990234375,-0.3166046142578125,-0.944854736328125,0.1515711545944214,0.05558496341109276,-0.07605082541704178
-0.0206756591796875,-0.3152313232421875,-0.9273223876953125,0.08577429503202438,0.02033057250082493,-0.08954399824142456
-0.02484130859375,-0.3168487548828125,-0.9161529541015625,0.030967237427830696,-0.003802727675065398,-0.10271226614713669
-0.022003173828125,-0.32781982421875,-0.9263153076171875,0.004852812271565199,-0.03146151825785637,-0.10749796032905579
-0.0193328857421875,-0.33270263671875,-0.935150146484375,0.004037884995341301,-0.024717064574360847,-0.0933118388056755
-0.0146026611328125,-0.3336944580078125,-0.944580078125,0.01269928365945816,-0.014574148692190647,-0.0720057487487793
-0.0101470947265625,-0.3384552001953125,-0.9493865966796875,0.022072546184062958,-0.010923488065600395,-0.05277533084154129
-0.0067291259765625,-0.341461181640625,-0.9453887939453125,0.0187811441719532,0.0013962953817099333,-0.05302353575825691
-0.0072021484375,-0.3399505615234375,-0.93792724609375,0.022228872403502464,0.033678602427244186,-0.06018637493252754
-0.0109100341796875,-0.33172607421875,-0.9369049072265625,0.04814595729112625,0.09134668856859207,-0.0738862082362175
-0.0169830322265625,-0.32623291015625,-0.944000244140625,0.10258789360523224,0.1610080599784851,-0.09339546412229538
-0.0200347900390625,-0.3259735107421875,-0.9585418701171875,0.185056671500206,0.2062506377696991,-0.11306983232498169
-0.0151824951171875,-0.327728271484375,-0.970855712890625,0.26403990387916565,0.257586807012558,-0.11456918716430664
-0.0084381103515625,-0.3320770263671875,-0.9757080078125,0.3204576373100281,0.2973882853984833,-0.09570202231407166
0.008697509765625,-0.3413543701171875,-0.9706878662109375,0.32116442918777466,0.2945789098739624,-0.0733538419008255
0.0197296142578125,-0.351409912109375,-0.9550628662109375,0.2805011570453644,0.26686233282089233,-0.04716431722044945
0.0269775390625,-0.359588623046875,-0.94091796875,0.22162693738937378,0.21529100835323334,-0.04092905670404434
0.02716064453125,-0.3555450439453125,-0.9293212890625,0.1790618896484375,0.17679500579833984,-0.03386688604950905
0.0255889892578125,-0.3520355224609375,-0.932373046875,0.16892270743846893,0.16464300453662872,-0.038485605269670486
0.018096923828125,-0.352447509765625,-0.9475250244140625,0.18255622684955597,0.15454962849617004,-0.049904707819223404
0.010345458984375,-0.3527679443359375,-0.9554443359375,0.1939002275466919,0.14777961373329163,-0.0607091523706913
0.0086517333984375,-0.3545379638671875,-0.9571990966796875,0.1892029494047165,0.11964623630046844,-0.07838188856840134
0.0108184814453125,-0.3613433837890625,-0.9507598876953125,0.17260318994522095,0.0824943408370018,-0.09399919956922531
0.0138702392578125,-0.3648834228515625,-0.944580078125,0.14346368610858917,0.044377584010362625,-0.10497888177633286
0.0181427001953125,-0.367156982421875,-0.9332427978515625,0.11830879747867584,0.02256256714463234,-0.10786042362451553
0.0205078125,-0.3705291748046875,-0.928741455078125,0.09949436783790588,0.012033226899802685,-0.10927828401327133
0.0257110595703125,-0.372894287109375,-0.9290313720703125,0.09029527753591537,0.01840776950120926,-0.09693187475204468
0.028350830078125,-0.3721771240234375,-0.932891845703125,0.09600216150283813,0.02202221192419529,-0.08194892853498459
0.033721923828125,-0.3758087158203125,-0.9423370361328125,0.10727425664663315,-0.002543318783864379,-0.06433584541082382
0.0373382568359375,-0.3792572021484375,-0.95086669921875,0.10548381507396698,-0.034937478601932526,-0.05597511678934097
0.034210205078125,-0.378448486328125,-0.95513916015625,0.1660049557685852,-0.3902180790901184,-0.0597408264875412
0.0398406982421875,-0.374603271484375,-0.923828125,0.24541188776493073,-0.8438931703567505,-0.0998845174908638
0.1051177978515625,-0.360687255859375,-0.837615966796875,0.13460202515125275,-0.5267623662948608,0.02311490662395954
0.10845947265625,-0.32257080078125,-0.8167877197265625,0.029622606933116913,-0.23416189849376678,0.13677063584327698
-0.0070953369140625,-0.398956298828125,-0.802032470703125,-0.08527388423681259,0.061823684722185135,0.09430466592311859
-0.0998687744140625,-0.4326629638671875,-0.8388519287109375,-0.17072567343711853,0.26711106300354004,-0.027520308271050453
-0.1114349365234375,-0.4104461669921875,-0.8845672607421875,-0.22022664546966553,0.34299808740615845,-0.10913900285959244
-0.0545806884765625,-0.383636474609375,-0.9402313232421875,-0.22573858499526978,0.2011842429637909,-0.12534700334072113
0.009796142578125,-0.377349853515625,-0.9728851318359375,-0.1734788417816162,-0.012767992913722992,-0.0430193729698658
0.06292724609375,-0.3477783203125,-0.987945556640625,-0.11116992682218552,-0.06733323633670807,0.023685887455940247
0.058197021484375,-0.341461181640625,-0.99993896484375,-0.04589612036943436,-0.048339568078517914,0.007692806888371706
0.003082275390625,-0.38031005859375,-0.9871978759765625,0.007964449934661388,0.005546299275010824,-0.027602333575487137
-0.0104217529296875,-0.3977203369140625,-0.976806640625,0.05221047252416611,0.030299581587314606,-0.0205681249499321
0.014495849609375,-0.389984130859375,-0.9687652587890625,0.0795302465558052,0.004924184642732143,0.01113387756049633
0.03070068359375,-0.3853759765625,-0.9564208984375,0.07653765380382538,-0.02003549411892891,0.02197001315653324
0.0256805419921875,-0.3892364501953125,-0.94561767578125,0.05721268802881241,-0.0252800565212965,0.01798459328711033
0.017333984375,-0.3909454345703125,-0.9373931884765625,0.03897935524582863,-0.02153192274272442,0.01913800835609436
0.0187225341796875,-0.3833465576171875,-0.9342803955078125,0.020862670615315437,-0.03283544257283211,0.020414194092154503
0.019805908203125,-0.3742523193359375,-0.9344329833984375,0.008282696828246117,-0.060756292194128036,0.022649385035037994
0.016845703125,-0.371826171875,-0.934722900390625,-0.002513491315767169,-0.07852436602115631,0.020300477743148804
0.0139007568359375,-0.3731231689453125,-0.9343109130859375,-0.006143113598227501,-0.0838477611541748,0.024951688945293427
0.0142974853515625,-0.3736572265625,-0.9361419677734375,-0.008351140655577183,-0.10276233404874802,0.036257073283195496
0.013885498046875,-0.3718719482421875,-0.9337615966796875,-0.009610016830265522,-0.12372700124979019,0.03786615654826164
0.0113525390625,-0.3665924072265625,-0.93072509765625,-0.004539357963949442,-0.12583276629447937,0.04105449095368385
0.0042572021484375,-0.3617401123046875,-0.926361083984375,0.017121195793151855,-0.08114651590585709,0.03430977091193199
-0.0082244873046875,-0.360504150390625,-0.9274749755859375,0.04946289211511612,-0.04312589764595032,0.03031769208610058
-0.014617919921875,-0.3624267578125,-0.9347991943359375,0.08237530291080475,-0.023554328829050064,0.02689286693930626
-0.0167999267578125,-0.36395263671875,-0.937347412109375,0.10165818780660629,-0.0074605792760849,0.019475696608424187
-0.018310546875,-0.362091064453125,-0.932891845703125,0.0989644005894661,0.0019739349372684956,0.007949269376695156
-0.0221405029296875,-0.3621978759765625,-0.9240570068359375,0.08492820709943771,0.007488009985536337,-0.007681888062506914
-0.0249786376953125,-0.3664703369140625,-0.921905517578125,0.0665246993303299,-0.006858705077320337,-0.011060373857617378
-0.023712158203125,-0.3714447021484375,-0.9267120361328125,0.04503032565116882,-0.03269083425402641,-0.005337773822247982
-0.0196685791015625,-0.3697509765625,-0.92852783203125,0.02160569280385971,-0.05468961223959923,-0.0016498282784596086
-0.0187225341796875,-0.3662261962890625,-0.928070068359375,0.004735899157822132,-0.057142648845911026,-0.0014745922526344657
-0.02508544921875,-0.36419677734375,-0.9221343994140625,-0.012307532131671906,-0.04710492864251137,-0.011022823862731457
-0.03033447265625,-0.363922119140625,-0.9244232177734375,-0.025217205286026,-0.04875502362847328,-0.01464925054460764
-0.02984619140625,-0.360565185546875,-0.927093505859375,-0.02997494302690029,-0.05632186308503151,-0.02286243811249733
-0.026031494140625,-0.3553924560546875,-0.9301605224609375,-0.0369470976293087,-0.05113402381539345,-0.03568103164434433
-0.0257110595703125,-0.3521728515625,-0.9298553466796875,-0.03213023766875267,-0.026992201805114746,-0.04583060368895531
-0.025421142578125,-0.354644775390625,-0.9318389892578125,-0.01636086404323578,0.004993160720914602,-0.048828259110450745
-0.020965576171875,-0.357574462890625,-0.9384765625,0.008944492787122726,0.03164927288889885,-0.04722264036536217
-0.019989013671875,-0.357757568359375,-0.939361572265625,0.03695429116487503,0.07089041918516159,-0.045647379010915756
-0.0200958251953125,-0.3608551025390625,-0.9344024658203125,0.05488695204257965,0.10654961317777634,-0.043651606887578964
-0.0166473388671875,-0.3650360107421875,-0.9258575439453125,0.0568009652197361,0.13202008605003357,-0.039133552461862564
-0.01165771484375,-0.367095947265625,-0.915283203125,0.0459698885679245,0.14881157875061035,-0.02973232977092266
-0.004974365234375,-0.3684234619140625,-0.9056243896484375,0.01624714583158493,0.15848258137702942,-0.021456822752952576
0.00128173828125,-0.369354248046875,-0.8999786376953125,-0.00939137116074562,0.16632692515850067,-0.026155970990657806
0.0036773681640625,-0.3724517822265625,-0.904541015625,-0.019659455865621567,0.17784030735492706,-0.02352503314614296
0.003631591796875,-0.376800537109375,-0.9150543212890625,-0.01497974805533886,0.1856609433889389,-0.02587687037885189
0.004913330078125,-0.37994384765625,-0.927886962890625,0.0032314795535057783,0.18625855445861816,-0.02942340262234211
0.0077972412109375,-0.3796844482421875,-0.9353790283203125,0.029026059433817863,0.20268119871616364,-0.03194115310907364
0.010162353515625,-0.3771514892578125,-0.942840576171875,0.06956230103969574,0.2227177619934082,-0.025561818853020668
0.0119171142578125,-0.37890625,-0.9485321044921875,0.09715451300144196,0.24072898924350739,-0.014049505814909935
0.0173187255859375,-0.37823486328125,-0.94903564453125,0.11004368215799332,0.24640950560569763,0.00404614070430398
0.02789306640625,-0.37774658203125,-0.945465087890625,0.10360308736562729,0.23832601308822632,0.019754795357584953
0.0330352783203125,-0.3776092529296875,-0.9394683837890625,0.08599267154932022,0.20705944299697876,0.03284236788749695
0.0352783203125,-0.37890625,-0.93914794921875,0.07278791815042496,0.15863358974456787,0.040108803659677505
0.0381927490234375,-0.3748626708984375,-0.9421844482421875,0.06370574235916138,0.11358275264501572,0.0314660482108593
0.0365753173828125,-0.3675537109375,-0.942901611328125,0.0700126439332962,0.10286752879619598,0.022965503856539726
0.0290374755859375,-0.363067626953125,-0.9457244873046875,0.0806189477443695,0.10429871082305908,0.003626160090789199
0.0265350341796875,-0.3636474609375,-0.9488067626953125,0.09748554229736328,0.09546766430139542,-0.015658056363463402
0.026702880859375,-0.3629150390625,-0.9523468017578125,0.11252681165933609,0.07569848746061325,-0.030641797930002213
0.031982421875,-0.3651123046875,-0.9538116455078125,0.11635483801364899,0.047560062259435654,-0.039449937641620636
0.034881591796875,-0.3689422607421875,-0.9434356689453125,0.10266245901584625,0.016401343047618866,-0.04153759032487869
0.0359954833984375,-0.374542236328125,-0.9293670654296875,0.0752958208322525,0.0016586167039349675,-0.04860055819153786
0.0359344482421875,-0.3801422119140625,-0.9190826416015625,0.053712230175733566,-0.0029049760196357965,-0.04887726157903671
0.0362091064453125,-0.3866119384765625,-0.910858154296875,0.040427315980196,0.020194217562675476,-0.041373539716005325
0.0363616943359375,-0.39154052734375,-0.910064697265625,0.02562679909169674,0.03262611851096153,-0.0324157290160656
0.0348358154296875,-0.3982086181640625,-0.9130859375,0.0184682235121727,0.023359917104244232,-0.024104271084070206
0.03692626953125,-0.40045166015625,-0.9195098876953125,0.012716061435639858,0.0012543488992378116,-0.017248494550585747
0.0378875732421875,-0.400726318359375,-0.9242095947265625,0.020329507067799568,-0.0001685781026026234,-0.009777529165148735
0.0349273681640625,-0.403533935546875,-0.931976318359375,0.03699104115366936,-0.005846171174198389,-0.0002966761530842632
0.0296630859375,-0.4066009521484375,-0.939453125,0.054134875535964966,-0.013071860186755657,0.0073015885427594185
0.0273284912109375,-0.4031524658203125,-0.9394073486328125,0.06295926123857498,-0.008077100850641727,0.016818394884467125
0.027557373046875,-0.3981475830078125,-0.9377593994140625,0.12189554423093796,-0.2399798333644867,0.008204666897654533
0.0288238525390625,-0.395538330078125,-0.91912841796875,0.21143928170204163,-0.6139464974403381,-0.06254300475120544
0.056243896484375,-0.41241455078125,-0.8499755859375,0.10809637606143951,-0.238125741481781,0.007656055502593517
0.06842041015625,-0.405029296875,-0.8074951171875,0.0027148264925926924,0.0660163015127182,0.1494579315185547
0.0171051025390625,-0.4412994384765625,-0.7753753662109375,-0.07711955159902573,0.2942665219306946,0.20045240223407745
-0.0161590576171875,-0.415191650390625,-0.81695556640625,-0.11243227124214172,0.3626959025859833,0.1502411663532257
-0.0303955078125,-0.3660736083984375,-0.878326416015625,-0.1165151596069336,0.4065272808074951,0.07812942564487457
-0.0330963134765625,-0.34765625,-0.9528350830078125,-0.11275237798690796,0.3658086061477661,0.0011147991754114628
-0.0331268310546875,-0.365020751953125,-1.011016845703125,-0.08182429522275925,0.12904267013072968,-0.0641036182641983
-0.000885009765625,-0.368927001953125,-1.0258026123046875,-0.03352600336074829,-0.03899453580379486,-0.03361894562840462
0.0540618896484375,-0.3303985595703125,-1.0261688232421875,0.009861685335636139,-0.0693010464310646,-0.006055762059986591
0.0427093505859375,-0.3418426513671875,-1.0134735107421875,0.049061018973588943,-0.04897420108318329,-0.03627331927418709
0.002899169921875,-0.38372802734375,-0.9897308349609375,0.0724869817495346,-0.01997610554099083,-0.06771673262119293
0.00653076171875,-0.3941192626953125,-0.9661407470703125,0.07757255434989929,-0.01751720905303955,-0.062481220811605453
0.0309600830078125,-0.3884429931640625,-0.9447784423828125,0.06354089081287384,-0.036933783441782,-0.03952983394265175
0.038543701171875,-0.3934783935546875,-0.927703857421875,0.044911280274391174,-0.05193057656288147,-0.03183942288160324
0.0302581787109375,-0.40716552734375,-0.916778564453125,0.02220357209444046,-0.06048518046736717,-0.03353585675358772
0.028167724609375,-0.4119873046875,-0.908447265625,-0.0013723268639296293,-0.04749641194939613,-0.025621207430958748
0.0325775146484375,-0.405975341796875,-0.9018096923828125,-0.01182203833013773,-0.03363625705242157,-0.005858954507857561
0.0353851318359375,-0.4057769775390625,-0.9066619873046875,-0.013836720027029514,-0.04439116641879082,0.06570284813642502
0.032623291015625,-0.4073638916015625,-0.9137115478515625,-0.017611484974622726,-0.04458184912800789,0.03189534693956375
0.0291595458984375,-0.4034423828125,-0.9173431396484375,-0.021101290360093117,-0.03576412424445152,0.034747861325740814
0.02630615234375,-0.398101806640625,-0.917205810546875,-0.0205761156976223,-0.00914449617266655,0.03965633362531662
0.0198822021484375,-0.3954925537109375,-0.921661376953125,-0.009631055407226086,0.0035361452028155327,0.03876497223973274
0.017730712890625,-0.3939208984375,-0.92974853515625,0.005242166109383106,-0.004018443636596203,0.037471476942300797
0.016815185546875,-0.3911285400390625,-0.936004638671875,0.00890854001045227,-0.02099423110485077,0.03281653672456741
0.0182952880859375,-0.3875579833984375,-0.9364776611328125,0.006316485349088907,-0.040163930505514145,0.029134714975953102
0.01702880859375,-0.3844451904296875,-0.9337921142578125,-0.00021971078240312636,-0.061475079506635666,0.018244517967104912
0.0124969482421875,-0.3837432861328125,-0.9320831298828125,-0.007834487594664097,-0.07298898696899414,0.008056062273681164
0.009124755859375,-0.3849639892578125,-0.9311370849609375,-0.02322915568947792,-0.08802599459886551,-0.0006870955694466829
0.008697509765625,-0.3807373046875,-0.9276580810546875,-0.03640967234969139,-0.09515607357025146,-0.0028418591246008873
0.0138702392578125,-0.374481201171875,-0.9282379150390625,-0.042152248322963715,-0.09736436605453491,-0.009227054193615913
0.0135650634765625,-0.370086669921875,-0.930755615234375,-0.03009185567498207,-0.08559426665306091,-0.016653278842568398
0.0072479248046875,-0.3707733154296875,-0.9353179931640625,-0.003014165675267577,-0.07492164522409439,-0.021498100832104683
0.0077056884765625,-0.372222900390625,-0.9417724609375,0.02256815880537033,-0.08175691217184067,-0.022609438747167587
0.010406494140625,-0.3720703125,-0.9416656494140625,0.04361751675605774,-0.07997845858335495,-0.022108763456344604
0.011444091796875,-0.3731842041015625,-0.93597412109375,0.05687260255217552,-0.06601230800151825,-0.029382655397057533
0.0076446533203125,-0.3755035400390625,-0.9267730712890625,0.0555570013821125,-0.06819609552621841,-0.03963529318571091
0.005279541015625,-0.3780059814453125,-0.921630859375,0.0494125559926033,-0.07892624288797379,-0.04806419834494591
0.0055694580078125,-0.37933349609375,-0.9143218994140625,0.030525950714945793,-0.08691785484552383,-0.05391303449869156
0.00726318359375,-0.37860107421875,-0.91143798828125,0.005429120268672705,-0.10299669206142426,-0.058403387665748596
0.0092926025390625,-0.37786865234375,-0.9089202880859375,-0.020229903981089592,-0.1278487741947174,-0.058694470673799515
0.0101165771484375,-0.38116455078125,-0.90899658203125,-0.037224333733320236,-0.13041898608207703,-0.051181960850954056
0.0069580078125,-0.3858795166015625,-0.9122772216796875,-0.05220727622509003,-0.11551328003406525,-0.04427744820713997
0.00433349609375,-0.3880615234375,-0.916107177734375,-0.055141281336545944,-0.11629118770360947,-0.037705834954977036
0.0030059814453125,-0.3894500732421875,-0.921600341796875,-0.05131511762738228,-0.13373276591300964,-0.03229508921504021
0.0043487548828125,-0.3853759765625,-0.92315673828125,-0.04669453576207161,-0.13017292320728302,-0.02834668569266796
0.0019378662109375,-0.380157470703125,-0.921844482421875,-0.04649985581636429,-0.10641192644834518,-0.023689350113272667
-0.006622314453125,-0.379608154296875,-0.9183197021484375,-0.04081187769770622,-0.07125047594308853,-0.034213095903396606
-0.0146942138671875,-0.379364013671875,-0.919647216796875,-0.02803829312324524,-0.045582130551338196,-0.038897864520549774
-0.0191802978515625,-0.3799896240234375,-0.9258880615234375,-0.017355820164084435,-0.0315435454249382,-0.040884051471948624
-0.017913818359375,-0.37811279296875,-0.929412841796875,-0.008136489428579807,-0.028624454513192177,-0.037221938371658325
-0.013519287109375,-0.3787384033203125,-0.929718017578125,-0.003312173532322049,-0.019165439531207085,-0.04393443465232849
-0.014129638671875,-0.378631591796875,-0.92987060546875,0.005387042183429003,-0.011152519844472408,-0.04625457897782326
-0.0159759521484375,-0.3780670166015625,-0.9303131103515625,0.005585181526839733,-0.010628143325448036,-0.050162237137556076
-0.0125885009765625,-0.3776702880859375,-0.9320068359375,-0.003403786104172468,-0.023565247654914856,-0.04468943923711777
-0.0067901611328125,-0.3779296875,-0.9329376220703125,-0.007262174040079117,-0.03319497033953667,-0.044249486178159714
-0.005218505859375,-0.380218505859375,-0.9330596923828125,-0.00987207144498825,-0.02744893543422222,-0.04619599133729935
-0.00653076171875,-0.381317138671875,-0.932769775390625,-0.0036453348584473133,-0.021341774612665176,-0.04838457703590393
-0.00433349609375,-0.38201904296875,-0.9341278076171875,-0.0004141215467825532,-0.01949061080813408,-0.04754061996936798
-0.0001220703125,-0.381256103515625,-0.9350738525390625,0.010422014631330967,-0.014741395600140095,-0.04842505604028702
0.005126953125,-0.3799285888671875,-0.9333343505859375,0.01630626805126667,-0.008420382626354694,-0.047499075531959534
0.0086212158203125,-0.381103515625,-0.9342498779296875,0.01967383548617363,-0.014914500527083874,-0.04668761044740677
0.0107421875,-0.3820037841796875,-0.9370880126953125,0.032220788300037384,-0.03742247447371483,-0.04892679676413536
0.0119781494140625,-0.3829345703125,-0.9358062744140625,0.03623310476541519,-0.04132933169603348,-0.046609312295913696
0.017333984375,-0.379913330078125,-0.929046630859375,0.0466519258916378,-0.020184097811579704,-0.044627655297517776
0.019073486328125,-0.380615234375,-0.91949462890625,0.047856204211711884,0.01992443948984146,-0.035713788121938705
0.0185089111328125,-0.3852996826171875,-0.91717529296875,0.050156645476818085,0.03663071617484093,-0.026820162311196327
0.020355224609375,-0.3877716064453125,-0.9192657470703125,0.04390780255198479,0.035290345549583435,-0.015898272395133972
0.025390625,-0.3859710693359375,-0.9229736328125,0.02845454402267933,0.01636832021176815,-0.008126369677484035
0.0240936279296875,-0.38592529296875,-0.92498779296875,0.003680222202092409,-0.010481403209269047,-0.005008340813219547
0.0200347900390625,-0.3887939453125,-0.9273681640625,-0.02996482327580452,-0.059848152101039886,0.0006322344415821135
0.01690673828125,-0.3884735107421875,-0.9300537109375,-0.06616730242967606,-0.11417024582624435,-0.0013235911028459668
0.0140228271484375,-0.384063720703125,-0.933074951171875,-0.08638548851013184,-0.16196893155574799,-0.009383114986121655
0.0113372802734375,-0.3821563720703125,-0.9394378662109375,-0.09061884880065918,-0.2015720009803772,-0.012586365453898907
0.0098724365234375,-0.3815460205078125,-0.9407196044921875,0.0883607566356659,-0.15917660295963287,-0.01894279755651951
0.020660400390625,-0.4164581298828125,-0.884124755859375,0.2161530703306198,0.2466300129890442,0.060559485107660294
0.0387115478515625,-0.4131011962890625,-0.84967041015625,0.22348475456237793,0.45096585154533386,0.17987708747386932
0.0128631591796875,-0.3870086669921875,-0.8560943603515625,0.11606535315513611,0.28523334860801697,0.16244377195835114
-0.0238800048828125,-0.39837646484375,-0.87603759765625,-0.09190675616264343,-0.010872354730963707,0.07593338191509247
-0.033172607421875,-0.3852081298828125,-0.89080810546875,-0.3089229464530945,-0.2812367379665375,0.00996075477451086
-0.0193328857421875,-0.3713531494140625,-0.897247314453125,-0.4361381530761719,-0.3684861361980438,-0.005541771650314331
-0.0082550048828125,-0.3575439453125,-0.9182281494140625,-0.4365866482257843,-0.32154420018196106,-0.009318133816123009
-0.012054443359375,-0.3501434326171875,-0.95233154296875,-0.35461747646331787,-0.25137364864349365,-0.02720312587916851
-0.0241851806640625,-0.3628997802734375,-0.97772216796875,-0.2146364003419876,-0.1437281370162964,-0.03688531368970871
-0.0233154296875,-0.373199462890625,-0.9999542236328125,-0.07637359946966171,-0.06991729885339737,-0.018877817317843437
-0.01519775390625,-0.373931884765625,-1.0048065185546875,0.05218304321169853,-0.015095596201717854,0.005662412848323584
-0.004638671875,-0.376434326171875,-0.994903564453125,0.14863234758377075,0.024585770443081856,0.0249082800000906
-0.0074920654296875,-0.3831634521484375,-0.9748077392578125,0.18915128707885742,0.06060182675719261,0.04094024375081062
-0.015045166015625,-0.3814849853515625,-0.9496917724609375,0.17214486002922058,0.0715215876698494,0.029135514050722122
-0.0217742919921875,-0.3790283203125,-0.92864990234375,0.11898896843194962,0.03636280074715614,0.03464639559388161
-0.025054931640625,-0.37603759765625,-0.91436767578125,0.04999525472521782,-0.028861742466688156,0.0115559883415699
-0.0281524658203125,-0.37591552734375,-0.9106292724609375,-0.024353276938199997,-0.08595965057611465,0.0031486554071307182
-0.0269317626953125,-0.37469482421875,-0.9097442626953125,-0.07600794732570648,-0.12911644577980042,-0.007665643002837896
-0.026397705078125,-0.3753204345703125,-0.91461181640625,-0.10193808376789093,-0.14468155801296234,-0.012982644140720367
-0.0245819091796875,-0.3781280517578125,-0.9226837158203125,-0.09686210006475449,-0.13115854561328888,-0.016570454463362694
-0.02288818359375,-0.376922607421875,-0.930511474609375,-0.06215391680598259,-0.08729469031095505,-0.006886934395879507
-0.022552490234375,-0.3806915283203125,-0.939239501953125,-0.02159743756055832,-0.034453313797712326,0.008785502053797245
-0.0213775634765625,-0.3838348388671875,-0.94927978515625,0.018224012106657028,-0.002038117265328765,0.023135678842663765
-0.0185699462890625,-0.3845672607421875,-0.9539947509765625,0.0477835014462471,0.007202252745628357,0.039990559220314026
-0.01641845703125,-0.381439208984375,-0.9483489990234375,0.05168609693646431,0.005948969163000584,0.04723169282078743
-0.0196533203125,-0.37872314453125,-0.939605712890625,0.039567649364471436,-0.00974264182150364,0.043720316141843796
-0.025726318359375,-0.37677001953125,-0.932952880859375,0.012743491679430008,-0.034148916602134705,0.04074183851480484
-0.0280609130859375,-0.3726654052734375,-0.927459716796875,-0.013965616934001446,-0.06545863300561905,0.032293226569890976
-0.0312652587890625,-0.368682861328125,-0.9256134033203125,-0.040109068155288696,-0.09097864478826523,0.02172074094414711
-0.0348358154296875,-0.3673553466796875,-0.9264068603515625,-0.05444326624274254,-0.11046312749385834,0.010394584387540817
-0.0362396240234375,-0.3668670654296875,-0.92877197265625,-0.05651094764471054,-0.12673823535442352,0.003489273600280285
-0.0345001220703125,-0.363494873046875,-0.932037353515625,-0.05258225277066231,-0.1228332445025444,-0.0022567627020180225
-0.0329437255859375,-0.359619140625,-0.9338836669921875,-0.041253428906202316,-0.10223555564880371,-0.009839314967393875
-0.0373077392578125,-0.358673095703125,-0.9378814697265625,-0.01655314303934574,-0.07902371138334274,-0.016289757564663887
-0.0417633056640625,-0.36199951171875,-0.94970703125,0.012309130281209946,-0.08099764585494995,-0.022910375148057938
-0.040985107421875,-0.3624725341796875,-0.959564208984375,0.04031626507639885,-0.09106945246458054,-0.025592444464564323
-0.0426025390625,-0.3600616455078125,-0.9632110595703125,0.06156456097960472,-0.10818745940923691,-0.04494723305106163
-0.04632568359375,-0.357940673828125,-0.9582977294921875,0.06689833849668503,-0.12104865908622742,-0.06078984588384628
-0.046875,-0.3580780029296875,-0.947509765625,0.21669821441173553,0.17766720056533813,-0.06522667407989502
-0.03619384765625,-0.3917694091796875,-0.8975982666015625,0.38715437054634094,0.48234933614730835,-0.011713913641870022
-0.023468017578125,-0.406097412109375,-0.841278076171875,0.39414623379707336,0.44190043210983276,0.04110349342226982
-0.0178375244140625,-0.363037109375,-0.85833740234375,0.22874397039413452,0.14958177506923676,0.015733156353235245
-0.0334014892578125,-0.375579833984375,-0.87060546875,-0.06101648136973381,-0.18820984661579132,-0.038493864238262177
-0.0472564697265625,-0.389617919921875,-0.863189697265625,-0.3375985324382782,-0.3837828040122986,-0.060623399913311005
-0.0403900146484375,-0.3807830810546875,-0.8577423095703125,-0.4834042191505432,-0.4013170599937439,-0.07771370559930801
-0.036529541015625,-0.3577880859375,-0.877685546875,-0.48547855019569397,-0.3339148461818695,-0.09928051382303238
-0.0395660400390625,-0.3495941162109375,-0.92132568359375,-0.390584260225296,-0.2484273910522461,-0.10908600687980652
-0.03656005859375,-0.357879638671875,-0.96417236328125,-0.2559172511100769,-0.16999755799770355,-0.10418259352445602
-0.0301361083984375,-0.365966796875,-0.99273681640625,-0.11084209382534027,-0.09233445674180984,-0.07647852599620819
-0.023651123046875,-0.3690643310546875,-1.0010223388671875,0.02616795524954796,-0.013707024045288563,-0.05543742701411247
-0.0160369873046875,-0.36865234375,-0.991912841796875,0.13087493181228638,0.06825335323810577,-0.02046719193458557
-0.0180511474609375,-0.3703765869140625,-0.97406005859375,0.18693313002586365,0.12432381510734558,0.05007248744368553
-0.0280914306640625,-0.370147705078125,-0.9540252685546875,0.18042969703674316,0.1393405795097351,0.009404154494404793
-0.0352325439453125,-0.370025634765625,-0.9323883056640625,0.11439981311559677,0.09616408497095108,-0.009735718369483948
-0.0373992919921875,-0.3720703125,-0.9159088134765625,0.02474369667470455,0.0231119766831398,-0.02419881336390972
-0.0348052978515625,-0.3744049072265625,-0.9094085693359375,-0.06701365113258362,-0.052618205547332764,-0.031206388026475906
-0.02728271484375,-0.375946044921875,-0.913665771484375,-0.1358313411474228,-0.10980186611413956,-0.03321893885731697
-0.026947021484375,-0.3771820068359375,-0.9254302978515625,-0.1486656367778778,-0.13292182981967926,-0.03586319088935852
-0.030853271484375,-0.3795623779296875,-0.9417724609375,-0.1172264888882637,-0.12459225952625275,-0.02750459499657154
-0.029754638671875,-0.379058837890625,-0.9551239013671875,-0.06277523189783096,-0.08583581447601318,-0.010655307210981846
-0.0234222412109375,-0.37353515625,-0.96112060546875,-0.0033955303952097893,-0.03134433925151825,0.009302954189479351
-0.02142333984375,-0.370208740234375,-0.962005615234375,0.057141050696372986,0.016801083460450172,0.02683853916823864
-0.024749755859375,-0.370849609375,-0.9601287841796875,0.10004111379384995,0.04213679954409599,0.040440633893013
-0.026214599609375,-0.3682861328125,-0.9548187255859375,0.11632474511861801,0.05458681285381317,0.04481327906250954
-0.0293426513671875,-0.3618621826171875,-0.9420928955078125,0.1100977435708046,0.05405604466795921,0.03629222884774208
-0.033172607421875,-0.358642578125,-0.9291229248046875,0.0888313353061676,0.03821343183517456,0.025316808372735977
-0.0366668701171875,-0.361419677734375,-0.9221649169921875,0.05459480360150337,0.010899785906076431,0.012892362661659718
-0.0380859375,-0.3626251220703125,-0.9162750244140625,0.010899253189563751,-0.017416806891560555,0.011174890212714672
-0.0364837646484375,-0.3642730712890625,-0.91412353515625,-0.026552515104413033,-0.045462824404239655,0.002095375210046768
-0.039825439453125,-0.366180419921875,-0.9129486083984375,-0.05275482311844826,-0.06017439067363739,-0.003953462466597557
-0.0411834716796875,-0.3668060302734375,-0.9157257080078125,-0.05691734328866005,-0.06929944455623627,-0.005312739871442318
-0.0423583984375,-0.364532470703125,-0.922119140625,-0.04674886167049408,-0.06403304636478424,-0.005123123060911894
-0.043243408203125,-0.36236572265625,-0.92901611328125,-0.025800971314311028,-0.04393390193581581,-0.005259742960333824
-0.0480804443359375,-0.363128662109375,-0.932037353515625,-0.00123783724848181,-0.012680907733738422,-0.008685367181897163
-0.052215576171875,-0.3636474609375,-0.93267822265625,0.02624385431408882,0.0051897019147872925,-0.015671104192733765
-0.0533599853515625,-0.36614990234375,-0.93316650390625,0.03762087970972061,0.013266270980238914,-0.020268253982067108
-0.051544189453125,-0.3687286376953125,-0.93353271484375,0.029695577919483185,0.003862116253003478,-0.019646672531962395
-0.05096435546875,-0.3704986572265625,-0.9316864013671875,0.01164786797016859,-0.008525577373802662,-0.02063789963722229
-0.049652099609375,-0.3728179931640625,-0.933868408203125,-0.014629542827606201,-0.03930932283401489,-0.01507109496742487
-0.0449371337890625,-0.374114990234375,-0.9387054443359375,-0.04399621859192848,-0.07258445769548416,-0.0007374293054454029
-0.039947509765625,-0.3745880126953125,-0.94549560546875,-0.018095646053552628,-0.024400681257247925,0.002597647253423929
-0.0366973876953125,-0.3769683837890625,-0.9420318603515625,0.157391756772995,0.23647885024547577,0.019043732434511185
-0.0235137939453125,-0.4110565185546875,-0.898590087890625,0.27730217576026917,0.42220422625541687,0.08412792533636093
-0.0128173828125,-0.3838348388671875,-0.8918609619140625,0.24932913482189178,0.29312509298324585,0.11866912245750427
-0.0339508056640625,-0.3531494140625,-0.9170684814453125,0.10444891452789307,0.026585537940263748,0.07232879102230072
-0.061065673828125,-0.3701934814453125,-0.915069580078125,-0.11510554701089859,-0.19810377061367035,0.001395496423356235
-0.0745391845703125,-0.37152099609375,-0.90008544921875,-0.29054608941078186,-0.3293163776397705,-0.053339388221502304
-0.05169677734375,-0.357025146484375,-0.8911590576171875,-0.36647680401802063,-0.32615867257118225,-0.0772164911031723
-0.0378570556640625,-0.34326171875,-0.9080352783203125,-0.3385615348815918,-0.2640010118484497,-0.08226584643125534
-0.03802490234375,-0.3499603271484375,-0.94110107421875,-0.24625904858112335,-0.18478237092494965,-0.08370022475719452
-0.0378570556640625,-0.365234375,-0.96942138671875,-0.13097825646400452,-0.11416491866111755,-0.06746213138103485
-0.02581787109375,-0.3718719482421875,-0.9818115234375,-0.00914502888917923,-0.03019918128848076,-0.031093204393982887
-0.0151824951171875,-0.3741455078125,-0.983917236328125,0.10023951530456543,0.039501868188381195,0.016272446140646935
-0.0204315185546875,-0.3766937255859375,-0.974365234375,0.16720949113368988,0.09808555245399475,0.04601968824863434
-0.0348968505859375,-0.3729248046875,-0.956451416015625,0.1907246708869934,0.11992640048265457,0.0835404321551323
-0.04840087890625,-0.36962890625,-0.939178466796875,0.15930762887001038,0.1002320647239685,0.05349491536617279
-0.0595855712890625,-0.3689727783203125,-0.9235076904296875,0.0977979302406311,0.058572232723236084,0.020123643800616264
-0.0605926513671875,-0.368865966796875,-0.9150390625,0.012959474697709084,-0.020141221582889557,0.005336175672709942
-0.06268310546875,-0.36846923828125,-0.913116455078125,-0.07164089381694794,-0.09792576730251312,-0.007375091779977083
-0.061676025390625,-0.3654632568359375,-0.9169921875,-0.14040930569171906,-0.15644367039203644,-0.011140801943838596
-0.0631561279296875,-0.364898681640625,-0.9268035888671875,-0.17356140911579132,-0.1780932992696762,-0.013434049673378468
-0.065093994140625,-0.3638763427734375,-0.9442291259765625,-0.15714088082313538,-0.17299655079841614,-0.013789582066237926
-0.0683135986328125,-0.360015869140625,-0.9593963623046875,-0.11375772207975388,-0.1424759179353714,-0.01395709440112114
-0.0703125,-0.35577392578125,-0.9722137451171875,-0.04986955597996712,-0.10128214955329895,-0.015585617162287235
-0.072509765625,-0.3550567626953125,-0.981475830078125,0.025861425325274467,-0.06446021795272827,-0.018330005928874016
-0.075592041015625,-0.3525238037109375,-0.9846343994140625,0.08003810793161392,-0.041676606982946396,-0.02690778113901615
-0.0753326416015625,-0.3476409912109375,-0.9787750244140625,0.11005779355764389,-0.04364601522684097,-0.04103318601846695
-0.072174072265625,-0.3460845947265625,-0.9694671630859375,0.11072145402431488,-0.0742207020521164,-0.060848169028759
-0.06988525390625,-0.3460235595703125,-0.9573516845703125,0.12296267598867416,-0.014155499637126923,-0.0833396315574646
-0.0626983642578125,-0.351593017578125,-0.9380340576171875,0.2891782820224762,0.3711138963699341,-0.06995698064565659
-0.042694091796875,-0.3997344970703125,-0.868255615234375,0.39201757311820984,0.39806535840034485,-0.036980122327804565
-0.028900146484375,-0.3697357177734375,-0.85650634765625,0.3142783045768738,0.15038178861141205,-0.021090904250741005
-0.023193359375,-0.337860107421875,-0.9032135009765625,0.09574276953935623,-0.1326267570257187,-0.03139254450798035
-0.0481414794921875,-0.376953125,-0.892822265625,-0.16008047759532928,-0.317849338054657,-0.04898165911436081
-0.0601043701171875,-0.385467529296875,-0.8650665283203125,-0.3366461992263794,-0.346235454082489,-0.07144195586442947
-0.0493927001953125,-0.363525390625,-0.86053466796875,-0.38019925355911255,-0.28470203280448914,-0.09258772432804108
-0.05023193359375,-0.3511962890625,-0.888336181640625,-0.3197987675666809,-0.18742609024047852,-0.09902404993772507
-0.052398681640625,-0.3611297607421875,-0.9311065673828125,-0.20079462230205536,-0.08628641813993454,-0.0826496034860611
-0.0441436767578125,-0.373199462890625,-0.966033935546875,-0.06354009360074997,-0.02315911464393139,-0.048170723021030426
-0.0383758544921875,-0.379119873046875,-0.9850921630859375,0.052982524037361145,0.020543357357382774,-0.021914619952440262
-0.036041259765625,-0.3745269775390625,-0.982330322265625,0.13945217430591583,0.05261554196476936,-0.00180855265352875
-0.038116455078125,-0.3727874755859375,-0.9672088623046875,0.1664600819349289,0.08164745569229126,-0.03855964168906212
-0.0468292236328125,-0.372039794921875,-0.9469451904296875,0.1432727426290512,0.08091375976800919,0.0197428110986948
-0.04998779296875,-0.3681182861328125,-0.9320220947265625,0.07256262004375458,0.031690552830696106,0.018607506528496742
-0.0500640869140625,-0.366668701171875,-0.9234771728515625,-0.017771273851394653,-0.05494207888841629,0.00863503385335207
-0.051544189453125,-0.3649139404296875,-0.9209442138671875,-0.1052720919251442,-0.12162097543478012,0.0027955202385783195
-0.0522003173828125,-0.3615570068359375,-0.9255523681640625,-0.16045784950256348,-0.1630869209766388,-0.0015393070643767715
-0.0592193603515625,-0.35943603515625,-0.936614990234375,-0.16349518299102783,-0.16168557107448578,-0.009830526076257229
-0.0639801025390625,-0.3596343994140625,-0.955413818359375,0.0024804682470858097,0.36671674251556396,0.011462777853012085
-0.0594329833984375,-0.3811187744140625,-0.9414825439453125,0.34454113245010376,0.8966636657714844,0.08424830436706543
-0.063018798828125,-0.4234466552734375,-0.8577728271484375,0.5783222317695618,0.7698114514350891,0.09738381206989288
-0.0409393310546875,-0.3445281982421875,-0.8969879150390625,0.5603528022766113,0.4147559106349945,0.07865220308303833
-0.0226287841796875,-0.330718994140625,-0.9483795166015625,0.310933917760849,0.035835761576890945,0.06933939456939697
-0.0429840087890625,-0.3722076416015625,-0.9225006103515625,-0.017767544835805893,-0.21659143269062042,0.058634284883737564
-0.067169189453125,-0.3836822509765625,-0.8810882568359375,-0.3091011345386505,-0.3314184248447418,0.025049161165952682
-0.0833282470703125,-0.3520660400390625,-0.8566741943359375,-0.45661067962646484,-0.3182389736175537,-0.06030275672674179
-0.08245849609375,-0.325347900390625,-0.875152587890625,-0.4656427800655365,-0.2595343589782715,-0.13985218107700348
-0.087921142578125,-0.3311920166015625,-0.92498779296875,-0.3876262903213501,-0.1750415861606598,-0.15362657606601715
-0.06854248046875,-0.3469085693359375,-0.9809112548828125,-0.26658880710601807,-0.13619831204414368,-0.12029285728931427
-0.0449981689453125,-0.3607025146484375,-1.0149993896484375,-0.1285736858844757,-0.10404464602470398,-0.07860559225082397
-0.03265380859375,-0.364410400390625,-1.02081298828125,-0.0005139900604262948,-0.04404495656490326,-0.0502953939139843
-0.03546142578125,-0.3669586181640625,-1.0087127685546875,0.11819827556610107,0.05068501457571983,-0.024982314556837082
-0.0440216064453125,-0.3741302490234375,-0.9954986572265625,0.20123377442359924,0.12012267857789993,-0.0028210864402353764
-0.0500640869140625,-0.375701904296875,-0.9802703857421875,0.22391805052757263,0.11997593939304352,0.010222543962299824
-0.048248291015625,-0.3716888427734375,-0.967864990234375,0.1847943514585495,0.052801162004470825,-0.026576749980449677
-0.0473175048828125,-0.368560791015625,-0.9542999267578125,0.1039639487862587,-0.06721605360507965,-0.0023094932548701763
-0.0454559326171875,-0.3691253662109375,-0.94085693359375,0.15081986784934998,0.2862549424171448,-0.026620425283908844
-0.0256500244140625,-0.4001312255859375,-0.8928680419921875,0.43527504801750183,0.9017452597618103,0.057143181562423706
-0.00494384765625,-0.4741363525390625,-0.76910400390625,0.6111520528793335,1.0556600093841553,0.18666575849056244
0.024810791015625,-0.401123046875,-0.794769287109375,0.5221254825592041,0.7390583753585815,0.27162617444992065
0.0183563232421875,-0.3755035400390625,-0.87750244140625,0.2329762578010559,0.23602184653282166,0.26545271277427673
-0.0155029296875,-0.4066009521484375,-0.8995513916015625,-0.16469255089759827,-0.26982003450393677,0.19281978905200958
-0.0455474853515625,-0.3765106201171875,-0.891845703125,-0.5123226642608643,-0.579063355922699,0.08495856821537018
-0.049774169921875,-0.3297271728515625,-0.8850860595703125,-0.7005186676979065,-0.64607834815979,-0.005340703297406435
-0.061737060546875,-0.30712890625,-0.912109375,-0.7286413908004761,-0.5496509075164795,-0.06041727215051651
-0.073638916015625,-0.3170166015625,-0.962005615234375,-0.642419695854187,-0.4223155677318573,-0.09801764041185379
-0.07867431640625,-0.3361663818359375,-1.011627197265625,-0.4916653335094452,-0.3625771403312683,-0.11187593638896942
-0.05804443359375,-0.3474273681640625,-1.043731689453125,-0.31070592999458313,-0.31562745571136475,-0.08268848806619644
-0.0348052978515625,-0.349609375,-1.05303955078125,-0.12938648462295532,-0.2159069925546646,-0.03213956207036972
-0.033477783203125,-0.3562469482421875,-1.048248291015625,0.05661214515566826,-0.07279910892248154,0.012311793863773346
-0.0445098876953125,-0.3628692626953125,-1.0328521728515625,0.21345661580562592,0.04836247116327286,0.053891994059085846
-0.052886962890625,-0.3663177490234375,-1.0128021240234375,0.3021811544895172,0.0876089408993721,0.11151774227619171
-0.0614013671875,-0.366424560546875,-0.9893646240234375,0.29310858249664307,0.05596952512860298,0.10016175359487534
-0.069610595703125,-0.3619384765625,-0.958709716796875,0.22052597999572754,0.06205138564109802,0.07226753979921341
-0.0782928466796875,-0.3610382080078125,-0.9181976318359375,0.36534973978996277,0.87472003698349,0.11832904070615768
-0.063232421875,-0.4296875,-0.810821533203125,0.5424419641494751,1.1607033014297485,0.14861850440502167
-0.068756103515625,-0.4091949462890625,-0.75787353515625,0.5050956606864929,0.8761954307556152,0.13859036564826965
-0.0460052490234375,-0.3485107421875,-0.8332366943359375,0.21988628804683685,0.41433778405189514,0.10103633254766464
-0.051300048828125,-0.3601531982421875,-0.87518310546875,-0.18663112819194794,-0.11530235409736633,0.06132248044013977
-0.0619659423828125,-0.3689727783203125,-0.87359619140625,-0.5522626638412476,-0.5215103030204773,0.00749120581895113
-0.055908203125,-0.3531341552734375,-0.875518798828125,-0.7655439972877502,-0.6590290069580078,-0.04211016744375229
-0.0524444580078125,-0.3406524658203125,-0.908233642578125,-0.8023763298988342,-0.6047484874725342,-0.08182855695486069
-0.063201904296875,-0.3244171142578125,-0.953033447265625,-0.7246690392494202,-0.4644142687320709,-0.10711633414030075
-0.0662841796875,-0.326507568359375,-0.9881744384765625,-0.587583065032959,-0.29224276542663574,-0.10364516824483871
-0.05621337890625,-0.339447021484375,-1.0034942626953125,-0.44695326685905457,-0.09815718978643417,-0.07468994706869125
-0.045135498046875,-0.3440093994140625,-1.001556396484375,-0.3143845796585083,0.1298738420009613,-0.02636289782822132
-0.0383453369140625,-0.345489501953125,-0.99688720703125,-0.19119605422019958,0.34131020307540894,0.03199415281414986
-0.0309295654296875,-0.34832763671875,-0.9930267333984375,-0.07323186844587326,0.5110244154930115,0.10461855679750443
-0.0232696533203125,-0.352447509765625,-0.9922332763671875,0.00430153775960207,0.6060912609100342,0.17079225182533264
-0.0223236083984375,-0.3521728515625,-0.987823486328125,0.022670159116387367,0.6386702060699463,0.2206125408411026
-0.0249481201171875,-0.347869873046875,-0.9712982177734375,-0.025902969762682915,0.611712634563446,0.24899224936962128
-0.0244140625,-0.3446502685546875,-0.947540283203125,-0.13000327348709106,0.5229436159133911,0.2641381621360779
-0.02398681640625,-0.342559814453125,-0.9197998046875,-0.2661384642124176,0.41649335622787476,0.2624521255493164
-0.0179901123046875,-0.332794189453125,-0.9044952392578125,-0.3922378122806549,0.3371269106864929,0.2667113244533539
-0.0130462646484375,-0.327423095703125,-0.9071807861328125,-0.47900068759918213,0.2852727472782135,0.2636590600013733
-0.0186614990234375,-0.3222503662109375,-0.92633056640625,-0.5161384344100952,0.2178891897201538,0.25317099690437317
-0.0187835693359375,-0.311126708984375,-0.9463653564453125,-0.5040226578712463,0.16899354755878448,0.23872309923171997
-0.0119476318359375,-0.3025360107421875,-0.958465576171875,-0.4889976382255554,0.14181146025657654,0.23148009181022644
-0.0087738037109375,-0.3092041015625,-0.9572296142578125,-0.48817554116249084,0.13936641812324524,0.22266529500484467
-0.008758544921875,-0.3191680908203125,-0.940948486328125,-0.49976879358291626,0.13792191445827484,0.229381263256073
-0.004547119140625,-0.314697265625,-0.927398681640625,-0.49606648087501526,0.16410212218761444,0.2575843930244446
0.007720947265625,-0.2996826171875,-0.93426513671875,-0.46046027541160583,0.18467450141906738,0.2939804792404175
0.0039215087890625,-0.2967529296875,-0.9567413330078125,-0.36762621998786926,0.2086496204137802,0.38236895203590393
-0.008392333984375,-0.2988128662109375,-0.989776611328125,-0.2616899311542511,0.33641770482063293,0.4353557229042053
0.00128173828125,-0.2752685546875,-1.0105438232421875,-0.15418504178524017,0.3934879004955292,0.39746108651161194
-0.0211029052734375,-0.267333984375,-1.008453369140625,-0.07138736546039581,0.36200934648513794,0.31370678544044495
-0.0326995849609375,-0.26861572265625,-0.9879913330078125,-0.05150393769145012,0.32926949858665466,0.2256600260734558
-0.018524169921875,-0.261199951171875,-0.9637451171875,-0.1006523072719574,0.2373555600643158,0.15811532735824585
-0.005126953125,-0.25726318359375,-0.9351959228515625,-0.1896658092737198,0.1241975799202919,0.12087316066026688
0.0043487548828125,-0.2565765380859375,-0.9206390380859375,-0.283477783203125,-0.004117513541132212,0.09608125686645508
0.01055908203125,-0.2549285888671875,-0.924835205078125,-0.3474509119987488,-0.10117721557617188,0.07534189522266388
0.0009307861328125,-0.2518768310546875,-0.945556640625,-0.34958702325820923,-0.14980468153953552,0.04487186670303345
-0.013641357421875,-0.252227783203125,-0.9799041748046875,-0.2942172586917877,-0.16840259730815887,0.004776911810040474
-0.02777099609375,-0.2529754638671875,-1.0037994384765625,-0.1888924241065979,-0.15339887142181396,-0.03598196804523468
-0.033233642578125,-0.2456817626953125,-1.011932373046875,-0.053340453654527664,-0.190233051776886,-0.06891302019357681
-0.0284881591796875,-0.236907958984375,-1.01055908203125,0.12738512456417084,-0.19244028627872467,-0.07094554603099823
-0.0182037353515625,-0.2282867431640625,-1.019378662109375,0.2795160710811615,-0.05222592130303383,-0.07421910017728806
-0.0253448486328125,-0.231597900390625,-1.02978515625,0.36491885781288147,0.08708430081605911,-0.09502957761287689
-0.0380859375,-0.2485809326171875,-1.005706787109375,0.3781249225139618,0.15973639488220215,-0.101596400141716
-0.0252532958984375,-0.25628662109375,-0.9787139892578125,0.33499130606651306,0.18834088742733002,-0.07919255644083023
-0.00396728515625,-0.259307861328125,-0.95819091796875,0.2638028860092163,0.18335837125778198,-0.04447878524661064
0.0059051513671875,-0.270782470703125,-0.95416259765625,0.1947186142206192,0.13749021291732788,-0.022882413119077682
0.00335693359375,-0.282012939453125,-0.9533538818359375,0.15816940367221832,0.09463383257389069,-0.0035246936604380608
-0.0017242431640625,-0.2806396484375,-0.9500579833984375,0.15948526561260223,0.06634626537561417,0.00458836043253541
-0.0005035400390625,-0.266998291015625,-0.9466705322265625,0.20811405777931213,0.09273366630077362,-0.026008963584899902
-0.0044097900390625,-0.2654876708984375,-0.958343505859375,0.27274125814437866,0.15443404018878937,-0.07307261228561401
-0.0167388916015625,-0.2769012451171875,-0.9770050048828125,0.3187721371650696,0.17245832085609436,-0.08951044082641602
-0.011199951171875,-0.2872314453125,-0.9892120361328125,0.3430984914302826,0.13524997234344482,-0.07878322899341583
0.0062255859375,-0.294464111328125,-0.99444580078125,0.34336215257644653,0.03038586862385273,-0.06720326840877533
0.013580322265625,-0.30340576171875,-0.9872283935546875,0.31586501002311707,-0.06029289960861206,-0.060071058571338654
0.011322021484375,-0.304656982421875,-0.971466064453125,0.28357818722724915,-0.10770729184150696,-0.05499454215168953
0.009796142578125,-0.2995452880859375,-0.9600677490234375,0.2557518780231476,-0.13030926883220673,-0.053233660757541656
0.00872802734375,-0.2990875244140625,-0.9501953125,0.2221241444349289,-0.1239355280995369,-0.04544258117675781
0.005706787109375,-0.3033294677734375,-0.942779541015625,0.1886862963438034,-0.08620945364236832,-0.03055870719254017
0.000396728515625,-0.305450439453125,-0.939361572265625,0.16082589328289032,-0.05661933869123459,-0.033300433307886124
-0.0036773681640625,-0.3062286376953125,-0.9354705810546875,0.13955336809158325,-0.06515263766050339,-0.016091085970401764
-0.0096282958984375,-0.3066558837890625,-0.93304443359375,0.12633930146694183,-0.055621981620788574,-0.054304517805576324
-0.0112457275390625,-0.3100433349609375,-0.9390869140625,0.12940458953380585,-0.07572725415229797,-0.0655587688088417
-0.011444091796875,-0.3106536865234375,-0.94512939453125,0.1554814726114273,-0.08530104905366898,-0.0753655955195427
-0.0065155029296875,-0.3080291748046875,-0.95062255859375,0.2013418972492218,-0.08059630542993546,-0.08176623284816742
-0.0044097900390625,-0.307708740234375,-0.9535980224609375,0.25050225853919983,-0.08531969040632248,-0.08191164582967758
0.0030364990234375,-0.3126220703125,-0.9560546875,0.3107152581214905,-0.14097335934638977,-0.07505826652050018
0.0163116455078125,-0.320159912109375,-0.9719696044921875,0.3628181517124176,-0.2156049907207489,-0.04701544716954231
0.0252685546875,-0.3277587890625,-0.9818267822265625,0.39261147379875183,-0.25500327348709106,-0.010601777583360672
0.0204620361328125,-0.33331298828125,-0.9765777587890625,0.39003005623817444,-0.23820272088050842,0.024874988943338394
0.006988525390625,-0.3381195068359375,-0.963043212890625,0.38131406903266907,-0.1839863508939743,0.03241972625255585
-0.01220703125,-0.34075927734375,-0.9485626220703125,0.3666331171989441,-0.09506978839635849,0.020024839788675308
-0.0217132568359375,-0.3346710205078125,-0.93255615234375,0.34640854597091675,0.000758734589908272,0.009534649550914764
-0.02142333984375,-0.3296966552734375,-0.92498779296875,0.3193979561328888,0.055159393697977066,0.003954261541366577
-0.01507568359375,-0.33123779296875,-0.9248046875,0.30083388090133667,0.07502923905849457,0.0028072381392121315
-0.0129547119140625,-0.3355865478515625,-0.9333343505859375,0.2908206582069397,0.06051447615027428,-0.00023675501870457083
-0.0136566162109375,-0.3409576416015625,-0.9471893310546875,0.3118215501308441,0.004382497631013393,-0.011629492044448853
-0.0173492431640625,-0.344757080078125,-0.956085205078125,0.355204701423645,-0.06097706779837608,-0.03026922233402729
-0.019989013671875,-0.3433380126953125,-0.952606201171875,0.3981899917125702,-0.14793726801872253,-0.057128001004457474
-0.01708984375,-0.342437744140625,-0.939361572265625,0.4325580894947052,-0.29841598868370056,-0.08129458874464035
-0.0045318603515625,-0.3439178466796875,-0.92742919921875,0.45054587721824646,-0.5315853357315063,-0.0768929198384285
0.012908935546875,-0.355438232421875,-0.921875,0.41528162360191345,-0.7155154943466187,-0.0329827181994915
0.0207977294921875,-0.365509033203125,-0.911590576171875,0.320652574300766,-0.7862287759780884,0.026430541649460793
0.00347900390625,-0.373931884765625,-0.8901214599609375,0.2159128487110138,-0.8042091131210327,0.07698719203472137
-0.0216827392578125,-0.3831939697265625,-0.870697021484375,0.13004562258720398,-0.7586658596992493,0.08558787405490875
-0.0519256591796875,-0.377685546875,-0.8608856201171875,0.07289151847362518,-0.6906402111053467,0.05403420701622963
-0.0745697021484375,-0.369903564453125,-0.8730316162109375,0.06770873814821243,-0.6851389408111572,-0.002989398315548897
-0.078399658203125,-0.36260986328125,-0.9022216796875,0.11227354407310486,-0.7693925499916077,-0.060919277369976044
-0.0713043212890625,-0.3610382080078125,-0.9365386962890625,0.16386030614376068,-0.8785099983215332,-0.09765678644180298
-0.0731048583984375,-0.3612213134765625,-0.9511871337890625,0.19681373238563538,-0.9205618500709534,-0.1044827327132225
-0.08544921875,-0.3708038330078125,-0.95086669921875,0.2087620049715042,-0.9032291769981384,-0.09510361403226852
-0.102569580078125,-0.3791046142578125,-0.9363250732421875,0.18628332018852234,-0.8436183333396912,-0.07792116701602936
-0.1185150146484375,-0.381561279296875,-0.9166107177734375,0.13872939348220825,-0.7620001435279846,-0.06721046566963196
-0.1266021728515625,-0.3834686279296875,-0.9049072265625,0.08144105970859528,-0.729242205619812,-0.0801377147436142
-0.1304473876953125,-0.3803253173828125,-0.8929595947265625,0.01540452241897583,-0.7093638181686401,-0.11728428304195404
-0.1331634521484375,-0.3762359619140625,-0.8840484619140625,-0.06355447322130203,-0.6755355596542358,-0.15509158372879028
-0.13482666015625,-0.372955322265625,-0.87994384765625,-0.13292129337787628,-0.6447288990020752,-0.18505613505840302
-0.1368865966796875,-0.37127685546875,-0.879364013671875,-0.18408514559268951,-0.5948817133903503,-0.2067638337612152
-0.1463775634765625,-0.376251220703125,-0.8920440673828125,-0.18781010806560516,-0.5349352955818176,-0.21891184151172638
-0.16015625,-0.38372802734375,-0.916015625,-0.14314144849777222,-0.5043199062347412,-0.2263718843460083
-0.162841796875,-0.38348388671875,-0.9437713623046875,-0.06554917991161346,-0.49215856194496155,-0.21910598874092102
-0.1636810302734375,-0.379974365234375,-0.9589385986328125,0.026283536106348038,-0.479127436876297,-0.2178891897201538
-0.160858154296875,-0.3734588623046875,-0.95440673828125,0.13007411360740662,-0.5036340951919556,-0.2239377647638321
-0.1511993408203125,-0.3650054931640625,-0.9227447509765625,0.20258453488349915,-0.3088846206665039,-0.20532305538654327
-0.1575927734375,-0.368194580078125,-0.900054931640625,0.2087841033935547,-0.061950985342264175,-0.1744018942117691
-0.158721923828125,-0.396575927734375,-0.8821868896484375,0.14021489024162292,0.08419930189847946,-0.13648779690265656
-0.138458251953125,-0.4243927001953125,-0.8639678955078125,0.03338964655995369,0.16297906637191772,-0.07120627164840698
-0.1307830810546875,-0.4402618408203125,-0.87457275390625,-0.07850439846515656,0.18307740986347198,-0.0028796761762350798
-0.1302947998046875,-0.440582275390625,-0.885711669921875,-0.16924920678138733,0.20018954575061798,0.0453144833445549
-0.14080810546875,-0.42852783203125,-0.893280029296875,-0.22830933332443237,0.2710637152194977,0.08370714634656906
-0.15911865234375,-0.41766357421875,-0.888916015625,-0.24087519943714142,0.40626761317253113,0.11344587057828903
-0.1665191650390625,-0.401763916015625,-0.8725738525390625,-0.2154902070760727,0.5922947525978088,0.08944439142942429
-0.163482666015625,-0.378204345703125,-0.8865966796875,-0.15005367994308472,0.6717591881752014,0.057497113943099976
-0.1601104736328125,-0.382232666015625,-0.9381256103515625,-0.03984887897968292,0.6050235629081726,0.03393452987074852
-0.1357269287109375,-0.388275146484375,-1.008544921875,0.10100197792053223,0.4235747158527374,0.027148529887199402
-0.108917236328125,-0.38482666015625,-1.04083251953125,0.24224485456943512,0.23156239092350006,0.03075551614165306
-0.100067138671875,-0.37567138671875,-1.018707275390625,0.31644824147224426,0.171160027384758,0.04152347519993782
-0.114501953125,-0.3744049072265625,-0.9719390869140625,0.3167926073074341,0.2191384732723236,0.04820268228650093
-0.1394805908203125,-0.3789520263671875,-0.9251708984375,0.2645786702632904,0.2557273805141449,-0.026157034561038017
-0.1466217041015625,-0.3821258544921875,-0.8937530517578125,0.18144755065441132,0.2403811812400818,0.005900765769183636
-0.1370849609375,-0.3817291259765625,-0.880126953125,0.08870270103216171,0.1978835165500641,-0.002977946773171425
-0.1311492919921875,-0.3853302001953125,-0.880462646484375,0.012799951247870922,0.14809812605381012,-0.009341037832200527
-0.1227874755859375,-0.3873291015625,-0.88983154296875,-0.03301733732223511,0.10880584269762039,-0.011440673843026161
-0.12103271484375,-0.390625,-0.9029693603515625,-0.03476383909583092,0.09728873521089554,-0.016290556639432907
-0.1280975341796875,-0.3960418701171875,-0.9210968017578125,0.0020969731267541647,0.09229690581560135,-0.012455071322619915
-0.1283111572265625,-0.396881103515625,-0.933685302734375,0.04616536572575569,0.09631109237670898,-0.00019281286222394556
-0.12689208984375,-0.392578125,-0.933868408203125,0.07572512328624725,0.10532589256763458,0.005416869651526213
-0.1257171630859375,-0.3911895751953125,-0.9286956787109375,0.08011294156312943,0.09844987094402313,0.003992078360170126
-0.127227783203125,-0.3942413330078125,-0.918853759765625,0.07115167379379272,0.07069733738899231,0.0009986853692680597
-0.1322479248046875,-0.39581298828125,-0.9129486083984375,0.05286987125873566,0.0581653006374836,-0.009290703572332859
-0.1351165771484375,-0.392852783203125,-0.9067535400390625,0.026186063885688782,0.06259653717279434,-0.03171851485967636
-0.132171630859375,-0.38348388671875,-0.8981170654296875,0.0017827199772000313,0.07566893100738525,-0.05044080317020416
-0.1273345947265625,-0.3809051513671875,-0.8950653076171875,-0.010553575120866299,0.08067487180233002,-0.06123965606093407
-0.1237030029296875,-0.384613037109375,-0.89947509765625,-0.016999490559101105,0.08078459650278091,-0.06731485575437546
-0.12432861328125,-0.386810302734375,-0.899383544921875,-0.022844063118100166,0.09375552088022232,-0.06839051097631454
-0.124908447265625,-0.3858795166015625,-0.893524169921875,-0.031147532165050507,0.12839153409004211,-0.06846028566360474
-0.11810302734375,-0.3863525390625,-0.8984832763671875,-0.018128670752048492,0.11980868875980377,-0.0709167867898941
-0.10943603515625,-0.3900909423828125,-0.9145660400390625,0.005727127660065889,0.10194580256938934,-0.06599739193916321
-0.1060943603515625,-0.3880462646484375,-0.92462158203125,0.025433987379074097,0.10850436985492706,-0.054544467478990555
-0.101531982421875,-0.38177490234375,-0.932647705078125,0.04890922084450722,0.09770205616950989,-0.06594359874725342
-0.1060791015625,-0.3804931640625,-0.943359375,0.07118017226457596,0.0685524269938469,-0.08724355697631836
-0.108856201171875,-0.379180908203125,-0.949615478515625,0.0871807113289833,0.027885960415005684,-0.11157845705747604
-0.1068267822265625,-0.378326416015625,-0.9501190185546875,0.09126626700162888,-0.009694971144199371,-0.11880947649478912
-0.1036529541015625,-0.3802947998046875,-0.94219970703125,0.06539791822433472,-0.05407841503620148,-0.1322009116411209
-0.10101318359375,-0.387451171875,-0.932281494140625,0.02906201221048832,-0.10469312220811844,-0.1424221247434616
-0.09844970703125,-0.395294189453125,-0.92364501953125,0.1537352353334427,0.3518003821372986,-0.12561865150928497
-0.089141845703125,-0.425323486328125,-0.8799285888671875,0.344706267118454,0.636069118976593,-0.07187818735837936
-0.084014892578125,-0.44049072265625,-0.8294677734375,0.426932156085968,0.6192014813423157,-0.05090845376253128
-0.088897705078125,-0.3858642578125,-0.8701019287109375,0.34398961067199707,0.3714539706707001,-0.06276724487543106
-0.0882110595703125,-0.395751953125,-0.892547607421875,0.10399138182401657,-0.011395134031772614,-0.07508063316345215
-0.0739898681640625,-0.412322998046875,-0.8878326416015625,-0.1898290514945984,-0.3036576211452484,-0.07001450657844543
-0.0602874755859375,-0.41650390625,-0.8789825439453125,-0.3842794895172119,-0.3639222979545593,-0.07132291793823242
-0.06781005859375,-0.412322998046875,-0.8804779052734375,-0.42188093066215515,-0.2715039551258087,-0.08632956445217133
-0.0828857421875,-0.4039459228515625,-0.9121551513671875,-0.32316580414772034,-0.14217258989810944,-0.09488390386104584
-0.088714599609375,-0.4048004150390625,-0.9556121826171875,-0.16230155527591705,-0.028898227959871292,-0.08105117827653885
-0.077239990234375,-0.4084930419921875,-0.9883880615234375,0.007375091779977083,0.03163808584213257,-0.04530036821961403
-0.0666961669921875,-0.4145660400390625,-0.9947357177734375,0.13924869894981384,0.09347748756408691,-0.012018846347928047
-0.0635223388671875,-0.4149627685546875,-0.9744415283203125,0.21227790415287018,0.14289164543151855,0.01477468479424715
-0.071380615234375,-0.4142913818359375,-0.942718505859375,0.230673685669899,0.1797676384449005,0.026437200605869293
-0.0837249755859375,-0.4125518798828125,-0.915740966796875,0.20530149340629578,0.19302432239055634,0.02630297653377056
-0.088714599609375,-0.4095916748046875,-0.8917388916015625,0.14827148616313934,0.19460970163345337,0.02148691564798355
-0.0892181396484375,-0.4056396484375,-0.8805999755859375,0.0786905512213707,0.15903812646865845,0.09008834511041641
-0.0863037109375,-0.4027557373046875,-0.8802337646484375,0.013793576508760452,0.10739969462156296,0.005215800832957029
-0.0887603759765625,-0.3981170654296875,-0.8873291015625,-0.024210531264543533,0.058158110827207565,-0.019025888293981552
-0.093414306640625,-0.393768310546875,-0.8942413330078125,-0.048114798963069916,0.039023566991090775,-0.03450045362114906
-0.0934600830078125,-0.3896484375,-0.89727783203125,-0.04977741092443466,0.05457909032702446,-0.04707430303096771
-0.093536376953125,-0.3904876708984375,-0.90240478515625,-0.036497555673122406,0.07392402738332748,-0.04519384354352951
-0.09075927734375,-0.396942138671875,-0.9122772216796875,-0.014358699321746826,0.08778630942106247,-0.03278297930955887
-0.08245849609375,-0.398406982421875,-0.919891357421875,0.0037816886324435472,0.1164107620716095,-0.025178590789437294
-0.079345703125,-0.3979034423828125,-0.92333984375,0.030083067715168,0.13122273981571198,-0.02207414247095585
-0.07940673828125,-0.397918701171875,-0.928741455078125,0.051902610808610916,0.1223437562584877,-0.021854432299733162
-0.078033447265625,-0.397064208984375,-0.9322052001953125,0.06457020342350006,0.10409683734178543,-0.027899274602532387
-0.07470703125,-0.39569091796875,-0.930633544921875,0.06683842092752457,0.09137438982725143,-0.03404079005122185
-0.0727691650390625,-0.39715576171875,-0.921417236328125,0.06361066550016403,0.09486126154661179,-0.040157005190849304
-0.0746307373046875,-0.401275634765625,-0.91583251953125,0.061532869935035706,0.10788598656654358,-0.04626896232366562
-0.0752410888671875,-0.404327392578125,-0.91461181640625,0.0687340572476387,0.13259586691856384,-0.05163523182272911
-0.075836181640625,-0.4028778076171875,-0.918609619140625,0.08804649859666824,0.1626640111207962,-0.05518415942788124
-0.07977294921875,-0.40087890625,-0.9255523681640625,0.12384071946144104,0.1757609099149704,-0.07039640098810196
-0.0832672119140625,-0.3985748291015625,-0.932830810546875,0.1541871726512909,0.1875283569097519,-0.07275889068841934
-0.086212158203125,-0.3950958251953125,-0.9375,0.19070470333099365,0.20779180526733398,-0.07936832308769226
-0.085418701171875,-0.387359619140625,-0.9372406005859375,0.21669182181358337,0.21128880977630615,-0.10012340545654297
-0.0882720947265625,-0.38616943359375,-0.9304046630859375,0.2254570871591568,0.2231161743402481,-0.12777873873710632
-0.0894775390625,-0.3914794921875,-0.9245758056640625,0.23558802902698517,0.2512178421020508,-0.1520606428384781
-0.089447021484375,-0.3987274169921875,-0.9248199462890625,0.255641371011734,0.26779255270957947,-0.16683638095855713
-0.085113525390625,-0.4007720947265625,-0.924652099609375,0.2781471908092499,0.28412920236587524,-0.17192809283733368
-0.0770111083984375,-0.40234375,-0.9228973388671875,0.28845176100730896,0.29342949390411377,-0.17366020381450653
-0.07012939453125,-0.407196044921875,-0.9160614013671875,0.286612868309021,0.2933487892150879,-0.17142261564731598
-0.0661163330078125,-0.4134368896484375,-0.90777587890625,0.26966795325279236,0.2859920859336853,-0.16894055902957916
-0.0586395263671875,-0.4153594970703125,-0.9008941650390625,0.24342091381549835,0.25638464093208313,-0.17068465054035187
-0.0511932373046875,-0.4156494140625,-0.8941650390625,0.198543980717659,0.21895231306552887,-0.18141266703605652
-0.0490264892578125,-0.4185791015625,-0.890045166015625,0.15676218271255493,0.16952484846115112,-0.1978132128715515
-0.04791259765625,-0.4251861572265625,-0.8897247314453125,0.12270914018154144,0.127822145819664,-0.20889143645763397
-0.041595458984375,-0.428131103515625,-0.8908538818359375,0.09848848730325699,0.09997320175170898,-0.2148135006427765
-0.0331878662109375,-0.428985595703125,-0.8919830322265625,0.08972588926553726,0.07162518799304962,-0.2173059582710266
-0.02813720703125,-0.435089111328125,-0.8982696533203125,0.09156160801649094,0.04259566217660904,-0.21991904079914093
-0.0220947265625,-0.44024658203125,-0.902557373046875,0.09670257568359375,0.04308195784687996,-0.2152521312236786
-0.0152740478515625,-0.44329833984375,-0.9004974365234375,0.10604681074619293,0.0768154188990593,-0.2015453726053238
-0.011688232421875,-0.4452667236328125,-0.8935394287109375,0.11135608702898026,0.1384604126214981,-0.19049537181854248
-0.008544921875,-0.4473114013671875,-0.89007568359375,0.12199488282203674,0.1896785944700241,-0.17518194019794464
-0.006195068359375,-0.4500732421875,-0.8911590576171875,0.13728941977024078,0.23023107647895813,-0.16004079580307007
-0.0045928955078125,-0.4505615234375,-0.894439697265625,0.15417997539043427,0.25965553522109985,-0.1546391099691391
-0.000335693359375,-0.4471435546875,-0.90093994140625,0.16789765655994415,0.257323682308197,-0.15975770354270935
0.0026702880859375,-0.4468536376953125,-0.904296875,0.16742441058158875,0.2262618988752365,-0.16252686083316803
0.0075225830078125,-0.450347900390625,-0.8992919921875,0.13739114999771118,0.19136729836463928,-0.15081028640270233
0.0178680419921875,-0.4585113525390625,-0.8859100341796875,0.0748172476887703,0.15163026750087738,-0.13747583329677582
0.022857666015625,-0.46893310546875,-0.8722686767578125,0.0011688614031299949,0.108827143907547,-0.11565496027469635
0.03515625,-0.476593017578125,-0.8668670654296875,-0.06358057260513306,0.07401058077812195,-0.08768404275178909
0.045623779296875,-0.4817657470703125,-0.866485595703125,-0.11217740178108215,0.04767883941531181,-0.050989679992198944
0.049407958984375,-0.485626220703125,-0.87725830078125,-0.12809112668037415,0.019295400008559227,-0.01387134101241827
0.0562591552734375,-0.4855499267578125,-0.8938751220703125,-0.1169966608285904,-0.012781308963894844,0.01884079910814762
0.0556488037109375,-0.483001708984375,-0.9102630615234375,-0.09174030274152756,-0.032153673470020294,0.03978363052010536
0.0515289306640625,-0.4748687744140625,-0.91949462890625,-0.06597741693258286,-0.05022189021110535,0.053408630192279816
0.046356201171875,-0.4701690673828125,-0.918731689453125,-0.04826659709215164,-0.052558816969394684,0.058707788586616516
0.0381927490234375,-0.468963623046875,-0.912322998046875,-0.037511955946683884,-0.03936018794775009,0.06614892929792404
0.0345458984375,-0.464385986328125,-0.9025115966796875,-0.03771062567830086,-0.02057691477239132,0.07358473539352417
0.030975341796875,-0.459991455078125,-0.8931121826171875,-0.028929386287927628,0.009484581649303436,0.0828956812620163
0.0249481201171875,-0.45965576171875,-0.8873138427734375,-0.023539148271083832,0.04391046613454819,0.09391690790653229
0.01556396484375,-0.4583740234375,-0.8865966796875,-0.021105285733938217,0.0752289742231369,0.10738318413496017
0.0031280517578125,-0.4523468017578125,-0.8888397216796875,-0.01569667086005211,0.10041715204715729,0.1183045357465744
-0.0078582763671875,-0.4466705322265625,-0.892852783203125,-0.004215517546981573,0.11400113999843597,0.11515241861343384
-0.0218353271484375,-0.4396209716796875,-0.89678955078125,0.011523764580488205,0.13519936800003052,0.10848626494407654
-0.0343780517578125,-0.4308929443359375,-0.9033355712890625,0.02774294838309288,0.15402472019195557,0.09080979973077774
-0.0460052490234375,-0.42633056640625,-0.9102020263671875,0.04368729144334793,0.16138117015361786,0.0718611404299736
-0.0537261962890625,-0.4219512939453125,-0.9158782958984375,0.051661331206560135,0.14568902552127838,0.04247448965907097
-0.05426025390625,-0.4208984375,-0.9202423095703125,0.056523729115724564,0.11405307054519653,0.012764797545969486
-0.0549468994140625,-0.4215545654296875,-0.9195098876953125,0.04953985661268234,0.0769893229007721,-0.01696673221886158
-0.054046630859375,-0.4241790771484375,-0.9152374267578125,0.02442890964448452,0.04825541377067566,-0.03776788339018822
-0.04827880859375,-0.430511474609375,-0.90826416015625,-0.009841445833444595,0.02461799420416355,-0.05355830118060112
-0.037750244140625,-0.434478759765625,-0.9024658203125,-0.05223897099494934,-0.08214839547872543,-0.058350127190351486
-0.01165771484375,-0.4418487548828125,-0.850860595703125,-0.2135477066040039,-0.05571945384144783,-0.04700798913836479
0.04669189453125,-0.4908599853515625,-0.6708984375,-0.34856438636779785,0.18168005347251892,0.03654016926884651
0.03643798828125,-0.45050048828125,-0.7296600341796875,-0.308023065328598,0.21687771379947662,0.07760132104158401
-0.03570556640625,-0.4305267333984375,-0.9008026123046875,-0.17503386735916138,0.11301656812429428,0.016818394884467125
-0.0565185546875,-0.4474334716796875,-1.0106658935546875,-0.0796535462141037,-0.04224066436290741,-0.06029556319117546
-0.010162353515625,-0.453216552734375,-1.013580322265625,-0.042822565883398056,-0.11844515055418015,-0.06397392600774765
0.03033447265625,-0.411163330078125,-0.9655609130859375,-0.052800364792346954,-0.10200732201337814,-0.040230508893728256
0.0338897705078125,-0.4074859619140625,-0.9275970458984375,-0.08964546024799347,-0.08127381652593613,-0.03485758230090141
0.0206451416015625,-0.437652587890625,-0.90411376953125,-0.1507871150970459,-0.060570668429136276,-0.02598872408270836
0.021575927734375,-0.4478607177734375,-0.89410400390625,-0.21438392996788025,-0.06768850237131119,0.008870723657310009
0.0305633544921875,-0.448822021484375,-0.892730712890625,-0.25945740938186646,-0.07927750796079636,0.05729897692799568
0.034454345703125,-0.44940185546875,-0.894012451171875,-0.3007960617542267,-0.07413601130247116,0.08790908008813858
0.025238037109375,-0.45318603515625,-0.894134521484375,-0.33025887608528137,-0.07341589033603668,0.10951131582260132
0.0171051025390625,-0.4533843994140625,-0.890655517578125,-0.35513198375701904,-0.07480579614639282,0.13360093533992767
0.01788330078125,-0.44879150390625,-0.88677978515625,-0.3935600817203522,-0.11565575748682022,0.1608690470457077
0.0282135009765625,-0.4421844482421875,-0.879730224609375,-0.445986270904541,-0.1871352642774582,0.19390156865119934
0.0350341796875,-0.4390411376953125,-0.87542724609375,-0.508979082107544,-0.235603466629982,0.2293354570865631
0.0369720458984375,-0.4339141845703125,-0.8766632080078125,-0.577187716960907,-0.2563854455947876,0.26753291487693787
0.0323638916015625,-0.43060302734375,-0.8724212646484375,-0.6390973925590515,-0.23368945717811584,0.297486811876297
0.016143798828125,-0.4190216064453125,-0.8803558349609375,-0.6786964535713196,-0.19790908694267273,0.29964715242385864
0.0040740966796875,-0.42315673828125,-0.8986358642578125,-0.695697546005249,-0.1596546471118927,0.2895740270614624
-0.0124053955078125,-0.4203643798828125,-0.915618896484375,-0.679710328578949,-0.11489329487085342,0.2800167500972748
-0.0125732421875,-0.3965301513671875,-0.932952880859375,-0.6552441716194153,-0.0696943923830986,0.28338003158569336
-0.01116943359375,-0.3794708251953125,-0.9420623779296875,-0.6162605285644531,-0.07184383273124695,0.29242148995399475
-0.0137481689453125,-0.371856689453125,-0.9529571533203125,-0.5837928652763367,-0.08418465405702591,0.30337798595428467
-0.014434814453125,-0.36322021484375,-0.953277587890625,-0.5746340155601501,-0.0819806233048439,0.3068816363811493
-0.02777099609375,-0.346435546875,-0.94073486328125,-0.5778212547302246,-0.06350014358758926,0.2779197692871094
-0.0416259765625,-0.3437957763671875,-0.9514312744140625,-0.5461666584014893,-0.09777183085680008,0.20246735215187073
-0.0605926513671875,-0.3536529541015625,-0.981903076171875,-0.464743971824646,-0.17923180758953094,0.11059362441301346
-0.0399627685546875,-0.3564910888671875,-1.0057525634765625,-0.36081811785697937,-0.2481248527765274,0.08002878725528717
-0.0142974853515625,-0.3331298828125,-1.012298583984375,-0.25879746675491333,-0.24022164940834045,0.11836899071931839
-0.019866943359375,-0.301483154296875,-0.9977874755859375,-0.16986946761608124,-0.14858654141426086,0.1680116355419159
-0.038177490234375,-0.2989349365234375,-0.9844512939453125,-0.08055529743432999,-0.061710502952337265,0.18881119787693024
-0.057098388671875,-0.313018798828125,-0.9806060791015625,0.004505536053329706,0.02256576344370842,0.17440615594387054
-0.0737152099609375,-0.318359375,-0.9812774658203125,0.08935118466615677,0.08520837128162384,0.14340509474277496
-0.086822509765625,-0.3150482177734375,-0.9881134033203125,0.1520787477493286,0.10430297255516052,0.09828422218561172
-0.0962982177734375,-0.3118133544921875,-0.990386962890625,0.18821677565574646,0.10869638621807098,0.03335209935903549
-0.110687255859375,-0.3143157958984375,-0.98565673828125,0.1992204338312149,0.12776301801204681,-0.048465270549058914
-0.127288818359375,-0.3201446533203125,-0.984832763671875,0.20638006925582886,0.10687292367219925,-0.12618136405944824
-0.119415283203125,-0.309539794921875,-0.9761962890625,0.21136124432086945,0.07849880307912827,-0.1776839792728424
-0.0969085693359375,-0.2943572998046875,-0.964935302734375,0.20762670040130615,0.06634733080863953,-0.1900636851787567
-0.0774078369140625,-0.291595458984375,-0.956085205078125,0.17687010765075684,0.05319850519299507,-0.1793346107006073
-0.0670623779296875,-0.3000335693359375,-0.937164306640625,0.10604999959468842,0.057924818247556686,-0.14794018864631653
-0.0633392333984375,-0.3172149658203125,-0.9161834716796875,0.016291888430714607,0.07335597276687622,-0.12295947968959808
-0.0633697509765625,-0.33428955078125,-0.90374755859375,-0.0759485587477684,0.10566277801990509,-0.10221824795007706
-0.0606231689453125,-0.34039306640625,-0.896026611328125,-0.12576964497566223,0.13188479840755463,-0.09406124800443649
-0.052642822265625,-0.3330078125,-0.90704345703125,-0.09973564743995667,0.1561501920223236,-0.10464811325073242
-0.04827880859375,-0.323211669921875,-0.9412384033203125,0.013255617581307888,0.2089681327342987,-0.12267904728651047
-0.0540771484375,-0.3162384033203125,-0.9786834716796875,0.18494375050067902,0.28825655579566956,-0.13679859042167664
-0.0631866455078125,-0.311737060546875,-1.01190185546875,0.37529319524765015,0.34664902091026306,-0.1429196000099182
-0.0679779052734375,-0.3067626953125,-1.02191162109375,0.5377622842788696,0.3797185719013214,-0.1522478610277176
-0.062164306640625,-0.309356689453125,-1.006561279296875,0.6263637542724609,0.40371257066726685,-0.1668582260608673
-0.0533599853515625,-0.3173675537109375,-0.965179443359375,0.624710738658905,0.4389387369155884,-0.18640875816345215
-0.04730224609375,-0.329132080078125,-0.923583984375,0.5621469616889954,0.4778826832771301,-0.20436298847198486
-0.0369873046875,-0.3405303955078125,-0.897613525390625,0.4779719114303589,0.482043594121933,-0.21625374257564545
-0.0264892578125,-0.349029541015625,-0.8813629150390625,0.39627811312675476,0.4722173511981964,-0.22226423025131226
-0.0155792236328125,-0.3502960205078125,-0.8777313232421875,0.32311680912971497,0.459139883518219,-0.2241809070110321
-0.0080718994140625,-0.3525848388671875,-0.8888092041015625,0.2714664041996002,0.4120860993862152,-0.2248765230178833
-0.0017242431640625,-0.360504150390625,-0.9016876220703125,0.2400514781475067,0.34694704413414,-0.23021402955055237
0.0044403076171875,-0.368072509765625,-0.913848876953125,0.22942572832107544,0.29504814743995667,-0.24120250344276428
0.0106658935546875,-0.3720550537109375,-0.923126220703125,0.24389494955539703,0.26595231890678406,-0.24806226789951324
0.0160980224609375,-0.3737945556640625,-0.9309844970703125,0.2871532142162323,0.26813051104545593,-0.26024675369262695
0.0218963623046875,-0.3774261474609375,-0.9435577392578125,0.3505188822746277,0.2686423659324646,-0.2622862160205841
0.0301666259765625,-0.380096435546875,-0.946990966796875,0.4035615921020508,0.28124311566352844,-0.24896535277366638
0.041778564453125,-0.38372802734375,-0.939697265625,0.40660902857780457,0.27431970834732056,-0.22401899099349976
0.0565338134765625,-0.3925323486328125,-0.918853759765625,0.35473623871803284,0.2423228919506073,-0.1886703073978424
0.0654296875,-0.40716552734375,-0.8961639404296875,0.25430765748023987,0.1769460141658783,-0.1605643779039383
0.070709228515625,-0.4173736572265625,-0.88055419921875,0.1395653486251831,0.08612183481454849,-0.1424756497144699
0.07470703125,-0.422271728515625,-0.8720855712890625,0.03567570447921753,0.013796239160001278,-0.13240757584571838
0.0741119384765625,-0.421783447265625,-0.87738037109375,0.0004316983977332711,0.005058408249169588,-0.13225284218788147
0.070098876953125,-0.4149932861328125,-0.9038848876953125,0.04731105640530586,0.04639945551753044,-0.13810274004936218
0.0614776611328125,-0.404052734375,-0.9324798583984375,0.1482856124639511,0.13596609234809875,-0.14935486018657684
0.050628662109375,-0.395599365234375,-0.952728271484375,0.2690756618976593,0.23838940262794495,-0.1707584261894226
0.04583740234375,-0.3931884765625,-0.9590606689453125,0.37924718856811523,0.3060968220233917,-0.18994463980197906
0.051116943359375,-0.3997344970703125,-0.952301025390625,0.44134971499443054,0.34540852904319763,-0.18442070484161377
0.062957763671875,-0.4093780517578125,-0.9351043701171875,0.4515184462070465,0.34818434715270996,-0.16899754106998444
0.07293701171875,-0.4207916259765625,-0.913726806640625,0.41280674934387207,0.32353171706199646,-0.15293681621551514
0.077728271484375,-0.4293975830078125,-0.8931121826171875,0.35826361179351807,0.2914787232875824,-0.14046789705753326
0.078521728515625,-0.435882568359375,-0.88433837890625,0.29161080718040466,0.2504234313964844,-0.13015320897102356
0.0779571533203125,-0.4393463134765625,-0.883819580078125,0.2355068027973175,0.20516008138656616,-0.12010350078344345
0.079437255859375,-0.44049072265625,-0.887420654296875,0.19289249181747437,0.1468549519777298,-0.12399891018867493
0.07794189453125,-0.43963623046875,-0.8940277099609375,0.1498187929391861,0.09059727936983109,-0.1285417228937149
0.0808258056640625,-0.441009521484375,-0.895751953125,0.10208935290575027,0.009659817442297935,-0.13105815649032593
0.088836669921875,-0.447021484375,-0.897186279296875,0.06610152125358582,-0.07060039788484573,-0.1268032193183899
0.097503662109375,-0.4544677734375,-0.899627685546875,0.03780889883637428,-0.13560736179351807,-0.1111568808555603
0.1077728271484375,-0.4589080810546875,-0.8979644775390625,-0.06983580440282822,-0.7103760838508606,-0.11183598637580872
0.1552734375,-0.492156982421875,-0.7049713134765625,-0.3629385232925415,-0.48534777760505676,-0.029708893969655037
0.2028350830078125,-0.497711181640625,-0.64447021484375,-0.5237053036689758,-0.07861864566802979,0.10367845743894577
0.09735107421875,-0.4781341552734375,-0.7533111572265625,-0.4607686698436737,0.19767312705516815,0.11401046067476273
0.0032501220703125,-0.475799560546875,-0.9030914306640625,-0.3093738257884979,0.24964524805545807,0.024529311805963516
0.0306854248046875,-0.4525299072265625,-0.9940185546875,-0.17830368876457214,0.005664810072630644,-0.016585368663072586
0.1156158447265625,-0.4415283203125,-0.9917449951171875,-0.12214428186416626,-0.16211752593517303,0.05594369396567345
0.1644744873046875,-0.422515869140625,-0.964385986328125,-0.15412192046642303,-0.16042137145996094,0.12469665706157684
0.141693115234375,-0.442840576171875,-0.938018798828125,-0.22468210756778717,-0.15041133761405945,0.13343662023544312
0.101806640625,-0.4628143310546875,-0.911376953125,-0.29872065782546997,-0.1753941923379898,0.14072754979133606
0.10052490234375,-0.4456634521484375,-0.9001922607421875,-0.3663138151168823,-0.23780137300491333,0.15329447388648987
0.10662841796875,-0.4300689697265625,-0.897247314453125,-0.42323753237724304,-0.2918153405189514,0.17136669158935547
0.0930633544921875,-0.4351959228515625,-0.9012451171875,-0.48499253392219543,-0.3157409131526947,0.18114902079105377
0.0755767822265625,-0.4379425048828125,-0.9062042236328125,-0.5266169309616089,-0.34735584259033203,0.18497757613658905
0.064605712890625,-0.4294586181640625,-0.9176177978515625,-0.5211797952651978,-0.3577565550804138,0.18880613148212433
0.055938720703125,-0.4146881103515625,-0.94281005859375,-0.4635780453681946,-0.3552747368812561,0.18916113674640656
0.0475006103515625,-0.40106201171875,-0.9659881591796875,-0.37032851576805115,-0.3427746593952179,0.1843317598104477
0.0384979248046875,-0.39276123046875,-0.980194091796875,-0.2715305685997009,-0.31579017639160156,0.18468569219112396
0.0337066650390625,-0.3889923095703125,-0.9822998046875,-0.19079604744911194,-0.2844865918159485,0.20311637222766876
0.0338592529296875,-0.388946533203125,-0.971160888671875,-0.1429222673177719,-0.24900636076927185,0.24111488461494446
0.035919189453125,-0.39410400390625,-0.956573486328125,-0.1299063265323639,-0.2163970172405243,0.29235249757766724
0.03765869140625,-0.3970184326171875,-0.93902587890625,-0.14739318192005157,-0.20184816420078278,0.352664053440094
0.03387451171875,-0.3946380615234375,-0.9276123046875,-0.15833424031734467,-0.17325007915496826,0.4064561724662781
0.0223846435546875,-0.3909759521484375,-0.9228668212890625,-0.17015895247459412,-0.11745551973581314,0.4409981667995453
0.001007080078125,-0.38153076171875,-0.92047119140625,-0.17980624735355377,-0.06472813338041306,0.4461258053779602
-0.0225372314453125,-0.36431884765625,-0.91815185546875,-0.18027523159980774,-0.037038978189229965,0.4199298918247223
-0.044097900390625,-0.3498077392578125,-0.916717529296875,-0.18451684713363647,-0.01257890835404396,0.3743291199207306
-0.05419921875,-0.3409576416015625,-0.917327880859375,-0.19352711737155914,0.00794580765068531,0.32337087392807007
-0.05755615234375,-0.3358001708984375,-0.9141387939453125,-0.20105721056461334,0.02689286693930626,0.2732725441455841
-0.0597991943359375,-0.335845947265625,-0.9185943603515625,-0.21346807479858398,0.0335552953183651,0.2256898581981659
-0.0559844970703125,-0.3350372314453125,-0.9256744384765625,-0.21429657936096191,0.030162429437041283,0.1847299039363861
-0.0523223876953125,-0.3311920166015625,-0.932037353515625,-0.20902937650680542,0.024353543296456337,0.14564748108386993
-0.0470733642578125,-0.326995849609375,-0.9368743896484375,-0.1982254683971405,0.01805010624229908,0.12065930664539337
-0.0373687744140625,-0.329681396484375,-0.9409942626953125,-0.17928533256053925,0.019952936097979546,0.10725615173578262
-0.0314483642578125,-0.3358917236328125,-0.9472808837890625,-0.1546819806098938,0.026016419753432274,0.09830153733491898
-0.0319061279296875,-0.339874267578125,-0.949188232421875,-0.13800500333309174,0.037706367671489716,0.08156010508537292
-0.0335540771484375,-0.3389892578125,-0.95166015625,-0.12200713157653809,0.04310645908117294,0.06087639927864075
-0.031829833984375,-0.3392181396484375,-0.9550628662109375,-0.09784027934074402,0.03647039458155632,0.03993196785449982
-0.0308837890625,-0.3331451416015625,-0.9550933837890625,-0.0831497460603714,0.0321347676217556,0.018868496641516685
-0.0298614501953125,-0.3242645263671875,-0.9583587646484375,-0.060150954872369766,0.03235314413905144,-0.0030149647500365973
-0.02886962890625,-0.31988525390625,-0.9617919921875,-0.04399488866329193,0.025684591382741928,-0.02436659298837185
-0.0223236083984375,-0.315887451171875,-0.9603729248046875,-0.03779744729399681,0.004792091902345419,-0.039872583001852036
-0.01373291015625,-0.3152313232421875,-0.9542388916015625,-0.04747723788022995,-0.01392753329128027,-0.0535990446805954
-0.0105438232421875,-0.321929931640625,-0.9470977783203125,-0.06437605619430542,-0.023571904748678207,-0.06811167299747467
-0.0111236572265625,-0.3265228271484375,-0.9436798095703125,-0.07740157842636108,-0.024939971044659615,-0.08597216755151749
-0.013427734375,-0.33026123046875,-0.946685791015625,-0.0766361877322197,-0.020730046555399895,-0.10198628902435303
-0.0142974853515625,-0.3294219970703125,-0.9527587890625,-0.06355313956737518,-0.023375364020466805,-0.11757510155439377
-0.011749267578125,-0.32421875,-0.9539337158203125,-0.05341155827045441,-0.02250930294394493,-0.1347929686307907
-0.008880615234375,-0.3231658935546875,-0.9509429931640625,-0.05362461134791374,-0.03099493309855461,-0.14456011354923248
-0.0014801025390625,-0.3271026611328125,-0.94110107421875,-0.07804952561855316,-0.04940483346581459,-0.15328596532344818
0.0068359375,-0.3349609375,-0.931121826171875,-0.11564697325229645,-0.0794769823551178,-0.15941229462623596
0.01336669921875,-0.3388671875,-0.9277801513671875,-0.1442573070526123,-0.1068529486656189,-0.15816166996955872
0.023040771484375,-0.3416748046875,-0.9329071044921875,-0.15581436455249786,-0.12639735639095306,-0.1466485559940338
0.026519775390625,-0.3458099365234375,-0.946075439453125,-0.15178659558296204,-0.13315220177173615,-0.13146881759166718
0.0256195068359375,-0.347564697265625,-0.9555816650390625,-0.14193369448184967,-0.1346009522676468,-0.1194494292140007
0.0203094482421875,-0.3467254638671875,-0.9568634033203125,-0.14217045903205872,-0.13451173901557922,-0.1075749322772026
0.01678466796875,-0.346221923828125,-0.9522247314453125,-0.14947417378425598,-0.15107420086860657,-0.09821498394012451
0.019195556640625,-0.3499603271484375,-0.941375732421875,0.0830962210893631,-0.14771249890327454,-0.1414458155632019
0.031982421875,-0.3786163330078125,-0.931915283203125,0.2674697935581207,0.21354317665100098,-0.045701440423727036
0.0666656494140625,-0.3784332275390625,-0.9156036376953125,0.24479269981384277,0.5361811518669128,0.13264699280261993
0.0595703125,-0.3729705810546875,-0.8769073486328125,0.08235479146242142,0.48510465025901794,0.15860402584075928
-0.00115966796875,-0.3914031982421875,-0.8506927490234375,-0.14730902016162872,0.2436017394065857,0.08871841430664062
-0.0084991455078125,-0.37103271484375,-0.85345458984375,-0.3287658989429474,-0.08817486464977264,0.027997545897960663
0.02679443359375,-0.345306396484375,-0.880859375,-0.41810110211372375,-0.27551332116127014,0.03677958622574806
0.0427398681640625,-0.3224639892578125,-0.9233551025390625,-0.4159737825393677,-0.24465209245681763,0.05579216033220291
0.0242462158203125,-0.3239288330078125,-0.9601898193359375,-0.3616005480289459,-0.17021647095680237,0.028565865010023117
-0.0034637451171875,-0.3369293212890625,-0.978179931640625,-0.2818620502948761,-0.11359793692827225,0.007388674188405275
-0.0001678466796875,-0.329681396484375,-0.9854736328125,-0.2133554220199585,-0.09016317874193192,0.013539244420826435
0.0129241943359375,-0.3215789794921875,-0.9817352294921875,-0.16441397368907928,-0.05693412199616432,0.028352811932563782
0.0156402587890625,-0.321075439453125,-0.972625732421875,-0.1300666630268097,-0.023921310901641846,0.047321710735559464
0.01470947265625,-0.325164794921875,-0.968170166015625,-0.10004483908414841,0.010301905684173107,0.14657479524612427
0.010498046875,-0.3237152099609375,-0.967529296875,-0.0686296597123146,0.05700363218784332,0.09922538697719574
0.0065765380859375,-0.31866455078125,-0.972442626953125,-0.048519331961870193,0.08163094520568848,0.10365822166204453
-0.00238037109375,-0.3126373291015625,-0.9704742431640625,-0.039868585765361786,0.0935073122382164,0.10700075328350067
-0.00933837890625,-0.3089141845703125,-0.968902587890625,-0.046068426221609116,0.09777955710887909,0.09975189715623856
-0.0173187255859375,-0.304290771484375,-0.964019775390625,-0.06488605588674545,0.09002283215522766,0.0731586292386055
-0.02362060546875,-0.300506591796875,-0.960662841796875,-0.078099325299263,0.057739727199077606,0.04427052661776543
-0.0308380126953125,-0.3032989501953125,-0.9639892578125,-0.08743823319673538,0.04122946038842201,0.02491440437734127
-0.0301513671875,-0.303558349609375,-0.9685211181640625,-0.10101582854986191,0.02502785436809063,0.006813431158661842
-0.03533935546875,-0.30255126953125,-0.966278076171875,-0.11893996596336365,0.027847610414028168,-0.0023699470330029726
-0.0359954833984375,-0.301239013671875,-0.96343994140625,-0.14065031707286835,0.027294738218188286,-0.01763545349240303
-0.030670166015625,-0.29827880859375,-0.9583740234375,-0.16250449419021606,0.016877517104148865,-0.028440961614251137
-0.0258941650390625,-0.2989349365234375,-0.955078125,-0.18997898697853088,0.027163976803421974,-0.03153076022863388
-0.020965576171875,-0.302520751953125,-0.9527130126953125,-0.22311750054359436,0.03027375042438507,-0.017943046987056732
-0.0147705078125,-0.306182861328125,-0.9505767822265625,-0.24282942712306976,0.00868936162441969,-0.006148706190288067
-0.0108184814453125,-0.3011322021484375,-0.953125,-0.251088410615921,-0.03471909835934639,0.0005243764026090503
-0.007049560546875,-0.2926177978515625,-0.960906982421875,-0.2346324771642685,-0.07567931711673737,0.0005787048721686006
-0.008392333984375,-0.28485107421875,-0.96893310546875,-0.20162872970104218,-0.10188615322113037,-0.01332565862685442
-0.014007568359375,-0.29071044921875,-0.9803924560546875,-0.16071857511997223,-0.11041705310344696,-0.017018398270010948
-0.0124969482421875,-0.297454833984375,-0.9847564697265625,-0.12009605020284653,-0.08609653264284134,-0.004868524614721537
-0.0099639892578125,-0.3012542724609375,-0.979888916015625,-0.0869777724146843,-0.041839323937892914,0.01629694737493992
-0.0081787109375,-0.3005523681640625,-0.9750213623046875,-0.05847902223467827,0.013915815390646458,0.037398505955934525
-0.003662109375,-0.2958831787109375,-0.9671630859375,-0.03809785097837448,0.04826074093580246,0.0478905588388443
0.0005035400390625,-0.2855377197265625,-0.9541778564453125,-0.023900805041193962,0.06673029065132141,0.05137450620532036
-0.000732421875,-0.2767486572265625,-0.945556640625,-0.023682426661252975,0.06694281101226807,0.04697869345545769
-0.0043792724609375,-0.27978515625,-0.94378662109375,-0.04315359517931938,0.03376968204975128,0.02738581784069538
-0.00927734375,-0.2800750732421875,-0.93939208984375,-0.07627932727336884,0.00532419141381979,0.00836685299873352
-0.0061492919921875,-0.279296875,-0.942169189453125,-0.11313454061746597,-0.024472320452332497,-0.001514539704658091
-0.0025634765625,-0.2832794189453125,-0.947784423828125,-0.14111824333667755,-0.049303632229566574,0.0001536643976578489
0.00146484375,-0.28167724609375,-0.953887939453125,-0.1558697521686554,-0.07955501228570938,-0.001960619119927287
-0.000244140625,-0.2802276611328125,-0.95550537109375,-0.162024587392807,-0.09921153634786606,-0.007182545494288206
-0.0057525634765625,-0.2781982421875,-0.9588623046875,-0.1549895852804184,-0.09409427642822266,-0.013527526520192623
-0.0067138671875,-0.2749176025390625,-0.9673614501953125,-0.13919544219970703,-0.11237341165542603,-0.018495386466383934
-0.0038909912109375,-0.2733154296875,-0.96331787109375,-0.14371030032634735,-0.12073387205600739,-0.02124856412410736
-0.000213623046875,-0.271759033203125,-0.9500885009765625,-0.15988154709339142,-0.10098999738693237,-0.01870684139430523
-0.0015869140625,-0.2721710205078125,-0.9409942626953125,-0.1653119921684265,-0.13474982976913452,-0.008403871208429337
-0.0027618408203125,-0.272979736328125,-0.9346160888671875,-0.12399544566869736,-0.16859593987464905,0.011886220425367355
-0.0016937255859375,-0.2566070556640625,-0.9455718994140625,-0.10153114795684814,-0.09841924905776978,0.005629123654216528
-0.018157958984375,-0.2564697265625,-0.9620819091796875,-0.08740867674350739,-0.02665344811975956,-0.013344300910830498
-0.0378875732421875,-0.2738189697265625,-0.967926025390625,-0.09025053679943085,0.010391121730208397,-0.03376968204975128
-0.0350494384765625,-0.2770843505859375,-0.9698486328125,-0.11783821880817413,-0.006703176535665989,-0.040834248065948486
-0.0202789306640625,-0.2719268798828125,-0.9588470458984375,-0.16950993239879608,-0.036981187760829926,-0.042224153876304626
-0.015594482421875,-0.2705535888671875,-0.94598388671875,-0.24102379381656647,-0.04072266072034836,-0.04134637489914894
-0.0144500732421875,-0.2738189697265625,-0.9363861083984375,-0.29840826988220215,-0.028244420886039734,-0.01949806697666645
-0.0147857666015625,-0.2747802734375,-0.9295654296875,-0.2974364757537842,-0.01281806081533432,0.0057479003444314
-0.00494384765625,-0.26104736328125,-0.937103271484375,-0.24145843088626862,0.0545324832201004,0.014301707968115807
-0.0071868896484375,-0.2440948486328125,-0.9729461669921875,-0.14446690678596497,0.12393686175346375,0.010468619875609875
-0.0189666748046875,-0.2566375732421875,-1.0202789306640625,-0.01876809448003769,0.1417936235666275,-0.0019590212032198906
-0.020599365234375,-0.264678955078125,-1.0619659423828125,0.11945874989032745,0.09327268600463867,0.0017299894243478775
-0.00982666015625,-0.2642669677734375,-1.0793914794921875,0.23572996258735657,0.01936677284538746,0.016215987503528595
-0.001129150390625,-0.2610626220703125,-1.062713623046875,0.2893902659416199,-0.010465424507856369,0.01768711768090725
-0.006805419921875,-0.2584075927734375,-1.032196044921875,0.28634920716285706,-0.02996615506708622,0.005678924731910229
-0.011749267578125,-0.2543182373046875,-0.986602783203125,0.227926105260849,-0.026743197813630104,0.007814513519406319
-0.011627197265625,-0.2498321533203125,-0.9505462646484375,0.13937413692474365,-0.0013875069562345743,0.00881825853139162
-0.01556396484375,-0.2490081787109375,-0.935089111328125,0.05146505683660507,0.005691175349056721,-0.0008953547803685069
-0.021759033203125,-0.25091552734375,-0.9361724853515625,-0.004698615055531263,-0.012647352181375027,0.061354171484708786
-0.022186279296875,-0.2523651123046875,-0.9532318115234375,-0.032400816679000854,-0.03768426179885864,-0.025478728115558624
-0.020965576171875,-0.2539215087890625,-0.9707183837890625,-0.026508307084441185,-0.06023111566901207,-0.04150722920894623
-0.0228118896484375,-0.260040283203125,-0.9814605712890625,-0.004482898861169815,-0.05495699122548103,-0.036498889327049255
-0.019287109375,-0.2654266357421875,-0.985626220703125,0.03533881530165672,-0.038487471640110016,-0.02738555148243904
-0.0178070068359375,-0.2678375244140625,-0.9863433837890625,0.07008907198905945,-0.03153182566165924,-0.01834997907280922
-0.0159912109375,-0.2690887451171875,-0.977508544921875,0.08768697828054428,-0.021445371210575104,-0.010342119261622429
-0.014984130859375,-0.2680511474609375,-0.9646759033203125,0.0873093381524086,-0.009897638112306595,-0.011390872299671173
-0.01568603515625,-0.2682037353515625,-0.9566650390625,0.07875100523233414,-0.013569071888923645,-0.010043845511972904
-0.0152435302734375,-0.266357421875,-0.9503936767578125,0.06063485145568848,-0.015846872702240944,-0.013741645030677319
-0.0184783935546875,-0.2645111083984375,-0.9480743408203125,0.04959205538034439,-0.012046010233461857,-0.023519441485404968
-0.0242767333984375,-0.26397705078125,-0.95263671875,0.03911970555782318,0.0002892192860599607,-0.03588077053427696
-0.025634765625,-0.260955810546875,-0.9577178955078125,0.041784197092056274,-0.009336776100099087,-0.04578293487429619
-0.0244293212890625,-0.2615509033203125,-0.9617767333984375,0.04338742047548294,-0.010355168953537941,-0.05144108831882477
-0.0215911865234375,-0.2638397216796875,-0.9626922607421875,0.028842832893133163,-0.00791651289910078,-0.04208353906869888
-0.015655517578125,-0.2675628662109375,-0.954620361328125,0.0027441212441772223,4.953479583491571e-05,-0.027636155486106873
-0.01019287109375,-0.27191162109375,-0.9467926025390625,-0.030178941786289215,0.00646615494042635,-0.010075271129608154
-0.0115966796875,-0.2755126953125,-0.94854736328125,-0.05421610176563263,0.0019465044606477022,-0.0033372072502970695
-0.01788330078125,-0.274688720703125,-0.96124267578125,-0.058876633644104004,-0.027635889127850533,-0.010913900099694729
-0.0228424072265625,-0.270660400390625,-0.9770050048828125,-0.060613811016082764,-0.06666424870491028,-0.026088058948516846
-0.02349853515625,-0.2646636962890625,-0.981719970703125,-0.06295233219861984,-0.10575146228075027,-0.040409475564956665
-0.02166748046875,-0.2649383544921875,-0.98223876953125,0.30251458287239075,0.1235315278172493,-0.09438775479793549
-0.01593017578125,-0.29705810546875,-1.0225677490234375,0.7479868531227112,0.5656271576881409,-0.011024155654013157
0.017852783203125,-0.311187744140625,-1.020751953125,0.8111093640327454,0.8032064437866211,0.16110526025295258
0.0272674560546875,-0.2693328857421875,-0.9400634765625,0.5680211186408997,0.5817688703536987,0.15438531339168549
-0.0204620361328125,-0.29241943359375,-0.8545989990234375,0.1700260490179062,0.2229129672050476,0.08863665908575058
-0.03314208984375,-0.285186767578125,-0.8206939697265625,-0.21178388595581055,-0.10051462054252625,0.06009316444396973
-0.0147705078125,-0.2593231201171875,-0.8387908935546875,-0.49334314465522766,-0.32475465536117554,-0.0049223206005990505
-0.0354461669921875,-0.2595672607421875,-0.892364501953125,-0.6235445141792297,-0.4015812575817108,-0.09250729531049728
-0.04534912109375,-0.2606964111328125,-0.956390380859375,-0.5713188648223877,-0.3625110685825348,-0.14964860677719116
-0.0303802490234375,-0.2520599365234375,-1.02215576171875,-0.38130155205726624,-0.28418484330177307,-0.16740897297859192
-0.02032470703125,-0.2555084228515625,-1.0678558349609375,-0.14021143317222595,-0.18529289960861206,-0.16038568317890167
-0.0171356201171875,-0.27398681640625,-1.08978271484375,0.092592254281044,-0.08702438324689865,-0.1291087120771408
-0.005706787109375,-0.28277587890625,-1.085662841796875,0.27749019861221313,0.011901400052011013,-0.0789206475019455
0.0037689208984375,-0.2886505126953125,-1.0614166259765625,0.41034412384033203,0.09753508120775223,-0.025462215766310692
0.0040283203125,-0.2968597412109375,-1.0287933349609375,0.46107015013694763,0.16719591617584229,0.012234295718371868
-0.0066070556640625,-0.2919769287109375,-0.9903564453125,0.4173048138618469,0.19473139941692352,0.003195793367922306
-0.0131683349609375,-0.2863006591796875,-0.9503173828125,0.29800665378570557,0.1379818320274353,0.028201011940836906
-0.01593017578125,-0.285064697265625,-0.9173583984375,0.13972167670726776,0.04523831978440285,-0.009520001709461212
-0.0134735107421875,-0.28607177734375,-0.9034271240234375,-0.011441206559538841,-0.0656365305185318,-0.03852581977844238
-0.0179443359375,-0.2869720458984375,-0.9097442626953125,-0.11192920058965683,-0.13500602543354034,-0.061582669615745544
-0.0160675048828125,-0.28533935546875,-0.9297027587890625,-0.140597864985466,-0.147004634141922,-0.07563004642724991
-0.013214111328125,-0.2826690673828125,-0.954071044921875,-0.11061306297779083,-0.12007714062929153,-0.07718533277511597
-0.0060577392578125,-0.2814178466796875,-0.976287841796875,-0.055144477635622025,-0.07969456166028976,-0.06408018618822098
-0.00091552734375,-0.2845611572265625,-0.987274169921875,0.001073786523193121,-0.04699254408478737,-0.048597097396850586
0.0027923583984375,-0.28875732421875,-0.9840240478515625,0.030469225719571114,-0.02761458419263363,-0.0297861248254776
0.00628662109375,-0.290863037109375,-0.9759979248046875,0.365105003118515,0.3109927773475647,-0.029398368671536446
0.0104827880859375,-0.3209686279296875,-0.9788360595703125,0.770110011100769,0.8130982518196106,0.08160857856273651
0.0267181396484375,-0.3370513916015625,-0.953033447265625,0.8568443655967712,1.0231322050094604,0.2331637442111969
0.01959228515625,-0.274200439453125,-0.9076995849609375,0.6546412110328674,0.8065058588981628,0.20702029764652252
-0.0305938720703125,-0.3118743896484375,-0.85546875,0.2592363655567169,0.3808552026748657,0.11598172783851624
-0.033538818359375,-0.3143157958984375,-0.833099365234375,-0.1600240170955658,-0.10932542383670807,0.05134867504239082
-0.0044403076171875,-0.286773681640625,-0.840362548828125,-0.4998185932636261,-0.45615875720977783,-0.021096495911478996
-0.0149688720703125,-0.277618408203125,-0.873748779296875,-0.6956483125686646,-0.6070894002914429,-0.1346917748451233
-0.025177001953125,-0.2780303955078125,-0.9266204833984375,-0.7071595191955566,-0.6026768088340759,-0.20682774484157562
-0.023651123046875,-0.2606353759765625,-0.9931793212890625,-0.5650740265846252,-0.46289148926734924,-0.21656745672225952
-0.0179595947265625,-0.26397705078125,-1.0543212890625,-0.34288597106933594,-0.2986482083797455,-0.2079547941684723
-0.0146026611328125,-0.279388427734375,-1.089263916015625,-0.09409400820732117,-0.17042739689350128,-0.17863765358924866
-0.000823974609375,-0.286224365234375,-1.0944976806640625,0.12607191503047943,-0.04910869151353836,-0.11503683775663376
0.0202178955078125,-0.2904052734375,-1.078460693359375,0.2806580364704132,0.08632530272006989,-0.03206925466656685
0.022918701171875,-0.3018035888671875,-1.04376220703125,0.35135403275489807,0.20478270947933197,0.03482455760240555
0.0107269287109375,-0.307525634765625,-1.0100860595703125,0.3462599515914917,0.24580417573451996,-0.01617657206952572
-0.0077667236328125,-0.3003082275390625,-0.979644775390625,0.29089096188545227,0.19988089799880981,0.03761368617415428
-0.0192718505859375,-0.2913360595703125,-0.9622344970703125,0.19338783621788025,0.09007450193166733,-0.011997540481388569
-0.02398681640625,-0.2906951904296875,-0.9522247314453125,0.14128336310386658,0.06061301380395889,-0.06812099367380142
-0.02105712890625,-0.300811767578125,-0.9423675537109375,0.32665666937828064,0.40431684255599976,-0.08129485696554184
0.0116729736328125,-0.3565521240234375,-0.9087982177734375,0.4858734905719757,0.6853660941123962,0.009363674558699131
0.0390625,-0.33966064453125,-0.8761444091796875,0.45375069975852966,0.6977713704109192,0.08954213559627533
0.033599853515625,-0.3157196044921875,-0.8693389892578125,0.28194460272789,0.5504950881004333,0.08932774513959885
0.007659912109375,-0.330352783203125,-0.8654632568359375,0.05567338317632675,0.3043428659439087,0.05847981944680214
0.0086669921875,-0.31414794921875,-0.8766326904296875,-0.16298039257526398,0.016280170530080795,0.024447020143270493
0.0195770263671875,-0.28729248046875,-0.9075927734375,-0.3416558802127838,-0.23330622911453247,-0.011656922288239002
0.016387939453125,-0.2771453857421875,-0.945068359375,-0.44960445165634155,-0.36938655376434326,-0.06378030776977539
0.00738525390625,-0.276458740234375,-0.982147216796875,-0.46134018898010254,-0.4127683937549591,-0.1227477565407753
0.005767822265625,-0.279815673828125,-1.0121612548828125,-0.3875916600227356,-0.38297879695892334,-0.14222557842731476
0.0076141357421875,-0.275482177734375,-1.032073974609375,-0.2669864296913147,-0.29886844754219055,-0.13654212653636932
0.0129241943359375,-0.2826385498046875,-1.03680419921875,-0.1322011798620224,-0.2297394573688507,-0.12713611125946045
0.010101318359375,-0.30029296875,-1.0260467529296875,-0.014178137294948101,-0.15226170420646667,-0.10134685784578323
0.01483154296875,-0.3111419677734375,-1.014190673828125,0.0866885557770729,-0.08266984671354294,-0.05307626724243164
0.026947021484375,-0.316497802734375,-0.9939422607421875,0.16079634428024292,-0.01926317624747753,-0.0020445086993277073
0.0267791748046875,-0.3195953369140625,-0.9674835205078125,0.19562649726867676,0.050808053463697433,0.030254041776061058
0.01715087890625,-0.320098876953125,-0.9464111328125,0.1913214921951294,0.09593265503644943,-0.03612285107374191
0.00701904296875,-0.3147735595703125,-0.9267120361328125,0.16053082048892975,0.0845007672905922,0.04068724066019058
0.00042724609375,-0.3089141845703125,-0.9141693115234375,0.09472517669200897,0.053105030208826065,0.021943647414445877
-0.0013885498046875,-0.306640625,-0.904052734375,0.014286793768405914,0.002222940558567643,0.0065103634260594845
-0.007659912109375,-0.3076934814453125,-0.89654541015625,-0.06271371245384216,-0.012359198182821274,-0.0005645901546813548
-0.006256103515625,-0.3052215576171875,-0.899871826171875,-0.1045871302485466,-0.01883254386484623,-0.009660882875323296
-0.003875732421875,-0.3056488037109375,-0.91693115234375,-0.09167559444904327,0.0035294874105602503,-0.008478439413011074
0.0009613037109375,-0.3047332763671875,-0.9468536376953125,-0.033913493156433105,0.0420670248568058,0.00586800929158926
0.003753662109375,-0.300018310546875,-0.9747161865234375,0.04422232136130333,0.08804037421941757,0.020852817222476006
0.005401611328125,-0.296478271484375,-0.9904937744140625,0.11225517094135284,0.1265542060136795,0.029742715880274773
0.003753662109375,-0.2909088134765625,-0.99127197265625,0.14229828119277954,0.14569967985153198,0.026746924966573715
-0.0004425048828125,-0.2862701416015625,-0.980560302734375,0.13545289635658264,0.14082689583301544,0.018629876896739006
-0.0036163330078125,-0.2837982177734375,-0.9671783447265625,0.09681069850921631,0.10707931220531464,-0.005842708982527256
-0.0038909912109375,-0.2816314697265625,-0.9570159912109375,0.047145407646894455,0.06284128129482269,-0.02924443781375885
-0.00347900390625,-0.283233642578125,-0.9552459716796875,-0.0028692898340523243,0.009733054786920547,-0.05059633031487465
-0.0023193359375,-0.2852630615234375,-0.9554290771484375,-0.036140695214271545,-0.035771314054727554,-0.06639286875724792
0.001312255859375,-0.288421630859375,-0.9621734619140625,-0.04776352643966675,-0.061772555112838745,-0.07935607433319092
0.00555419921875,-0.2894134521484375,-0.9701995849609375,-0.046067360788583755,-0.07913316786289215,-0.08178620785474777
0.01141357421875,-0.2936859130859375,-0.9698944091796875,-0.051472511142492294,-0.09011950343847275,-0.07883062958717346
0.0160675048828125,-0.3000030517578125,-0.9618988037109375,-0.05324511229991913,-0.08806195110082626,-0.06398111581802368
0.0183868408203125,-0.3057403564453125,-0.9544677734375,-0.054848335683345795,-0.083021380007267,-0.052203018218278885
0.01934814453125,-0.3099517822265625,-0.953460693359375,-0.03285302221775055,-0.07063848525285721,-0.04037725180387497
0.0168304443359375,-0.3143157958984375,-0.9590301513671875,0.009099222719669342,-0.03193316608667374,-0.028609007596969604
0.0130462646484375,-0.3166046142578125,-0.9694061279296875,0.059305135160684586,0.008553806692361832,-0.01344709936529398
0.00982666015625,-0.3149871826171875,-0.9745941162109375,0.09815426170825958,0.03374757617712021,-0.006113286130130291
0.007110595703125,-0.3118896484375,-0.9709930419921875,0.1097203716635704,0.043542418628931046,-0.009770339354872704
0.0065155029296875,-0.3091583251953125,-0.958465576171875,0.09461971372365952,0.014316621236503124,-0.01426229253411293
0.008087158203125,-0.3066253662109375,-0.9462127685546875,0.055985771119594574,-0.017842913046479225,-0.02658979967236519
0.0083160400390625,-0.3067779541015625,-0.9382171630859375,0.013295565731823444,-0.03626932576298714,-0.03272359073162079
0.0085601806640625,-0.3098297119140625,-0.940277099609375,-0.019274095073342323,-0.06306605041027069,-0.032431710511446
0.0093994140625,-0.3100738525390625,-0.944580078125,-0.04615524411201477,-0.07012342661619186,-0.014999455772340298
0.0133056640625,-0.3098297119140625,-0.94854736328125,-0.07308939099311829,-0.08206051588058472,-0.0004087952256668359
0.0145111083984375,-0.309112548828125,-0.9500732421875,-0.09301063418388367,-0.10293517261743546,0.004258128348737955
0.0106201171875,-0.3073883056640625,-0.9473876953125,-0.10030423104763031,-0.08407120406627655,-0.0014293185668066144
0.0059356689453125,-0.299591064453125,-0.9446258544921875,-0.09638645499944687,-0.02544570527970791,-0.010529872961342335
-0.0009765625,-0.2958984375,-0.9504547119140625,-0.0853646993637085,0.035707928240299225,-0.01600692979991436
0.000518798828125,-0.29620361328125,-0.959869384765625,-0.07951027154922485,0.029150428250432014,-0.018203770741820335
0.0045166015625,-0.296875,-0.963897705078125,-0.07345930486917496,-0.009594570845365524,-0.022892532870173454
0.006317138671875,-0.295806884765625,-0.9630889892578125,-0.07863755524158478,-0.05197611451148987,-0.01458666566759348
0.0091552734375,-0.29522705078125,-0.9567108154296875,-0.09335125237703323,-0.07484681159257889,-0.01022467389702797
0.006011962890625,-0.299346923828125,-0.9479217529296875,-0.11264079064130783,-0.07774806022644043,-0.007619037292897701
0.0013427734375,-0.299835205078125,-0.94281005859375,-0.11251828819513321,-0.07099481672048569,-0.0016170714516192675
-0.0017852783203125,-0.29443359375,-0.945159912109375,-0.1090652346611023,-0.0662490576505661,-0.003344131400808692
-0.0061798095703125,-0.28619384765625,-0.9491729736328125,-0.0964820608496666,-0.06772445142269135,-0.016036223620176315
-0.01116943359375,-0.283172607421875,-0.9498291015625,-0.09093309938907623,-0.06609193235635757,-0.03295368701219559
-0.0139923095703125,-0.28369140625,-0.949493408203125,-0.08899325877428055,-0.05826224014163017,-0.045828208327293396
-0.0127716064453125,-0.280059814453125,-0.9452056884765625,-0.09620057046413422,-0.05025118589401245,-0.04432964697480202
-0.007598876953125,-0.2826690673828125,-0.9421234130859375,-0.09569483250379562,-0.012229502201080322,-0.03587757423520088
-0.0072021484375,-0.2920989990234375,-0.951385498046875,-0.056949302554130554,0.03682565689086914,-0.01661333069205284
-0.00555419921875,-0.298492431640625,-0.9781036376953125,0.013520069420337677,0.0484335795044899,-0.001062068622559309
-0.0018768310546875,-0.298675537109375,-0.9900970458984375,0.0916295200586319,0.07149415463209152,0.011870241723954678
0.0012969970703125,-0.293670654296875,-0.9956207275390625,0.15280473232269287,0.0932372659444809,0.024284034967422485
-0.0003814697265625,-0.291839599609375,-0.9896240234375,0.18665988743305206,0.12147369980812073,0.0241940189152956
-0.0012054443359375,-0.29144287109375,-0.96875,0.17959639430046082,0.18230801820755005,0.019891416653990746
-0.0016021728515625,-0.287078857421875,-0.9547882080078125,0.14051289856433868,0.19499719142913818,0.018669825047254562
0.0034637451171875,-0.286529541015625,-0.9438934326171875,0.08056088536977768,0.16345711052417755,0.008558601140975952
0.00909423828125,-0.2872161865234375,-0.9390869140625,0.02419774793088436,0.11919057369232178,-0.010187922976911068
0.0079803466796875,-0.2920684814453125,-0.94525146484375,-0.011937086470425129,0.046062834560871124,-0.03328791633248329
0.00665283203125,-0.29705810546875,-0.95965576171875,-0.01781628094613552,-0.0026351979468017817,-0.04399222508072853
0.0085601806640625,-0.2992401123046875,-0.974578857421875,0.011780492961406708,-0.013185310177505016,-0.04228007793426514
0.0124969482421875,-0.300872802734375,-0.9928741455078125,0.05499374493956566,-0.0399056039750576,-0.03105778433382511
