accX,accY,accZ,gyroX,gyroY,gyroZ
0.073638916015625,-0.521453857421875,-0.907501220703125,0.014080398716032505,-0.18840159475803375,0.027518443763256073
0.3639373779296875,-0.9379425048828125,-0.0419158935546875,-0.5596821904182434,-0.7582168579101562,-0.18951453268527985
0.3613739013671875,-0.9283599853515625,-0.091705322265625,-0.807996392250061,-0.5787773132324219,-0.10518553853034973
0.3447113037109375,-0.8945770263671875,-0.140289306640625,-0.9844529628753662,-0.3366435468196869,-0.02046399563550949
0.343658447265625,-0.8665771484375,-0.1962738037109375,-1.0899077653884888,-0.16989023983478546,0.045226600021123886
0.336212158203125,-0.8527679443359375,-0.235076904296875,-1.1497172117233276,-0.07872037589550018,0.0801672711968422
0.315765380859375,-0.863800048828125,-0.262786865234375,-1.1636171340942383,-0.07812729477882385,0.09153337776660919
0.3032379150390625,-0.8937530517578125,-0.3023834228515625,-1.1303459405899048,-0.15330912172794342,0.08159393072128296
0.29168701171875,-0.904296875,-0.3228759765625,-1.0460758209228516,-0.21274182200431824,0.06777425110340118
0.2877044677734375,-0.88580322265625,-0.3145904541015625,-0.9470251202583313,-0.28875643014907837,0.06626344472169876
0.3029632568359375,-0.8797149658203125,-0.3021392822265625,-0.8697633743286133,-0.4442179203033447,0.07438848167657852
0.3127288818359375,-0.892822265625,-0.2955474853515625,-0.8181084394454956,-0.6272575259208679,0.08832506835460663
0.3122100830078125,-0.9102630615234375,-0.31561279296875,-0.7956942319869995,-0.7566442489624023,0.10015882551670074
0.3043670654296875,-0.9208831787109375,-0.352935791015625,-0.7706652879714966,-0.7539331912994385,0.09641095995903015
0.294036865234375,-0.915985107421875,-0.3837127685546875,-0.7469745874404907,-0.6355074644088745,0.07986687123775482
0.28204345703125,-0.897247314453125,-0.3951873779296875,-0.7320582270622253,-0.4955945611000061,0.06945284456014633
0.27471923828125,-0.8672027587890625,-0.383697509765625,-0.7460699081420898,-0.3649364113807678,0.06926029920578003
0.269805908203125,-0.8438720703125,-0.3564300537109375,-0.7914547324180603,-0.2558373808860779,0.08060003817081451
0.270263671875,-0.84381103515625,-0.3243408203125,-0.8903389573097229,-0.19654954969882965,0.09632892906665802
0.2787628173828125,-0.8626861572265625,-0.2846832275390625,-1.0570884943008423,-0.1849040687084198,0.10370908677577972
0.2885894775390625,-0.8818206787109375,-0.2347259521484375,-1.2830617427825928,-0.1864819973707199,0.10676585882902145
0.2969818115234375,-0.889617919921875,-0.198272705078125,-1.550840139389038,-0.23159541189670563,0.1058603897690773
0.301788330078125,-0.8841094970703125,-0.1898651123046875,-1.8427252769470215,-0.3548787236213684,0.09739792346954346
0.2858734130859375,-0.85955810546875,-0.214691162109375,-2.130326509475708,-0.5842432379722595,0.08066102117300034
0.2470550537109375,-0.8218231201171875,-0.26544189453125,-2.3811707496643066,-0.8216344714164734,0.05036810040473938
0.21246337890625,-0.7779998779296875,-0.31903076171875,-2.566019058227539,-0.9851759672164917,0.018955048173666
0.19879150390625,-0.7404937744140625,-0.3794708251953125,-2.6643807888031006,-1.0345046520233154,-0.004357996862381697
0.199981689453125,-0.727752685546875,-0.4502716064453125,-2.641072988510132,-1.037680745124817,0.003509779926389456
0.2062225341796875,-0.7279052734375,-0.511322021484375,-2.5442967414855957,-1.1041414737701416,0.006068012677133083
0.22021484375,-0.7415618896484375,-0.574462890625,-2.460125207901001,-1.058516502380371,-0.0805094912648201
0.2236785888671875,-0.7568359375,-0.631805419921875,-2.3558263778686523,-0.9444919228553772,-0.16534368693828583
0.215576171875,-0.750640869140625,-0.6689910888671875,-2.202728033065796,-0.812034547328949,-0.21439698338508606
0.2057952880859375,-0.72613525390625,-0.688751220703125,-2.047231912612915,-0.6683024168014526,-0.25140613317489624
0.19952392578125,-0.6989593505859375,-0.6904144287109375,-1.9190858602523804,-0.6676914691925049,-0.2694820761680603
0.183624267578125,-0.6839141845703125,-0.68414306640625,-1.824091911315918,-0.7272975444793701,-0.3076252043247223
0.182708740234375,-0.67626953125,-0.688232421875,-1.7180339097976685,-0.7648881077766418,-0.36376890540122986
0.1884918212890625,-0.6779632568359375,-0.709228515625,-1.5517797470092773,-0.817628800868988,-0.4300491213798523
0.182037353515625,-0.689208984375,-0.7524871826171875,-1.345963716506958,-0.8732699751853943,-0.5164255499839783
0.1805572509765625,-0.7025299072265625,-0.8134613037109375,-1.1267975568771362,-0.8514328598976135,-0.6193905472755432
0.1941680908203125,-0.709625244140625,-0.8657379150390625,-0.902069628238678,-0.8504892587661743,-0.6618099212646484
0.20880126953125,-0.6899566650390625,-0.8872833251953125,-0.7032042145729065,-0.8634325265884399,-0.6243475079536438
0.2348175048828125,-0.672271728515625,-0.886993408203125,-0.5650061368942261,-0.7817395329475403,-0.5590129494667053
0.2556610107421875,-0.673492431640625,-0.8675079345703125,-0.49814561009407043,-0.6476230025291443,-0.4730410575866699
0.2621307373046875,-0.6629791259765625,-0.8256378173828125,-0.5128180384635925,-0.38757941126823425,-0.41438785195350647
0.2706756591796875,-0.658447265625,-0.7938385009765625,-0.59632807970047,-0.11768801510334015,-0.3540574014186859
0.264617919921875,-0.6687774658203125,-0.7796783447265625,-0.7536418437957764,-0.06065801903605461,-0.3018783628940582
0.23309326171875,-0.673919677734375,-0.7574920654296875,-0.9470741152763367,-0.15822824835777283,-0.26576003432273865
0.2137451171875,-0.671966552734375,-0.744537353515625,-1.1321502923965454,-0.24892567098140717,-0.22703607380390167
0.2028656005859375,-0.6632232666015625,-0.73638916015625,-1.3161014318466187,-0.22852452099323273,-0.17793351411819458
0.1865386962890625,-0.6454010009765625,-0.7338714599609375,-1.5095419883728027,-0.08851548284292221,-0.16947424411773682
0.1469268798828125,-0.6192779541015625,-0.75140380859375,-1.6781760454177856,0.10061289370059967,-0.20759020745754242
0.0978240966796875,-0.586517333984375,-0.7942962646484375,-1.8041374683380127,0.2665099799633026,-0.29918697476387024
0.04534912109375,-0.5478363037109375,-0.8444061279296875,-1.8714543581008911,0.3775020241737366,-0.44261789321899414
0.0098419189453125,-0.4997711181640625,-0.8738250732421875,-1.8676844835281372,0.44376465678215027,-0.6183801293373108
0.0018463134765625,-0.4366912841796875,-0.8965301513671875,-1.8064680099487305,0.47849681973457336,-0.8430665135383606
0.0189208984375,-0.3762969970703125,-0.9708251953125,-1.6452751159667969,0.4740293622016907,-1.091991901397705
0.0621337890625,-0.3116912841796875,-1.05169677734375,-1.3921253681182861,0.6357905864715576,-1.2629908323287964
0.1509552001953125,-0.2807159423828125,-1.11395263671875,-1.1069974899291992,0.782508373260498,-1.271148920059204
0.209564208984375,-0.2958221435546875,-1.13702392578125,-0.7210521697998047,0.6929720640182495,-1.0886640548706055
0.28497314453125,-0.3466033935546875,-1.1729278564453125,-0.1956440657377243,0.5926241874694824,-0.7470081448554993
0.3569183349609375,-0.3527374267578125,-1.159271240234375,0.2984277009963989,0.6833905577659607,-0.34996065497398376
0.404815673828125,-0.3471221923828125,-1.1228179931640625,0.7463753819465637,0.7781415581703186,-0.0016974988393485546
0.455291748046875,-0.3590545654296875,-1.091522216796875,1.1402225494384766,0.5595317482948303,0.256768137216568
0.4970550537109375,-0.407379150390625,-1.0913238525390625,1.5121755599975586,0.3122905194759369,0.45104148983955383
0.481292724609375,-0.4546356201171875,-1.0772857666015625,1.8709734678268433,0.29460448026657104,0.6007266044616699
0.4446563720703125,-0.474517822265625,-1.04669189453125,2.1911187171936035,0.3466953635215759,0.7131849527359009
0.3676605224609375,-0.476806640625,-0.9991607666015625,2.4172070026397705,0.33429622650146484,0.7872394919395447
0.2951202392578125,-0.4791717529296875,-0.95635986328125,2.5592434406280518,0.3299611210823059,0.8024077415466309
0.2477874755859375,-0.5049285888671875,-0.8964996337890625,2.490417718887329,0.4247928261756897,0.6847090721130371
0.234771728515625,-0.5566558837890625,-0.767333984375,2.2054600715637207,0.41515830159187317,0.49459588527679443
0.25445556640625,-0.60748291015625,-0.6766204833984375,1.8919522762298584,0.3089599609375,0.3891799747943878
0.2685699462890625,-0.6141815185546875,-0.64117431640625,1.6214020252227783,0.221931591629982,0.3747166097164154
0.2760467529296875,-0.593963623046875,-0.625457763671875,1.427857518196106,0.2023102194070816,0.41825875639915466
0.2969818115234375,-0.5945892333984375,-0.6126708984375,1.2569148540496826,0.23466044664382935,0.4559291899204254
0.3077545166015625,-0.6052093505859375,-0.613037109375,1.0625325441360474,0.3391333222389221,0.4584573209285736
0.3202362060546875,-0.611602783203125,-0.6237335205078125,0.9018754959106445,0.45366737246513367,0.47925901412963867
0.3398895263671875,-0.61505126953125,-0.6511383056640625,0.8318786025047302,0.5661675333976746,0.539156973361969
0.3540802001953125,-0.61456298828125,-0.6802978515625,0.8379703164100647,0.6977274417877197,0.6179503202438354
0.3504486083984375,-0.6117401123046875,-0.69818115234375,0.8724933862686157,0.8574768900871277,0.7127050161361694
0.3315887451171875,-0.6117401123046875,-0.68463134765625,0.8688677549362183,0.9705278277397156,0.786624550819397
0.3011322021484375,-0.6347198486328125,-0.6455230712890625,0.835640013217926,0.9587281346321106,0.8068797588348389
0.26654052734375,-0.6751708984375,-0.598602294921875,0.795585036277771,0.7966052889823914,0.7625492811203003
0.2452239990234375,-0.7190704345703125,-0.5640716552734375,0.7770951986312866,0.5099274516105652,0.6566146016120911
0.2415313720703125,-0.74713134765625,-0.558868408203125,0.8066355586051941,0.18150880932807922,0.5369188189506531
0.2425537109375,-0.7552032470703125,-0.5747528076171875,0.8432958126068115,-0.020729780197143555,0.4341948628425598
0.2452392578125,-0.7548980712890625,-0.583404541015625,0.8461967706680298,-0.04680611938238144,0.3525998592376709
0.2598114013671875,-0.75189208984375,-0.594207763671875,0.8216709494590759,0.01841309480369091,0.3069085478782654
0.27716064453125,-0.7404327392578125,-0.60791015625,0.8015496730804443,0.1757230907678604,0.29452911019325256
0.28424072265625,-0.721832275390625,-0.603271484375,0.764065682888031,0.3639337420463562,0.2988910973072052
0.2844085693359375,-0.719085693359375,-0.5771484375,0.6920695304870605,0.5196263790130615,0.3081096410751343
0.283660888671875,-0.723602294921875,-0.53515625,0.5816476941108704,0.5991222858428955,0.32142674922943115
0.27880859375,-0.7322998046875,-0.4918060302734375,0.4333157539367676,0.5977584719657898,0.32940879464149475
0.2723846435546875,-0.74249267578125,-0.4639434814453125,0.28880196809768677,0.4994761347770691,0.3266976773738861
0.2658538818359375,-0.7542724609375,-0.46697998046875,0.19574260711669922,0.3545692563056946,0.3048541843891144
0.2628326416015625,-0.7661590576171875,-0.494964599609375,0.16923882067203522,0.25367221236228943,0.26784396171569824
0.2616424560546875,-0.7706756591796875,-0.528564453125,0.19213002920150757,0.20253074169158936,0.2375134825706482
0.2641143798828125,-0.7749481201171875,-0.550933837890625,0.2304808795452118,0.1553131639957428,0.20768608152866364
0.27044677734375,-0.779998779296875,-0.5693511962890625,0.2818625867366791,0.12914173305034637,0.18495173752307892
0.2677459716796875,-0.783050537109375,-0.57708740234375,0.3149086833000183,0.19752159714698792,0.17316405475139618
0.2646942138671875,-0.7765655517578125,-0.564910888671875,0.3124210238456726,0.2675001621246338,0.15874117612838745
0.2682342529296875,-0.77020263671875,-0.549896240234375,0.2800271213054657,0.3075503706932068,0.14495639503002167
0.2707366943359375,-0.774688720703125,-0.5345916748046875,0.2285945564508438,0.354530394077301,0.1331591159105301
0.2704620361328125,-0.7853546142578125,-0.5234222412109375,0.1631239354610443,0.40670543909072876,0.11553405225276947
0.271209716796875,-0.7972412109375,-0.5160369873046875,0.11128311604261398,0.4149695038795471,0.08923400193452835
0.2765045166015625,-0.801544189453125,-0.5234375,0.10621991008520126,0.3705402612686157,0.07262919843196869
0.28814697265625,-0.7939605712890625,-0.546661376953125,0.16968676447868347,0.2662647068500519,0.07188138365745544
0.2944488525390625,-0.78680419921875,-0.56951904296875,0.23557017743587494,0.21596825122833252,0.08514605462551117
0.29296875,-0.7820892333984375,-0.5582275390625,0.25316673517227173,0.20413236320018768,0.10126936435699463
0.2949676513671875,-0.7815704345703125,-0.539276123046875,0.2289583534002304,0.18677175045013428,0.12232005596160889
0.2956085205078125,-0.782012939453125,-0.5377044677734375,0.2103162258863449,0.2189328819513321,0.14706428349018097
0.2904815673828125,-0.7772216796875,-0.5442962646484375,0.2056189328432083,0.28443410992622375,0.16382621228694916
0.2881317138671875,-0.7761383056640625,-0.531097412109375,0.23638616502285004,0.09913430362939835,0.16159449517726898
0.286041259765625,-0.79949951171875,-0.4571380615234375,0.23309317231178284,-0.17458032071590424,0.12449372559785843
0.2890777587890625,-0.8371124267578125,-0.412872314453125,0.12459998577833176,-0.2142004370689392,0.08369862288236618
0.292572021484375,-0.834228515625,-0.43353271484375,-0.004525776021182537,-0.0655427873134613,0.07294158637523651
0.2772216796875,-0.8053436279296875,-0.474945068359375,-0.0890212208032608,0.04632328823208809,0.03207218274474144
0.268035888671875,-0.7957611083984375,-0.49908447265625,-0.10426009446382523,0.0018556906143203378,-0.026068085804581642
0.298736572265625,-0.7966156005859375,-0.498687744140625,-0.0948340967297554,-0.11911094188690186,-0.020865334197878838
0.3151397705078125,-0.8165283203125,-0.4848785400390625,-0.13672909140586853,-0.23708471655845642,-0.0195476021617651
0.3216552734375,-0.84619140625,-0.4817047119140625,-0.22601927816867828,-0.34497761726379395,-0.04603726789355278
0.321197509765625,-0.868988037109375,-0.51531982421875,-0.31595051288604736,-0.37294802069664,-0.07728999108076096
0.2910919189453125,-0.8671875,-0.572265625,-0.34460851550102234,-0.3466375768184662,-0.14040078222751617
0.2808990478515625,-0.8428802490234375,-0.628997802734375,-0.31998759508132935,-0.3321523666381836,-0.23602770268917084
0.2817230224609375,-0.8035125732421875,-0.641693115234375,-0.3140122592449188,-0.40212559700012207,-0.2938747704029083
0.290679931640625,-0.768310546875,-0.615142822265625,-0.3204600214958191,-0.4101840555667877,-0.2717934250831604
0.2948150634765625,-0.75897216796875,-0.5986480712890625,-0.35507234930992126,-0.40980589389801025,-0.2163432240486145
0.2854766845703125,-0.7529296875,-0.57379150390625,-0.4104708731174469,-0.4451361894607544,-0.1498510092496872
0.285980224609375,-0.746246337890625,-0.5637359619140625,-0.45190727710723877,-0.5051148533821106,-0.08506349474191666
0.29443359375,-0.748565673828125,-0.5777587890625,-0.4774738848209381,-0.5993249416351318,-0.10664255917072296
0.2956695556640625,-0.748626708984375,-0.5975341796875,-0.43344783782958984,-0.6203229427337646,0.025545572862029076
0.2786865234375,-0.749755859375,-0.636444091796875,-0.35736772418022156,-0.4718191921710968,0.08920417726039886
0.2490386962890625,-0.751251220703125,-0.6617584228515625,-0.2640833258628845,-0.22428663074970245,0.1276106834411621
0.2174072265625,-0.7506561279296875,-0.67431640625,-0.14954128861427307,-0.029749372974038124,0.12335468828678131
0.189208984375,-0.748443603515625,-0.6869964599609375,0.022296249866485596,-0.0314766988158226,0.07248352468013763
0.179412841796875,-0.748046875,-0.695892333984375,0.23001696169376373,-0.12693051993846893,-0.01913348026573658
0.188995361328125,-0.7537384033203125,-0.6886138916015625,0.4185871481895447,-0.21671952307224274,-0.10564413666725159
0.209625244140625,-0.7657318115234375,-0.6459808349609375,0.5157046318054199,-0.2535251975059509,-0.15412165224552155
0.2376556396484375,-0.774627685546875,-0.590179443359375,0.5035134553909302,-0.24076654016971588,-0.13285419344902039
0.26165771484375,-0.7745361328125,-0.539520263671875,0.4354984760284424,-0.25699371099472046,-0.046689473092556
0.2760772705078125,-0.7681427001953125,-0.5058135986328125,0.34816089272499084,-0.3264862298965454,0.05237026512622833
0.28216552734375,-0.7601318359375,-0.50213623046875,0.2784750461578369,-0.3972887694835663,0.13331438601016998
0.2832794189453125,-0.7518310546875,-0.5163116455078125,0.2378104329109192,-0.41719669103622437,0.18867431581020355
0.276885986328125,-0.7511138916015625,-0.5327606201171875,0.22037844359874725,-0.3473217487335205,0.22402803599834442
0.2611083984375,-0.7633514404296875,-0.547088623046875,0.19485044479370117,-0.23468653857707977,0.22818151116371155
0.2275238037109375,-0.77728271484375,-0.5511932373046875,0.14850372076034546,-0.15641143918037415,0.20871007442474365
0.2011566162109375,-0.782379150390625,-0.5509796142578125,0.11092012375593185,-0.1020619198679924,0.17056773602962494
0.194915771484375,-0.78631591796875,-0.5605010986328125,0.10699755698442459,-0.051112983375787735,0.13134071230888367
0.1952667236328125,-0.789886474609375,-0.57708740234375,0.12092695385217667,0.006201436743140221,0.09447777271270752
0.195343017578125,-0.7944183349609375,-0.584075927734375,0.141815185546875,0.03539527580142021,0.062305718660354614
0.202850341796875,-0.798126220703125,-0.5810699462890625,0.15549345314502716,0.020799821242690086,0.043831635266542435
0.213714599609375,-0.80084228515625,-0.58056640625,0.1674174964427948,0.016050338745117188,0.04103798046708107
0.21875,-0.80615234375,-0.576171875,0.17709967494010925,0.02900848165154457,0.044064395129680634
0.2176361083984375,-0.8102264404296875,-0.56829833984375,0.1674017757177353,0.02521560713648796,0.041122134774923325
0.22222900390625,-0.81109619140625,-0.5641326904296875,0.14462216198444366,0.009759952314198017,0.03442908078432083
0.2227935791015625,-0.812957763671875,-0.5640411376953125,0.12004891037940979,0.016871390864253044,0.03313851356506348
0.21685791015625,-0.8131103515625,-0.571563720703125,0.11891546845436096,0.029164543375372887,0.025529328733682632
0.2064361572265625,-0.807586669921875,-0.5861663818359375,0.13590483367443085,0.0472886860370636,0.0065375277772545815
0.1970672607421875,-0.8028106689453125,-0.5842742919921875,0.15646444261074066,0.09506393224000931,-0.014973356388509274
0.190277099609375,-0.801727294921875,-0.56280517578125,0.15628601610660553,0.10645639896392822,-0.035715121775865555
0.2008514404296875,-0.8043365478515625,-0.5432586669921875,0.1326264888048172,0.05704065039753914,-0.04532407224178314
0.2196502685546875,-0.8058013916015625,-0.5320281982421875,0.09239597618579865,-0.004533232655376196,-0.033678602427244186
0.2369537353515625,-0.804107666015625,-0.5294189453125,0.06654041260480881,-0.030653515830636024,0.0006772418855689466
0.242645263671875,-0.7994384765625,-0.53936767578125,0.05672666057944298,-0.040595363825559616,0.03461523354053497
0.2415618896484375,-0.7949371337890625,-0.54888916015625,0.05850885063409805,-0.05290662497282028,0.059653475880622864
0.240142822265625,-0.79229736328125,-0.5573272705078125,0.06394489109516144,-0.06808797270059586,0.07899947464466095
0.2352294921875,-0.7947235107421875,-0.5680999755859375,0.08303949236869812,-0.07367528229951859,0.09539895504713058
0.2264862060546875,-0.8018951416015625,-0.5796966552734375,0.0978647768497467,-0.05452236533164978,0.08545258641242981
0.21514892578125,-0.808258056640625,-0.5788116455078125,0.1158059611916542,-0.005857622716575861,0.06981130689382553
0.2041473388671875,-0.8116302490234375,-0.571624755859375,0.11612500995397568,0.0529356524348259,0.0503113754093647
0.20147705078125,-0.8124542236328125,-0.5635528564453125,0.1144927591085434,0.08002106845378876,0.038896266371011734
0.2089996337890625,-0.809844970703125,-0.5495758056640625,0.09562879055738449,0.09044920653104782,0.03375157341361046
0.2186737060546875,-0.8037109375,-0.5347747802734375,0.07386144250631332,0.08715114742517471,0.03879666328430176
0.227447509765625,-0.7972259521484375,-0.524627685546875,0.047436490654945374,0.09289851784706116,0.05961858853697777
0.2329864501953125,-0.79058837890625,-0.51397705078125,0.058941613882780075,0.2025994509458542,0.07766284048557281
0.236419677734375,-0.79010009765625,-0.5008392333984375,0.045401837676763535,0.16569656133651733,0.06908852607011795
0.2369384765625,-0.7978973388671875,-0.5007781982421875,0.011374360881745815,0.051655471324920654,0.06409323215484619
0.2438812255859375,-0.8136138916015625,-0.500946044921875,-0.015739016234874725,-0.040998831391334534,0.06955830752849579
0.240936279296875,-0.8246002197265625,-0.50311279296875,-0.05422941595315933,-0.13651816546916962,0.0711093321442604
0.2250518798828125,-0.818023681640625,-0.5240631103515625,-0.08040083199739456,-0.18948417901992798,0.05973949655890465
0.207550048828125,-0.808746337890625,-0.5551605224609375,-0.08661851286888123,-0.18248645961284637,0.03200027719140053
0.1956634521484375,-0.806365966796875,-0.5889892578125,-0.06268228590488434,-0.11455667018890381,0.013727263547480106
0.2032928466796875,-0.8113250732421875,-0.609527587890625,-0.011552792973816395,0.027169035747647285,0.010113886557519436
0.2083892822265625,-0.8157501220703125,-0.611724853515625,0.061471082270145416,0.1718742847442627,-0.004159324802458286
0.2106781005859375,-0.805755615234375,-0.59619140625,0.12760190665721893,0.12534886598587036,-0.01702132821083069
0.226959228515625,-0.8005828857421875,-0.5741424560546875,0.15496481955051422,-0.041553568094968796,-0.0022423816844820976
0.2376861572265625,-0.8139801025390625,-0.5550079345703125,0.14205648005008698,-0.1522585153579712,0.02954617328941822
0.2308197021484375,-0.8327484130859375,-0.5453033447265625,0.1210489273071289,-0.17154937982559204,0.048645034432411194
0.2144012451171875,-0.834259033203125,-0.549530029296875,0.10269761830568314,-0.15107500553131104,0.0399940200150013
0.196044921875,-0.8254852294921875,-0.553955078125,0.0998576208949089,-0.12854625284671783,0.014092649333178997
0.18792724609375,-0.813629150390625,-0.55328369140625,0.10358205437660217,-0.10529473423957825,-0.01878087781369686
0.185577392578125,-0.80963134765625,-0.5490264892578125,0.09220076352357864,-0.043360788375139236,-0.01625646837055683
0.1888885498046875,-0.8105010986328125,-0.5449981689453125,0.06655452400445938,0.036973997950553894,-0.011305917985737324
0.1965484619140625,-0.8075103759765625,-0.5351715087890625,0.04471340775489807,0.0688570961356163,0.013755492866039276
0.2089080810546875,-0.802093505859375,-0.5310211181640625,0.03667039796710014,0.03249509260058403,0.04500981792807579
0.2154998779296875,-0.802520751953125,-0.5350799560546875,0.0472271665930748,-0.01708124950528145,0.07101611793041229
0.2151947021484375,-0.8067779541015625,-0.5409393310546875,0.07143956422805786,-0.04827219247817993,0.08680520206689835
0.2120513916015625,-0.8109588623046875,-0.545654296875,0.09382423013448715,-0.05952910706400871,0.08606351166963577
0.2049713134765625,-0.816558837890625,-0.5458526611328125,0.1000581607222557,-0.06576330214738846,0.06785787642002106
0.1957550048828125,-0.8219146728515625,-0.5444488525390625,0.09171154350042343,-0.061346713453531265,0.04018044099211693
0.1970672607421875,-0.82757568359375,-0.54443359375,0.0860467329621315,-0.03399312123656273,0.014073740690946579
0.201446533203125,-0.8263702392578125,-0.5462493896484375,0.08432073891162872,0.016439693048596382,0.0012636699248105288
0.202056884765625,-0.822235107421875,-0.5452880859375,0.06094031408429146,0.08688962459564209,-0.001216265605762601
0.200958251953125,-0.8196868896484375,-0.5443572998046875,0.03134514018893242,0.13952407240867615,0.009634251706302166
0.2032928466796875,-0.8160400390625,-0.5497589111328125,0.024474982172250748,0.14049692451953888,0.02798849157989025
0.210968017578125,-0.808990478515625,-0.55419921875,0.05597325414419174,0.0914982259273529,0.047451671212911606
0.2184295654296875,-0.802764892578125,-0.559661865234375,0.10052314400672913,0.0327419675886631,0.05913549289107323
0.216827392578125,-0.8064422607421875,-0.5572357177734375,0.12443780153989792,0.007281348574906588,0.06220851466059685
0.2102813720703125,-0.817230224609375,-0.5458831787109375,0.12129952758550644,0.010916297324001789,0.057943195104599
0.2044219970703125,-0.8278656005859375,-0.5319671630859375,0.09278985857963562,0.026454776525497437,0.05458734557032585
0.198974609375,-0.83245849609375,-0.5218353271484375,0.057075802236795425,0.05149035528302193,0.059728045016527176
0.1939544677734375,-0.828887939453125,-0.5176849365234375,0.026436934247612953,0.04223986342549324,0.06640619039535522
0.1977691650390625,-0.8220977783203125,-0.5185699462890625,0.012468920089304447,0.02100009098649025,0.07462603598833084
0.1993408203125,-0.822021484375,-0.5262603759765625,-0.004260258749127388,0.030770961195230484,0.07890413701534271
0.19464111328125,-0.8292236328125,-0.537384033203125,-0.03484480082988739,0.08369649201631546,0.08237476646900177
0.191650390625,-0.8358154296875,-0.5510711669921875,-0.053878676146268845,0.17389295995235443,0.08587656170129776
0.1898651123046875,-0.833404541015625,-0.5702972412109375,-0.0388810858130455,0.27110686898231506,0.09337522089481354
0.18402099609375,-0.820953369140625,-0.5819091796875,0.012419119477272034,0.3366805613040924,0.09285377711057663
0.1803741455078125,-0.811187744140625,-0.572021484375,0.07583031803369522,0.3521508574485779,0.08759243041276932
0.181549072265625,-0.806304931640625,-0.5314788818359375,0.16450345516204834,0.26488491892814636,0.07408913969993591
0.201019287109375,-0.8178863525390625,-0.443511962890625,0.163760706782341,0.03223942965269089,0.02136174775660038
0.2166290283203125,-0.8642730712890625,-0.4043426513671875,0.023319438099861145,-0.21502308547496796,-0.023014238104224205
0.2235565185546875,-0.8688507080078125,-0.4138031005859375,-0.11553698033094406,-0.25023141503334045,-0.03458034619688988
0.21954345703125,-0.839935302734375,-0.4603118896484375,-0.18060386180877686,-0.13615649938583374,-0.0020607539918273687
0.20684814453125,-0.800811767578125,-0.5142669677734375,-0.2003067284822464,-0.028483839705586433,0.005366269499063492
0.199371337890625,-0.8056640625,-0.541412353515625,-0.18970255553722382,0.03244875371456146,-0.022340193390846252
0.2143402099609375,-0.8129425048828125,-0.546051025390625,-0.15389688313007355,-0.020244551822543144,-0.05149195343255997
0.2314605712890625,-0.806121826171875,-0.552764892578125,-0.12507270276546478,-0.08347092568874359,-0.051839228719472885
0.218231201171875,-0.8204193115234375,-0.5626220703125,-0.13070794939994812,-0.038542065769433975,-0.01830310747027397
0.1937408447265625,-0.8355712890625,-0.5734405517578125,-0.13444383442401886,-0.0037238982040435076,0.014327540062367916
0.1826019287109375,-0.8364715576171875,-0.5892181396484375,-0.10089625418186188,-0.05895572900772095,0.0015640745405107737
0.1862945556640625,-0.83380126953125,-0.609527587890625,-0.007390271872282028,-0.13645264506340027,-0.020255204290151596
0.195770263671875,-0.833251953125,-0.62115478515625,0.10543428361415863,-0.14480671286582947,-0.09507937729358673
0.2004241943359375,-0.8298492431640625,-0.6076507568359375,0.1812046766281128,-0.08690240979194641,-0.05903002992272377
0.202239990234375,-0.821502685546875,-0.5678863525390625,0.18771077692508698,-0.06118080019950867,-0.047214116901159286
0.203094482421875,-0.8128204345703125,-0.52276611328125,0.1296575963497162,-0.09261541813611984,-0.027126958593726158
0.2023162841796875,-0.8109283447265625,-0.499847412109375,0.05500013381242752,-0.13469842076301575,-0.0031411985401064157
0.202545166015625,-0.814361572265625,-0.5023956298828125,-0.003057841444388032,-0.17416194081306458,0.018754245713353157
0.1990814208984375,-0.820068359375,-0.529571533203125,-0.014356302097439766,-0.1544998288154602,0.019930299371480942
0.1891632080078125,-0.8256683349609375,-0.5640869140625,0.014099573716521263,-0.04561728611588478,-0.012673716992139816
0.1932830810546875,-0.8317718505859375,-0.5930633544921875,0.056776195764541626,0.11759054660797119,-0.054174020886421204
0.184844970703125,-0.8362579345703125,-0.598846435546875,0.10001208633184433,0.20108570158481598,-0.07269710302352905
0.181854248046875,-0.826934814453125,-0.58447265625,0.1657455563545227,0.17005056142807007,-0.06759582459926605
0.1959228515625,-0.813446044921875,-0.5653228759765625,0.22612154483795166,0.10209067910909653,-0.04525988921523094
0.2062835693359375,-0.8130340576171875,-0.5407257080078125,0.24363982677459717,0.05538070201873779,-0.013370933011174202
0.210906982421875,-0.8193359375,-0.520233154296875,0.2235923409461975,0.0163041390478611,0.02515222504734993
0.2109832763671875,-0.8237762451171875,-0.5149078369140625,0.19219474494457245,-0.00307675008662045,0.05710136890411377
0.2080078125,-0.8243560791015625,-0.52569580078125,0.18184755742549896,-0.004703674931079149,0.07721808552742004
0.2079620361328125,-0.8223876953125,-0.5405120849609375,0.1913963258266449,0.013620470650494099,0.08439663797616959
0.2095489501953125,-0.8198394775390625,-0.5529327392578125,0.20869143307209015,0.06011207401752472,0.09373421221971512
0.20330810546875,-0.819091796875,-0.5529327392578125,0.21777813136577606,0.14703631401062012,0.11096566915512085
0.1985321044921875,-0.8170623779296875,-0.538482666015625,0.21400949358940125,0.2238442748785019,0.14285968244075775
0.1979827880859375,-0.8164520263671875,-0.5165252685546875,0.20383940637111664,0.225009948015213,0.17293688654899597
0.2009735107421875,-0.8226318359375,-0.4991302490234375,0.1694803684949875,0.17860090732574463,0.18829427659511566
0.1959686279296875,-0.8366851806640625,-0.4907073974609375,0.12577736377716064,0.1597188264131546,0.1848555952310562
0.1905059814453125,-0.848419189453125,-0.4908599853515625,0.0911906287074089,0.15794488787651062,0.16447123885154724
0.1925201416015625,-0.849761962890625,-0.5019378662109375,0.09654518216848373,0.12883947789669037,0.15190671384334564
0.1974639892578125,-0.8458251953125,-0.517486572265625,0.12501117587089539,0.12423699349164963,0.14141304790973663
0.1962432861328125,-0.843719482421875,-0.5236053466796875,0.14356541633605957,0.14734791219234467,0.1373988687992096
0.1912078857421875,-0.8415374755859375,-0.5195770263671875,0.1489468663930893,0.16773946583271027,0.1328696310520172
0.189727783203125,-0.841094970703125,-0.5087127685546875,0.13915203511714935,0.17287909984588623,0.12299729138612747
0.1850128173828125,-0.8444976806640625,-0.49456787109375,0.12265028804540634,0.15339887142181396,0.10538128018379211
0.1802520751953125,-0.847900390625,-0.4849700927734375,0.09893003851175308,0.12690414488315582,0.08373484760522842
0.180908203125,-0.84771728515625,-0.48583984375,0.07425585389137268,0.10568168759346008,0.07309658080339432
0.184967041015625,-0.8477020263671875,-0.49676513671875,0.059427641332149506,0.12769004702568054,0.06492387503385544
0.1866302490234375,-0.8475341796875,-0.5065460205078125,0.05868301913142204,0.16023893654346466,0.061882540583610535
0.1824951171875,-0.846160888671875,-0.5097808837890625,0.06558327376842499,0.16403181850910187,0.0537756122648716
0.1799468994140625,-0.8470458984375,-0.50830078125,0.07741808891296387,0.1335892230272293,0.049665022641420364
0.1829071044921875,-0.847991943359375,-0.5056610107421875,0.08610985428094864,0.11894183605909348,0.04838590696454048
0.1811065673828125,-0.848480224609375,-0.502685546875,0.08302484452724457,0.14971892535686493,0.0452289953827858
0.1801300048828125,-0.8472137451171875,-0.503021240234375,0.06301545351743698,0.20794600248336792,0.04741917923092842
0.190765380859375,-0.844207763671875,-0.511474609375,0.06328868865966797,0.24459482729434967,0.060257215052843094
0.2075653076171875,-0.8358001708984375,-0.519134521484375,0.1023881584405899,0.24607262015342712,0.08896342664957047
0.2198486328125,-0.8321990966796875,-0.5203704833984375,0.14955300092697144,0.20949117839336395,0.1107531487941742
0.21929931640625,-0.8406829833984375,-0.5053253173828125,0.1835447996854782,0.1695791780948639,0.12297545373439789
0.2118377685546875,-0.85198974609375,-0.4654083251953125,0.20787569880485535,-0.047686297446489334,0.11080268025398254
0.205841064453125,-0.8686676025390625,-0.3984375,0.15332883596420288,-0.20008595287799835,0.06586237251758575
0.2004547119140625,-0.88238525390625,-0.378173828125,0.030586671084165573,-0.17643308639526367,0.03441496565937996
0.1939697265625,-0.864532470703125,-0.387451171875,-0.080825075507164,-0.08303949236869812,0.04060707986354828
0.186187744140625,-0.84417724609375,-0.42144775390625,-0.1542188674211502,-0.060800231993198395,0.013922473415732384
0.18975830078125,-0.8440704345703125,-0.4389495849609375,-0.19286319613456726,-0.0908161923289299,-0.01558002457022667
0.1966552734375,-0.8428802490234375,-0.4423370361328125,-0.2206287831068039,-0.1311415135860443,-0.020021378993988037
0.194976806640625,-0.8443756103515625,-0.449066162109375,-0.2734035849571228,-0.17633242905139923,-0.02931181527674198
0.1982879638671875,-0.85137939453125,-0.4562530517578125,-0.3438127636909485,-0.20486046373844147,-0.04181855171918869
0.19171142578125,-0.8614044189453125,-0.489837646484375,-0.41456204652786255,-0.13081420958042145,-0.043353065848350525
0.1641082763671875,-0.86907958984375,-0.546905517578125,-0.4240492880344391,0.026870230212807655,-0.050934288650751114
0.141510009765625,-0.862274169921875,-0.613739013671875,-0.3235841989517212,0.16438521444797516,-0.06576623022556305
0.140899658203125,-0.8487091064453125,-0.6692962646484375,-0.12640480697155,0.22151987254619598,-0.07501885294914246
0.1670379638671875,-0.8334197998046875,-0.687530517578125,0.1143188551068306,0.19436495006084442,-0.0569026954472065
0.1974029541015625,-0.824462890625,-0.656036376953125,0.29206594824790955,0.12889805436134338,0.009908823296427727
0.21063232421875,-0.8248443603515625,-0.58221435546875,0.3434268832206726,0.08529199659824371,0.04381778836250305
0.211456298828125,-0.829437255859375,-0.5185546875,0.31077730655670166,0.0661124438047409,0.09793321788311005
0.207183837890625,-0.8330230712890625,-0.4803924560546875,0.25646719336509705,0.09281489253044128,0.11442404985427856
0.1971435546875,-0.838836669921875,-0.456512451171875,0.18116526305675507,0.13005946576595306,0.1113041564822197
0.186431884765625,-0.846527099609375,-0.4296417236328125,0.09782829135656357,0.11321070790290833,0.10106349736452103
0.1763153076171875,-0.852691650390625,-0.396514892578125,0.04124011471867561,-0.10543560981750488,0.052569203078746796
0.169342041015625,-0.885833740234375,-0.3763885498046875,-0.07336529344320297,-0.141328364610672,-0.025892317295074463
0.1510162353515625,-0.903167724609375,-0.435821533203125,-0.17532548308372498,0.03122716210782528,-0.09724798798561096
0.137542724609375,-0.873382568359375,-0.5054779052734375,-0.16130580008029938,0.19426454603672028,-0.14691407978534698
0.144989013671875,-0.8556671142578125,-0.5405120849609375,-0.08744435757398605,0.16617804765701294,-0.2130424976348877
0.1889801025390625,-0.86474609375,-0.524444580078125,-0.013070262037217617,-0.011174623854458332,-0.2411300539970398
0.2385406494140625,-0.868316650390625,-0.4900665283203125,0.030611438676714897,-0.2303043156862259,-0.20832684636116028
0.2589263916015625,-0.8542327880859375,-0.450103759765625,-0.010745322331786156,-0.4312499463558197,-0.16237479448318481
0.2540130615234375,-0.8431854248046875,-0.4242095947265625,-0.144968643784523,-0.5150604248046875,-0.12902003526687622
0.2344818115234375,-0.8469696044921875,-0.4394073486328125,-0.31664586067199707,-0.4125060737133026,-0.10865563899278641
0.2028656005859375,-0.84814453125,-0.484222412109375,-0.44416385889053345,-0.21989987790584564,-0.12175386399030685
0.17779541015625,-0.836029052734375,-0.533416748046875,-0.48806101083755493,-0.04760773107409477,-0.11584457755088806
0.178375244140625,-0.8298492431640625,-0.568878173828125,-0.43463268876075745,0.027220169082283974,-0.10302305221557617
0.1899871826171875,-0.829833984375,-0.588531494140625,-0.314892441034317,-0.003038134193047881,-0.12788952887058258
0.185943603515625,-0.8275604248046875,-0.590118408203125,-0.19463366270065308,-0.15444496273994446,-0.12503941357135773
0.168426513671875,-0.8262481689453125,-0.554473876953125,-0.14310522377490997,-0.24540497362613678,-0.19056595861911774
0.1795196533203125,-0.8444976806640625,-0.52520751953125,-0.14052462577819824,-0.22683580219745636,-0.24191541969776154
0.1865386962890625,-0.8509521484375,-0.5043182373046875,-0.16790804266929626,-0.21979254484176636,-0.2602057456970215
0.1771697998046875,-0.8358917236328125,-0.4860687255859375,-0.23955506086349487,-0.2979677617549896,-0.28105857968330383
0.1793670654296875,-0.8293609619140625,-0.4847412109375,-0.3034120798110962,-0.3158610165119171,-0.3045894503593445
0.194427490234375,-0.83380126953125,-0.5066375732421875,-0.3199481666088104,-0.21400336921215057,-0.2850887179374695
0.2052459716796875,-0.8328399658203125,-0.539703369140625,-0.29616108536720276,-0.16447150707244873,-0.24324940145015717
0.2065277099609375,-0.82659912109375,-0.5630035400390625,-0.24549071490764618,-0.1808057278394699,-0.21016202867031097
0.2037506103515625,-0.815673828125,-0.571746826171875,-0.18988898396492004,-0.18752595782279968,-0.2002958059310913
0.203948974609375,-0.8081817626953125,-0.57012939453125,-0.12346760928630829,-0.18318472802639008,-0.18787802755832672
0.2114105224609375,-0.8051605224609375,-0.5644378662109375,-0.07824020832777023,-0.20864161849021912,-0.16624996066093445
0.219207763671875,-0.7928314208984375,-0.5624237060546875,-0.041546110063791275,-0.2511443495750427,-0.10150851309299469
0.23895263671875,-0.7790374755859375,-0.5537109375,0.0015044197207316756,-0.2979840338230133,0.02371092140674591
0.2469024658203125,-0.76837158203125,-0.545166015625,0.02641190029680729,-0.4084596633911133,0.15879283845424652
0.2340545654296875,-0.76763916015625,-0.537628173828125,0.018572086468338966,-0.5174332857131958,0.2550338804721832
0.2116851806640625,-0.77691650390625,-0.536712646484375,-0.007604656275361776,-0.5487645864486694,0.29086777567863464
0.1858978271484375,-0.80169677734375,-0.54583740234375,-0.030217289924621582,-0.4912791848182678,0.26549452543258667
0.150299072265625,-0.827972412109375,-0.5656890869140625,-0.02460387907922268,-0.38203978538513184,0.18614935874938965
0.1188507080078125,-0.8447418212890625,-0.5879058837890625,0.011945609003305435,-0.2579774856567383,0.08309035748243332
0.1070709228515625,-0.8464508056640625,-0.604522705078125,0.06024176999926567,-0.1464991569519043,-0.020920993760228157
0.10968017578125,-0.8407135009765625,-0.6076812744140625,0.10670673847198486,-0.07619223743677139,-0.10477008670568466
0.125152587890625,-0.832000732421875,-0.600860595703125,0.14178802073001862,-0.04872545972466469,-0.15986210107803345
0.1432342529296875,-0.82550048828125,-0.5831756591796875,0.15209819376468658,-0.042754389345645905,-0.1859123408794403
0.1587677001953125,-0.8247222900390625,-0.566192626953125,0.13947267830371857,-0.04830361530184746,-0.1855757236480713
0.1741180419921875,-0.826904296875,-0.556549072265625,0.11197766661643982,-0.05836397409439087,-0.17407992482185364
0.188751220703125,-0.8267974853515625,-0.55999755859375,0.08673276752233505,-0.06404822319746017,-0.14730796217918396
0.1982421875,-0.818450927734375,-0.56488037109375,0.06944778561592102,-0.03719184175133705,-0.11733061820268631
0.200775146484375,-0.8063201904296875,-0.56817626953125,0.06904910504817963,0.024463530629873276,-0.07580102235078812
0.202606201171875,-0.7969512939453125,-0.5672454833984375,0.07221107929944992,0.0867074653506279,-0.031028755009174347
0.201080322265625,-0.7915191650390625,-0.563934326171875,0.07726176828145981,0.1154743954539299,0.011828163638710976
0.1968231201171875,-0.7925872802734375,-0.5569915771484375,0.08331486582756042,0.10638902336359024,0.045953378081321716
0.1930694580078125,-0.799285888671875,-0.5473480224609375,0.08455856144428253,0.07208538055419922,0.06957588344812393
0.1861572265625,-0.8097381591796875,-0.544036865234375,0.08936050534248352,0.046603988856077194,0.0794500857591629
0.1756591796875,-0.8192596435546875,-0.544891357421875,0.08769203722476959,0.046538207679986954,0.07719971239566803
0.1699371337890625,-0.824676513671875,-0.5415496826171875,0.08031028509140015,0.06910236924886703,0.07457197457551956
0.1701202392578125,-0.825714111328125,-0.53607177734375,0.0654948502779007,0.07650808990001678,0.07246115058660507
0.169036865234375,-0.8238067626953125,-0.5326995849609375,0.04887433350086212,0.05836770310997963,0.07114741206169128
0.1711273193359375,-0.82373046875,-0.5322265625,0.03548635542392731,0.054175619035959244,0.06848691403865814
0.16851806640625,-0.82659912109375,-0.53009033203125,0.02201635204255581,0.06915803253650665,0.06819476932287216
0.1650238037109375,-0.8283538818359375,-0.5262908935546875,0.01846769079566002,0.10325794667005539,0.07414213567972183
0.1614990234375,-0.8271636962890625,-0.5179595947265625,0.008597216568887234,0.11481393128633499,0.0709410160779953
0.1651153564453125,-0.8240966796875,-0.5055999755859375,0.050095923244953156,0.30580785870552063,0.043831903487443924
0.17059326171875,-0.8235626220703125,-0.4815521240234375,0.06955990195274353,0.33766883611679077,0.000371777277905494
0.1688690185546875,-0.8273468017578125,-0.460174560546875,-0.013030314818024635,0.07154475897550583,-0.057244379073381424
0.189178466796875,-0.8323974609375,-0.4499359130859375,-0.0968535766005516,-0.1560647040605545,-0.08594659715890884
0.2144012451171875,-0.8470001220703125,-0.4633636474609375,-0.14280375838279724,-0.3093344271183014,-0.07437916100025177
0.2201995849609375,-0.8445587158203125,-0.497222900390625,-0.16345630586147308,-0.4420602321624756,-0.06894524395465851
0.211273193359375,-0.835723876953125,-0.5313720703125,-0.15506787598133087,-0.5254794955253601,-0.07213225215673447
0.202178955078125,-0.8427734375,-0.5724639892578125,-0.09139995276927948,-0.4739305377006531,-0.08127515017986298
0.1897430419921875,-0.84442138671875,-0.6067047119140625,0.006118612363934517,-0.359129935503006,-0.11734287440776825
0.172210693359375,-0.826507568359375,-0.6152801513671875,0.05471544340252876,-0.3308194577693939,-0.15854543447494507
0.1739044189453125,-0.817901611328125,-0.605194091796875,0.03843687102198601,-0.39820224046707153,-0.16999542713165283
0.17083740234375,-0.8153076171875,-0.5989837646484375,-0.010247311554849148,-0.45280876755714417,-0.1313052922487259
0.176025390625,-0.81951904296875,-0.607330322265625,-0.046484678983688354,-0.32855817675590515,-0.07934142649173737
0.1851654052734375,-0.8283233642578125,-0.6335296630859375,-0.0428587831556797,-0.13344088196754456,-0.006222209427505732
0.1620330810546875,-0.82537841796875,-0.6403656005859375,-0.011121893301606178,0.03497263044118881,0.04728841781616211
0.1463623046875,-0.8098907470703125,-0.63916015625,0.03652738407254219,0.13728861510753632,0.07594376802444458
0.143341064453125,-0.796142578125,-0.629669189453125,0.08088526129722595,0.19630053639411926,0.02798289805650711
0.14910888671875,-0.793548583984375,-0.6132659912109375,0.1223786398768425,0.2440832406282425,0.11420167237520218
0.1548919677734375,-0.796112060546875,-0.5936279296875,0.15850895643234253,0.28313130140304565,0.15059404075145721
0.158599853515625,-0.7972412109375,-0.5558624267578125,0.1506454348564148,0.2891966700553894,0.16967611014842987
0.1556549072265625,-0.8020477294921875,-0.513092041015625,0.11416518688201904,0.27010658383369446,0.176836296916008
0.1585693359375,-0.81121826171875,-0.4700469970703125,0.07227019965648651,0.32695069909095764,0.16692906618118286
0.167816162109375,-0.815521240234375,-0.4305877685546875,0.04759814590215683,0.5343563556671143,0.12418586015701294
0.154937744140625,-0.8264923095703125,-0.41510009765625,-0.08167089521884918,0.336078941822052,0.0655401274561882
0.1520843505859375,-0.8432159423828125,-0.4244842529296875,-0.198003888130188,0.06603387743234634,0.028211398050189018
0.1691436767578125,-0.85870361328125,-0.4453887939453125,-0.2650947868824005,-0.15128831565380096,0.006611297372728586
0.174835205078125,-0.856689453125,-0.486602783203125,-0.27024587988853455,-0.36524003744125366,0.00012010856153210625
0.172576904296875,-0.8406829833984375,-0.5420684814453125,-0.19668003916740417,-0.4568682014942169,0.014815164729952812
0.17340087890625,-0.82196044921875,-0.57391357421875,-0.0696568414568901,-0.3556515872478485,0.018575016409158707
0.1495361328125,-0.79974365234375,-0.5914306640625,0.04265531897544861,-0.2102014422416687,-0.027819380164146423
0.1191558837890625,-0.7877349853515625,-0.6019439697265625,0.09696836024522781,-0.11480168253183365,-0.08394230157136917
0.116302490234375,-0.8005828857421875,-0.6037445068359375,0.09008035808801651,-0.04037937894463539,-0.10640287399291992
0.1299896240234375,-0.824951171875,-0.5988006591796875,0.058398861438035965,0.08634687215089798,-0.09728553891181946
0.14190673828125,-0.83306884765625,-0.584564208984375,0.02991555444896221,0.22966861724853516,-0.08607283234596252
0.143402099609375,-0.822601318359375,-0.5731658935546875,0.008253934793174267,0.32985779643058777,-0.07238631695508957
0.14703369140625,-0.8100128173828125,-0.56097412109375,-0.017656225711107254,0.35615038871765137,-0.04550463333725929
0.1562042236328125,-0.805938720703125,-0.5531463623046875,-0.050283677875995636,0.31766238808631897,-0.013160543516278267
0.1749420166015625,-0.813812255859375,-0.55645751953125,-0.0736188292503357,0.26112985610961914,0.03460697829723358
0.1896514892578125,-0.8238067626953125,-0.5672607421875,-0.0740494579076767,0.2189323455095291,0.07589449733495712
0.1952972412109375,-0.8279266357421875,-0.57244873046875,-0.06546901911497116,0.20155015587806702,0.17366500198841095
0.19427490234375,-0.8277130126953125,-0.587615966796875,-0.03829172998666763,0.1606120467185974,0.10027280449867249
0.19036865234375,-0.8220367431640625,-0.616973876953125,0.04375280812382698,0.11541847139596939,0.07989536225795746
0.1796722412109375,-0.8121795654296875,-0.6281890869140625,0.13406220078468323,0.18098336458206177,0.04408783093094826
0.172515869140625,-0.81201171875,-0.6064605712890625,0.1873195618391037,0.31938090920448303,0.007182811852544546
0.18206787109375,-0.8178253173828125,-0.555999755859375,0.20025107264518738,0.40709906816482544,0.0019318570848554373
0.1992950439453125,-0.8200531005859375,-0.4804229736328125,0.24526488780975342,0.6049849987030029,0.019539879634976387
0.2014312744140625,-0.849212646484375,-0.388641357421875,0.07142278552055359,0.25878575444221497,-0.003418966196477413
0.18792724609375,-0.85931396484375,-0.35675048828125,-0.14543256163597107,-0.32648730278015137,-0.01956384815275669
0.2015228271484375,-0.861419677734375,-0.3995513916015625,-0.2569465637207031,-0.6246249675750732,-0.02316470816731453
0.204071044921875,-0.8643798828125,-0.4811553955078125,-0.22607095539569855,-0.5775395035743713,-0.04963892698287964
0.186614990234375,-0.84375,-0.5452117919921875,-0.11332469433546066,-0.3860398530960083,-0.10857255011796951
0.1631011962890625,-0.8213958740234375,-0.578277587890625,-0.03130306303501129,-0.30128979682922363,-0.17718596756458282
0.173919677734375,-0.81451416015625,-0.58935546875,-0.009729593060910702,-0.3959566652774811,-0.2170308530330658
0.18914794921875,-0.8282470703125,-0.6112060546875,-0.027332022786140442,-0.4965437054634094,-0.21963968873023987
0.17120361328125,-0.846710205078125,-0.6329498291015625,-0.05558629706501961,-0.3876960575580597,-0.19479185342788696
0.1488494873046875,-0.846893310546875,-0.644073486328125,-0.06253794580698013,-0.10471096634864807,-0.1514585018157959
0.138275146484375,-0.8247528076171875,-0.6497344970703125,-0.033005885779857635,0.16207651793956757,-0.09300237894058228
0.138702392578125,-0.7922515869140625,-0.6416015625,0.024390028789639473,0.28933167457580566,0.04217088967561722
0.1596221923828125,-0.7688446044921875,-0.6220245361328125,0.09095893800258636,0.24632428586483002,0.034139327704906464
0.1874542236328125,-0.7607421875,-0.5997467041015625,0.14838014543056488,0.08470609784126282,0.09731057286262512
0.1904449462890625,-0.7630157470703125,-0.5745391845703125,0.1794392615556717,-0.055503472685813904,0.15295439958572388
0.2032470703125,-0.7806854248046875,-0.5475921630859375,0.18498849868774414,-0.05711202323436737,0.22038057446479797
0.2006072998046875,-0.803955078125,-0.50653076171875,0.1448269635438919,0.004055461846292019,0.28499606251716614
0.18597412109375,-0.8083648681640625,-0.45941162109375,0.04340313374996185,0.020715931430459023,0.30558520555496216
0.16400146484375,-0.8070526123046875,-0.418609619140625,-0.029636988416314125,0.3042832016944885,0.26281777024269104
0.14385986328125,-0.8170318603515625,-0.3862457275390625,-0.15482047200202942,0.33514177799224854,0.15896035730838776
0.133819580078125,-0.8283538818359375,-0.3944244384765625,-0.286088228225708,0.033246103674173355,0.06480482965707779
0.1583709716796875,-0.8574981689453125,-0.436370849609375,-0.3730801045894623,-0.29164597392082214,0.014693724922835827
0.17181396484375,-0.8756256103515625,-0.4956512451171875,-0.37598320841789246,-0.4847712218761444,-0.009871006943285465
0.156982421875,-0.8681488037109375,-0.5650787353515625,-0.3162703514099121,-0.5400685667991638,-0.026203375309705734
0.136444091796875,-0.8548736572265625,-0.625579833984375,-0.15413710474967957,-0.3265344500541687,-0.08602143079042435
0.11163330078125,-0.8136444091796875,-0.649505615234375,0.027224697172641754,-0.10000143200159073,-0.21305209398269653
0.092864990234375,-0.7873687744140625,-0.64874267578125,0.13486753404140472,-0.03993463143706322,-0.33409062027931213
0.108245849609375,-0.79718017578125,-0.6417388916015625,0.1563296914100647,-0.058099254965782166,-0.3694126605987549
0.1478729248046875,-0.824859619140625,-0.63519287109375,0.11227194964885712,0.0159443449229002,-0.31900569796562195
0.1875762939453125,-0.8422088623046875,-0.6346435546875,0.08197849243879318,0.1692497432231903,-0.23371954262256622
0.20037841796875,-0.82666015625,-0.634857177734375,0.08413618057966232,0.31762057542800903,-0.15418371558189392
0.197021484375,-0.79486083984375,-0.628753662109375,0.12071283906698227,0.3954258859157562,-0.085720494389534
0.183929443359375,-0.76983642578125,-0.6156463623046875,0.16632160544395447,0.3965827524662018,-0.017945177853107452
0.175018310546875,-0.757293701171875,-0.5924224853515625,0.22728587687015533,0.33246690034866333,0.0705612525343895
0.1865692138671875,-0.76287841796875,-0.585693359375,0.2946380376815796,0.22973546385765076,0.1908101588487625
0.1894073486328125,-0.7832489013671875,-0.5718994140625,0.28776121139526367,0.09465593844652176,0.2164449542760849
0.178375244140625,-0.80364990234375,-0.5368499755859375,0.21251945197582245,0.04373576119542122,0.20569030940532684
0.1761627197265625,-0.81756591796875,-0.522796630859375,0.15975716710090637,0.07815312594175339,0.2067185640335083
0.1771392822265625,-0.817474365234375,-0.5320587158203125,0.15183612704277039,0.15517839789390564,0.19188475608825684
0.171905517578125,-0.815704345703125,-0.54132080078125,0.14566399157047272,0.2510407567024231,0.1539299041032791
0.160614013671875,-0.821197509765625,-0.5386199951171875,0.11443443596363068,0.33827364444732666,0.1091962605714798
0.1557769775390625,-0.8314056396484375,-0.5248870849609375,0.09505913406610489,0.4000515341758728,0.06617981940507889
0.160858154296875,-0.8416748046875,-0.511688232421875,0.09230516105890274,0.4006448984146118,0.037164412438869476
0.166351318359375,-0.855743408203125,-0.500518798828125,0.09803947806358337,0.3248233497142792,0.02183978445827961
0.17828369140625,-0.8680572509765625,-0.4933929443359375,0.10296792536973953,0.19734743237495422,0.025610821321606636
0.190460205078125,-0.86700439453125,-0.491302490234375,0.09234670549631119,0.061818625777959824,0.026456374675035477
0.1906585693359375,-0.8579559326171875,-0.494140625,0.0778878703713417,-0.05372448265552521,0.01571344956755638
0.18780517578125,-0.8477020263671875,-0.5066680908203125,0.06720620393753052,-0.1028779149055481,-0.008371380157768726
0.1900177001953125,-0.83953857421875,-0.5260162353515625,0.06476834416389465,-0.08039550483226776,-0.03203436732292175
0.19110107421875,-0.83233642578125,-0.542724609375,0.07219483703374863,-0.012615393847227097,-0.030342193320393562
0.19287109375,-0.8226776123046875,-0.5503082275390625,0.07459194213151932,0.051188886165618896,-0.007412909064441919
0.1934051513671875,-0.8107147216796875,-0.54949951171875,0.07636827230453491,0.08729122579097748,0.03187404200434685
0.1936798095703125,-0.804290771484375,-0.5439453125,0.06240425631403923,0.10288483649492264,0.07106725126504898
0.18341064453125,-0.8083648681640625,-0.5414886474609375,0.040649693459272385,0.12548735737800598,0.10492482036352158
0.1712799072265625,-0.8218231201171875,-0.545379638671875,0.023635022342205048,0.14280802011489868,0.12579813599586487
0.1671905517578125,-0.8326568603515625,-0.556427001953125,0.03375876322388649,0.14799799025058746,0.1465979665517807
0.1693878173828125,-0.8339080810546875,-0.569671630859375,0.08052333444356918,0.13461214303970337,0.16411544382572174
0.175445556640625,-0.831512451171875,-0.5753173828125,0.12972603738307953,0.13826759159564972,0.17569512128829956
0.1791839599609375,-0.8304595947265625,-0.561279296875,0.15085555613040924,0.15097805857658386,0.19455057382583618
0.182098388671875,-0.8283233642578125,-0.5392303466796875,0.15328861773014069,0.14947231113910675,0.2232048511505127
0.18212890625,-0.8270263671875,-0.5235748291015625,0.12805277109146118,0.15081427991390228,0.25592365860939026
0.1754150390625,-0.828155517578125,-0.5163116455078125,0.09507644921541214,0.19476309418678284,0.2927844524383545
0.167755126953125,-0.821746826171875,-0.524505615234375,0.06197495386004448,0.3153773844242096,0.32893821597099304
0.1710052490234375,-0.8170013427734375,-0.538299560546875,0.06706398725509644,0.448418527841568,0.35591843724250793
0.1638336181640625,-0.8169097900390625,-0.529296875,0.18542206287384033,0.3630810081958771,0.3681522011756897
0.1659088134765625,-0.8354034423828125,-0.421356201171875,0.20972660183906555,0.13147014379501343,0.2628428041934967
0.1499481201171875,-0.9145660400390625,-0.37689208984375,0.02630271017551422,-0.035942286252975464,0.11187007278203964
0.1427459716796875,-0.9408111572265625,-0.3707122802734375,-0.14808081090450287,-0.04849696159362793,-0.045036718249320984
0.136993408203125,-0.916168212890625,-0.418914794921875,-0.21304942667484283,0.0183518435806036,-0.13715146481990814
0.137451171875,-0.8785552978515625,-0.460723876953125,-0.20898491144180298,-0.04149764031171799,-0.2776031196117401
0.1755523681640625,-0.865570068359375,-0.4646148681640625,-0.15651530027389526,-0.2972005307674408,-0.4171900451183319
0.2009735107421875,-0.8626556396484375,-0.474365234375,-0.10380975157022476,-0.49924203753471375,-0.4763889014720917
0.21038818359375,-0.8697052001953125,-0.4791717529296875,-0.1273702085018158,-0.5933229923248291,-0.4617535173892975
0.22039794921875,-0.8731842041015625,-0.48516845703125,-0.21404704451560974,-0.6468836665153503,-0.41315269470214844
0.2166595458984375,-0.8643341064453125,-0.5228118896484375,-0.30532583594322205,-0.6295760869979858,-0.3498738408088684
0.1939544677734375,-0.8500213623046875,-0.5819091796875,-0.32582977414131165,-0.5359720587730408,-0.27259984612464905
0.171142578125,-0.83416748046875,-0.63702392578125,-0.24116042256355286,-0.4010654091835022,-0.21372772753238678
0.16094970703125,-0.819854736328125,-0.670379638671875,-0.09898676723241806,-0.30184561014175415,-0.17468179762363434
0.1429443359375,-0.81170654296875,-0.666595458984375,0.03044445812702179,-0.21015003323554993,-0.0959763303399086
0.1337432861328125,-0.81378173828125,-0.64886474609375,0.11874023079872131,-0.12182976305484772,-0.15593846142292023
0.13690185546875,-0.811431884765625,-0.6135406494140625,0.18588358163833618,-0.0972924679517746,-0.11004980653524399
0.1403045654296875,-0.7985687255859375,-0.5709991455078125,0.23476004600524902,-0.1390734612941742,-0.03686640411615372
0.15972900390625,-0.7819061279296875,-0.531585693359375,0.257699191570282,-0.23671959340572357,0.04213813319802284
0.1811370849609375,-0.777801513671875,-0.5011444091796875,0.22735139727592468,-0.3389250636100769,0.10984234511852264
0.193817138671875,-0.7924041748046875,-0.478302001953125,0.14549967646598816,-0.3937765955924988,0.1674252152442932
0.1966705322265625,-0.814697265625,-0.4721221923828125,0.046541135758161545,-0.3793017864227295,0.2145485132932663
0.176727294921875,-0.831451416015625,-0.4842529296875,-0.039143674075603485,-0.2957530915737152,0.2328961044549942
0.1415557861328125,-0.8340911865234375,-0.4984588623046875,-0.09222127497196198,-0.1870865374803543,0.2215166836977005
0.1131591796875,-0.8304443359375,-0.512115478515625,-0.1065986156463623,-0.08786753565073013,0.18363986909389496
0.094818115234375,-0.8271942138671875,-0.5299072265625,-0.08752638846635818,-0.04079057276248932,0.13523079454898834
0.087860107421875,-0.828948974609375,-0.5466461181640625,-0.04775846749544144,-0.043407928198575974,0.08636072278022766
0.0916595458984375,-0.8355865478515625,-0.559661865234375,-0.0044291033409535885,-0.07055672258138657,0.029943518340587616
0.1025238037109375,-0.847930908203125,-0.5672760009765625,0.03634043037891388,-0.07039560377597809,-0.012065984308719635
0.1153411865234375,-0.858428955078125,-0.5724029541015625,0.06754069775342941,-0.03809092566370964,-0.04006379470229149
0.123626708984375,-0.8577117919921875,-0.5658721923828125,0.06781154125928879,0.013104616664350033,-0.05525313690304756
0.131072998046875,-0.8496856689453125,-0.5512237548828125,0.048289768397808075,0.048040762543678284,-0.05505979061126709
0.140350341796875,-0.840087890625,-0.539337158203125,0.019162775948643684,0.06629060953855515,-0.040530916303396225
0.1487579345703125,-0.832489013671875,-0.530059814453125,-0.0030181603506207466,0.06763816624879837,-0.016821591183543205
0.1519317626953125,-0.8281097412109375,-0.5261383056640625,-0.01471476349979639,0.06189559027552605,0.0075577846728265285
0.148529052734375,-0.82708740234375,-0.52752685546875,-0.0247223898768425,0.0495624914765358,0.027178624644875526
0.1424713134765625,-0.82867431640625,-0.5326080322265625,-0.027896346524357796,0.046900928020477295,0.0342506468296051
0.13372802734375,-0.8329010009765625,-0.5411224365234375,-0.025474466383457184,0.0792708545923233,0.04633846879005432
0.1282958984375,-0.8272247314453125,-0.5375518798828125,0.0378003753721714,0.35739728808403015,0.03188922256231308
0.1166534423828125,-0.8170318603515625,-0.510650634765625,0.06298668682575226,0.5694368481636047,-0.026452645659446716
0.106536865234375,-0.8184661865234375,-0.4891815185546875,0.01902375929057598,0.4383709728717804,-0.07636987417936325
0.131744384765625,-0.83551025390625,-0.479034423828125,-0.03658304363489151,0.211953267455101,-0.07918083667755127
0.1740264892578125,-0.8593902587890625,-0.464874267578125,-0.1068420261144638,-0.06436780095100403,-0.05318226292729378
0.199249267578125,-0.867279052734375,-0.4814605712890625,-0.15171974897384644,-0.34615156054496765,-0.003561711637303233
0.2014007568359375,-0.86297607421875,-0.5257110595703125,-0.1401994526386261,-0.5379217863082886,0.04193999245762825
0.1841278076171875,-0.857147216796875,-0.5794677734375,-0.0545940026640892,-0.46449923515319824,0.0704944059252739
0.152191162109375,-0.8412933349609375,-0.6138458251953125,0.10532082617282867,-0.17812898755073547,0.011945342645049095
0.1142730712890625,-0.8035888671875,-0.624267578125,0.2450273334980011,0.0023214775137603283,-0.09005452692508698
0.0888214111328125,-0.7939453125,-0.623504638671875,0.30791041254997253,0.04183613136410713,-0.1586596816778183
0.0909576416015625,-0.8196258544921875,-0.61456298828125,0.3353481590747833,0.08573700487613678,-0.17256325483322144
0.103912353515625,-0.8435211181640625,-0.5997467041015625,0.36869093775749207,0.19266745448112488,-0.169402614235878
0.1045379638671875,-0.846710205078125,-0.5926055908203125,0.4319908320903778,0.30651572346687317,-0.1819000244140625
0.0925140380859375,-0.83660888671875,-0.5867462158203125,0.5209649205207825,0.3693311810493469,-0.22253108024597168
0.0794525146484375,-0.8284454345703125,-0.5690765380859375,0.5627405643463135,0.37569132447242737,-0.2844673991203308
0.080169677734375,-0.819793701171875,-0.530914306640625,0.5760443806648254,0.3645704984664917,-0.32916030287742615
0.10284423828125,-0.812835693359375,-0.49945068359375,0.5944151282310486,0.3113030195236206,-0.29826605319976807
0.131744384765625,-0.809051513671875,-0.479583740234375,0.6200382113456726,0.23516245186328888,-0.2893711030483246
0.162445068359375,-0.8126220703125,-0.4619903564453125,0.6272711157798767,0.1590498387813568,-0.26500317454338074
0.16986083984375,-0.8043975830078125,-0.444427490234375,0.6344789266586304,0.08187063038349152,-0.2772667706012726
0.1751556396484375,-0.7839813232421875,-0.4552764892578125,0.6724255084991455,0.08193987607955933,-0.25479447841644287
0.2052001953125,-0.798553466796875,-0.469573974609375,0.6741887927055359,0.15806633234024048,-0.21527528762817383
0.2088165283203125,-0.83843994140625,-0.461181640625,0.5396642684936523,0.17381998896598816,-0.1920139193534851
0.201904296875,-0.8862152099609375,-0.4297637939453125,0.34701892733573914,0.18946473300457,-0.17098532617092133
0.2037506103515625,-0.9085845947265625,-0.4134674072265625,0.21287445724010468,0.30077874660491943,-0.14499899744987488
0.21722412109375,-0.9181060791015625,-0.420654296875,0.15504604578018188,0.4715837836265564,-0.12637551128864288
0.2220611572265625,-0.9174041748046875,-0.4328460693359375,0.14079679548740387,0.5605554580688477,-0.12885092198848724
0.2261962890625,-0.9155426025390625,-0.4386138916015625,0.1383136659860611,0.495606005191803,-0.13256417214870453
0.2380523681640625,-0.9174346923828125,-0.4542083740234375,0.11572979390621185,0.33372417092323303,-0.12920458614826202
0.2415924072265625,-0.9210357666015625,-0.4608917236328125,0.1057855486869812,0.2166161984205246,-0.10872834175825119
0.239349365234375,-0.9135284423828125,-0.46356201171875,0.10990892350673676,0.16979463398456573,-0.09020046889781952
0.2383270263671875,-0.898834228515625,-0.4644927978515625,0.11638572812080383,0.11553458869457245,-0.0674821063876152
0.2392120361328125,-0.8876190185546875,-0.4670257568359375,0.1016123816370964,0.03523867949843407,-0.048052214086055756
0.2429351806640625,-0.882598876953125,-0.464111328125,0.0668109878897667,-0.004095941781997681,-0.04102493077516556
0.25,-0.8759613037109375,-0.4619140625,0.039201997220516205,-0.0007829693495295942,-0.025352228432893753
0.2557830810546875,-0.86834716796875,-0.4725341796875,0.03155206888914108,0.04617362096905708,-0.005289037711918354
0.25238037109375,-0.8584747314453125,-0.4772491455078125,0.03572817146778107,0.12586471438407898,0.022710105404257774
0.24395751953125,-0.8487548828125,-0.4724578857421875,0.04535922408103943,0.17799609899520874,0.04795820638537407
0.2337188720703125,-0.8463897705078125,-0.46575927734375,0.04766711965203285,0.20230357348918915,0.07320869714021683
0.2292938232421875,-0.8500213623046875,-0.4532623291015625,0.04350273683667183,0.19997143745422363,0.08261871337890625
0.2223663330078125,-0.8592987060546875,-0.433807373046875,0.022521020844578743,0.1722351461648941,0.0761759951710701
0.22052001953125,-0.8697967529296875,-0.420196533203125,-0.0015462313313037157,0.12458720058202744,0.0688198134303093
0.2202606201171875,-0.8780975341796875,-0.415771484375,-0.03055897355079651,0.09996041655540466,0.052972402423620224
0.2180023193359375,-0.880828857421875,-0.4163665771484375,-0.04394402354955673,0.09352409094572067,0.03654629364609718
0.217132568359375,-0.876556396484375,-0.4298858642578125,-0.026443857699632645,0.056119196116924286,0.030775755643844604
0.2144775390625,-0.870758056640625,-0.446624755859375,0.001925199176184833,0.0662756934762001,0.031681232154369354
0.210418701171875,-0.866241455078125,-0.451385498046875,0.04247928410768509,0.0942106544971466,0.033718548715114594
0.2071380615234375,-0.865142822265625,-0.44708251953125,0.062490809708833694,0.08772505819797516,0.022487998008728027
0.2077178955078125,-0.8687744140625,-0.429931640625,0.055748485028743744,0.054670702666044235,0.015105449594557285
0.2103271484375,-0.8754425048828125,-0.41424560546875,0.02185043692588806,0.01673983223736286,0.008488559164106846
0.206695556640625,-0.881988525390625,-0.41192626953125,-0.01943228766322136,-0.016814399510622025,-0.003949734382331371
0.202239990234375,-0.88330078125,-0.42279052734375,-0.0412377193570137,-2.210423735959921e-05,-0.013022325001657009
0.2006683349609375,-0.8785858154296875,-0.437835693359375,-0.04129683971405029,0.027516579255461693,-0.020904483273625374
0.2030792236328125,-0.870697021484375,-0.4543609619140625,-0.03298644721508026,0.04610464349389076,-0.01901363767683506
0.20892333984375,-0.8664093017578125,-0.462005615234375,-0.012533634901046753,0.05517483875155449,-0.006228601094335318
0.2140045166015625,-0.867156982421875,-0.4608306884765625,0.0038903458043932915,0.053513556718826294,0.003489539958536625
0.2145233154296875,-0.8677215576171875,-0.4514617919921875,0.002910568844527006,0.030540598556399345,0.014814100228250027
0.214752197265625,-0.87078857421875,-0.443878173828125,-0.00529702752828598,0.0031518512405455112,0.021467741578817368
0.2144927978515625,-0.8733062744140625,-0.4437255859375,-0.009527991525828838,-0.0013598100049421191,0.020001403987407684
0.2136077880859375,-0.8753662109375,-0.4513397216796875,-0.022961242124438286,0.002572613535448909,0.020327642560005188
0.2069549560546875,-0.8779449462890625,-0.4606781005859375,-0.02280225232243538,0.02322915568947792,0.020806744694709778
0.19805908203125,-0.877593994140625,-0.469329833984375,-0.010966630652546883,0.036988645792007446,0.013712616637349129
0.191436767578125,-0.877471923828125,-0.4793548583984375,0.017134245485067368,0.04664260149002075,0.005906358826905489
0.1923065185546875,-0.8771820068359375,-0.48291015625,0.05750883370637894,0.0673590674996376,0.0015704660909250379
0.194610595703125,-0.8783111572265625,-0.4771270751953125,0.08719269186258316,0.07372935116291046,-0.00569996377453208
0.19744873046875,-0.879913330078125,-0.4712066650390625,0.1058254987001419,0.07119987905025482,-0.007585748098790646
0.2031097412109375,-0.8798065185546875,-0.4581756591796875,0.10292531549930573,0.08241444826126099,-0.010046242736279964
0.20550537109375,-0.8784637451171875,-0.4424285888671875,0.07960108667612076,0.08568694442510605,-0.005292766261845827
0.2057037353515625,-0.880096435546875,-0.4385528564453125,0.04970736801624298,0.09029500931501389,0.006918093655258417
0.2087249755859375,-0.88018798828125,-0.4501190185546875,0.04965197667479515,0.07216713577508926,0.02034042589366436
0.20928955078125,-0.877044677734375,-0.4744110107421875,0.08342351764440536,0.10230613499879837,0.041901908814907074
0.20831298828125,-0.8686676025390625,-0.483062744140625,0.13896827399730682,0.13028210401535034,0.062191203236579895
0.2039642333984375,-0.863922119140625,-0.485504150390625,0.18514321744441986,0.1730434149503708,0.08052094280719757
0.202362060546875,-0.861785888671875,-0.469268798828125,0.2047336995601654,0.25926485657691956,0.10476316511631012
0.2046051025390625,-0.859527587890625,-0.435882568359375,0.17516276240348816,0.33422723412513733,0.1200166866183281
0.2061614990234375,-0.867095947265625,-0.4038238525390625,0.12982137501239777,0.4126288592815399,0.10297112166881561
0.200286865234375,-0.8892059326171875,-0.3658905029296875,0.06291664391756058,0.44986677169799805,0.0852496474981308
0.19140625,-0.88775634765625,-0.25836181640625,-0.07123982161283493,0.23009392619132996,0.030556578189134598
0.19744873046875,-0.890167236328125,-0.2589263916015625,-0.2239241749048233,-0.06179625540971756,-0.04833530634641647
0.220306396484375,-0.8995819091796875,-0.315032958984375,-0.2921205461025238,-0.0942029282450676,-0.07130827009677887
0.23651123046875,-0.90789794921875,-0.37847900390625,-0.28331372141838074,-0.017226656898856163,-0.06066547706723213
0.230560302734375,-0.8907470703125,-0.4256134033203125,-0.2532426416873932,-0.0171507578343153,-0.07224330306053162
0.2186737060546875,-0.8812408447265625,-0.4269866943359375,-0.23721201717853546,-0.054543934762477875,-0.09433183073997498
0.2164306640625,-0.8672332763671875,-0.4048614501953125,-0.25476545095443726,-0.11329193413257599,-0.10722631961107254
0.231292724609375,-0.8548431396484375,-0.386077880859375,-0.3190155327320099,-0.1942128837108612,-0.09765625
0.24395751953125,-0.859771728515625,-0.3780670166015625,-0.4394751191139221,-0.2690269351005554,-0.07988710701465607
0.24090576171875,-0.8775482177734375,-0.389739990234375,-0.5759344100952148,-0.2543798089027405,-0.06584665924310684
0.2197113037109375,-0.8933563232421875,-0.4356689453125,-0.6745722889900208,-0.16405844688415527,-0.06250838190317154
0.1922607421875,-0.8953094482421875,-0.509429931640625,-0.6777244210243225,-0.09115228056907654,-0.09653852134943008
0.171783447265625,-0.8861846923828125,-0.58807373046875,-0.5448926091194153,0.02057132124900818,-0.13954058289527893
0.1805572509765625,-0.8632049560546875,-0.6248779296875,-0.3208981156349182,0.06890902668237686,-0.16427096724510193
0.21063232421875,-0.8466644287109375,-0.6249847412109375,-0.08767019957304001,-0.020312728360295296,-0.15915583074092865
0.239837646484375,-0.8450927734375,-0.5963897705078125,0.08501076698303223,-0.15549904108047485,-0.13619112968444824
0.2514190673828125,-0.85504150390625,-0.548583984375,0.16654956340789795,-0.18985888361930847,-0.11338035762310028
0.247772216796875,-0.8697967529296875,-0.5020751953125,0.15860961377620697,-0.11670344322919846,-0.09931433945894241
0.224334716796875,-0.8651275634765625,-0.4580841064453125,0.08138833194971085,-0.04651184007525444,-0.09242767095565796
0.2012176513671875,-0.8563079833984375,-0.4211578369140625,-0.02942500077188015,0.003424026072025299,-0.12548042833805084
0.18951416015625,-0.8563385009765625,-0.40130615234375,-0.13412557542324066,0.013765879906713963,-0.18084834516048431
0.190277099609375,-0.86566162109375,-0.39373779296875,-0.21450723707675934,-0.00899482611566782,-0.24117372930049896
0.202423095703125,-0.8718109130859375,-0.4089813232421875,-0.2477426826953888,-0.03808293864130974,-0.28634655475616455
0.218048095703125,-0.868621826171875,-0.430084228515625,-0.2754366397857666,0.010352239944040775,-0.3087250888347626
0.237945556640625,-0.84515380859375,-0.45916748046875,-0.2912275791168213,0.0943203791975975,-0.269771546125412
0.2558135986328125,-0.815704345703125,-0.5001220703125,-0.2625546455383301,0.16413754224777222,-0.16300329566001892
0.2666015625,-0.79730224609375,-0.5254974365234375,-0.22180242836475372,0.24608567357063293,-0.05434153601527214
0.2639617919921875,-0.794921875,-0.5242156982421875,-0.17164260149002075,0.27749285101890564,-0.00469568558037281
0.2611236572265625,-0.8086090087890625,-0.5091552734375,-0.12494752556085587,0.2837643325328827,0.0036517265252768993
0.2817535400390625,-0.8383026123046875,-0.4887847900390625,-0.06893245875835419,0.3194182217121124,0.011707788333296776
0.26824951171875,-0.8693389892578125,-0.4551849365234375,-0.038893602788448334,0.299912691116333,-0.033065807074308395
0.240631103515625,-0.872650146484375,-0.4425811767578125,-0.02786092646420002,0.29533684253692627,-0.13274100422859192
0.238250732421875,-0.8739013671875,-0.4327392578125,-0.01613129861652851,0.33078432083129883,-0.2759559452533722
0.2286529541015625,-0.8986053466796875,-0.4178466796875,0.01731880195438862,0.19519159197807312,-0.3816903829574585
0.2570648193359375,-0.9226226806640625,-0.3987579345703125,0.04549477994441986,-0.06411347538232803,-0.3939156234264374
0.274444580078125,-0.9208221435546875,-0.3791656494140625,0.019090337678790092,-0.28909173607826233,-0.36613431572914124
0.25799560546875,-0.8670501708984375,-0.3656463623046875,-0.08757033199071884,-0.3795957863330841,-0.3400696814060211
0.2514495849609375,-0.7909698486328125,-0.358184814453125,-0.2561151385307312,-0.47070226073265076,-0.32423585653305054
0.2498779296875,-0.731170654296875,-0.3573760986328125,-0.45093148946762085,-0.5081654787063599,-0.3011428117752075
0.254150390625,-0.717926025390625,-0.3597564697265625,-0.6258769631385803,-0.5617384314537048,-0.24596183001995087
0.251068115234375,-0.723358154296875,-0.3956298828125,-0.7406559586524963,-0.6836313009262085,-0.18094128370285034
0.2518463134765625,-0.7389068603515625,-0.4427947998046875,-0.7846437096595764,-0.8252057433128357,-0.11972187459468842
0.2513427734375,-0.7574615478515625,-0.506011962890625,-0.7687539458274841,-0.8748776912689209,-0.07056204974651337
0.2569122314453125,-0.7843017578125,-0.5754547119140625,-0.684331476688385,-0.7928259968757629,-0.017251424491405487
0.260345458984375,-0.8208770751953125,-0.6195526123046875,-0.5683830380439758,-0.6090041995048523,0.012536564841866493
0.2662811279296875,-0.84649658203125,-0.636566162109375,-0.4372867941856384,-0.42964431643486023,0.024335432797670364
0.271148681640625,-0.8524017333984375,-0.6328582763671875,-0.2887210249900818,-0.338280588388443,0.027237480506300926
0.2657318115234375,-0.8518218994140625,-0.613189697265625,-0.14337500929832458,-0.3431357741355896,-0.018211761489510536
0.2462158203125,-0.85919189453125,-0.59027099609375,-0.06238934025168419,-0.36346155405044556,-0.12799152731895447
0.21112060546875,-0.8570098876953125,-0.5780181884765625,-0.03411322832107544,-0.42608287930488586,-0.2690834105014801
0.191741943359375,-0.847808837890625,-0.5984649658203125,0.015666844323277473,-0.5409937500953674,-0.3745853304862976
0.1962890625,-0.843505859375,-0.6439971923828125,0.10475810617208481,-0.5864986181259155,-0.4054702818393707
0.2098846435546875,-0.8312225341796875,-0.6934356689453125,0.19245173037052155,-0.4207371175289154,-0.3549807369709015
0.2225341796875,-0.814453125,-0.7150421142578125,0.2816002666950226,-0.14205513894557953,-0.25382882356643677
0.2190399169921875,-0.8088226318359375,-0.7092742919921875,0.36501285433769226,0.14934714138507843,-0.1397738754749298
0.233123779296875,-0.8383331298828125,-0.683990478515625,0.44444403052330017,0.5475134253501892,-0.01769803650677204
0.248199462890625,-0.8606414794921875,-0.6615447998046875,0.4893087148666382,0.7026643753051758,0.026156501844525337
0.2129058837890625,-0.8236846923828125,-0.6456298828125,0.5159310102462769,0.4845621585845947,0.05391782522201538
0.1905517578125,-0.795135498046875,-0.6258392333984375,0.5383595824241638,0.15273095667362213,0.08270393311977386
0.17584228515625,-0.7817840576171875,-0.579345703125,0.5273476839065552,-0.040535442531108856,0.10124991834163666
0.167327880859375,-0.77215576171875,-0.525848388671875,0.4790550172328949,-0.11178645491600037,0.08813944458961487
0.170928955078125,-0.76458740234375,-0.497833251953125,0.3986499011516571,-0.13863803446292877,0.07914169132709503
0.1864166259765625,-0.758270263671875,-0.50439453125,0.31852418184280396,-0.14019545912742615,0.0804828554391861
0.207550048828125,-0.75738525390625,-0.533660888671875,0.25393933057785034,-0.10741221159696579,0.10407154262065887
0.20745849609375,-0.764892578125,-0.5637359619140625,0.23036715388298035,-0.06300240010023117,0.13352955877780914
0.18182373046875,-0.7674407958984375,-0.575225830078125,0.23579148948192596,0.09759233891963959,0.15560902655124664
0.15496826171875,-0.7581329345703125,-0.5799560546875,0.2710285782814026,0.3431834578514099,0.17836761474609375
0.1465301513671875,-0.7552490234375,-0.58447265625,0.3213287591934204,0.6054859161376953,0.20919209718704224
0.176788330078125,-0.770904541015625,-0.5866851806640625,0.36635109782218933,0.7411025762557983,0.2389683723449707
0.2261505126953125,-0.8214569091796875,-0.56719970703125,0.3602204918861389,0.6846105456352234,0.1992316097021103
0.2564849853515625,-0.9012603759765625,-0.511993408203125,0.3158953785896301,0.5603626370429993,0.11914397031068802
0.2703399658203125,-0.9472808837890625,-0.45111083984375,0.2588709592819214,0.4880666136741638,0.01691639982163906
0.285736083984375,-0.9490203857421875,-0.4153289794921875,0.23753133416175842,0.37896889448165894,-0.04314853623509407
0.3102569580078125,-0.9237213134765625,-0.4074249267578125,0.21828199923038483,0.2708943486213684,-0.04014715179800987
0.3279266357421875,-0.8916778564453125,-0.4172210693359375,0.18159322440624237,0.1623782515525818,0.0045585329644382
0.3144683837890625,-0.8693084716796875,-0.4297943115234375,0.13152553141117096,0.1290954053401947,0.04590171203017235
0.2957916259765625,-0.8429412841796875,-0.448455810546875,0.09763814508914948,0.11715298891067505,0.08156676590442657
0.2801361083984375,-0.8106842041015625,-0.479278564453125,0.07648199051618576,0.16756635904312134,0.13819195330142975
0.2686004638671875,-0.7830657958984375,-0.497955322265625,0.05582145228981972,0.3147137463092804,0.23087795078754425
0.2760467529296875,-0.766021728515625,-0.5028228759765625,0.024462465196847916,0.46004536747932434,0.34026411175727844
0.2838134765625,-0.7723846435546875,-0.5099334716796875,0.005885319784283638,0.5504745841026306,0.425065815448761
0.2742462158203125,-0.7987060546875,-0.50732421875,0.00923238042742014,0.5728041529655457,0.4671562612056732
0.2558135986328125,-0.830596923828125,-0.499237060546875,0.04248780384659767,0.5512293577194214,0.45479679107666016
0.24169921875,-0.85955810546875,-0.4935455322265625,0.08576896786689758,0.5288827419281006,0.4102668762207031
0.23712158203125,-0.87896728515625,-0.490997314453125,0.12402873486280441,0.5131615996360779,0.3616437017917633
0.235870361328125,-0.883087158203125,-0.4913482666015625,0.14477530121803284,0.540358304977417,0.32958483695983887
0.2379608154296875,-0.8701629638671875,-0.4903717041015625,0.16191700100898743,0.5882337093353271,0.3232598304748535
0.239776611328125,-0.86114501953125,-0.4910125732421875,0.17725494503974915,0.6270474195480347,0.3239104151725769
0.23431396484375,-0.8611297607421875,-0.4865264892578125,0.1787327229976654,0.6871892809867859,0.32673949003219604
0.2385711669921875,-0.85498046875,-0.48248291015625,0.17409349977970123,0.7409443855285645,0.34462130069732666
0.25445556640625,-0.840972900390625,-0.4898529052734375,0.1968747079372406,0.7617200016975403,0.3674411177635193
0.2609100341796875,-0.849090576171875,-0.457061767578125,0.3170330822467804,0.31221887469291687,0.3075418472290039
0.263336181640625,-0.912841796875,-0.34832763671875,0.3715205490589142,-0.11472152173519135,0.1971021443605423
0.271514892578125,-0.9415130615234375,-0.302032470703125,0.2923160195350647,-0.22698548436164856,0.15234266221523285
0.277557373046875,-0.8856201171875,-0.288177490234375,0.14326713979244232,-0.16957198083400726,0.19364775717258453
0.2700042724609375,-0.8379669189453125,-0.3077392578125,-0.00990296434611082,-0.06257230043411255,0.21818186342716217
0.2465667724609375,-0.844757080078125,-0.3438262939453125,-0.1520553082227707,0.1180930808186531,0.18970522284507751
0.2194976806640625,-0.870513916015625,-0.3786468505859375,-0.2554275095462799,0.2787008583545685,0.10485291481018066
0.1924896240234375,-0.909759521484375,-0.4029083251953125,-0.2543571889400482,0.2248099446296692,-0.08542461693286896
0.178070068359375,-0.9453277587890625,-0.3889923095703125,-0.19149592518806458,-0.0599546805024147,-0.2902824282646179
0.1895904541015625,-0.94488525390625,-0.36248779296875,-0.17885683476924896,-0.4172094762325287,-0.49525901675224304
0.194580078125,-0.963470458984375,-0.347259521484375,-0.28315073251724243,-0.7225651144981384,-0.7196303009986877
0.17529296875,-0.966156005859375,-0.349884033203125,-0.46649181842803955,-0.948243260383606,-0.8708725571632385
0.19989013671875,-0.94122314453125,-0.39129638671875,-0.6611646413803101,-0.988811731338501,-0.8979420065879822
0.2400054931640625,-0.9034271240234375,-0.4605255126953125,-0.8073444962501526,-0.8799981474876404,-0.8124151229858398
0.262237548828125,-0.859771728515625,-0.5306549072265625,-0.8445355296134949,-0.6862622499465942,-0.6521833539009094
0.2647552490234375,-0.8184356689453125,-0.59747314453125,-0.7673629522323608,-0.46848997473716736,-0.49659910798072815
0.2498626708984375,-0.78619384765625,-0.640228271484375,-0.587870180606842,-0.2942201793193817,-0.36726322770118713
0.2461700439453125,-0.761627197265625,-0.6622772216796875,-0.35432398319244385,-0.17148414254188538,-0.26829829812049866
0.2509307861328125,-0.752838134765625,-0.6669921875,-0.1385887712240219,-0.07640688866376877,-0.13667502999305725
0.2602996826171875,-0.7582244873046875,-0.6499481201171875,0.02497512474656105,-0.018519088625907898,-0.0439101979136467
0.2677154541015625,-0.7611541748046875,-0.613525390625,0.14892743527889252,-0.004882373381406069,0.036610741168260574
0.27911376953125,-0.7595672607421875,-0.581268310546875,0.26455920934677124,-0.07581167668104172,0.13637249171733856
0.27789306640625,-0.7703094482421875,-0.556671142578125,0.3378986716270447,-0.15807566046714783,0.18513470888137817
0.2659759521484375,-0.796661376953125,-0.522674560546875,0.3600047826766968,-0.17102020978927612,0.1963263750076294
0.2509307861328125,-0.8292999267578125,-0.4883880615234375,0.3471185564994812,-0.12502342462539673,0.1864905208349228
0.224609375,-0.8616485595703125,-0.4669647216796875,0.3455933630466461,-0.20966987311840057,0.21237032115459442
0.2005615234375,-0.8524322509765625,-0.4441375732421875,0.20501945912837982,-0.06839264184236526,0.15276317298412323
0.2032928466796875,-0.8369140625,-0.4354248046875,0.13392052054405212,-0.06204020231962204,0.156682550907135
0.2066802978515625,-0.8448638916015625,-0.426910400390625,0.07374586164951324,-0.022054169327020645,0.1727784276008606
0.199188232421875,-0.8500518798828125,-0.4272003173828125,0.005303418729454279,0.019404323771595955,0.1623132824897766
0.1890411376953125,-0.8519744873046875,-0.4295806884765625,-0.060319531708955765,0.034984614700078964,0.13364142179489136
0.1883087158203125,-0.848846435546875,-0.4341888427734375,-0.09313979744911194,0.03363252803683281,0.10588355362415314
0.1902008056640625,-0.847503662109375,-0.442718505859375,-0.10708943754434586,0.02514849603176117,0.06787092983722687
0.1909942626953125,-0.8481597900390625,-0.44830322265625,-0.11980283260345459,-0.0008921589469537139,0.019105518236756325
0.19830322265625,-0.84857177734375,-0.46185302734375,-0.10925804823637009,-0.026428943499922752,-0.013947773724794388
0.2120361328125,-0.8479766845703125,-0.4752960205078125,-0.09161194413900375,-0.01751268096268177,-0.023426495492458344
0.22393798828125,-0.8464813232421875,-0.480743408203125,-0.07242679595947266,0.0038072550669312477,-0.025609755888581276
0.232421875,-0.8480224609375,-0.4854736328125,-0.051657602190971375,0.0240174513310194,-0.010821755044162273
0.2346343994140625,-0.846038818359375,-0.4835662841796875,-0.03653590753674507,0.02714134007692337,0.008775915019214153
0.2281036376953125,-0.84326171875,-0.4783935546875,-0.04219458997249603,-0.009376457892358303,0.01181910838931799
0.219879150390625,-0.84173583984375,-0.4798431396484375,-0.04860402271151543,-0.06084178015589714,0.0270723644644022
0.218048095703125,-0.840850830078125,-0.4873046875,-0.05841350927948952,-0.0856989249587059,0.05576126649975777
0.2251434326171875,-0.839324951171875,-0.492034912109375,-0.07194796204566956,-0.08143121004104614,0.09049767255783081
0.2392425537109375,-0.834991455078125,-0.495849609375,-0.09453529119491577,-0.04873212054371834,0.1312890499830246
0.251953125,-0.82421875,-0.501434326171875,-0.012890764512121677,0.1645122468471527,0.16513356566429138
0.25531005859375,-0.8096771240234375,-0.4960784912109375,0.089634008705616,0.3902955651283264,0.12595286965370178
0.2272796630859375,-0.8237762451171875,-0.4887542724609375,0.07122491300106049,0.3406398594379425,0.07141932100057602
0.2115325927734375,-0.838897705078125,-0.48431396484375,-0.021042700856924057,0.1288280189037323,0.04230058565735817
0.2170257568359375,-0.856658935546875,-0.4860992431640625,-0.14032354950904846,-0.06496994197368622,0.03972451016306877
0.221954345703125,-0.8647308349609375,-0.495147705078125,-0.22845900058746338,-0.1760842204093933,0.048585113137960434
0.2288818359375,-0.867034912109375,-0.5119171142578125,-0.2641400396823883,-0.22036460041999817,0.06174885109066963
0.2315826416015625,-0.875,-0.525390625,-0.19351726770401,-0.1705126166343689,0.0649169459939003
0.2202606201171875,-0.867889404296875,-0.523284912109375,-0.05801989510655403,-0.09506846219301224,0.008523712866008282
0.2030792236328125,-0.8499908447265625,-0.5124664306640625,0.04267662391066551,-0.1013021171092987,-0.09606102108955383
0.1872100830078125,-0.8594512939453125,-0.520050048828125,0.06021939963102341,-0.17872394621372223,-0.172202929854393
0.1802215576171875,-0.88873291015625,-0.54296875,0.04107686132192612,-0.2085803747177124,-0.19490183889865875
0.1926116943359375,-0.89617919921875,-0.5555419921875,0.04566202685236931,-0.1463811844587326,-0.20374301075935364
0.2050323486328125,-0.8759918212890625,-0.5521087646484375,0.07729984819889069,-0.02617221511900425,-0.22177819907665253
0.1999969482421875,-0.8477783203125,-0.53363037109375,0.09505141526460648,0.09752336144447327,-0.3037489652633667
0.1920623779296875,-0.820953369140625,-0.500885009765625,0.10619860887527466,0.103950634598732,-0.20144256949424744
0.20111083984375,-0.7982635498046875,-0.4705657958984375,0.10099532455205917,-0.05656394362449646,-0.1648390144109726
0.2200469970703125,-0.7854766845703125,-0.4545135498046875,0.09347429126501083,-0.3306386470794678,-0.13577061891555786
0.2326812744140625,-0.7891387939453125,-0.46783447265625,0.0757320448756218,-0.49992141127586365,-0.13743536174297333
0.2244110107421875,-0.811004638671875,-0.4908447265625,0.04476134479045868,-0.39908134937286377,-0.14496304094791412
0.2117767333984375,-0.8313140869140625,-0.5038299560546875,0.02394847571849823,-0.14585813879966736,-0.1603183001279831
0.211090087890625,-0.831817626953125,-0.5153350830078125,0.01308384444564581,0.09357549250125885,-0.18485213816165924
0.2119903564453125,-0.8356170654296875,-0.52593994140625,0.009109875187277794,0.24448004364967346,-0.22202347218990326
0.2112274169921875,-0.835906982421875,-0.524169921875,0.02659405954182148,0.32207179069519043,-0.23447374999523163
0.220611572265625,-0.82818603515625,-0.5225830078125,0.05886278301477432,0.36667919158935547,-0.19332897663116455
0.23724365234375,-0.81884765625,-0.51812744140625,0.08749362826347351,0.39041221141815186,-0.11095341295003891
0.25341796875,-0.8126678466796875,-0.509674072265625,0.11589197814464569,0.36665070056915283,-0.008388690650463104
0.2745361328125,-0.8145599365234375,-0.50091552734375,0.1319926530122757,0.2779083251953125,0.07029227167367935
0.29144287109375,-0.8340911865234375,-0.48736572265625,0.1200832650065422,0.19126476347446442,0.10202489793300629
0.2871856689453125,-0.86248779296875,-0.467132568359375,0.07789559662342072,0.1560513824224472,0.07876724749803543
0.277557373046875,-0.8812255859375,-0.463958740234375,0.003879693103954196,0.2002665102481842,0.008044610731303692
0.2679290771484375,-0.875762939453125,-0.480987548828125,-0.04147261008620262,0.2839089632034302,-0.0035987296141684055
0.2661285400390625,-0.8426666259765625,-0.50177001953125,-0.04754115268588066,0.32264888286590576,0.044070787727832794
0.2648773193359375,-0.806427001953125,-0.522918701171875,-0.0445067472755909,0.3700787127017975,0.10323823988437653
0.2596282958984375,-0.794158935546875,-0.532073974609375,-0.01895451545715332,0.3967084586620331,0.15668734908103943
0.2615966796875,-0.8004913330078125,-0.5309295654296875,0.026970630511641502,0.3863852620124817,0.19746407866477966
0.2601318359375,-0.82965087890625,-0.52703857421875,0.06577448546886444,0.3887008726596832,0.21645747125148773
0.2465362548828125,-0.8577423095703125,-0.514495849609375,0.08972083032131195,0.39212730526924133,0.2372775375843048
0.2336273193359375,-0.8609619140625,-0.4959869384765625,0.1035492941737175,0.39358723163604736,0.23914439976215363
0.2305450439453125,-0.851898193359375,-0.4787750244140625,0.11599850654602051,0.35285258293151855,0.23512490093708038
0.23602294921875,-0.84271240234375,-0.4658660888671875,0.10219933837652206,0.32337167859077454,0.22928112745285034
0.2548828125,-0.8408203125,-0.4553680419921875,0.050331346690654755,0.3229362368583679,0.23768925666809082
0.2740936279296875,-0.8285369873046875,-0.4533233642578125,-0.008768457919359207,0.3767549991607666,0.25341281294822693
0.287384033203125,-0.814788818359375,-0.4540557861328125,-0.029886260628700256,0.4672987461090088,0.25000184774398804
0.2843170166015625,-0.81683349609375,-0.4409637451171875,0.1019631177186966,0.12989620864391327,0.2439972162246704
0.2763671875,-0.8462066650390625,-0.368499755859375,0.11658679693937302,-0.10037001222372055,0.18350431323051453
0.2812347412109375,-0.8684844970703125,-0.329193115234375,-0.03774524852633476,-0.05745210871100426,0.12449665367603302
0.2706298828125,-0.85101318359375,-0.3264617919921875,-0.19991524517536163,0.013065468519926071,0.0971747562289238
0.23583984375,-0.8381805419921875,-0.3588714599609375,-0.3088238835334778,0.017970211803913116,-0.039794549345970154
0.19805908203125,-0.8528900146484375,-0.385589599609375,-0.3148016035556793,-0.23077382147312164,-0.35025230050086975
0.1836395263671875,-0.87933349609375,-0.3962554931640625,-0.26378318667411804,-0.5377843379974365,-0.551263153553009
0.1988983154296875,-0.8968505859375,-0.40045166015625,-0.2613634169101715,-0.771010160446167,-0.6662784218788147
0.2417755126953125,-0.897613525390625,-0.3985748291015625,-0.3316871225833893,-0.9325556755065918,-0.7108924984931946
0.2708587646484375,-0.8646697998046875,-0.4151153564453125,-0.45402154326438904,-0.9437779188156128,-0.6909928321838379
0.2811279296875,-0.828369140625,-0.4553375244140625,-0.6091365814208984,-0.775117039680481,-0.5766081809997559
0.2803802490234375,-0.8179931640625,-0.5036773681640625,-0.7749447226524353,-0.5400352478027344,-0.40084755420684814
0.2783966064453125,-0.8070068359375,-0.5534820556640625,-0.8834149837493896,-0.31462931632995605,-0.21804764866828918
0.2737884521484375,-0.804901123046875,-0.6162109375,-0.9032813906669617,-0.03832315281033516,-0.10344409942626953
0.26458740234375,-0.8173065185546875,-0.6679534912109375,-0.8297115564346313,0.2311309576034546,-0.03780543431639671
0.248321533203125,-0.8308563232421875,-0.701263427734375,-0.6625239253044128,0.35171249508857727,-0.023737287148833275
0.2247161865234375,-0.8225250244140625,-0.7076873779296875,-0.36040744185447693,0.1447121798992157,0.01587803289294243
0.2038421630859375,-0.7925567626953125,-0.688232421875,0.010911770164966583,-0.372467577457428,0.1004035696387291
0.19952392578125,-0.751617431640625,-0.6527252197265625,0.20969916880130768,-0.5967020392417908,0.007662713527679443
0.2292022705078125,-0.75738525390625,-0.6147613525390625,0.37959152460098267,-0.7481956481933594,-0.04302496463060379
0.2645111083984375,-0.785003662109375,-0.57025146484375,0.4606349766254425,-0.7391371726989746,-0.05682280287146568
0.27227783203125,-0.8160247802734375,-0.5374908447265625,0.4272956848144531,-0.6371753811836243,-0.064499631524086
0.2634429931640625,-0.84429931640625,-0.508270263671875,0.26722556352615356,-0.40631741285324097,-0.044912613928318024
0.2453155517578125,-0.8566131591796875,-0.4925994873046875,0.05992831289768219,-0.123563751578331,0.03467142581939697
0.23138427734375,-0.838348388671875,-0.4900360107421875,-0.11645311117172241,0.047020506113767624,0.10476822406053543
0.225494384765625,-0.799591064453125,-0.5012359619140625,-0.2140936553478241,-0.005410477984696627,0.14827895164489746
0.217376708984375,-0.76715087890625,-0.528594970703125,-0.23104919493198395,-0.14598064124584198,0.15113678574562073
0.216064453125,-0.7659912109375,-0.5596771240234375,-0.18375252187252045,-0.22910642623901367,0.14255182445049286
0.217071533203125,-0.7853546142578125,-0.5821075439453125,-0.11144743114709854,-0.16271701455116272,0.11726217716932297
0.218902587890625,-0.8005828857421875,-0.5950927734375,-0.009089901112020016,-0.08640599250793457,0.10035669803619385
0.2176361083984375,-0.816131591796875,-0.599761962890625,0.08801241219043732,-0.07360737770795822,0.09530388563871384
0.2122650146484375,-0.8217926025390625,-0.5973663330078125,0.14280003309249878,-0.08397746086120605,0.07647639513015747
0.2049407958984375,-0.817962646484375,-0.5808563232421875,0.15977580845355988,-0.0789845660328865,0.05850299075245857
0.2008819580078125,-0.8135223388671875,-0.5634002685546875,0.14185672998428345,-0.059358663856983185,0.043657466769218445
0.2012481689453125,-0.8115692138671875,-0.55377197265625,0.11747576296329498,-0.03526344895362854,0.03173262998461723
0.2073974609375,-0.8165130615234375,-0.5449371337890625,0.08701319247484207,-0.027179956436157227,0.02678767219185829
0.2152099609375,-0.822418212890625,-0.5420379638671875,0.06615079194307327,-0.03626799210906029,0.02520681917667389
0.2215423583984375,-0.8253326416015625,-0.542449951171875,0.04534564167261124,-0.03851969540119171,0.027100592851638794
0.22216796875,-0.822509765625,-0.54296875,0.024820394814014435,0.0007819040911272168,0.03079972416162491
0.22259521484375,-0.812896728515625,-0.5417633056640625,-0.004546282347291708,0.07879840582609177,0.04032798111438751
0.2245025634765625,-0.8034820556640625,-0.53607177734375,-0.027836158871650696,0.13087493181228638,0.05995308235287666
0.226165771484375,-0.7961883544921875,-0.5331573486328125,-0.04271763563156128,0.15318183600902557,0.09230969101190567
0.228607177734375,-0.7899169921875,-0.5304107666015625,0.04146142303943634,0.36035844683647156,0.11152013391256332
0.21893310546875,-0.784576416015625,-0.52679443359375,0.17010435461997986,0.5890089273452759,0.05766382813453674
0.1920928955078125,-0.80352783203125,-0.51055908203125,0.18810945749282837,0.4115193784236908,-0.025597771629691124
0.1982269287109375,-0.829071044921875,-0.4920654296875,0.13231995701789856,0.09543783962726593,-0.07021903246641159
0.227874755859375,-0.854248046875,-0.47686767578125,0.026153573766350746,-0.16576233506202698,-0.06323303282260895
0.2491607666015625,-0.845306396484375,-0.469818115234375,-0.10053486377000809,-0.2894720137119293,-0.023751402273774147
0.2538299560546875,-0.8214569091796875,-0.4845123291015625,-0.23450490832328796,-0.3951529264450073,0.04328355938196182
0.2518463134765625,-0.8099517822265625,-0.5190887451171875,-0.3269549608230591,-0.41371941566467285,0.12226758897304535
0.2455902099609375,-0.83062744140625,-0.5634307861328125,-0.29556480050086975,-0.14757241308689117,0.1334022581577301
0.219451904296875,-0.83685302734375,-0.6081390380859375,-0.15059830248355865,0.06425275653600693,0.055516522377729416
0.1990203857421875,-0.829498291015625,-0.646636962890625,0.013483584858477116,0.07096365839242935,-0.051659200340509415
0.180816650390625,-0.837921142578125,-0.662567138671875,0.11938285082578659,0.044742703437805176,-0.12931324541568756
0.1853485107421875,-0.8502655029296875,-0.6421661376953125,0.1780560165643692,0.08269008249044418,-0.1650954782962799
0.20648193359375,-0.846710205078125,-0.61346435546875,0.2225542515516281,0.09769273549318314,-0.18180441856384277
0.22015380859375,-0.8372039794921875,-0.58880615234375,0.23904506862163544,0.06028144806623459,-0.2085137963294983
0.2195587158203125,-0.8319854736328125,-0.572540283203125,0.2365582138299942,0.07385531812906265,-0.18345610797405243
0.2128143310546875,-0.8265838623046875,-0.555999755859375,0.20327802002429962,0.1784517616033554,-0.26623088121414185
0.2053680419921875,-0.8166351318359375,-0.52801513671875,0.15932707488536835,0.29224783182144165,-0.268978476524353
0.2033233642578125,-0.7990264892578125,-0.4974517822265625,0.11321843415498734,0.3109179437160492,-0.24428829550743103
0.2085723876953125,-0.7842559814453125,-0.471954345703125,0.06485755741596222,0.19164825975894928,-0.2011413723230362
0.226318359375,-0.783111572265625,-0.4670562744140625,0.025729065760970116,0.0009571401169523597,-0.13923858106136322
0.238037109375,-0.7898101806640625,-0.475189208984375,-0.0038519962690770626,-0.16666461527347565,-0.08972243219614029
0.2419586181640625,-0.79852294921875,-0.489898681640625,-0.0038658445701003075,-0.2575993239879608,-0.07277274131774902
0.251617431640625,-0.807159423828125,-0.5160980224609375,0.019760122522711754,-0.26950204372406006,-0.07079960405826569
0.25738525390625,-0.81243896484375,-0.5432281494140625,0.053396645933389664,-0.20539550483226776,-0.09353474527597427
0.2582244873046875,-0.8124847412109375,-0.5551910400390625,0.07599889487028122,-0.07523137331008911,-0.11782649904489517
0.2560577392578125,-0.810699462890625,-0.556549072265625,0.07602472603321075,0.08407333493232727,-0.14013579487800598
0.249114990234375,-0.810394287109375,-0.55120849609375,0.06577049195766449,0.2045329064130783,-0.12685488164424896
0.243988037109375,-0.801513671875,-0.537445068359375,0.0519912950694561,0.2165195196866989,-0.08710587024688721
0.24383544921875,-0.7894744873046875,-0.5242156982421875,0.044985849410295486,0.12388492375612259,-0.04400953650474548
0.24658203125,-0.7872772216796875,-0.51727294921875,0.03485118970274925,0.031749408692121506,-0.0073471288196742535
0.2512664794921875,-0.801116943359375,-0.5185699462890625,0.023025956004858017,-0.0016218650853261352,0.022955382242798805
0.250701904296875,-0.818328857421875,-0.5226593017578125,0.010539459995925426,0.007454986684024334,0.03562004491686821
0.2434844970703125,-0.8304443359375,-0.5286865234375,-0.0027830032631754875,0.01763332262635231,0.023061908781528473
0.232421875,-0.8348846435546875,-0.535003662109375,-0.013999705202877522,0.04121534526348114,0.002944657113403082
0.2295074462890625,-0.8324432373046875,-0.5408782958984375,-0.011330951005220413,0.0741003230214119,-0.010571683757007122
0.2345428466796875,-0.822662353515625,-0.5453643798828125,0.0005376922199502587,0.10571364313364029,-0.0021859225817024708
0.243682861328125,-0.808013916015625,-0.549835205078125,0.025717880576848984,0.1188100054860115,0.03713405132293701
0.249542236328125,-0.7932281494140625,-0.54595947265625,0.04921175539493561,0.11880068480968475,0.08433085680007935
0.24481201171875,-0.7878265380859375,-0.5218505859375,0.039142075926065445,0.11461446434259415,0.12874306738376617
0.2364501953125,-0.791015625,-0.4957275390625,0.0270736962556839,0.079891636967659,0.18485747277736664
0.227386474609375,-0.792938232421875,-0.4775390625,0.25507891178131104,0.13772377371788025,0.1526167094707489
0.2195892333984375,-0.8045654296875,-0.488861083984375,0.28511297702789307,-0.07017242908477783,0.019026154652237892
0.2291107177734375,-0.854736328125,-0.449249267578125,0.07205981016159058,-0.24998827278614044,-0.04626177251338959
0.26153564453125,-0.8665618896484375,-0.4376678466796875,-0.1332360804080963,-0.20636409521102905,0.013188506476581097
0.2719268798828125,-0.8370208740234375,-0.4500732421875,-0.31248360872268677,-0.10646332800388336,0.08087807148694992
0.2602691650390625,-0.79632568359375,-0.4624786376953125,-0.41227543354034424,-0.027125360444188118,0.11392497271299362
0.243865966796875,-0.7740936279296875,-0.498443603515625,-0.36747708916664124,0.04634193331003189,0.1174861490726471
0.2280731201171875,-0.7794342041015625,-0.5520477294921875,-0.2638731896877289,0.04719707369804382,0.06688688695430756
0.216094970703125,-0.81024169921875,-0.5908966064453125,-0.20243778824806213,0.035654932260513306,-0.014607705175876617
0.2017059326171875,-0.8500823974609375,-0.6241912841796875,-0.18974943459033966,0.1232588142156601,-0.04512939602136612
0.1950836181640625,-0.8666839599609375,-0.66998291015625,-0.12462741881608963,0.2414427101612091,-0.027768515050411224
0.1923370361328125,-0.8488922119140625,-0.71038818359375,0.0024517059791833162,0.31437551975250244,-0.0213652104139328
0.1863555908203125,-0.818206787109375,-0.7211151123046875,0.1620410978794098,0.3508560359477997,-0.029765885323286057
0.19476318359375,-0.7914886474609375,-0.6977691650390625,0.3179076611995697,0.4068468511104584,-0.026731213554739952
0.21441650390625,-0.77880859375,-0.6454315185546875,0.42606768012046814,0.4757090210914612,0.09580402076244354
0.241455078125,-0.7745819091796875,-0.57818603515625,0.45937636494636536,0.5019427537918091,0.10548088699579239
0.2564697265625,-0.7909393310546875,-0.516082763671875,0.4189072549343109,0.4572330713272095,0.17208866775035858
0.2557220458984375,-0.817962646484375,-0.4672393798828125,0.31875666975975037,0.3661454916000366,0.19965052604675293
0.2475433349609375,-0.8330230712890625,-0.4303436279296875,0.2266552448272705,0.299915611743927,0.20048409700393677
0.2375946044921875,-0.8277740478515625,-0.4031829833984375,0.1456855684518814,0.2537822127342224,0.19619055092334747
0.2369842529296875,-0.819305419921875,-0.390106201171875,0.045811429619789124,0.18892784416675568,0.20234164595603943
0.249298095703125,-0.8203125,-0.4004058837890625,-0.06509564816951752,0.05832695588469505,0.18618930876255035
0.2831573486328125,-0.8294677734375,-0.4495391845703125,-0.12704689800739288,-0.0578683577477932,0.15669479966163635
0.29193115234375,-0.8344573974609375,-0.51800537109375,-0.11859109252691269,0.0950562059879303,0.15379223227500916
0.2699432373046875,-0.8208770751953125,-0.5626220703125,-0.0256907157599926,0.4049171209335327,0.1942371129989624
0.2528076171875,-0.8054351806640625,-0.5811309814453125,0.07720663398504257,0.6224278807640076,0.22650504112243652
0.2414093017578125,-0.808563232421875,-0.5738372802734375,0.15882906317710876,0.6833988428115845,0.2680090665817261
0.2358245849609375,-0.8204345703125,-0.5582427978515625,0.21747399866580963,0.6319881081581116,0.30661773681640625
0.22479248046875,-0.8454437255859375,-0.5372467041015625,0.22769175469875336,0.5725759267807007,0.3024762272834778
0.2182769775390625,-0.8649444580078125,-0.5219879150390625,0.2312031239271164,0.5685569047927856,0.26515549421310425
0.2260589599609375,-0.8795623779296875,-0.5132598876953125,0.251238614320755,0.5420185327529907,0.243352472782135
0.2259674072265625,-0.8853759765625,-0.4959716796875,0.24709074199199677,0.46708357334136963,0.220267653465271
0.2288970947265625,-0.8683929443359375,-0.4963226318359375,0.2284158617258072,0.393684446811676,0.2000497281551361
0.2507781982421875,-0.8433990478515625,-0.5069122314453125,0.2382517158985138,0.3909461796283722,0.18905167281627655
0.2750396728515625,-0.8313751220703125,-0.5182647705078125,0.2766222655773163,0.44276756048202515,0.18902131915092468
0.283416748046875,-0.8339996337890625,-0.5190582275390625,0.30755993723869324,0.5176711082458496,0.21149440109729767
0.2839202880859375,-0.834320068359375,-0.50592041015625,0.3352262079715729,0.5997747778892517,0.23882456123828888
0.27862548828125,-0.834381103515625,-0.4734039306640625,0.3790122866630554,0.5585218667984009,0.24108611047267914
0.258453369140625,-0.8490447998046875,-0.400848388671875,0.4736040532588959,0.015183214098215103,0.1581483632326126
0.234619140625,-0.8807220458984375,-0.30108642578125,0.30212655663490295,-0.1592825949192047,0.022183066233992577
0.22943115234375,-0.891876220703125,-0.2602996826171875,0.02051992155611515,-0.059491291642189026,-0.09176640212535858
0.2255401611328125,-0.8702850341796875,-0.2710418701171875,-0.21369390189647675,0.06898918747901917,-0.16483981907367706
0.2243804931640625,-0.869293212890625,-0.3275604248046875,-0.3337409496307373,-0.02887878566980362,-0.3374462127685547
0.2080841064453125,-0.9055328369140625,-0.3533935546875,-0.3454679250717163,-0.3109791874885559,-0.5282588005065918
0.228912353515625,-0.8673858642578125,-0.3637542724609375,-0.3334895372390747,-0.5956673622131348,-0.6424093246459961
0.267120361328125,-0.8415679931640625,-0.3691253662109375,-0.37235039472579956,-0.7838321924209595,-0.6746415495872498
0.2942657470703125,-0.8503875732421875,-0.37664794921875,-0.49524542689323425,-0.8828424215316772,-0.6719619035720825
0.29534912109375,-0.856719970703125,-0.413055419921875,-0.6533908843994141,-0.8437415957450867,-0.6550366878509521
0.28045654296875,-0.8450469970703125,-0.4852294921875,-0.7077435851097107,-0.764210045337677,-0.6270610094070435
0.2759552001953125,-0.8159942626953125,-0.573089599609375,-0.6366443634033203,-0.6578444838523865,-0.5877143740653992
0.280120849609375,-0.7872772216796875,-0.6442718505859375,-0.49625450372695923,-0.509131669998169,-0.5857569575309753
0.2868194580078125,-0.77545166015625,-0.6799774169921875,-0.31514304876327515,-0.358714759349823,-0.43413999676704407
0.296478271484375,-0.7781982421875,-0.68939208984375,-0.12168488651514053,-0.20769460499286652,-0.35821300745010376
0.297454833984375,-0.789947509765625,-0.6699371337890625,0.05345097556710243,-0.11342030018568039,-0.30120405554771423
0.289398193359375,-0.8070068359375,-0.634979248046875,0.16817009449005127,-0.10933607816696167,-0.24994033575057983
0.2803955078125,-0.81378173828125,-0.5953826904296875,0.22351431846618652,-0.18684285879135132,-0.17259147763252258
0.275238037109375,-0.8076629638671875,-0.5586700439453125,0.22470048069953918,-0.26459357142448425,-0.08273855596780777
0.272308349609375,-0.7974395751953125,-0.5394134521484375,0.2207299768924713,-0.3469638228416443,-0.01870604418218136
0.267547607421875,-0.7904052734375,-0.537811279296875,0.2123388946056366,-0.38106346130371094,-0.004800347611308098
0.2640228271484375,-0.7945709228515625,-0.537811279296875,0.1950179636478424,-0.3147116005420685,-0.028790635988116264
0.264404296875,-0.8097381591796875,-0.5344390869140625,0.169979989528656,-0.18270829319953918,-0.06685733050107956
0.2609100341796875,-0.8266448974609375,-0.5237884521484375,0.13733841478824615,-0.053286656737327576,-0.08114225417375565
0.2501068115234375,-0.8264312744140625,-0.50445556640625,0.09945495426654816,0.022911706939339638,-0.041788991540670395
0.2467041015625,-0.8134765625,-0.4783935546875,0.05999649316072464,-0.02803509682416916,0.034560639411211014
0.238922119140625,-0.8032989501953125,-0.45172119140625,-0.021391041576862335,-0.1362086981534958,0.07134635001420975
0.24267578125,-0.7984466552734375,-0.445465087890625,-0.12106224149465561,-0.18424654006958008,0.03145726025104523
0.2574310302734375,-0.8155059814453125,-0.459259033203125,-0.16133776307106018,-0.2079627811908722,0.003281813347712159
0.26690673828125,-0.8226776123046875,-0.4863128662109375,-0.1581781804561615,-0.1521221548318863,-0.0008966863388195634
0.27178955078125,-0.822662353515625,-0.5139312744140625,-0.13127785921096802,-0.06270652264356613,0.022897858172655106
0.27142333984375,-0.8160858154296875,-0.52825927734375,-0.10045470297336578,-0.004081294406205416,0.05479986593127251
0.265869140625,-0.8069000244140625,-0.537139892578125,-0.062430620193481445,0.0008327704854309559,0.08766620606184006
0.2554931640625,-0.80682373046875,-0.532928466796875,-0.03374411538243294,-0.006945257540792227,0.10301293432712555
0.2411041259765625,-0.8142852783203125,-0.51849365234375,-0.029520608484745026,-0.01200126949697733,0.0982418805360794
0.2274169921875,-0.8321380615234375,-0.50262451171875,-0.05102377012372017,-0.020141487941145897,0.06890369951725006
0.2188568115234375,-0.8457794189453125,-0.4953155517578125,-0.07730304449796677,-0.044562142342329025,0.04147420451045036
0.2194061279296875,-0.8425445556640625,-0.4990081787109375,-0.07990308851003647,-0.0646306574344635,0.02652748115360737
0.2266082763671875,-0.8316802978515625,-0.510894775390625,-0.07721143215894699,-0.07930999994277954,0.0006791060441173613
0.231536865234375,-0.82794189453125,-0.5235443115234375,-0.07413601130247116,-0.05474074184894562,-0.017892980948090553
0.237640380859375,-0.82855224609375,-0.5380859375,-0.07122970372438431,0.007721036672592163,-0.019111109897494316
0.243560791015625,-0.822296142578125,-0.55010986328125,-0.05741002783179283,0.05627765506505966,-0.020364128053188324
0.246612548828125,-0.8144378662109375,-0.5556640625,-0.029856432229280472,0.06728290021419525,-0.025416942313313484
0.2524871826171875,-0.8099517822265625,-0.55389404296875,0.011087805032730103,0.04153972119092941,-0.01486443355679512
0.2574005126953125,-0.8125,-0.54901123046875,0.0361151285469532,0.002156894188374281,-0.002359560690820217
0.261749267578125,-0.8160247802734375,-0.542755126953125,0.0319342315196991,-0.03460697829723358,0.024514397606253624
0.2655029296875,-0.815673828125,-0.53643798828125,0.008857673965394497,-0.03825471177697182,0.056467801332473755
0.2626190185546875,-0.812042236328125,-0.5362548828125,-0.013019129633903503,-0.013675065711140633,0.06636251509189606
0.2508544921875,-0.81280517578125,-0.5411834716796875,-0.018879681825637817,0.0376560315489769,0.05656740441918373
0.2327423095703125,-0.818511962890625,-0.542633056640625,-0.028675585985183716,0.08946356922388077,0.025525599718093872
0.2237091064453125,-0.8282623291015625,-0.5418548583984375,-0.03310122713446617,0.09986001998186111,-0.015385081060230732
0.23272705078125,-0.8337554931640625,-0.539093017578125,-0.02008795738220215,0.07490114122629166,-0.04755447059869766
0.25164794921875,-0.830657958984375,-0.5394287109375,0.013708887621760368,0.04145636409521103,-0.06685280054807663
0.2684478759765625,-0.822479248046875,-0.543304443359375,0.049311622977256775,0.017651963979005814,-0.053046971559524536
0.2777252197265625,-0.813262939453125,-0.546112060546875,0.07282999902963638,0.013905961997807026,-0.023600401356816292
0.274658203125,-0.805938720703125,-0.54315185546875,0.08806168287992477,0.01919366791844368,0.00893943291157484
0.266937255859375,-0.800872802734375,-0.537841796875,0.07968444377183914,0.04729374498128891,0.03003832697868347
0.2620086669921875,-0.8026275634765625,-0.5310211181640625,0.05030098557472229,0.08668722212314606,0.0605139434337616
0.26019287109375,-0.8019561767578125,-0.525909423828125,0.02106027863919735,0.1305937021970749,0.09304871410131454
0.2614288330078125,-0.794921875,-0.51715087890625,0.003233610186725855,0.15705299377441406,0.12297279387712479
0.2631378173828125,-0.790985107421875,-0.506805419921875,-0.0026490462478250265,0.17893406748771667,0.15520450472831726
0.2619476318359375,-0.794189453125,-0.4878082275390625,-0.0156133146956563,0.1904679536819458,0.18311601877212524
0.259185791015625,-0.797943115234375,-0.4583587646484375,0.026738403365015984,0.17838439345359802,0.1977463662624359
0.2538299560546875,-0.803619384765625,-0.4468536376953125,0.13544145226478577,0.13931341469287872,0.12865997850894928
0.24468994140625,-0.8319244384765625,-0.4341888427734375,0.08011720329523087,-0.07382788509130478,0.04384468495845795
0.245361328125,-0.8429718017578125,-0.417236328125,-0.08812186866998672,-0.3048142194747925,0.001529453438706696
0.2529144287109375,-0.8361053466796875,-0.4373779296875,-0.2544946074485779,-0.3722100555896759,0.013851366937160492
0.2548828125,-0.81207275390625,-0.489776611328125,-0.3807547986507416,-0.2800891697406769,0.03666293993592262
0.245330810546875,-0.8024444580078125,-0.5382843017578125,-0.3862430453300476,-0.06628261506557465,0.03608476743102074
0.23345947265625,-0.803619384765625,-0.5849151611328125,-0.2599197328090668,0.12726686894893646,0.009342102333903313
0.2345733642578125,-0.7985382080078125,-0.608642578125,-0.13143818080425262,0.11634258925914764,-0.03560326620936394
0.2586517333984375,-0.8146820068359375,-0.6002960205078125,-0.05576739087700844,-0.05889926850795746,-0.04573339968919754
0.2896728515625,-0.8363189697265625,-0.58795166015625,-0.0181686170399189,-0.18324439227581024,-0.0015052186790853739
0.2943572998046875,-0.8435821533203125,-0.5803375244140625,-0.019390475004911423,-0.16000458598136902,0.057730142027139664
0.26995849609375,-0.83831787109375,-0.5782470703125,-0.04410940408706665,-0.0664176419377327,0.0863758996129036
0.23455810546875,-0.8306884765625,-0.58367919921875,-0.062276691198349,0.017290040850639343,0.07115194201469421
0.2100677490234375,-0.8271026611328125,-0.5860443115234375,-0.05714717507362366,0.07554668933153152,-0.018466891720891
0.2066497802734375,-0.8220672607421875,-0.574371337890625,-0.031913723796606064,0.11396332085132599,0.03822488337755203
0.2173919677734375,-0.8101654052734375,-0.550506591796875,-0.01293550617992878,0.09920115023851395,0.05173430219292641
0.2344512939453125,-0.7987213134765625,-0.528167724609375,-0.004819256253540516,0.05555886775255203,0.07259990274906158
0.243438720703125,-0.794647216796875,-0.5110321044921875,-0.041317880153656006,0.04662742465734482,0.09423036128282547
0.2373504638671875,-0.79779052734375,-0.5008087158203125,-0.0640769898891449,-0.03760649636387825,0.18705829977989197
0.2140655517578125,-0.79229736328125,-0.48236083984375,-0.2085614651441574,0.06733562797307968,0.13815388083457947
0.2135162353515625,-0.791229248046875,-0.4799652099609375,-0.261925607919693,0.14060398936271667,0.12199647724628448
0.2456207275390625,-0.7975311279296875,-0.4965057373046875,-0.24838237464427948,0.14243943989276886,0.15997982025146484
0.241607666015625,-0.7975921630859375,-0.5030059814453125,-0.2498638927936554,-0.0054275221191346645,0.18419647216796875
0.1987152099609375,-0.7886962890625,-0.49066162109375,-0.31118983030319214,-0.10898587107658386,0.15399223566055298
0.2259979248046875,-0.791290283203125,-0.5179595947265625,-0.31300851702690125,-0.09241808205842972,0.11242028325796127
0.243988037109375,-0.8138275146484375,-0.54949951171875,-0.24746358394622803,-0.009350358508527279,0.11764460802078247
0.2398834228515625,-0.8210601806640625,-0.567718505859375,-0.1688995361328125,0.03308897837996483,0.14498434960842133
0.2241058349609375,-0.8063812255859375,-0.57012939453125,-0.12588442862033844,0.04080308973789215,0.1542271226644516
0.207275390625,-0.78851318359375,-0.5567169189453125,-0.1259632557630539,0.06446580588817596,0.15122653543949127
0.2010345458984375,-0.7872467041015625,-0.5501861572265625,-0.13842551410198212,0.11072544753551483,0.1639804095029831
0.2010955810546875,-0.792877197265625,-0.5479583740234375,-0.1751481145620346,0.13704253733158112,0.17984406650066376
0.199951171875,-0.795501708984375,-0.55255126953125,-0.20174430310726166,0.1684020608663559,0.18078921735286713
0.204254150390625,-0.7977294921875,-0.560516357421875,-0.19231592118740082,0.1940738707780838,0.16233298182487488
0.2112884521484375,-0.8059539794921875,-0.565765380859375,-0.1558215469121933,0.17219147086143494,0.13629712164402008
0.2290191650390625,-0.80963134765625,-0.571075439453125,-0.08497374504804611,0.12358904629945755,0.12170565873384476
0.243499755859375,-0.8098297119140625,-0.5700225830078125,-0.021996378898620605,0.044925663620233536,0.12874172627925873
0.2487945556640625,-0.808868408203125,-0.5583038330078125,0.016624515876173973,-0.08080856502056122,0.1499921679496765
0.24395751953125,-0.8101806640625,-0.55535888671875,0.03684483468532562,-0.21433307230472565,0.16598230600357056
0.2299957275390625,-0.8097076416015625,-0.558807373046875,0.036618463695049286,-0.26980456709861755,0.18206168711185455
0.21734619140625,-0.80450439453125,-0.5736083984375,0.044079575687646866,-0.2484729290008545,0.19498306512832642
0.203033447265625,-0.7997894287109375,-0.5855255126953125,0.04987088590860367,-0.1729470044374466,0.1931215226650238
0.1870574951171875,-0.80059814453125,-0.5879669189453125,0.048819202929735184,-0.10012713074684143,0.17218294739723206
0.182769775390625,-0.8069915771484375,-0.5861053466796875,0.045095574110746384,-0.03804938122630119,0.12990446388721466
0.182861328125,-0.818145751953125,-0.585174560546875,0.04640238732099533,0.01955665647983551,0.08148500323295593
0.186126708984375,-0.8281097412109375,-0.582061767578125,0.051951613277196884,0.050827495753765106,0.025904301553964615
0.19671630859375,-0.835693359375,-0.5862274169921875,0.05164401978254318,0.07152292132377625,-0.017137708142399788
0.20758056640625,-0.83917236328125,-0.5896148681640625,0.05041710287332535,0.09498003870248795,-0.04471154510974884
0.2152862548828125,-0.8355255126953125,-0.5939178466796875,0.0638628676533699,0.11321896314620972,-0.06753696501255035
0.2173309326171875,-0.8262176513671875,-0.5969390869140625,0.08976477384567261,0.10444597899913788,-0.07782076299190521
0.2176055908203125,-0.8175201416015625,-0.5927734375,0.12895318865776062,0.06996044516563416,-0.07286568731069565
0.224853515625,-0.805999755859375,-0.5843963623046875,0.17357204854488373,0.009838782250881195,-0.04466121271252632
0.22222900390625,-0.7972564697265625,-0.57244873046875,0.19568321108818054,-0.03364957123994827,-0.01194028276950121
0.2123565673828125,-0.791259765625,-0.5503082275390625,0.1633353978395462,-0.05258172005414963,0.006943659856915474
0.211273193359375,-0.7914276123046875,-0.529327392578125,0.1083507090806961,-0.0872933566570282,0.026971163228154182
0.2223663330078125,-0.7979278564453125,-0.5257720947265625,0.05324005335569382,-0.09265057742595673,0.03417980670928955
0.23187255859375,-0.8043060302734375,-0.532867431640625,0.02742975950241089,-0.058875832706689835,0.03970213979482651
0.2369537353515625,-0.8034820556640625,-0.54449462890625,0.02305338717997074,-0.0054602790623903275,0.0427357442677021
0.23870849609375,-0.803314208984375,-0.55169677734375,0.028963208198547363,0.04339833930134773,0.04676830396056175
0.2369232177734375,-0.8018341064453125,-0.5511016845703125,0.027332289144396782,0.06083325669169426,0.04266543686389923
0.232025146484375,-0.8019561767578125,-0.5458526611328125,0.03615454211831093,0.038297854363918304,0.05233777314424515
0.22613525390625,-0.8048248291015625,-0.541473388671875,0.04364814609289169,0.005520466715097427,0.06054803356528282
0.2145843505859375,-0.806793212890625,-0.5355224609375,0.04952680692076683,-0.03759930655360222,0.06295819580554962
0.2067108154296875,-0.8057098388671875,-0.5288238525390625,0.04700293019413948,-0.10848946124315262,0.06394968926906586
0.2032012939453125,-0.806182861328125,-0.5298004150390625,0.049482330679893494,-0.19194360077381134,0.06405647844076157
0.20947265625,-0.8100433349609375,-0.54400634765625,0.06181995943188667,-0.2385084480047226,0.07411283999681473
0.2117156982421875,-0.8110504150390625,-0.5599517822265625,0.07329551875591278,-0.22210630774497986,0.08120830357074738
0.208831787109375,-0.8093719482421875,-0.5691986083984375,0.09444767236709595,-0.17782752215862274,0.07733286917209625
0.2025604248046875,-0.812652587890625,-0.576446533203125,0.10817494243383408,-0.12182017415761948,0.056714411824941635
0.1968231201171875,-0.8171539306640625,-0.57550048828125,0.10898160934448242,-0.047451406717300415,0.04139005020260811
0.1933441162109375,-0.818939208984375,-0.5659942626953125,0.09713320434093475,0.017703097313642502,0.034924428910017014
0.19635009765625,-0.8160552978515625,-0.5533294677734375,0.07473495602607727,0.051531899720430374,0.03543229401111603
0.202423095703125,-0.81268310546875,-0.5391845703125,0.04706364870071411,0.047872450202703476,0.053876280784606934
0.210968017578125,-0.8105926513671875,-0.5302276611328125,0.021031782031059265,0.02075161784887314,0.08492793887853622
0.21429443359375,-0.8108062744140625,-0.5313720703125,0.005094361025840044,-0.010605240240693092,0.11504429578781128
0.2078399658203125,-0.8127288818359375,-0.5386810302734375,0.0076211681589484215,-0.03495265915989876,0.12998303771018982
0.19635009765625,-0.8146514892578125,-0.550384521484375,0.028538167476654053,-0.05150873214006424,0.13521720468997955
0.186248779296875,-0.8170318603515625,-0.5608062744140625,0.05476391315460205,-0.06037119776010513,0.12762320041656494
0.1765899658203125,-0.8242034912109375,-0.563751220703125,0.07975741475820541,-0.058706190437078476,0.10408245772123337
0.1715087890625,-0.8302764892578125,-0.5584259033203125,0.08598122000694275,-0.044314999133348465,0.0824996680021286
0.170318603515625,-0.8311309814453125,-0.5474700927734375,0.06718622893095016,-0.02863883599638939,0.06103139743208885
