accX,accY,accZ,gyroX,gyroY,gyroZ
0.2924346923828125,-0.4114837646484375,-0.810272216796875,-0.19080963730812073,-0.1943737417459488,-0.12603142857551575
0.331298828125,-0.3994903564453125,-0.78173828125,-0.702336847782135,-0.39480483531951904,-0.08138220757246017
0.2942657470703125,-0.4151458740234375,-0.752716064453125,-0.8928425908088684,-0.4951905608177185,-0.08930431306362152
0.2642059326171875,-0.4226531982421875,-0.7563934326171875,-1.0479373931884766,-0.6571006178855896,-0.10127761960029602
0.25677490234375,-0.4019775390625,-0.793731689453125,-1.1551021337509155,-0.8530752062797546,-0.10910970717668533
0.26953125,-0.36883544921875,-0.858001708984375,-1.1959888935089111,-1.0253510475158691,-0.1053951308131218
0.2901153564453125,-0.343231201171875,-0.92376708984375,-1.1689244508743286,-1.1705479621887207,-0.08712291717529297
0.3023529052734375,-0.33123779296875,-0.982147216796875,-1.0906968116760254,-1.2859504222869873,-0.0472245030105114
0.2991790771484375,-0.33026123046875,-1.012786865234375,-1.0012825727462769,-1.3551173210144043,0.016834374517202377
0.277099609375,-0.33197021484375,-1.0097808837890625,-0.9384734630584717,-1.3566113710403442,0.08421581238508224
0.2486572265625,-0.3308868408203125,-0.9967498779296875,-0.9095592498779297,-1.3118696212768555,0.13340333104133606
0.23699951171875,-0.32806396484375,-0.96783447265625,-0.8929669857025146,-1.2223453521728516,0.1680164337158203
0.2487945556640625,-0.3519439697265625,-0.9259490966796875,-0.9074271321296692,-0.9622272849082947,0.24865588545799255
0.21466064453125,-0.341827392578125,-0.9362030029296875,-0.8796490430831909,-0.6543850302696228,0.35158705711364746
0.1898345947265625,-0.3074493408203125,-0.9542388916015625,-0.7744712233543396,-0.4169365167617798,0.43003660440444946
0.16998291015625,-0.2684173583984375,-0.9503021240234375,-0.636961817741394,-0.2363390326499939,0.503068208694458
0.1560516357421875,-0.2321929931640625,-0.9546966552734375,-0.4892040491104126,-0.15946155786514282,0.5587314367294312
0.1360015869140625,-0.205291748046875,-0.96142578125,-0.3490280210971832,-0.16003334522247314,0.5850855708122253
0.11053466796875,-0.1783447265625,-0.9633026123046875,-0.23618057370185852,-0.20308387279510498,0.5715135931968689
0.065948486328125,-0.1428375244140625,-0.9813690185546875,-0.16719111800193787,-0.29733872413635254,0.5257349014282227
-0.0045928955078125,-0.0876922607421875,-1.028106689453125,-0.11210896074771881,-0.571289598941803,0.3799228370189667
-0.0378265380859375,-0.0418701171875,-1.04571533203125,-0.052255745977163315,-0.9631830453872681,0.14016376435756683
-0.0532989501953125,-0.0324554443359375,-1.0338897705078125,-0.020074907690286636,-1.2169793844223022,-0.12605832517147064
-0.057647705078125,-0.0514373779296875,-1.0240020751953125,-0.003284476464614272,-1.2353757619857788,-0.355989545583725
-0.053802490234375,-0.09600830078125,-1.0073089599609375,0.030362965539097786,-1.0108264684677124,-0.5338780283927917
-0.01806640625,-0.150115966796875,-0.9755401611328125,0.0870390310883522,-0.6531195044517517,-0.6195095777511597
0.0384674072265625,-0.205596923828125,-0.952301025390625,0.12640614807605743,-0.3352866470813751,-0.5961808562278748
0.0892333984375,-0.2427978515625,-0.958648681640625,0.17515264451503754,-0.1460070013999939,-0.508603036403656
0.1262359619140625,-0.26202392578125,-0.971893310546875,0.2175392508506775,-0.05915333330631256,-0.39378485083580017
0.1462554931640625,-0.267669677734375,-0.9803619384765625,0.2404584139585495,0.008201204240322113,-0.2681480944156647
0.1340484619140625,-0.2690887451171875,-0.9724273681640625,0.24250665307044983,0.06933912634849548,-0.15353895723819733
0.1108856201171875,-0.277862548828125,-0.9746856689453125,0.2267516553401947,0.1445731669664383,-0.08647177368402481
0.096649169921875,-0.2774200439453125,-0.975372314453125,0.22154836356639862,0.21450750529766083,-0.06506635248661041
0.09368896484375,-0.265899658203125,-0.9677581787109375,0.22231589257717133,0.2630457580089569,-0.06236324459314346
0.090423583984375,-0.253448486328125,-0.962860107421875,0.21259668469429016,0.28598034381866455,-0.06519658118486404
0.0745697021484375,-0.2376251220703125,-0.983428955078125,0.19887182116508484,0.281460165977478,-0.09271901845932007
0.0615234375,-0.22308349609375,-1.0031890869140625,0.19488240778446198,0.2276020050048828,-0.16530586779117584
0.027313232421875,-0.20416259765625,-0.985626220703125,0.16331516206264496,0.1580146700143814,-0.235603466629982
-0.0021209716796875,-0.2031707763671875,-0.957855224609375,0.09616754204034805,0.12629961967468262,-0.3004189431667328
0.033966064453125,-0.221771240234375,-0.965484619140625,0.012853480875492096,0.0870097354054451,-0.33438995480537415
0.130615234375,-0.2533111572265625,-1.0015716552734375,0.010926949791610241,0.03671194240450859,-0.2571399211883545
0.205322265625,-0.291595458984375,-1.0077362060546875,0.005410744342952967,-0.052503954619169235,-0.18754778802394867
0.235076904296875,-0.33087158203125,-1.0065155029296875,-0.07007069885730743,-0.24468405544757843,-0.13098092377185822
0.24920654296875,-0.3431396484375,-1.0131988525390625,-0.11786191910505295,-0.4393099844455719,-0.11335638910531998
0.2542572021484375,-0.32489013671875,-1.02301025390625,-0.1570468693971634,-0.6208584904670715,-0.11230576783418655
0.2536773681640625,-0.33551025390625,-1.0173187255859375,-0.18606440722942352,-0.7477501034736633,-0.07036364823579788
0.23651123046875,-0.3575439453125,-1.0325164794921875,-0.19168049097061157,-0.7352007627487183,0.030362166464328766
0.17791748046875,-0.3441009521484375,-1.0413055419921875,-0.14178189635276794,-0.6297425031661987,0.1318664252758026
0.0991973876953125,-0.29583740234375,-1.0315704345703125,-0.06657955795526505,-0.5409335494041443,0.16921672224998474
0.048095703125,-0.25592041015625,-1.000823974609375,-0.019839750602841377,-0.4630081355571747,0.14316222071647644
0.0314483642578125,-0.232513427734375,-0.97210693359375,-0.02058277279138565,-0.3883240520954132,0.096366748213768
0.0299224853515625,-0.2173309326171875,-0.9480133056640625,-0.06486501544713974,-0.3622777760028839,0.050697531551122665
0.0369415283203125,-0.214385986328125,-0.935638427734375,-0.12456163763999939,-0.38302329182624817,0.01648470014333725
0.042510986328125,-0.2249298095703125,-0.9079437255859375,-0.18989937007427216,-0.3386635482311249,-0.02358655259013176
0.0381927490234375,-0.2295684814453125,-0.88861083984375,-0.24376019835472107,-0.25573137402534485,-0.05500200018286705
0.0337066650390625,-0.2095947265625,-0.901336669921875,-0.24827373027801514,-0.23944534361362457,-0.0941573902964592
0.0478515625,-0.191802978515625,-0.914581298828125,-0.2468971312046051,-0.2827107906341553,-0.11831598728895187
0.0665740966796875,-0.201629638671875,-0.9328155517578125,-0.2791440188884735,-0.3471726179122925,-0.12726260721683502
0.055511474609375,-0.2049102783203125,-0.9405364990234375,-0.3065151870250702,-0.29370832443237305,-0.13750246167182922
0.034759521484375,-0.2015228271484375,-0.9379425048828125,-0.33519449830055237,-0.1896037459373474,-0.11510368436574936
0.013427734375,-0.19384765625,-0.9542236328125,-0.35234951972961426,-0.13333728909492493,-0.07976513355970383
0.000274658203125,-0.1843719482421875,-0.9759521484375,-0.34886425733566284,-0.13656024634838104,-0.06235845014452934
-0.0006256103515625,-0.1802520751953125,-0.9917755126953125,-0.33747097849845886,-0.12598030269145966,-0.06584106385707855
0.0155181884765625,-0.184600830078125,-0.9887847900390625,-0.3306298553943634,-0.09242980182170868,-0.06731033325195312
0.02227783203125,-0.191619873046875,-0.9851531982421875,-0.32723912596702576,-0.06142261251807213,-0.07554562389850616
0.0230865478515625,-0.1835479736328125,-0.9765472412109375,-0.3249746263027191,-0.06630445271730423,-0.08179579675197601
0.0181427001953125,-0.1832275390625,-0.9746856689453125,-0.3125664293766022,-0.10703164339065552,-0.12047901004552841
0.031097412109375,-0.181976318359375,-0.9814300537109375,-0.2589956223964691,-0.16417428851127625,-0.13471919298171997
0.0610504150390625,-0.1817474365234375,-0.9935302734375,-0.18799041211605072,-0.16905319690704346,-0.12324310839176178
0.08172607421875,-0.1920623779296875,-0.9980621337890625,-0.12462155520915985,-0.09984297305345535,-0.07764099538326263
0.0799560546875,-0.2082366943359375,-0.986663818359375,-0.07914328575134277,-0.012589295394718647,-0.035897545516490936
0.068389892578125,-0.2193450927734375,-0.9721221923828125,-0.05349917709827423,0.04039349406957626,9.933590627042577e-05
0.061279296875,-0.21844482421875,-0.9612579345703125,-0.02570296637713909,0.02973046526312828,0.0244281105697155
0.0568695068359375,-0.212005615234375,-0.9526519775390625,-0.017654893919825554,-0.005560147576034069,0.04099190607666969
0.05035400390625,-0.2129058837890625,-0.9485015869140625,-0.02815627120435238,-0.05071750655770302,0.047390151768922806
0.0420379638671875,-0.218963623046875,-0.95086669921875,-0.05086078494787216,-0.09204337745904922,0.049731869250535965
0.035125732421875,-0.2172698974609375,-0.9651641845703125,-0.05519933998584747,-0.10035563260316849,0.03676600381731987
0.0393829345703125,-0.20849609375,-0.98272705078125,-0.057747453451156616,-0.02841353230178356,0.04412325099110603
0.032440185546875,-0.2050323486328125,-0.98101806640625,-0.059970393776893616,0.07289178669452667,0.03990480676293373
0.021728515625,-0.1924285888671875,-0.977874755859375,-0.03708531707525253,0.1408708393573761,0.014794925227761269
0.02972412109375,-0.175628662109375,-0.9854888916015625,0.010843592695891857,0.20421385765075684,-0.004719121381640434
0.033233642578125,-0.1741943359375,-0.9854583740234375,0.0953906998038292,0.221444770693779,-0.0025132251903414726
0.03173828125,-0.175445556640625,-0.9548492431640625,0.16200301051139832,0.18719013035297394,0.0030181603506207466
0.067474365234375,-0.1589508056640625,-0.8985137939453125,0.21006721258163452,-0.09267294406890869,0.042325884103775024
0.0766754150390625,-0.1841278076171875,-0.913787841796875,0.14404265582561493,-0.29706311225891113,0.1253504604101181
0.033355712890625,-0.230682373046875,-0.9524993896484375,-0.012765862978994846,-0.3533466160297394,0.15227103233337402
0.00982666015625,-0.243316650390625,-1.00439453125,-0.18652620911598206,-0.28182050585746765,0.11724593490362167
-0.008148193359375,-0.231964111328125,-1.0355987548828125,-0.305480033159256,-0.1555887907743454,0.07791077345609665
-0.0016937255859375,-0.203094482421875,-1.047271728515625,-0.3051769435405731,-0.1552380621433258,0.04320792481303215
0.025177001953125,-0.1692047119140625,-1.058868408203125,-0.20261356234550476,-0.23460344970226288,0.04856087639927864
0.021087646484375,-0.151885986328125,-1.058837890625,-0.04598826542496681,-0.2374567687511444,0.06805867701768875
0.0109100341796875,-0.1603546142578125,-1.0443878173828125,0.12113600969314575,-0.09590096026659012,0.08606298267841339
0.003448486328125,-0.1881103515625,-1.0166168212890625,0.21103553473949432,0.0764407142996788,0.09258852154016495
0.00494384765625,-0.2113800048828125,-0.9894256591796875,0.21612776815891266,0.18688467144966125,0.0839761272072792
0.014404296875,-0.218170166015625,-0.9767913818359375,0.13914351165294647,0.23999448120594025,0.07120440155267715
0.0245513916015625,-0.217498779296875,-0.974151611328125,0.05011722818017006,0.26626259088516235,0.04662396013736725
0.0229034423828125,-0.2093658447265625,-0.9735565185546875,-0.024270452558994293,0.23752520978450775,0.025946378707885742
0.02252197265625,-0.1964263916015625,-0.99285888671875,-0.05630641430616379,0.18302388489246368,0.019877301529049873
0.0227508544921875,-0.181671142578125,-1.0244293212890625,-0.026501914486289024,0.14578010141849518,0.019873306155204773
0.02178955078125,-0.17254638671875,-1.0381927490234375,0.061352573335170746,0.11984091997146606,-0.007702128030359745
0.02435302734375,-0.168670654296875,-1.021453857421875,0.17237229645252228,0.10700314491987228,0.0371423102915287
0.0318603515625,-0.1729736328125,-1.00372314453125,0.2648356556892395,0.13532985746860504,0.04772065207362175
0.0367584228515625,-0.1851348876953125,-0.9871368408203125,0.3184259235858917,0.1930064707994461,0.07917764037847519
0.035888671875,-0.20391845703125,-0.96978759765625,0.3309406340122223,0.25595107674598694,0.10267764329910278
0.0394744873046875,-0.2174530029296875,-0.9586944580078125,0.3112449645996094,0.3054632544517517,0.12519866228103638
0.0422515869140625,-0.2223968505859375,-0.9546051025390625,0.2766592800617218,0.3187939524650574,0.13782204687595367
0.0404815673828125,-0.220916748046875,-0.9536590576171875,0.23344337940216064,0.32513147592544556,0.15340180695056915
0.0361328125,-0.2191162109375,-0.9573516845703125,0.193330317735672,0.3300679326057434,0.1660638004541397
0.0331573486328125,-0.2203369140625,-0.95849609375,0.16035878658294678,0.33414867520332336,0.16887930035591125
0.0341949462890625,-0.22332763671875,-0.9598388671875,0.14612232148647308,0.35632801055908203,0.15957927703857422
0.0417022705078125,-0.223663330078125,-0.963592529296875,0.1355961710214615,0.40545374155044556,0.14120878279209137
0.0561676025390625,-0.2198638916015625,-0.97296142578125,0.13909077644348145,0.4827418923377991,0.12297599017620087
0.0699310302734375,-0.2167816162109375,-0.9762115478515625,0.15568600594997406,0.554995596408844,0.12016129493713379
0.079437255859375,-0.2180938720703125,-0.975555419921875,0.1777327060699463,0.594147801399231,0.13405580818653107
0.084259033203125,-0.2278900146484375,-0.9653778076171875,0.2036340832710266,0.5656335949897766,0.14865446090698242
0.0816497802734375,-0.223297119140625,-0.9599761962890625,0.23236000537872314,0.5423844456672668,0.16447895765304565
0.088409423828125,-0.219757080078125,-0.9552154541015625,0.2457360029220581,0.553880512714386,0.17975671589374542
0.078826904296875,-0.23699951171875,-0.92413330078125,0.25934314727783203,0.6384603977203369,0.1711384654045105
0.1021728515625,-0.260040283203125,-0.8622894287109375,0.3332575857639313,0.614854097366333,0.16010311245918274
0.12841796875,-0.2212371826171875,-0.8801116943359375,0.23474512994289398,0.4270365536212921,0.16085253655910492
0.118896484375,-0.22357177734375,-0.923614501953125,0.06330839544534683,0.21214261651039124,0.1309761255979538
0.088226318359375,-0.248046875,-0.9698333740234375,-0.11174357682466507,0.061417289078235626,0.07051943987607956
0.0799102783203125,-0.2591400146484375,-1.003265380859375,-0.2129136025905609,0.02046612650156021,0.04662848636507988
0.09197998046875,-0.260986328125,-1.015625,-0.20408788323402405,0.03298937529325485,0.039022766053676605
0.107147216796875,-0.2354278564453125,-1.0047760009765625,-0.11259232461452484,0.04703328758478165,0.018379539251327515
0.1124420166015625,-0.2208709716796875,-0.9812164306640625,-0.0451139472424984,0.09997719526290894,0.005250421818345785
0.102447509765625,-0.230224609375,-0.96142578125,-0.028380773961544037,0.19403710961341858,-0.004518052563071251
0.0879974365234375,-0.2371368408203125,-0.9570159912109375,-0.034017354249954224,0.22245118021965027,-0.010464359074831009
0.086395263671875,-0.229827880859375,-0.9704742431640625,-0.03334330767393112,0.14697186648845673,-0.009169530123472214
0.0915374755859375,-0.2196044921875,-0.9864044189453125,-0.024758342653512955,0.009108543395996094,-0.013768276199698448
0.091033935546875,-0.22259521484375,-0.9920196533203125,-0.027480360120534897,-0.09156959503889084,-0.005694637540727854
0.0919189453125,-0.23681640625,-0.99920654296875,-0.028501681983470917,-0.09438296407461166,-0.05902949720621109
0.0970916748046875,-0.2477264404296875,-1.0064544677734375,-0.011781025677919388,-0.02461799420416355,0.02460494451224804
0.1060638427734375,-0.2491912841796875,-1.004486083984375,0.02040487341582775,0.03976738452911377,0.03731993958353996
0.112274169921875,-0.242034912109375,-0.99493408203125,0.06367724388837814,0.09121166914701462,0.050688743591308594
0.111358642578125,-0.230224609375,-0.9783935546875,0.11099176853895187,0.17265379428863525,0.05228797346353531
0.110321044921875,-0.2266387939453125,-0.9408721923828125,0.17086495459079742,0.25359046459198,0.04193786159157753
0.12939453125,-0.23468017578125,-0.9031219482421875,0.23954574763774872,0.1723291575908661,0.042097385972738266
0.1539306640625,-0.237579345703125,-0.8980560302734375,0.17375554144382477,-0.027948010712862015,0.050579555332660675
0.1373291015625,-0.24957275390625,-0.92755126953125,0.019406987354159355,-0.15113359689712524,0.06387032568454742
0.0874176025390625,-0.2639007568359375,-0.9726715087890625,-0.1327093094587326,-0.20140475034713745,0.06548579782247543
0.0571746826171875,-0.2671966552734375,-1.009033203125,-0.22243040800094604,-0.21023446321487427,0.036972664296627045
0.07110595703125,-0.2564239501953125,-1.0265960693359375,-0.23066329956054688,-0.16157397627830505,0.001957956003025174
0.105865478515625,-0.2409210205078125,-1.018951416015625,-0.17092594504356384,-0.07043075561523438,-0.01817474327981472
0.124359130859375,-0.2078399658203125,-1.004547119140625,-0.08710427582263947,0.02991502173244953,-0.009881925769150257
0.11492919921875,-0.207733154296875,-0.996368408203125,-0.01540505513548851,0.11885980516672134,0.005390770733356476
0.0970001220703125,-0.2310943603515625,-0.9940338134765625,0.01871749572455883,0.14823473989963531,0.015851933509111404
0.0892333984375,-0.2452239990234375,-0.9986114501953125,0.017186976969242096,0.07924795150756836,0.007829959504306316
0.093048095703125,-0.2463836669921875,-0.998870849609375,0.02317775785923004,0.029747242107987404,0.014627145603299141
0.1012420654296875,-0.238433837890625,-0.9959259033203125,0.060516607016325,0.031621042639017105,0.027941886335611343
0.1108551025390625,-0.233489990234375,-0.983428955078125,0.11648613214492798,0.06378111243247986,0.05107836425304413
0.1230010986328125,-0.2411346435546875,-0.9503326416015625,0.175456240773201,0.11395320296287537,0.006631270982325077
0.1419677734375,-0.2481231689453125,-0.88848876953125,0.24641910195350647,0.06499551236629486,0.055156461894512177
0.1434783935546875,-0.2368621826171875,-0.8465118408203125,0.20087690651416779,-0.10477062314748764,0.06319308280944824
0.121124267578125,-0.2268829345703125,-0.859466552734375,0.014651913195848465,-0.24268028140068054,0.04152347519993782
0.08294677734375,-0.2315673828125,-0.9199066162109375,-0.21493573486804962,-0.30085092782974243,0.0073042516596615314
0.0670623779296875,-0.233123779296875,-0.986114501953125,-0.33669573068618774,-0.28963953256607056,-0.03912609815597534
0.0803070068359375,-0.2328033447265625,-1.036346435546875,-0.3314301371574402,-0.2591831088066101,-0.07106858491897583
0.1149139404296875,-0.2489776611328125,-1.0482177734375,-0.2437564730644226,-0.2556469440460205,-0.0841875821352005
0.135986328125,-0.2176361083984375,-1.0220184326171875,-0.14315742254257202,-0.2914246618747711,-0.09541600197553635
0.1130523681640625,-0.1815643310546875,-0.9902496337890625,-0.07297913730144501,-0.2320886254310608,-0.09962192922830582
0.058135986328125,-0.1926116943359375,-0.9741973876953125,-0.027883030474185944,-0.07183025032281876,-0.08593781292438507
0.022674560546875,-0.2177581787109375,-0.9775238037109375,0.0013494236627593637,0.015923039987683296,-0.07841038703918457
0.0283050537109375,-0.2301177978515625,-0.986083984375,0.0062371231615543365,-0.01404817495495081,-0.07768440991640091
0.060302734375,-0.2286529541015625,-0.994903564453125,-0.006105296779423952,-0.07305503636598587,-0.07918776571750641
0.0872650146484375,-0.222381591796875,-0.996368408203125,-0.003328418591991067,-0.10574560612440109,-0.03856177255511284
0.09375,-0.22296142578125,-0.9878082275390625,0.014702512882649899,-0.06359415501356125,-0.02129729837179184
0.0746917724609375,-0.225677490234375,-0.976318359375,0.04113678261637688,0.05549628287553787,-0.03599288687109947
0.06451416015625,-0.2222137451171875,-0.9714813232421875,0.0651041716337204,0.198581263422966,-0.04542766883969307
0.0669708251953125,-0.2152099609375,-0.967437744140625,0.10288403928279877,0.30757033824920654,-0.06295126676559448
0.0687408447265625,-0.2179107666015625,-0.93603515625,0.15206941962242126,0.40905702114105225,-0.07611554116010666
0.1016998291015625,-0.2297210693359375,-0.8874359130859375,0.23505672812461853,0.3906953036785126,-0.07466411590576172
0.16351318359375,-0.2220611572265625,-0.88275146484375,0.18620316684246063,0.12800776958465576,-0.05987584963440895
0.172454833984375,-0.22119140625,-0.9202423095703125,-0.021411282941699028,-0.15134131908416748,-0.06279121339321136
0.1275787353515625,-0.23968505859375,-0.97601318359375,-0.246287003159523,-0.30281713604927063,-0.08640439808368683
0.095855712890625,-0.26318359375,-1.0208740234375,-0.35152021050453186,-0.3392896354198456,-0.10115271806716919
0.096527099609375,-0.2755889892578125,-1.0292205810546875,-0.3283238112926483,-0.33115795254707336,-0.13050101697444916
0.12255859375,-0.2095947265625,-1.0159454345703125,-0.23449665307998657,-0.32082781195640564,-0.1692766398191452
0.1218414306640625,-0.170806884765625,-0.9910736083984375,-0.14923422038555145,-0.2515842914581299,-0.1858111470937729
0.097320556640625,-0.187225341796875,-0.9814300537109375,-0.13941888511180878,-0.22483152151107788,-0.19442273676395416
0.0752716064453125,-0.2117919921875,-0.991058349609375,-0.16607685387134552,-0.32777974009513855,-0.21724310517311096
0.0782470703125,-0.212890625,-0.994781494140625,-0.19247357547283173,-0.4833988845348358,-0.2540714144706726
0.083984375,-0.20550537109375,-0.9893341064453125,-0.2249865084886551,-0.6110005378723145,-0.27486565709114075
0.085662841796875,-0.1982269287109375,-0.9873046875,-0.24648354947566986,-0.6955689191818237,-0.27578258514404297
0.0847930908203125,-0.192840576171875,-1.0024871826171875,-0.2235579937696457,-0.7307828664779663,-0.18284384906291962
0.0678863525390625,-0.1967315673828125,-1.007171630859375,-0.16505233943462372,-0.6556832790374756,-0.21916458010673523
0.0253448486328125,-0.217681884765625,-1.0004425048828125,-0.09919529408216476,-0.517045795917511,-0.19408345222473145
0.0030670166015625,-0.2197723388671875,-0.99261474609375,-0.04292083531618118,-0.313737690448761,-0.17374569177627563
0.011138916015625,-0.2041473388671875,-0.9830780029296875,-0.0032176312524825335,-0.11841772496700287,-0.15956436097621918
0.029449462890625,-0.192230224609375,-0.9776153564453125,0.026920298114418983,-0.03960706293582916,-0.1364459991455078
0.037261962890625,-0.1931915283203125,-0.9734039306640625,0.04490808770060539,-0.033963028341531754,-0.10857441276311874
0.034027099609375,-0.20184326171875,-0.96728515625,0.036438968032598495,-0.03328924626111984,-0.0839601457118988
0.031768798828125,-0.2071685791015625,-0.966552734375,0.0020900487434118986,-0.03213956207036972,-0.07230455428361893
0.0378875732421875,-0.20709228515625,-0.9697723388671875,-0.035049062222242355,-0.03735855594277382,-0.0654517114162445
0.043426513671875,-0.205902099609375,-0.9771575927734375,-0.05088555067777634,-0.049009088426828384,-0.06009849160909653
0.0465850830078125,-0.204803466796875,-0.9903564453125,-0.04333895072340965,-0.06494251638650894,-0.05445578321814537
0.0529937744140625,-0.20782470703125,-0.99688720703125,-0.02196282334625721,-0.061829011887311935,-0.0385066457092762
0.0570526123046875,-0.2101287841796875,-0.99371337890625,0.00373108871281147,-0.05391889065504074,-0.030542995780706406
0.05938720703125,-0.210968017578125,-0.9925384521484375,0.018576614558696747,-0.05269383639097214,-0.01721893437206745
0.056732177734375,-0.2111358642578125,-0.9868316650390625,0.01924719847738743,-0.054304517805576324,-0.017002951353788376
0.0491180419921875,-0.2077789306640625,-0.98004150390625,0.013042831793427467,-0.06634893268346786,-0.02605210617184639
0.0408782958984375,-0.2031707763671875,-0.9795074462890625,0.0034104441292583942,-0.07149415463209152,-0.03922782838344574
0.03607177734375,-0.2013702392578125,-0.983184814453125,-0.004231230355799198,-0.06598807126283646,-0.04848897084593773
0.0326995849609375,-0.2003326416015625,-0.9794769287109375,-0.006608900614082813,-0.05727021396160126,-0.06083139404654503
0.0367584228515625,-0.1983184814453125,-0.9719390869140625,-0.007925300858914852,-0.051059987396001816,-0.07015432417392731
0.03912353515625,-0.19854736328125,-0.9647064208984375,-0.015861520543694496,-0.046547528356313705,-0.06351052969694138
0.034454345703125,-0.2003936767578125,-0.962158203125,-0.033245306462049484,-0.03603656217455864,-0.05530479922890663
0.0373992919921875,-0.199737548828125,-0.9561614990234375,-0.05083654820919037,-0.02930595725774765,-0.056587379425764084
0.0404510498046875,-0.1982269287109375,-0.96466064453125,-0.0640663355588913,-0.011652661487460136,-0.047982972115278244
0.039031982421875,-0.1979217529296875,-0.9856414794921875,-0.05054812878370285,0.0014583469601348042,-0.03948695585131645
0.03887939453125,-0.1970977783203125,-1.0034332275390625,-0.020313527435064316,0.02540123090147972,-0.04338875412940979
0.0368804931640625,-0.199005126953125,-1.0052947998046875,0.017794709652662277,0.05993470549583435,-0.03615347668528557
0.0382537841796875,-0.2000579833984375,-0.99755859375,0.044007670134305954,0.08735194802284241,-0.031858596950769424
0.041900634765625,-0.201934814453125,-0.9846649169921875,0.05428481101989746,0.07979576289653778,-0.028307538479566574
0.0453338623046875,-0.2037811279296875,-0.9738616943359375,0.0458039753139019,0.04801173508167267,-0.023721041157841682
0.049896240234375,-0.205535888671875,-0.9708099365234375,0.025534654036164284,0.011514442972838879,-0.017412278801202774
0.0496063232421875,-0.205902099609375,-0.9728546142578125,0.0021196098532527685,-0.022663500159978867,-0.014132862910628319
0.0477142333984375,-0.205108642578125,-0.9862213134765625,-0.007596134208142757,-0.03881583735346794,-0.011462245136499405
0.045440673828125,-0.2041778564453125,-0.9959869384765625,-0.0051833102479577065,-0.007174023427069187,-0.011172759346663952
0.0399627685546875,-0.203857421875,-1.0017242431640625,0.00881799217313528,0.03905951976776123,-0.010322412475943565
0.0384368896484375,-0.204376220703125,-1.0027618408203125,0.029085714370012283,0.07597839087247849,-0.007720503956079483
0.0420074462890625,-0.203125,-0.993896484375,0.050943341106176376,0.08320673555135727,0.0005347627447918057
0.0469818115234375,-0.201904296875,-0.9794464111328125,0.06091262027621269,0.07517518103122711,0.008159658871591091
0.049072265625,-0.2007598876953125,-0.972869873046875,0.05366509407758713,0.045703038573265076,0.014313425868749619
0.047943115234375,-0.2028350830078125,-0.9720306396484375,0.043479301035404205,0.015260179527103901,0.01715528406202793
0.044281005859375,-0.2061004638671875,-0.9703521728515625,0.035532958805561066,-0.001582716591656208,0.017604026943445206
0.041900634765625,-0.206024169921875,-0.970977783203125,0.03308578208088875,-0.007397196255624294,0.010729609988629818
0.0426025390625,-0.206085205078125,-0.9754638671875,0.03737666830420494,-0.004025101661682129,0.004367051646113396
0.0391845703125,-0.20684814453125,-0.97845458984375,0.04236849397420883,0.021681061014533043,-0.0017547567840665579
0.0334014892578125,-0.2098236083984375,-0.975189208984375,0.04936009272933006,0.061034590005874634,-0.0022093583829700947
0.033477783203125,-0.210968017578125,-0.9704437255859375,0.04681863635778427,0.0957060158252716,-0.002936135046184063
0.0363006591796875,-0.208343505859375,-0.972015380859375,0.046900928020477295,0.09628259390592575,0.0009361011325381696
0.037200927734375,-0.2053070068359375,-0.9775390625,0.03716734051704407,0.07387342303991318,0.004559864290058613
0.0326385498046875,-0.204559326171875,-0.9891357421875,0.03887788951396942,0.060446564108133316,0.007845672778785229
0.0302276611328125,-0.2060089111328125,-0.999176025390625,0.04225744307041168,0.049980342388153076,0.009105348028242588
0.0337066650390625,-0.2069091796875,-1.0068511962890625,0.04995664209127426,0.051906608045101166,0.004715392831712961
0.0446014404296875,-0.2093658447265625,-1.0129241943359375,0.06634680181741714,0.04866873472929001,0.009378321468830109
0.0577850341796875,-0.213165283203125,-1.0150146484375,0.09917452186346054,0.04205876961350441,0.02574530988931656
0.0616302490234375,-0.21673583984375,-1.00518798828125,0.13486407697200775,0.06179865077137947,0.053833670914173126
0.0583648681640625,-0.2262725830078125,-0.975311279296875,0.17736919224262238,0.1124487817287445,0.08345255255699158
0.0591278076171875,-0.238006591796875,-0.922607421875,0.3017369508743286,0.3643350899219513,0.11058297008275986
0.0518646240234375,-0.2036895751953125,-0.9372711181640625,0.27868542075157166,0.3358818590641022,0.11423682421445847
0.0507354736328125,-0.20611572265625,-0.9466094970703125,0.16533569991588593,0.1464213877916336,0.047139015048742294
0.0457305908203125,-0.2194976806640625,-0.94921875,-0.01739496923983097,-0.009238772094249725,-0.03171824663877487
0.0517425537109375,-0.2238006591796875,-0.9710845947265625,-0.13558100163936615,-0.15658827126026154,-0.0590721070766449
0.058319091796875,-0.2181854248046875,-1.002960205078125,-0.15650252997875214,-0.25118616223335266,-0.04916168749332428
0.0647125244140625,-0.2306365966796875,-1.0246429443359375,-0.11952320486307144,-0.23952870070934296,-0.0402614027261734
0.071563720703125,-0.25164794921875,-1.0236053466796875,-0.06271770596504211,-0.1050071120262146,-0.034148383885622025
0.0505828857421875,-0.225006103515625,-1.0025177001953125,0.006673349067568779,0.11002423614263535,-0.03213530033826828
0.027191162109375,-0.2056884765625,-0.97314453125,0.06167428195476532,0.2576379179954529,-0.03785177320241928
0.0238800048828125,-0.2042083740234375,-0.9529571533203125,0.07589183747768402,0.26306626200675964,-0.048709217458963394
0.0440673828125,-0.2100830078125,-0.945098876953125,0.05282992497086525,0.1341780424118042,-0.05660894885659218
0.06854248046875,-0.2188262939453125,-0.947967529296875,0.006214220076799393,-0.04873105511069298,-0.05162511020898819
0.0884552001953125,-0.22705078125,-0.96533203125,-0.03820544108748436,-0.18266142904758453,-0.03814498707652092
0.0904388427734375,-0.2327423095703125,-0.9797515869140625,-0.05137930065393448,-0.23073521256446838,-0.015065236017107964
0.072479248046875,-0.233184814453125,-0.979522705078125,-0.04065554961562157,-0.15769216418266296,0.011770905926823616
0.0525970458984375,-0.2302398681640625,-0.9796905517578125,-0.013372530229389668,-0.038536205887794495,-0.007166832685470581
0.042694091796875,-0.2248687744140625,-0.9755096435546875,0.016159528866410255,0.07241614162921906,0.04143984988331795
0.035491943359375,-0.2180023193359375,-0.9601898193359375,0.045156028121709824,0.14003300666809082,0.03936365246772766
0.03448486328125,-0.2139434814453125,-0.9467315673828125,0.057066481560468674,0.17773111164569855,0.04026379808783531
0.0406951904296875,-0.2057952880859375,-0.948944091796875,0.08256811648607254,0.1806829571723938,0.03026522696018219
0.052459716796875,-0.1999664306640625,-0.9661407470703125,0.03150838986039162,0.011724832467734814,0.002430134452879429
0.054656982421875,-0.21435546875,-0.97113037109375,-0.06930077821016312,-0.1326342076063156,-0.028314728289842606
0.0554046630859375,-0.23040771484375,-0.976715087890625,-0.13088957965373993,-0.21190346777439117,-0.03630394488573074
0.0567474365234375,-0.2282257080078125,-0.991424560546875,-0.11856632679700851,-0.20942911505699158,-0.02684599533677101
0.0452728271484375,-0.2079010009765625,-1.0044403076171875,-0.06907200813293457,-0.11015260219573975,-0.01960858888924122
0.0329132080078125,-0.2017059326171875,-0.9998779296875,-0.011277422308921814,0.017178986221551895,-0.024821726605296135
0.02874755859375,-0.203765869140625,-0.99072265625,0.021620340645313263,0.08749682456254959,-0.03280508518218994
0.0315093994140625,-0.2050933837890625,-0.9858856201171875,0.03068866953253746,0.06961023807525635,-0.02985270321369171
0.0405120849609375,-0.2061920166015625,-0.9799041748046875,0.017552629113197327,0.013004481792449951,-0.01992683671414852
0.0492401123046875,-0.208465576171875,-0.9800872802734375,-0.008913599886000156,-0.022000374272465706,-0.007808388210833073
0.0516815185546875,-0.2126617431640625,-0.982940673828125,-0.016595754772424698,-0.030541663989424706,-0.007582552265375853
0.052032470703125,-0.2137451171875,-0.9848175048828125,-0.009134110063314438,-0.015787219628691673,-0.007141000125557184
0.0546875,-0.2119140625,-0.990875244140625,0.00956527516245842,0.012950685806572437,0.006311691831797361
0.05218505859375,-0.2126007080078125,-0.99493408203125,0.03659263253211975,0.058449726551771164,0.01131230965256691
0.049896240234375,-0.2135772705078125,-0.993804931640625,0.0699487254023552,0.09622293710708618,0.01955852098762989
0.0484771728515625,-0.214141845703125,-0.9761505126953125,0.09535927325487137,0.10122542083263397,0.02881859801709652
0.049652099609375,-0.2126007080078125,-0.961151123046875,0.0996972993016243,0.0872158631682396,0.037931136786937714
0.0531463623046875,-0.210601806640625,-0.965850830078125,0.10492774844169617,0.10157109797000885,0.045886266976594925
0.0544891357421875,-0.2123870849609375,-0.9727935791015625,0.11013822257518768,0.1298176497220993,0.055748216807842255
0.0547027587890625,-0.2166595458984375,-0.973876953125,0.11088071018457413,0.15274161100387573,0.0663747638463974
0.05584716796875,-0.21954345703125,-0.9689788818359375,0.09716197103261948,0.16161100566387177,0.06981663405895233
0.054840087890625,-0.2198028564453125,-0.962127685546875,0.08459584414958954,0.15481966733932495,0.07917870581150055
0.0561370849609375,-0.217132568359375,-0.96124267578125,0.07350511103868484,0.13670165836811066,0.08024636656045914
0.0614471435546875,-0.214447021484375,-0.9634246826171875,0.07005338370800018,0.11680518090724945,0.08272497355937958
0.06951904296875,-0.2145538330078125,-0.9669647216796875,0.052557483315467834,0.1294032633304596,0.08543553948402405
0.0664520263671875,-0.2168426513671875,-0.9730377197265625,0.03642405569553375,0.15124037861824036,0.0840245932340622
0.0638427734375,-0.21844482421875,-0.983184814453125,0.036381710320711136,0.16901139914989471,0.07812569290399551
0.0640411376953125,-0.2180938720703125,-0.9900360107421875,0.04535576328635216,0.18867510557174683,0.07874833792448044
0.064697265625,-0.216705322265625,-0.991455078125,0.06606689840555191,0.18769612908363342,0.07729105651378632
0.0618743896484375,-0.218994140625,-0.988616943359375,0.08379583060741425,0.17421840131282806,0.07458129525184631
0.063568115234375,-0.22100830078125,-0.984771728515625,0.09342315793037415,0.16665129363536835,0.06727197766304016
0.07257080078125,-0.2239990234375,-0.9863128662109375,0.09638006240129471,0.15680213272571564,0.05567764490842819
0.0809173583984375,-0.2279510498046875,-0.9880523681640625,0.09537738561630249,0.1164027750492096,0.04531608149409294
0.0832672119140625,-0.2298431396484375,-0.9860687255859375,0.08836448192596436,0.060867611318826675,0.03796841949224472
0.089324951171875,-0.2301483154296875,-0.988189697265625,0.06648022681474686,0.008958075195550919,0.03520805388689041
0.09124755859375,-0.2329254150390625,-0.9942779541015625,0.04749028757214546,-0.05458281934261322,0.037529800087213516
0.08734130859375,-0.23577880859375,-1.002349853515625,0.04704420641064644,-0.08445416390895844,0.04108645021915436
0.0788726806640625,-0.2382354736328125,-0.9993896484375,0.05696208402514458,-0.06580431014299393,0.046357911080121994
0.0655670166015625,-0.2369842529296875,-0.9902191162109375,0.06995750963687897,-0.023492809385061264,0.042819369584321976
0.05792236328125,-0.2317962646484375,-0.9788360595703125,0.08797140419483185,0.04295891895890236,0.0415319986641407
0.0534820556640625,-0.2290802001953125,-0.970306396484375,0.09694065898656845,0.10805483162403107,0.03909653425216675
0.0578155517578125,-0.228851318359375,-0.9706573486328125,0.10618369281291962,0.1336190402507782,0.041613489389419556
0.0637054443359375,-0.228759765625,-0.974853515625,0.11209804564714432,0.11385200172662735,0.043946150690317154
0.0638885498046875,-0.229888916015625,-0.9763336181640625,0.11158831417560577,0.09013389050960541,0.04314613714814186
0.058807373046875,-0.23175048828125,-0.9807586669921875,0.1112905740737915,0.08416388183832169,0.05101977288722992
0.05712890625,-0.23284912109375,-0.9829254150390625,0.12060870230197906,0.08053931593894958,0.043887827545404434
0.060028076171875,-0.2310028076171875,-0.9774322509765625,0.12799657881259918,0.08618521690368652,0.03652392327785492
0.0680694580078125,-0.232696533203125,-0.9780426025390625,0.13440440595149994,0.09816092252731323,0.035588622093200684
0.0780487060546875,-0.2340850830078125,-0.98291015625,0.14929893612861633,0.08155664801597595,0.03894207254052162
0.086822509765625,-0.2376251220703125,-0.9891815185546875,0.16189488768577576,0.06142687425017357,0.05102163925766945
0.09393310546875,-0.24273681640625,-0.9958343505859375,0.18237753212451935,0.03935885801911354,0.07088003307580948
0.092681884765625,-0.2465667724609375,-0.9930419921875,0.19754555821418762,0.03364105150103569,0.08875489979982376
0.0800018310546875,-0.2494964599609375,-0.97802734375,0.22117872536182404,0.06363090872764587,0.0963776707649231
0.0625152587890625,-0.2490692138671875,-0.95220947265625,0.2327461689710617,0.1314224749803543,0.10868440568447113
0.0528717041015625,-0.2509002685546875,-0.9198455810546875,0.24273115396499634,0.2021821290254593,0.1033378392457962
0.074676513671875,-0.2459259033203125,-0.885528564453125,0.35882818698883057,0.21935206651687622,0.10269894450902939
0.1044464111328125,-0.224884033203125,-0.9038543701171875,0.3088718354701996,0.08171217143535614,0.11799933761358261
0.089630126953125,-0.2606658935546875,-0.9095306396484375,0.1490326225757599,-0.031094536185264587,0.0952940285205841
0.071319580078125,-0.2872314453125,-0.9192657470703125,-0.06196776404976845,-0.10264861583709717,0.045051366090774536
0.0686187744140625,-0.268402099609375,-0.951812744140625,-0.19716127216815948,-0.17818598449230194,0.007056844420731068
0.0814666748046875,-0.266815185546875,-0.981536865234375,-0.2193019986152649,-0.21580685675144196,-0.012748019769787788
0.0872039794921875,-0.2546539306640625,-0.9974212646484375,-0.17593641579151154,-0.19557668268680573,-0.022117286920547485
0.0765228271484375,-0.230712890625,-1.003570556640625,-0.12433979660272598,-0.11811359226703644,-0.028600752353668213
0.05029296875,-0.2349395751953125,-0.9962310791015625,-0.08253376185894012,-0.03272119536995888,-0.05914081633090973
0.0396270751953125,-0.245880126953125,-0.987274169921875,-0.05066344514489174,-0.012056129984557629,-0.0793486163020134
0.0470428466796875,-0.249542236328125,-0.9864501953125,-0.024598021060228348,-0.07655922323465347,-0.07340018451213837
0.064605712890625,-0.246368408203125,-0.9868621826171875,-0.0044291033409535885,-0.17036187648773193,-0.05919567868113518
0.0746917724609375,-0.2481689453125,-0.98175048828125,0.005578789860010147,-0.23896224796772003,-0.04715579375624657
0.0742340087890625,-0.253509521484375,-0.975677490234375,0.015213840641081333,-0.24358682334423065,-0.07156047224998474
0.0643463134765625,-0.257568359375,-0.9671478271484375,0.016820259392261505,-0.21366381645202637,-0.029994383454322815
0.0556640625,-0.2574920654296875,-0.9608154296875,0.015844210982322693,-0.18458423018455505,-0.025721341371536255
0.0517730712890625,-0.2571563720703125,-0.9555816650390625,0.007311975117772818,-0.15573206543922424,-0.013568006455898285
0.045684814453125,-0.256561279296875,-0.9510040283203125,-0.014090253040194511,-0.13027384877204895,-0.005801429972052574
0.0431365966796875,-0.256927490234375,-0.9551239013671875,-0.03057708404958248,-0.11337342858314514,-0.005877862684428692
0.0417327880859375,-0.2563934326171875,-0.960113525390625,-0.04483351856470108,-0.10943061858415604,-0.003052515210583806
0.0386962890625,-0.2568359375,-0.971405029296875,-0.060692641884088516,-0.11037897318601608,0.0003123887872789055
0.0355224609375,-0.2592926025390625,-0.983001708984375,-0.07330244034528732,-0.09989144653081894,-0.006415022537112236
0.0317230224609375,-0.2553558349609375,-0.99774169921875,-0.05859487131237984,-0.0711711123585701,-0.03467435762286186
0.0346832275390625,-0.243927001953125,-1.006591796875,-0.005832322873175144,-0.035954538732767105,-0.06984885782003403
0.0506134033203125,-0.2338409423828125,-0.966064453125,0.08766140788793564,-0.03942809998989105,-0.08836634457111359
0.0699615478515625,-0.230010986328125,-0.9280853271484375,0.20557473599910736,-0.2364458292722702,-0.04852066561579704
0.0508575439453125,-0.2355804443359375,-0.96624755859375,0.1569126546382904,-0.11781984567642212,0.039027027785778046
0.018463134765625,-0.26611328125,-0.97900390625,0.09413502365350723,0.015744341537356377,0.062066301703453064
0.0263824462890625,-0.252197265625,-1.0094146728515625,0.02539297379553318,0.13745692372322083,0.02418096922338009
0.047576904296875,-0.2580413818359375,-1.0153350830078125,-0.045095305889844894,0.19246399402618408,0.02767983078956604
0.0463409423828125,-0.28466796875,-1.0174713134765625,-0.09090913087129593,0.16567258536815643,0.049665555357933044
0.024932861328125,-0.3050689697265625,-1.0078277587890625,-0.08069884032011032,0.08688083291053772,0.04388649761676788
0.05450439453125,-0.216522216796875,-0.9674530029296875,0.023486683145165443,-0.04743462800979614,0.025059813633561134
0.10009765625,-0.1344451904296875,-0.93377685546875,0.14404772222042084,-0.11110468208789825,0.061703044921159744
0.109466552734375,-0.1728363037109375,-0.9151763916015625,0.1787170171737671,-0.1007644310593605,0.12732146680355072
0.0799560546875,-0.2671356201171875,-0.9368133544921875,0.11299499124288559,0.014478009194135666,0.16178889572620392
0.03240966796875,-0.3358001708984375,-0.9963226318359375,0.016027968376874924,0.27244484424591064,0.1426439732313156
0.006866455078125,-0.339935302734375,-1.0052947998046875,-0.03640807420015335,0.4728149473667145,0.07060413062572479
0.0178070068359375,-0.294708251953125,-0.9859161376953125,-0.03702219948172569,0.48887860774993896,-0.013026585802435875
0.04669189453125,-0.2480926513671875,-0.971771240234375,0.009586847387254238,0.412998765707016,-0.02863350883126259
0.0601043701171875,-0.2259979248046875,-0.9646759033203125,0.08375029265880585,0.30881136655807495,-0.040133036673069
0.0684814453125,-0.23095703125,-0.954315185546875,0.1660211980342865,0.20622214674949646,-0.04740080609917641
0.0740203857421875,-0.25164794921875,-0.931884765625,0.19919033348560333,0.1150863766670227,-0.019594473764300346
0.0718994140625,-0.2715606689453125,-0.919891357421875,0.16568776965141296,0.05943349748849869,0.0027395938523113728
0.06829833984375,-0.2807159423828125,-0.9210205078125,0.07909668236970901,0.053835269063711166,0.008887235075235367
0.071075439453125,-0.280517578125,-0.9363555908203125,-0.005614742636680603,0.08484324812889099,0.015916116535663605
0.070892333984375,-0.27587890625,-0.969573974609375,-0.05134255066514015,0.1318933218717575,0.037524204701185226
0.0650787353515625,-0.2723541259765625,-0.9906768798828125,-0.03916124999523163,0.17277656495571136,0.06132620945572853
0.0606689453125,-0.26953125,-0.9926300048828125,0.006157760974019766,0.2214341163635254,0.0761091485619545
0.0537872314453125,-0.26824951171875,-0.9851837158203125,0.05808194354176521,0.2760361135005951,0.08075450360774994
0.0469818115234375,-0.2668609619140625,-0.971710205078125,0.09527672082185745,0.3626359701156616,0.07450699061155319
0.055938720703125,-0.2704925537109375,-0.936553955078125,0.142171248793602,0.4529736042022705,0.06731698662042618
0.0898284912109375,-0.2657470703125,-0.921661376953125,0.24357111752033234,0.4004118740558624,0.06501948088407516
0.1196441650390625,-0.2397613525390625,-0.949920654296875,0.1921023279428482,0.2006225883960724,0.05793121084570885
0.1175537109375,-0.2629852294921875,-0.9555206298828125,0.04101800546050072,0.03810663893818855,0.019277291372418404
0.0933685302734375,-0.2756805419921875,-0.978363037109375,-0.09535235166549683,-0.03185193985700607,-0.02009674534201622
0.07781982421875,-0.2698974609375,-1.0088653564453125,-0.13735492527484894,-0.06594572961330414,-0.035648807883262634
0.0919036865234375,-0.2729949951171875,-1.033721923828125,-0.07346250116825104,0.004995024763047695,-0.028918467462062836
0.097259521484375,-0.26629638671875,-1.0236968994140625,0.02875920943915844,0.1193128153681755,-0.025042502209544182
0.0942230224609375,-0.2470550537109375,-0.9910430908203125,0.1120130866765976,0.24150051176548004,-0.026565831154584885
0.0871124267578125,-0.2489013671875,-0.9502716064453125,0.1461324393749237,0.3158072233200073,-0.02895149029791355
0.0799560546875,-0.263153076171875,-0.921783447265625,0.11947153508663177,0.2831134498119354,-0.03852848336100578
0.0849609375,-0.276641845703125,-0.9122161865234375,0.06335846334695816,0.16632185876369476,-0.05066291242837906
0.1028900146484375,-0.2844085693359375,-0.915008544921875,-0.002031725598499179,0.029350697994232178,-0.05223098024725914
0.119873046875,-0.286041259765625,-0.916412353515625,-0.060010071843862534,-0.10099399089813232,-0.0334375835955143
0.119232177734375,-0.286712646484375,-0.9381866455078125,-0.10719143599271774,-0.1823919117450714,-0.003952397499233484
0.10723876953125,-0.2917633056640625,-0.949371337890625,-0.13238626718521118,-0.22515934705734253,0.025135446339845657
0.090850830078125,-0.2816009521484375,-0.9462432861328125,-0.11717882007360458,-0.2597934901714325,0.010179134085774422
0.0971832275390625,-0.26385498046875,-0.9603271484375,-0.05501345172524452,-0.24001605808734894,-0.0035547874867916107
0.1043243408203125,-0.2595367431640625,-0.9726409912109375,0.01991671696305275,-0.1655293107032776,0.0020999026019126177
0.0950775146484375,-0.2677764892578125,-0.967010498046875,0.07873263210058212,-0.0758630707859993,0.012042282149195671
0.08587646484375,-0.2704010009765625,-0.9340362548828125,0.10700821131467819,-0.02467365376651287,0.01967144012451172
0.09710693359375,-0.26348876953125,-0.895843505859375,0.15444976091384888,-0.2657965123653412,0.04093704745173454
0.0988311767578125,-0.2698974609375,-0.9280853271484375,0.1095653772354126,-0.3149358332157135,0.09614517539739609
0.0680694580078125,-0.290863037109375,-0.9512939453125,0.002329467097297311,-0.18065233528614044,0.11185090243816376
0.043914794921875,-0.2911376953125,-0.9649200439453125,-0.10095404088497162,0.013619671575725079,0.06148333474993706
0.0494537353515625,-0.2790374755859375,-0.9633636474609375,-0.2145727574825287,0.2234320193529129,-0.010802047327160835
0.074676513671875,-0.275115966796875,-0.95648193359375,-0.23185905814170837,0.1768338978290558,-0.04472725838422775
0.1074981689453125,-0.24591064453125,-0.9768218994140625,-0.1510278582572937,-0.04294640198349953,0.015024756081402302
0.1119384765625,-0.2227783203125,-1.004730224609375,-0.014808773063123226,-0.15253867208957672,0.10972622781991959
0.0849761962890625,-0.2261962890625,-1.0297393798828125,0.12679895758628845,-0.08368371427059174,0.1553025096654892
0.0481414794921875,-0.24981689453125,-1.04498291015625,0.23750069737434387,0.06891834735870361,0.12607218325138092
0.0245513916015625,-0.271942138671875,-1.02880859375,0.3005901873111725,0.2215222716331482,0.057132262736558914
0.0266265869140625,-0.27667236328125,-0.986480712890625,0.2941783666610718,0.3224451541900635,-0.013311810791492462
0.0409698486328125,-0.270416259765625,-0.944549560546875,0.21721486747264862,0.3723842203617096,-0.05176146328449249
0.0539398193359375,-0.263092041015625,-0.9270172119140625,0.12674382328987122,0.33735939860343933,-0.09279997646808624
0.071533203125,-0.26104736328125,-0.9254302978515625,0.0507955364882946,0.256393700838089,-0.11277928203344345
0.085205078125,-0.2626800537109375,-0.94415283203125,0.010336526669561863,0.13908065855503082,-0.11801425367593765
0.09918212890625,-0.2636260986328125,-0.9592437744140625,0.011258513666689396,0.05720656365156174,-0.17929039895534515
0.0865936279296875,-0.25946044921875,-0.969207763671875,0.04951375722885132,0.034066092222929,-0.13386352360248566
0.0797119140625,-0.2656097412109375,-0.95574951171875,0.08101442456245422,0.049785397946834564,-0.1325170248746872
0.0796661376953125,-0.2783355712890625,-0.9597930908203125,0.09493370354175568,0.10747559368610382,-0.11987233906984329
0.0829925537109375,-0.279144287109375,-0.9688873291015625,0.1269715279340744,0.13220730423927307,-0.10805270075798035
0.0875091552734375,-0.284881591796875,-0.9578704833984375,0.14593537151813507,0.1769915521144867,-0.08335108309984207
0.092498779296875,-0.2944183349609375,-0.9601287841796875,0.14669223129749298,0.24346831440925598,-0.047741688787937164
0.108245849609375,-0.3013763427734375,-0.9742889404296875,0.1437166929244995,0.2952958345413208,-0.019830962643027306
0.131988525390625,-0.3149566650390625,-0.98858642578125,0.1442762166261673,0.32091090083122253,0.009103483520448208
0.1582794189453125,-0.32440185546875,-1.008087158203125,0.14776521921157837,0.3108321726322174,0.04813051223754883
0.1717376708984375,-0.3233642578125,-1.0116729736328125,0.1695549488067627,0.26117488741874695,0.08526057004928589
0.15875244140625,-0.316619873046875,-0.9903106689453125,0.18946127593517303,0.2374327927827835,0.10878027230501175
0.1461944580078125,-0.313079833984375,-0.9690399169921875,0.1763710379600525,0.22144317626953125,0.10850703716278076
0.140533447265625,-0.31134033203125,-0.9544525146484375,0.15224918723106384,0.2037784308195114,0.0920335203409195
0.140533447265625,-0.3092803955078125,-0.94183349609375,0.11796152591705322,0.1807279735803604,0.06679687649011612
0.14678955078125,-0.3097686767578125,-0.9324188232421875,0.06987921893596649,0.15500901639461517,0.03779611364006996
0.15118408203125,-0.310272216796875,-0.9249725341796875,0.017833326011896133,0.12543435394763947,0.015430089086294174
0.154388427734375,-0.3098602294921875,-0.925933837890625,-0.02431013248860836,0.07503589242696762,0.0009446232579648495
0.1545867919921875,-0.3066253662109375,-0.9298095703125,-0.049494847655296326,0.013858824037015438,4.926848123432137e-05
0.148773193359375,-0.2988433837890625,-0.932586669921875,-0.05681614577770233,-0.028854284435510635,0.002888730727136135
0.1431732177734375,-0.2905120849609375,-0.9379425048828125,-0.054655786603689194,-0.04427984729409218,0.008190818130970001
0.1346282958984375,-0.2843780517578125,-0.9471893310546875,-0.05230794474482536,-0.050153449177742004,0.00869229156523943
0.123870849609375,-0.2768096923828125,-0.957122802734375,-0.0435544028878212,-0.04650571569800377,0.0046331011690199375
0.114837646484375,-0.2684783935546875,-0.9598388671875,-0.03238643705844879,-0.04663994163274765,-0.013103551231324673
0.1187591552734375,-0.2631988525390625,-0.961639404296875,-0.018194450065493584,-0.05849899724125862,-0.03194541484117508
0.1238555908203125,-0.2608642578125,-0.9561920166015625,-0.007395598106086254,-0.09707728028297424,-0.04254799336194992
0.113861083984375,-0.26678466796875,-0.9458465576171875,-0.009037703275680542,-0.10275354236364365,-0.03952823579311371
0.0977783203125,-0.2749176025390625,-0.9464263916015625,-0.0147445909678936,-0.06586210429668427,-0.043104592710733414
0.0938873291015625,-0.2780303955078125,-0.9564208984375,-0.004290618933737278,-0.012685434892773628,-0.04891827329993248
0.1034393310546875,-0.275665283203125,-0.976104736328125,0.0262470506131649,0.008326639421284199,-0.05020484700798988
0.1107330322265625,-0.2739715576171875,-0.9991455078125,0.0753735825419426,-0.024514663964509964,-0.04469610005617142
0.117401123046875,-0.2791595458984375,-1.0070953369140625,0.1293792873620987,-0.06475076824426651,-0.04043184593319893
0.109405517578125,-0.290496826171875,-0.9841461181640625,0.16822762787342072,-0.03148708492517471,-0.04020973667502403
0.09954833984375,-0.3010406494140625,-0.9424896240234375,0.16394072771072388,0.09164736419916153,-0.04544391483068466
0.098358154296875,-0.3136444091796875,-0.82171630859375,0.12033680081367493,0.32708439230918884,-0.05122643709182739
0.1197357177734375,-0.3297271728515625,-0.77703857421875,0.03170839324593544,0.5742169618606567,-0.021215006709098816
0.158935546875,-0.307708740234375,-0.876495361328125,-0.017375528812408447,0.3476077616214752,0.012735502794384956
0.188201904296875,-0.28204345703125,-0.9362335205078125,-0.04300552234053612,-0.06027665734291077,0.028901422396302223
0.1620941162109375,-0.2794036865234375,-0.984130859375,-0.09847277402877808,-0.3424508273601532,0.027657726779580116
0.114532470703125,-0.3060455322265625,-1.0245513916015625,-0.1478120982646942,-0.431977778673172,-0.012747220695018768
0.091949462890625,-0.32159423828125,-1.034149169921875,-0.15592142939567566,-0.38878288865089417,-0.06923553347587585
0.120758056640625,-0.3264617919921875,-1.005645751953125,-0.13200969994068146,-0.26982030272483826,-0.08241285383701324
0.129974365234375,-0.3126373291015625,-0.9698944091796875,-0.09750551730394363,-0.10995606333017349,-0.04464949294924736
0.101654052734375,-0.2950592041015625,-0.9489593505859375,-0.06551482528448105,0.05764758214354515,-0.006658168975263834
0.083221435546875,-0.290740966796875,-0.935333251953125,-0.05478069186210632,0.19928540289402008,0.004848817363381386
0.0810394287109375,-0.28656005859375,-0.9359283447265625,-0.07502949982881546,0.22905395925045013,-0.020005399361252785
0.0942840576171875,-0.2803802490234375,-0.9439239501953125,-0.11108843982219696,0.1256902813911438,-0.054422494024038315
0.1090850830078125,-0.2740020751953125,-0.9506683349609375,-0.1499578058719635,-0.04200737178325653,-0.07520047575235367
0.113311767578125,-0.2764739990234375,-0.9546051025390625,-0.15869803726673126,-0.135165274143219,-0.07002276182174683
0.128173828125,-0.2831573486328125,-0.9538421630859375,-0.15386493504047394,-0.20260077714920044,-0.06537394970655441
0.136962890625,-0.2892913818359375,-0.9598541259765625,-0.14507782459259033,-0.18097618222236633,-0.059901949018239975
0.1343841552734375,-0.2909698486328125,-0.9671630859375,-0.12581385672092438,-0.14208310842514038,-0.06717557460069656
0.131317138671875,-0.2860870361328125,-0.9710845947265625,-0.11547572910785675,-0.12173442542552948,-0.07277673482894897
0.1283111572265625,-0.2752532958984375,-0.9666900634765625,-0.10599913448095322,-0.11370152980089188,-0.07706176489591599
0.131561279296875,-0.267974853515625,-0.9593353271484375,-0.11377769708633423,-0.1091240867972374,-0.0758870393037796
0.12884521484375,-0.2698516845703125,-0.9456634521484375,-0.12918275594711304,-0.10158175230026245,-0.07049520313739777
0.1181640625,-0.27459716796875,-0.9368743896484375,-0.1580418348312378,-0.12084706127643585,-0.07039480656385422
0.112518310546875,-0.279510498046875,-0.9432525634765625,-0.18218497931957245,-0.14925234019756317,-0.082264244556427
0.1126556396484375,-0.2763671875,-0.9519805908203125,-0.18560901284217834,-0.1599997878074646,-0.09722056239843369
0.118896484375,-0.2701873779296875,-0.951690673828125,-0.18437384068965912,-0.14640142023563385,-0.0989028811454773
0.1232452392578125,-0.267791748046875,-0.945953369140625,-0.1913241595029831,-0.13761325180530548,-0.09339359402656555
0.1270294189453125,-0.26715087890625,-0.93609619140625,-0.2109021097421646,-0.14179627597332,-0.07998991012573242
0.130096435546875,-0.26812744140625,-0.9333953857421875,-0.23526631295681,-0.14462056756019592,-0.062494270503520966
0.1284942626953125,-0.265106201171875,-0.9456634521484375,-0.2536831498146057,-0.16387654840946198,-0.04452645406126976
0.1223907470703125,-0.2588958740234375,-0.9629669189453125,-0.24652056396007538,-0.17680726945400238,-0.032946232706308365
0.105682373046875,-0.2552642822265625,-0.97528076171875,-0.21058253943920135,-0.1561720222234726,-0.022729547694325447
0.0847015380859375,-0.25341796875,-0.9814910888671875,-0.16397562623023987,-0.10501137375831604,-0.015688681975007057
0.0707550048828125,-0.24957275390625,-0.980621337890625,-0.10108347237110138,-0.057735733687877655,-0.02281050756573677
0.0712890625,-0.2436370849609375,-0.9729766845703125,-0.04063451290130615,-0.03178376331925392,-0.03561338782310486
0.08349609375,-0.240570068359375,-0.956390380859375,-0.005043228156864643,-0.020350545644760132,-0.035529766231775284
0.0939483642578125,-0.2447509765625,-0.94024658203125,-0.005736448802053928,-0.03418327122926712,-0.0264838058501482
0.0941314697265625,-0.2526397705078125,-0.9331512451171875,-0.040236636996269226,-0.0592593289911747,-0.009471265599131584
0.0939178466796875,-0.2580718994140625,-0.9339141845703125,-0.09598059207201004,-0.07932385057210922,-0.0016729978378862143
0.0959625244140625,-0.26171875,-0.941070556640625,-0.16620415449142456,-0.07857257127761841,0.007217699196189642
0.0953826904296875,-0.2638702392578125,-0.956329345703125,-0.23388811945915222,-0.08444937318563461,0.010635067708790302
0.095916748046875,-0.262237548828125,-0.9690704345703125,-0.279069721698761,-0.12724530696868896,0.004172907210886478
0.1034393310546875,-0.256317138671875,-0.978057861328125,-0.30376681685447693,-0.1998009979724884,-0.005087436642497778
0.1167144775390625,-0.2610015869140625,-0.97509765625,-0.31916946172714233,-0.22519530355930328,-0.0007994809420779347
0.091796875,-0.25701904296875,-0.979278564453125,-0.32863619923591614,-0.22252601385116577,0.015133678913116455
0.0860443115234375,-0.239044189453125,-0.9799957275390625,-0.316874623298645,-0.25123143196105957,0.017962489277124405
0.089263916015625,-0.225982666015625,-0.970550537109375,-0.31422343850135803,-0.2599612772464752,0.020619524642825127
0.0872039794921875,-0.2242889404296875,-0.9610748291015625,-0.3267304599285126,-0.2571662962436676,0.03110279142856598
0.0815277099609375,-0.2258453369140625,-0.95257568359375,-0.35003525018692017,-0.2666324973106384,0.0343201570212841
0.0773773193359375,-0.22357177734375,-0.951995849609375,-0.3655356466770172,-0.2924313247203827,0.033894848078489304
0.0728607177734375,-0.2134246826171875,-0.957977294921875,-0.381352961063385,-0.33967500925064087,0.0302596352994442
0.0613250732421875,-0.202789306640625,-0.9698486328125,-0.38368692994117737,-0.38465872406959534,0.029804766178131104
0.0470733642578125,-0.19842529296875,-0.988983154296875,-0.37033864855766296,-0.3773166537284851,0.02936268225312233
0.0363006591796875,-0.19189453125,-1.0004730224609375,-0.3418295085430145,-0.32941997051239014,0.02755226567387581
0.030059814453125,-0.1867523193359375,-1.0028076171875,-0.3059205114841461,-0.2858131229877472,0.022834742441773415
0.0293426513671875,-0.186279296875,-0.9988250732421875,-0.2682911157608032,-0.30199846625328064,0.0010010822443291545
0.0417022705078125,-0.174468994140625,-1.0020599365234375,-0.21818506717681885,-0.28894180059432983,-0.022493857890367508
0.040435791015625,-0.165618896484375,-0.998809814453125,-0.17973141372203827,-0.25490766763687134,-0.023686952888965607
0.03204345703125,-0.165802001953125,-0.9976806640625,-0.13757570087909698,-0.20853883028030396,-0.028847627341747284
0.0291595458984375,-0.1659393310546875,-0.9914093017578125,-0.10140731185674667,-0.16093002259731293,-0.03365836292505264
0.02783203125,-0.168792724609375,-0.97332763671875,-0.08365015685558319,-0.14347034692764282,-0.05230022221803665
0.041107177734375,-0.1740875244140625,-0.9567413330078125,-0.1034984290599823,-0.1488019973039627,-0.06962914764881134
0.0506134033203125,-0.1840057373046875,-0.9499053955078125,-0.1442144364118576,-0.15839895606040955,-0.07243078947067261
0.0561981201171875,-0.1929168701171875,-0.9490509033203125,-0.20584183931350708,-0.17856548726558685,-0.05944841355085373
0.057220458984375,-0.19866943359375,-0.9564361572265625,-0.27005624771118164,-0.21332958340644836,-0.03735189884901047
0.0426177978515625,-0.1961822509765625,-0.982025146484375,-0.3033446967601776,-0.22517506778240204,-0.009374327026307583
0.0349273681640625,-0.1867523193359375,-1.01513671875,-0.2917706072330475,-0.20376378297805786,0.012031628750264645
0.01275634765625,-0.190216064453125,-1.047607421875,-0.22628240287303925,-0.12671107053756714,0.023683758452534676
0.001312255859375,-0.1811981201171875,-1.0643310546875,-0.11282534897327423,-0.012739763595163822,0.026884078979492188
0.0065460205078125,-0.1649932861328125,-1.057525634765625,0.009224390611052513,0.0826253741979599,0.022834742441773415
0.0125274658203125,-0.1511077880859375,-1.03045654296875,0.11019574850797653,0.14310921728610992,0.02166428230702877
0.0162200927734375,-0.1468353271484375,-0.9961700439453125,0.14642539620399475,0.13000459969043732,0.023813454434275627
0.02178955078125,-0.150909423828125,-0.9697418212890625,0.12350835651159286,0.07739093154668808,0.017182448878884315
0.0279083251953125,-0.1587371826171875,-0.9586639404296875,0.06482906639575958,0.0033417344093322754,0.007508249953389168
0.02764892578125,-0.1665191650390625,-0.9590301513671875,-0.00020000340009573847,-0.06438511610031128,-0.003922570031136274
0.0279083251953125,-0.171661376953125,-0.9659423828125,-0.05151965096592903,-0.11221841722726822,-0.011327222920954227
0.0268707275390625,-0.1744537353515625,-0.983612060546875,-0.08058405667543411,-0.11838443577289581,-0.016321448609232903
0.023590087890625,-0.176513671875,-0.9998321533203125,-0.08144932240247726,-0.0771150216460228,-0.017079917713999748
0.02020263671875,-0.177520751953125,-1.00836181640625,-0.06534171849489212,-0.01702984981238842,-0.02058863267302513
0.0208282470703125,-0.176422119140625,-1.0072784423828125,-0.03561924770474434,0.032951559871435165,-0.026194851845502853
0.0278167724609375,-0.1723785400390625,-1.002685546875,0.0022234732750803232,0.06938919425010681,-0.03050224855542183
0.0332489013671875,-0.1729583740234375,-0.9961395263671875,0.02738235518336296,0.0973486602306366,-0.029957100749015808
0.0337371826171875,-0.1779937744140625,-0.988494873046875,0.04471447318792343,0.09464634954929352,-0.02436073310673237
0.03558349609375,-0.177276611328125,-0.9825592041015625,0.05228504166007042,0.070430226624012,-0.018863435834646225
0.0361785888671875,-0.1743927001953125,-0.98541259765625,0.043898746371269226,0.03809811547398567,-0.014310495927929878
0.03240966796875,-0.1725921630859375,-0.98980712890625,0.042998600751161575,0.0043681166134774685,-0.013494503684341908
0.0293426513671875,-0.1744537353515625,-0.9923248291015625,0.03531777858734131,-0.015808790922164917,-0.011847871355712414
0.02838134765625,-0.179412841796875,-0.9947052001953125,0.034203242510557175,-0.016637831926345825,-0.012458267621695995
0.0262451171875,-0.1795654296875,-0.9974365234375,0.045516617596149445,0.015077486634254456,-0.022756710648536682
0.0283660888671875,-0.17620849609375,-0.99725341796875,0.06055096164345741,0.069309301674366,-0.018932944163680077
0.0266571044921875,-0.17681884765625,-0.991851806640625,0.0822402760386467,0.114589162170887,-0.007322361227124929
0.0310516357421875,-0.178680419921875,-0.98211669921875,0.10225260257720947,0.14275182783603668,0.006730606779456139
0.0302276611328125,-0.1837615966796875,-0.9718475341796875,0.10096815973520279,0.152421236038208,0.02406698651611805
0.0345916748046875,-0.1861419677734375,-0.959228515625,0.08686139434576035,0.14440324902534485,0.027346136048436165
0.0431365966796875,-0.1867828369140625,-0.952606201171875,0.059431370347738266,0.12668363749980927,0.027289943769574165
0.0520477294921875,-0.18756103515625,-0.951934814453125,0.023974575102329254,0.12303511053323746,0.031141674146056175
0.0487823486328125,-0.186309814453125,-0.9664306640625,-0.008791893720626831,0.1261827051639557,0.03826243430376053
0.0372772216796875,-0.1812744140625,-0.98779296875,-0.020192353054881096,0.15258900821208954,0.04837632179260254
0.032135009765625,-0.175384521484375,-1.001556396484375,-0.002965429797768593,0.18682554364204407,0.04641250520944595
0.029632568359375,-0.1706085205078125,-1.013153076171875,0.03008466586470604,0.19852294027805328,0.04066620394587517
0.0318450927734375,-0.165618896484375,-1.01837158203125,0.08370528370141983,0.18330538272857666,0.031972046941518784
0.038299560546875,-0.164886474609375,-1.012908935546875,0.12443460524082184,0.17776787281036377,0.028232436627149582
0.0465240478515625,-0.1707611083984375,-0.9951171875,0.1468331217765808,0.1764589250087738,0.028421254828572273
0.0532073974609375,-0.18292236328125,-0.974212646484375,0.13255031406879425,0.18452537059783936,0.0220874585211277
0.058929443359375,-0.1932220458984375,-0.9591064453125,0.09994576871395111,0.20055706799030304,0.021136976778507233
0.061279296875,-0.19989013671875,-0.95257568359375,0.05704917013645172,0.2229100465774536,0.028782378882169724
0.0565948486328125,-0.20147705078125,-0.9570465087890625,0.017475396394729614,0.2364242523908615,0.04062678664922714
0.053253173828125,-0.2006378173828125,-0.96075439453125,-0.006198507267981768,0.23063774406909943,0.05096837505698204
0.052032470703125,-0.197662353515625,-0.9600830078125,-0.012495285831391811,0.20001591742038727,0.046489205211400986
0.0534210205078125,-0.1915283203125,-0.962738037109375,-0.004240551497787237,0.1672622263431549,0.03190173953771591
0.064544677734375,-0.18603515625,-0.9646453857421875,0.0011883024126291275,0.1571267694234848,0.023870445787906647
0.0764923095703125,-0.1905975341796875,-0.9712066650390625,-0.004967061802744865,0.149901881814003,0.02377510443329811
0.0872039794921875,-0.2006072998046875,-0.990814208984375,-0.025176726281642914,0.11028549820184708,0.022178007289767265
0.0988006591796875,-0.2048187255859375,-1.0172119140625,-0.028971197083592415,0.043414585292339325,0.019942548125982285
0.0977325439453125,-0.2030181884765625,-1.0253143310546875,-0.012745356187224388,-0.017854630947113037,0.021017134189605713
0.082183837890625,-0.1993408203125,-1.0166168212890625,0.0028445222415030003,-0.033362217247486115,0.03285834938287735
0.0680084228515625,-0.19287109375,-0.99945068359375,0.024268854409456253,0.013321664184331894,0.042573027312755585
0.054534912109375,-0.1845245361328125,-0.9881591796875,0.035769183188676834,0.07541219890117645,0.046792805194854736
0.04913330078125,-0.17779541015625,-0.9852142333984375,0.038839541375637054,0.1265622079372406,0.037518613040447235
0.0510711669921875,-0.1750946044921875,-0.9829559326171875,0.024261929094791412,0.1585523635149002,0.019461581483483315
0.05511474609375,-0.1737823486328125,-0.9874420166015625,0.009665676392614841,0.15263694524765015,0.005705556366592646
0.0596923828125,-0.1721343994140625,-0.991973876953125,0.01152642723172903,0.11207247525453568,-0.0051923650316894054
0.066650390625,-0.1717376708984375,-0.993408203125,0.018250642344355583,0.054854460060596466,-0.0054392400197684765
0.0749664306640625,-0.1770172119140625,-0.991943359375,0.031255390495061874,0.012573582120239735,0.0043990095146000385
0.0760650634765625,-0.183135986328125,-0.9850921630859375,0.0369497612118721,-0.007979629561305046,0.008035289123654366
0.0748443603515625,-0.189453125,-0.9789276123046875,0.03382507339119911,-0.0005233111442066729,0.011905928142368793
0.07763671875,-0.192962646484375,-0.972991943359375,0.030057234689593315,0.021043499931693077,0.010328005068004131
0.0814666748046875,-0.1956329345703125,-0.9686126708984375,0.014287326484918594,0.03864619508385658,0.006366286426782608
0.0772247314453125,-0.197509765625,-0.9655609130859375,0.0006945523782633245,0.03717160224914551,0.0007323693134821951
0.069488525390625,-0.1958465576171875,-0.9720458984375,-0.005416336935013533,0.03635454550385475,-0.0075548551976680756
0.0622100830078125,-0.191741943359375,-0.9780120849609375,0.0012269183062016964,0.05013294145464897,-0.012681440450251102
0.0596160888671875,-0.1867523193359375,-0.9829254150390625,0.02274712361395359,0.0765238031744957,-0.016264723613858223
0.0561981201171875,-0.1832275390625,-0.9886474609375,0.05367361381649971,0.09965229034423828,-0.01811189204454422
0.0570068359375,-0.18096923828125,-0.9892578125,0.08092174679040909,0.12489160150289536,-0.021587850525975227
0.0580596923828125,-0.177520751953125,-0.982635498046875,0.11187060922384262,0.16852615773677826,-0.024111993610858917
0.0529022216796875,-0.1721038818359375,-0.9724884033203125,0.15246224403381348,0.22556734085083008,-0.016327841207385063
0.044830322265625,-0.162506103515625,-0.9688873291015625,0.20095813274383545,0.2935117781162262,-0.01561145018786192
0.0346527099609375,-0.1453094482421875,-0.980560302734375,0.2715153992176056,0.3760537803173065,-0.02520362287759781
0.030364990234375,-0.1351165771484375,-1.0123138427734375,0.394695907831192,0.5071446895599365,-0.04923092946410179
0.0258636474609375,-0.1429901123046875,-1.0305938720703125,0.537443995475769,0.6576260924339294,-0.06398191303014755
0.02020263671875,-0.136322021484375,-1.03173828125,0.6520411372184753,0.7966058254241943,-0.09241221845149994
0.0263671875,-0.141326904296875,-1.036376953125,0.723188042640686,0.911400318145752,-0.15376771986484528
0.0769195556640625,-0.1686248779296875,-1.0247955322265625,0.7912981510162354,0.9793013334274292,-0.18740931153297424
0.11346435546875,-0.2115020751953125,-0.9952545166015625,0.7954502701759338,0.9716508388519287,-0.17030568420886993
0.141998291015625,-0.2532958984375,-0.9533843994140625,0.6933348178863525,0.9017431139945984,-0.13962367177009583
0.1668548583984375,-0.2823028564453125,-0.9154052734375,0.5042176246643066,0.8164732456207275,-0.12008805572986603
0.1789398193359375,-0.281341552734375,-0.9104156494140625,0.31331130862236023,0.7211312651634216,-0.11373455822467804
0.18212890625,-0.258056640625,-0.9236602783203125,0.18125048279762268,0.6378068327903748,-0.12637098133563995
0.1601409912109375,-0.2367401123046875,-0.9490814208984375,0.14493800699710846,0.5247953534126282,-0.14216113090515137
0.14666748046875,-0.2288818359375,-0.978179931640625,0.18742315471172333,0.3840813636779785,-0.1847272366285324
0.17266845703125,-0.2525634765625,-0.9795684814453125,0.2539835274219513,0.35616689920425415,-0.21938560903072357
0.2163848876953125,-0.28912353515625,-0.9727325439453125,0.28587836027145386,0.4108160436153412,-0.24119611084461212
0.2641143798828125,-0.3231658935546875,-0.9619293212890625,0.28355634212493896,0.431191086769104,-0.23005343973636627
0.311798095703125,-0.3423919677734375,-0.958740234375,0.2538700997829437,0.34906426072120667,-0.16397401690483093
0.3296051025390625,-0.346405029296875,-0.953094482421875,0.22343255579471588,0.17402160167694092,-0.0559530146420002
0.301300048828125,-0.3401336669921875,-0.929412841796875,0.1846955418586731,0.05293352156877518,0.05414099991321564
0.242431640625,-0.3171539306640625,-0.840545654296875,0.14402028918266296,0.09607060253620148,0.11506853252649307
0.197906494140625,-0.297882080078125,-0.8070526123046875,0.0838506892323494,0.27853041887283325,0.13542945683002472
0.1774749755859375,-0.2652740478515625,-0.873199462890625,0.0524621419608593,0.09111073613166809,0.08460250496864319
0.197540283203125,-0.2698516845703125,-0.872222900390625,-0.017079651355743408,-0.18782369792461395,-0.010329869575798512
0.208221435546875,-0.282440185546875,-0.8885650634765625,-0.1527639776468277,-0.33923184871673584,-0.05688219144940376
0.199615478515625,-0.2812957763671875,-0.935760498046875,-0.2607972323894501,-0.419804185628891,-0.06638780981302261
0.187744140625,-0.2778778076171875,-0.978759765625,-0.30088046193122864,-0.460629403591156,-0.058589544147253036
0.2025146484375,-0.2876129150390625,-0.994842529296875,-0.2978910803794861,-0.48159459233283997,-0.04580796882510185
0.2210235595703125,-0.2895660400390625,-0.985443115234375,-0.279143750667572,-0.45946159958839417,-0.00088976213010028
0.2012939453125,-0.251739501953125,-0.9874420166015625,-0.24872326850891113,-0.3696582019329071,0.04044356197118759
0.1732940673828125,-0.2320709228515625,-0.997283935546875,-0.17720940709114075,-0.22647735476493835,0.054733287543058395
0.143768310546875,-0.230224609375,-1.00152587890625,-0.0916348472237587,-0.05540493503212929,0.050879959017038345
0.1250457763671875,-0.23675537109375,-0.9990081787109375,-0.01914360001683235,0.06713882088661194,0.026077140122652054
0.125579833984375,-0.2395782470703125,-0.988250732421875,0.021686652675271034,0.09334032982587814,-0.010974620468914509
0.1438446044921875,-0.2381591796875,-0.9716339111328125,0.019650666043162346,0.04054955765604973,-0.035293810069561005
0.162994384765625,-0.2380828857421875,-0.9552154541015625,-0.003626426449045539,-0.05333592742681503,-0.034572359174489975
0.173614501953125,-0.2434234619140625,-0.9447479248046875,-0.03513428568840027,-0.13631708920001984,-0.01660667359828949
0.1747283935546875,-0.2530670166015625,-0.946075439453125,-0.05479640141129494,-0.18776829540729523,0.0003254382754676044
0.1765899658203125,-0.261505126953125,-0.9502716064453125,-0.06097333878278732,-0.1907675564289093,0.004533499013632536
0.1768646240234375,-0.2650146484375,-0.955230712890625,-0.05372874066233635,-0.14564508199691772,0.002770486520603299
0.173370361328125,-0.261322021484375,-0.961883544921875,-0.03774045407772064,-0.0848589614033699,0.004023237619549036
0.168975830078125,-0.2538909912109375,-0.9616241455078125,-0.02261503040790558,-0.05220887437462807,3.1691615731688216e-05
0.1634063720703125,-0.2486114501953125,-0.94927978515625,-0.019934026524424553,-0.050453852862119675,-0.005455751903355122
0.15728759765625,-0.24517822265625,-0.9371490478515625,-0.04120469465851784,-0.07411257922649384,-0.015607722103595734
0.1559906005859375,-0.245208740234375,-0.9268798828125,-0.07739093154668808,-0.10921117663383484,-0.02761378511786461
0.1597137451171875,-0.2454071044921875,-0.9175567626953125,-0.12951990962028503,-0.16587339341640472,-0.03704989701509476
0.16033935546875,-0.2426605224609375,-0.9144134521484375,-0.18650409579277039,-0.23866529762744904,-0.04356878250837326
0.16070556640625,-0.2383575439453125,-0.9201507568359375,-0.2419511079788208,-0.31608766317367554,-0.052682917565107346
0.16021728515625,-0.2367095947265625,-0.9309844970703125,-0.2936025857925415,-0.3854321241378784,-0.061110224574804306
0.1595458984375,-0.234527587890625,-0.938568115234375,-0.34051257371902466,-0.47120532393455505,-0.07331602275371552
0.1643218994140625,-0.2322235107421875,-0.94891357421875,-0.3852075934410095,-0.5608212351799011,-0.06640538573265076
0.1637725830078125,-0.23004150390625,-0.9513092041015625,-0.4246918857097626,-0.6538446545600891,-0.06463651359081268
0.1565399169921875,-0.2296295166015625,-0.9558563232421875,-0.4650726020336151,-0.717656672000885,-0.06731832027435303
0.1360015869140625,-0.2341156005859375,-0.9697265625,-0.5070568323135376,-0.7378133535385132,-0.06288442015647888
0.1099090576171875,-0.2318878173828125,-0.9783477783203125,-0.5330378413200378,-0.6922772526741028,-0.05699404329061508
0.0954132080078125,-0.218475341796875,-0.9888153076171875,-0.5380304455757141,-0.6110082268714905,-0.06043378263711929
0.1041717529296875,-0.1998443603515625,-1.0020294189453125,-0.5031821727752686,-0.5349617004394531,-0.061040449887514114
0.107086181640625,-0.1840972900390625,-1.006317138671875,-0.4458957314491272,-0.4962579607963562,-0.047082025557756424
0.0985565185546875,-0.1756591796875,-1.0115814208984375,-0.38283154368400574,-0.5116062760353088,-0.00962546281516552
0.0911865234375,-0.18170166015625,-1.008026123046875,-0.3179350793361664,-0.5295301675796509,0.011508317664265633
0.0826873779296875,-0.198638916015625,-0.9924163818359375,-0.2778851389884949,-0.4609801173210144,0.035660259425640106
0.07574462890625,-0.2157745361328125,-0.983001708984375,-0.27528563141822815,-0.30885744094848633,0.05910805985331535
0.074493408203125,-0.2167510986328125,-0.984771728515625,-0.288707435131073,-0.13772137463092804,0.07739279419183731
0.0636444091796875,-0.203338623046875,-0.99517822265625,-0.2885415256023407,-0.019773172214627266,0.08526536077260971
0.058135986328125,-0.1907806396484375,-1.0008087158203125,-0.2592070698738098,0.004526042379438877,0.09021058678627014
0.06512451171875,-0.230438232421875,-0.9993896484375,-0.1864716112613678,-0.013645238243043423,0.12977716326713562
0.08050537109375,-0.18084716796875,-0.97930908203125,-0.1513833999633789,0.003026416292414069,0.1915617138147354
0.0635528564453125,-0.14581298828125,-0.9806671142578125,-0.17176084220409393,0.04150057211518288,0.17671112716197968
0.032745361328125,-0.1416015625,-0.978515625,-0.1842246949672699,0.036195289343595505,0.12078607082366943
-0.002685546875,-0.1371917724609375,-0.97515869140625,-0.24132473766803741,-0.10506650060415268,0.017671138048171997
0.0014190673828125,-0.1214752197265625,-1.002777099609375,-0.2932225465774536,-0.2758667469024658,-0.08651438355445862
0.01751708984375,-0.126068115234375,-1.0198516845703125,-0.31948530673980713,-0.38499829173088074,-0.1390518993139267
0.0289154052734375,-0.12298583984375,-1.0196380615234375,-0.31397363543510437,-0.4059824049472809,-0.14384718239307404
0.039031982421875,-0.125457763671875,-1.0123443603515625,-0.3321819305419922,-0.33345624804496765,-0.15997688472270966
0.045440673828125,-0.1414794921875,-1.0059661865234375,-0.3125738799571991,-0.2511637806892395,-0.1777375042438507
0.0445404052734375,-0.1468048095703125,-1.009429931640625,-0.25192493200302124,-0.21261559426784515,-0.1725643128156662
0.049468994140625,-0.145233154296875,-1.0160064697265625,-0.16297213733196259,-0.2020319253206253,-0.1554338037967682
0.06463623046875,-0.1307220458984375,-1.0108795166015625,-0.08528880029916763,-0.17771592736244202,-0.11456625908613205
0.0635223388671875,-0.1275634765625,-1.00775146484375,-0.027237746864557266,-0.1475716084241867,-0.07905833423137665
0.0560760498046875,-0.13372802734375,-1.0062103271484375,0.01230593491345644,-0.1183258444070816,-0.06455954909324646
0.0550079345703125,-0.1363067626953125,-1.007476806640625,0.03803287073969841,-0.086167111992836,-0.055095743387937546
0.051513671875,-0.1419525146484375,-1.010528564453125,0.07011916488409042,-0.05204509198665619,-0.046176549047231674
0.06103515625,-0.1455078125,-1.009552001953125,0.09511053562164307,-0.023804930970072746,-0.0244882982224226
0.058837890625,-0.1561126708984375,-1.0064239501953125,0.10438552498817444,-0.00908697210252285,0.010327205993235111
0.0490264892578125,-0.165771484375,-1.003509521484375,0.11405546218156815,-0.008858739398419857,0.026323216035962105
0.042510986328125,-0.16558837890625,-0.9950408935546875,0.11807870119810104,-0.004781173076480627,0.02930142916738987
0.0412750244140625,-0.1603240966796875,-0.987335205078125,0.12051842361688614,0.00427224300801754,0.026193253695964813
0.040802001953125,-0.1541595458984375,-0.97955322265625,0.118165522813797,0.018552912399172783,0.01984880492091179
0.04461669921875,-0.1488189697265625,-0.975311279296875,0.10819517821073532,0.01992124319076538,0.009008142165839672
0.051544189453125,-0.14642333984375,-0.9742431640625,0.09660030901432037,0.033898577094078064,0.010278203524649143
0.0567779541015625,-0.1497650146484375,-0.9732666015625,0.08128313720226288,0.02972966618835926,0.01901337131857872
0.05780029296875,-0.1574249267578125,-0.978302001953125,0.05883828178048134,0.015804262831807137,0.027305923402309418
0.059051513671875,-0.1607513427734375,-0.9827728271484375,0.043482761830091476,-0.006141515914350748,0.02532932534813881
0.058441162109375,-0.159698486328125,-0.9918975830078125,0.039810262620449066,-0.03086284175515175,0.02816745638847351
0.0550994873046875,-0.1546630859375,-0.9975433349609375,0.043363187462091446,-0.05162591114640236,0.03783739358186722
0.0486602783203125,-0.1494903564453125,-0.99407958984375,0.05312180891633034,-0.07421644032001495,0.05133908614516258
0.04046630859375,-0.148101806640625,-0.990997314453125,0.05938742682337761,-0.08522621542215347,0.05566912144422531
0.0355072021484375,-0.1492462158203125,-0.9868927001953125,0.08145837485790253,-0.06688795238733292,0.04519890248775482
0.0372772216796875,-0.151580810546875,-0.9821319580078125,0.09430040419101715,-0.023483488708734512,0.027459587901830673
0.03802490234375,-0.1570281982421875,-0.9741363525390625,0.08972056210041046,0.0326911024749279,0.00839454960078001
0.0378570556640625,-0.161468505859375,-0.973175048828125,0.07008267939090729,0.08567202836275101,-0.010160225443542004
0.0400238037109375,-0.16461181640625,-0.9734344482421875,0.032761409878730774,0.09881020337343216,-0.017889251932501793
0.0388946533203125,-0.165771484375,-0.980804443359375,-0.007244064472615719,0.08453432470560074,-0.02509736269712448
0.039215087890625,-0.1609649658203125,-0.9953155517578125,-0.010026002302765846,0.08709948509931564,-0.03761102631688118
0.050689697265625,-0.1553955078125,-0.999969482421875,0.002541188383474946,0.10200785845518112,-0.04169391840696335
0.058074951171875,-0.1577606201171875,-0.996551513671875,0.01113600842654705,0.11218859255313873,-0.03175286948680878
0.0540313720703125,-0.1624908447265625,-0.992767333984375,0.01025716494768858,0.14489886164665222,-0.03527942672371864
0.0475921630859375,-0.1620941162109375,-0.9786376953125,0.022306637838482857,0.18119482696056366,-0.058395933359861374
0.046112060546875,-0.1543121337890625,-0.957061767578125,0.022539131343364716,0.17674946784973145,-0.07480819523334503
0.0462188720703125,-0.1488189697265625,-0.9416961669921875,0.042867306619882584,0.09881286323070526,-0.07114768028259277
0.046630859375,-0.1463775634765625,-0.9438629150390625,0.1276860535144806,-0.049253564327955246,-0.02877092733979225
0.043975830078125,-0.147705078125,-0.9454498291015625,0.1244865357875824,-0.048220258206129074,0.011671303771436214
0.03594970703125,-0.166290283203125,-0.951507568359375,0.04780028015375137,0.05103601887822151,-0.0070829433389008045
0.0336151123046875,-0.1801605224609375,-0.960784912109375,-0.05733173340559006,0.18106405436992645,-0.08935704082250595
0.0615692138671875,-0.1843109130859375,-0.9690399169921875,-0.16252367198467255,0.2622886002063751,-0.1295505315065384
0.08795166015625,-0.173492431640625,-0.9895782470703125,-0.21184541285037994,0.261250764131546,-0.08888646215200424
0.0897064208984375,-0.1644744873046875,-1.00811767578125,-0.17439550161361694,0.17427299916744232,-0.009571933187544346
0.074066162109375,-0.15576171875,-1.0075531005859375,-0.10669102519750595,0.07016737014055252,0.059603407979011536
0.065826416015625,-0.14306640625,-1.004425048828125,-0.03747307136654854,0.0007142598042264581,0.10304436087608337
0.0613555908203125,-0.142120361328125,-1.009796142578125,0.023743944242596626,-0.02792750485241413,0.11573565006256104
0.05633544921875,-0.151947021484375,-1.01556396484375,0.06501415371894836,-0.006520483642816544,0.10080171376466751
0.062469482421875,-0.1708831787109375,-1.024200439453125,0.0745203047990799,0.05128715559840202,0.0805896520614624
0.06658935546875,-0.1846771240234375,-1.0348052978515625,0.08567948639392853,0.10002406686544418,0.05534767732024193
0.085052490234375,-0.1747894287109375,-1.0343017578125,0.10722046345472336,0.11636175960302353,-0.02171541564166546
0.0991363525390625,-0.159576416015625,-1.0327606201171875,0.13338415324687958,0.10771314799785614,0.03359284624457359
0.08807373046875,-0.15185546875,-1.02630615234375,0.1787167489528656,0.08646778017282486,0.05482356622815132
0.07611083984375,-0.149810791015625,-1.0048828125,0.2191121131181717,0.061638861894607544,0.07876778393983841
0.0633544921875,-0.1543426513671875,-0.9847564697265625,0.23694702982902527,0.05001123622059822,0.0838584154844284
0.0583648681640625,-0.1620330810546875,-0.975921630859375,0.2298736721277237,0.0851801410317421,0.08075689524412155
0.0547027587890625,-0.17279052734375,-0.97265625,0.20845094323158264,0.14801129698753357,0.07010744512081146
0.0525054931640625,-0.18157958984375,-0.966033935546875,0.17845097184181213,0.19216172397136688,0.06413983553647995
0.05621337890625,-0.1866912841796875,-0.9622039794921875,0.15029549598693848,0.20517098903656006,0.052991047501564026
0.0622406005859375,-0.18670654296875,-0.962066650390625,0.12909673154354095,0.1764962077140808,0.03599075600504875
0.066375732421875,-0.185272216796875,-0.95953369140625,0.10872408002614975,0.1254519373178482,0.025802036747336388
0.0699920654296875,-0.1848297119140625,-0.954986572265625,0.07651101797819138,0.06788104772567749,0.012261193245649338
0.072113037109375,-0.184906005859375,-0.9543914794921875,0.04813849925994873,0.03171824663877487,0.007213970646262169
0.0756988525390625,-0.183135986328125,-0.9563751220703125,0.018972892314195633,0.019225358963012695,0.0023363912478089333
0.072479248046875,-0.1782379150390625,-0.97076416015625,0.002927346620708704,0.029628200456500053,0.00387276872061193
0.0724029541015625,-0.1724700927734375,-0.981964111328125,-0.00037736992817372084,0.05018593743443489,0.001555818715132773
0.0783233642578125,-0.1697845458984375,-0.9940338134765625,0.0039023298304528,0.06021007522940636,0.0031196267809718847
0.0826873779296875,-0.1692962646484375,-1.001251220703125,0.012028966099023819,0.05019392818212509,0.015633288770914078
0.0829315185546875,-0.173675537109375,-1.001708984375,0.019752932712435722,0.04008457064628601,0.028593027964234352
0.0790863037109375,-0.1796417236328125,-0.9883270263671875,0.03375396877527237,0.06443944573402405,0.03844086453318596
0.094879150390625,-0.20294189453125,-0.934722900390625,0.20852497220039368,0.2382032424211502,0.04585084691643715
0.107696533203125,-0.165740966796875,-0.9347381591796875,0.2477024793624878,0.18639305233955383,0.07929428666830063
0.09088134765625,-0.150146484375,-0.95819091796875,0.1738026887178421,0.03622990846633911,0.06418804079294205
0.0508270263671875,-0.1799468994140625,-0.9859619140625,0.0286412313580513,-0.06956283003091812,0.009036105126142502
0.038726806640625,-0.191436767578125,-1.0090484619140625,-0.11313827335834503,-0.07847217470407486,-0.02905242331326008
0.0567779541015625,-0.1873626708984375,-1.0431365966796875,-0.1621425598859787,-0.05176199600100517,-0.027337880805134773
0.0887451171875,-0.1919097900390625,-1.0534515380859375,-0.11376997828483582,0.004874649923294783,-0.005229915492236614
0.116912841796875,-0.2053985595703125,-1.03955078125,-0.008285893127322197,0.13407817482948303,0.02689979039132595
0.1061553955078125,-0.1837310791015625,-1.00970458984375,0.10218469053506851,0.28493532538414,0.05423048138618469
0.072021484375,-0.1601715087890625,-0.9708709716796875,0.16912271082401276,0.37579625844955444,0.0752635970711708
0.045928955078125,-0.156768798828125,-0.9382171630859375,0.16485606133937836,0.36434492468833923,0.07652859389781952
0.0436248779296875,-0.1644439697265625,-0.926361083984375,0.09386763721704483,0.23658430576324463,0.032407473772764206
0.0640716552734375,-0.1814422607421875,-0.9337158203125,-0.01607697084546089,0.04291204735636711,-0.0397183857858181
0.0911712646484375,-0.1969146728515625,-0.9539337158203125,-0.10964633524417877,-0.13501028716564178,-0.08585099130868912
0.110870361328125,-0.205657958984375,-0.97845458984375,-0.1607944816350937,-0.2239025980234146,-0.08933094143867493
0.1199188232421875,-0.206573486328125,-0.9995880126953125,-0.15348996222019196,-0.2004539966583252,-0.05008473992347717
0.1156463623046875,-0.2026824951171875,-1.0000762939453125,-0.10055243968963623,-0.13932833075523376,-0.002033855998888612
0.0986480712890625,-0.1945953369140625,-0.99114990234375,-0.044135503470897675,-0.07908336818218231,0.043418046087026596
0.0804290771484375,-0.1888885498046875,-0.9812774658203125,-0.00962945818901062,-0.03176059201359749,0.045044440776109695
0.0678253173828125,-0.1843414306640625,-0.9728546142578125,-0.004518851637840271,-0.005606752820312977,0.023297598585486412
0.067840576171875,-0.1832122802734375,-0.970794677734375,-0.019569972530007362,-0.013701431453227997,-0.011714712716639042
0.0735321044921875,-0.1843109130859375,-0.9730987548828125,-0.0465155690908432,-0.04706817492842674,-0.03924061357975006
0.08026123046875,-0.1842803955078125,-0.9770660400390625,-0.06391134113073349,-0.10990706086158752,-0.04752863571047783
0.08599853515625,-0.1831817626953125,-0.984619140625,-0.07167152315378189,-0.16279610991477966,-0.052510347217321396
0.0821533203125,-0.1826934814453125,-0.994903564453125,-0.07028907537460327,-0.17092247307300568,-0.042568232864141464
0.077972412109375,-0.18597412109375,-0.99871826171875,-0.07162811607122421,-0.1498933583498001,-0.04542660340666771
0.07562255859375,-0.1870269775390625,-0.9945068359375,-0.06391400098800659,-0.13615703582763672,-0.05746888369321823
0.0754547119140625,-0.1845245361328125,-0.9949188232421875,-0.05335376784205437,-0.13265551626682281,-0.07047735899686813
0.076171875,-0.1808319091796875,-0.992034912109375,-0.05251540616154671,-0.12995320558547974,-0.0717783197760582
0.0693511962890625,-0.1767578125,-0.99591064453125,-0.0570899173617363,-0.11718042194843292,-0.07516665756702423
0.061126708984375,-0.1761016845703125,-1.0150604248046875,-0.0539761483669281,-0.06707623600959778,-0.09493982791900635
0.05560302734375,-0.1732330322265625,-1.0253143310546875,0.004022704903036356,0.039683498442173004,-0.1176973357796669
0.0645599365234375,-0.1597442626953125,-1.0071258544921875,0.13588885962963104,-0.0187784805893898,-0.12257704883813858
0.0863037109375,-0.150390625,-1.00286865234375,0.21850544214248657,-0.1278810054063797,-0.06610152125358582
0.0777740478515625,-0.17486572265625,-1.0043792724609375,0.2126387655735016,-0.07946233451366425,0.0075785573571920395
0.0639190673828125,-0.2068328857421875,-0.99627685546875,0.14896950125694275,-0.03236965835094452,0.007956193760037422
0.064361572265625,-0.21173095703125,-0.988922119140625,0.07316794991493225,0.003433347214013338,-0.03573296219110489
0.0746612548828125,-0.2061614990234375,-0.9864044189453125,0.011928032152354717,0.02400946244597435,-0.04627535119652748
0.0799560546875,-0.1918487548828125,-0.989715576171875,0.0038184402510523796,0.018504176288843155,-0.006732204928994179
0.0874176025390625,-0.1548004150390625,-0.988037109375,0.06303276121616364,-0.05261074751615524,0.03502509370446205
0.08447265625,-0.141326904296875,-0.97552490234375,0.12880831956863403,-0.11867844313383102,0.06314568221569061
0.0737152099609375,-0.1642608642578125,-0.9702606201171875,0.14880065619945526,-0.10441162437200546,0.0715724527835846
0.0633392333984375,-0.20306396484375,-0.9821014404296875,0.12804824113845825,0.00016405072528868914,0.055024903267621994
0.0625457763671875,-0.2248077392578125,-0.9802703857421875,0.09770738333463669,0.13112366199493408,0.03766082599759102
0.061004638671875,-0.217742919921875,-0.9654083251953125,0.07759200036525726,0.2078658491373062,0.03280268609523773
0.065338134765625,-0.190643310546875,-0.955078125,0.1849144548177719,0.22822144627571106,0.05042003095149994
0.0868988037109375,-0.1588592529296875,-0.946319580078125,0.2691531777381897,0.12081536650657654,0.1671711504459381
0.0919952392578125,-0.1758880615234375,-0.9456787109375,0.23001030087471008,-0.06424902379512787,0.1323617696762085
0.067474365234375,-0.221038818359375,-0.948822021484375,0.09007050096988678,-0.19419744610786438,0.10662125051021576
0.0484161376953125,-0.2226715087890625,-0.948760986328125,-0.052562542259693146,-0.20482611656188965,0.07624842971563339
0.05133056640625,-0.191192626953125,-0.9745635986328125,-0.14134034514427185,-0.14972957968711853,0.03062954731285572
0.0665435791015625,-0.1690826416015625,-1.0074920654296875,-0.144743874669075,-0.11424960941076279,-0.061833541840314865
0.0716094970703125,-0.185333251953125,-1.0159759521484375,-0.08515138179063797,-0.019541477784514427,-0.050340667366981506
0.0657958984375,-0.206878662109375,-1.01348876953125,-0.012538694776594639,0.12067155539989471,0.01775342971086502
0.05108642578125,-0.2069244384765625,-1.003936767578125,0.043234024196863174,0.18849746882915497,0.049253832548856735
0.051483154296875,-0.1922760009765625,-0.9976043701171875,0.060565873980522156,0.17330600321292877,0.03886270895600319
0.053375244140625,-0.1844024658203125,-0.987457275390625,0.049740392714738846,0.09745731204748154,0.020181167870759964
0.0519561767578125,-0.185943603515625,-0.9795074462890625,0.03658437728881836,0.0037433390971273184,0.0016562198288738728
0.057830810546875,-0.191162109375,-0.9822998046875,0.031800005584955215,-0.0543961301445961,-0.008727977983653545
0.063629150390625,-0.1968231201171875,-0.9846038818359375,0.058216702193021774,-0.059840962290763855,-0.01062255073338747
0.061065673828125,-0.199920654296875,-0.9785003662109375,0.0760369747877121,-0.014207432046532631,0.019113240763545036
0.0584869384765625,-0.2038726806640625,-0.970428466796875,0.08451035618782043,0.048043690621852875,-0.0038900794461369514
0.059478759765625,-0.2031707763671875,-0.9580841064453125,0.07168057560920715,0.08141949027776718,-0.008078166283667088
0.0594635009765625,-0.2021484375,-0.9417724609375,0.03744324669241905,0.12787461280822754,-0.008235825225710869
0.0593719482421875,-0.2013397216796875,-0.9334259033203125,-0.0027395938523113728,0.16297613084316254,-0.0021315941121429205
0.0643310546875,-0.201385498046875,-0.94293212890625,-0.024156467989087105,0.15903837978839874,0.005046690348535776
0.0718994140625,-0.198699951171875,-0.962615966796875,-0.018456505611538887,0.12107902020215988,0.02118038572371006
0.081024169921875,-0.20074462890625,-0.9654541015625,0.00461712246760726,0.11824408173561096,0.04429076611995697
0.0862579345703125,-0.2021484375,-0.9536590576171875,0.12229049205780029,0.29763782024383545,0.06700140237808228
0.095428466796875,-0.193878173828125,-0.9660186767578125,0.16340623795986176,0.3131571114063263,0.08479797840118408
0.09075927734375,-0.196533203125,-0.9781494140625,0.11340805143117905,0.1900991052389145,0.05853548273444176
0.0861358642578125,-0.205657958984375,-0.9784393310546875,0.007160973735153675,0.07102704048156738,0.013785853050649166
0.0826416015625,-0.2041015625,-0.9834442138671875,-0.08433511853218079,-0.03689330443739891,-0.005723133217543364
0.0760650634765625,-0.197509765625,-0.9970245361328125,-0.13447898626327515,-0.13174951076507568,-0.011814048513770103
0.0780181884765625,-0.2026214599609375,-1.0025482177734375,-0.16039340198040009,-0.16229356825351715,-0.02015160769224167
0.0835723876953125,-0.215362548828125,-0.98944091796875,-0.13273008167743683,-0.06241890415549278,-0.03484027087688446
0.0818023681640625,-0.206390380859375,-0.9776153564453125,-0.08607283234596252,0.1036989614367485,-0.03728878125548363
0.074615478515625,-0.1927642822265625,-0.9705963134765625,-0.03973596170544624,0.20279385149478912,-0.039077892899513245
0.0717620849609375,-0.1896514892578125,-0.9635009765625,-0.03081570379436016,0.18488729000091553,-0.04764102026820183
0.08209228515625,-0.192138671875,-0.9598846435546875,-0.06280425935983658,0.06637822091579437,-0.05802362039685249
0.094940185546875,-0.1941986083984375,-0.9679718017578125,-0.12042973935604095,-0.0871085375547409,-0.0701625794172287
0.0966339111328125,-0.1950225830078125,-0.981353759765625,-0.17335154116153717,-0.18615496158599854,-0.08513140678405762
0.09466552734375,-0.1927337646484375,-0.9984130859375,-0.18929482996463776,-0.2357371598482132,-0.09425512701272964
0.0937652587890625,-0.189117431640625,-1.0176849365234375,-0.17031101882457733,-0.2517203986644745,-0.15868018567562103
0.0897979736328125,-0.18560791015625,-1.0312347412109375,-0.12014531344175339,-0.21021555364131927,-0.07467157393693924
0.0745849609375,-0.1839599609375,-1.0322113037109375,-0.07180388271808624,-0.1229885071516037,-0.05503928288817406
0.062652587890625,-0.185882568359375,-1.0265960693359375,-0.026640931144356728,-0.020056799054145813,-0.04851773381233215
0.0572662353515625,-0.1855926513671875,-1.015411376953125,0.014985873363912106,0.05777435004711151,-0.035059452056884766
0.0623626708984375,-0.1794891357421875,-1.0014801025390625,0.04724021628499031,0.09272727370262146,-0.023795610293745995
0.0710601806640625,-0.1790771484375,-0.993560791015625,0.07995528727769852,0.07810652256011963,-0.002983805723488331
0.0751800537109375,-0.1843719482421875,-0.981048583984375,0.09479521960020065,0.04426812753081322,0.01794145070016384
0.0743408203125,-0.1921234130859375,-0.967498779296875,0.08830349892377853,0.029565349221229553,0.032704152166843414
0.0697479248046875,-0.19659423828125,-0.9605865478515625,0.07458209246397018,0.03363945335149765,0.03723019361495972
0.068115234375,-0.1941680908203125,-0.956085205078125,0.07357914745807648,0.06881661713123322,0.03539580851793289
0.0706329345703125,-0.1879119873046875,-0.9582977294921875,0.22355133295059204,0.14991945028305054,0.048401087522506714
0.0730438232421875,-0.1832733154296875,-0.9537811279296875,0.23528149724006653,0.12349823862314224,0.06332091242074966
0.0641632080078125,-0.202667236328125,-0.9452362060546875,0.13005679845809937,0.07761037349700928,0.030083067715168
0.0526275634765625,-0.2094268798828125,-0.9508209228515625,-0.01841922104358673,0.048719070851802826,-0.01267105434089899
0.0556182861328125,-0.2023773193359375,-0.9807281494140625,-0.11414282023906708,0.06426820158958435,-0.01661412976682186
0.064666748046875,-0.1954498291015625,-1.005401611328125,-0.12480078637599945,0.08914212882518768,-0.016760604456067085
0.075469970703125,-0.1850738525390625,-1.0153656005859375,-0.10848785936832428,0.11303920298814774,-0.035236284136772156
0.0847320556640625,-0.1859130859375,-1.0130157470703125,-0.0920228660106659,0.10609287768602371,-0.11796365678310394
0.081024169921875,-0.1749725341796875,-1.0126800537109375,-0.07104754447937012,0.11427757143974304,-0.18447290360927582
0.0919189453125,-0.1688690185546875,-1.0167388916015625,-0.06345540285110474,0.18534216284751892,-0.16728779673576355
0.100341796875,-0.1740264892578125,-1.0135040283203125,-0.04042252525687218,0.23998835682868958,-0.13949690759181976
0.0997314453125,-0.1778106689453125,-0.9947662353515625,-0.02442331798374653,0.23661813139915466,-0.12039724737405777
0.0966339111328125,-0.1820526123046875,-0.9792022705078125,-0.007014233618974686,0.18189789354801178,-0.11503364145755768
0.097503662109375,-0.184417724609375,-0.96966552734375,0.0003350256592966616,0.10173062235116959,-0.10956590622663498
0.0957183837890625,-0.187530517578125,-0.9705657958984375,0.0028791434597223997,0.034877024590969086,-0.10191864520311356
0.0963287353515625,-0.1930694580078125,-0.980743408203125,0.0020732709672302008,-0.02099902555346489,-0.17209267616271973
0.1071319580078125,-0.1967620849609375,-0.9897003173828125,-0.003866909770295024,-0.06492999941110611,-0.07972358912229538
0.1107025146484375,-0.2030181884765625,-0.993194580078125,-0.00999244675040245,-0.10458499938249588,-0.06229719519615173
0.0997467041015625,-0.20501708984375,-0.9960479736328125,-0.01381141971796751,-0.11038216948509216,-0.05360490456223488
0.086822509765625,-0.2005767822265625,-0.994384765625,-0.017777930945158005,-0.07470539957284927,-0.04926927760243416
0.0792694091796875,-0.1924896240234375,-0.98675537109375,0.002204298507422209,-0.03223969414830208,-0.04681118205189705
0.0769805908203125,-0.1826019287109375,-0.977081298828125,0.03020317666232586,-0.003028546692803502,-0.03493987396359444
0.076141357421875,-0.1804656982421875,-0.9775848388671875,0.04663088545203209,0.020863203331828117,-0.027178891003131866
0.0820465087890625,-0.1875762939453125,-0.9828338623046875,0.04898778349161148,0.04623141139745712,-0.023419305682182312
0.1013031005859375,-0.19384765625,-0.9796600341796875,0.020479176193475723,0.04913904890418053,-0.014035391621291637
0.107879638671875,-0.1983642578125,-0.994384765625,0.004787831101566553,0.049195509403944016,-0.026752518489956856
0.112274169921875,-0.1968536376953125,-0.999053955078125,0.004066114313900471,0.026549318805336952,-0.042874496430158615
0.1078948974609375,-0.1907196044921875,-1.001617431640625,0.03171718493103981,-0.0023515713401138783,-0.060265738517045975
0.10211181640625,-0.186279296875,-1.0028533935546875,0.07750464230775833,0.007465639617294073,-0.065144382417202
0.095367431640625,-0.1908111572265625,-0.97552490234375,0.12082228809595108,0.019773971289396286,-0.06947468221187592
0.093231201171875,-0.18670654296875,-0.947418212890625,0.14973729848861694,-0.017363544553518295,-0.068413145840168
0.114898681640625,-0.173583984375,-0.925750732421875,0.18922238051891327,-0.23954787850379944,-0.02834934927523136
0.101318359375,-0.1895751953125,-0.9469757080078125,0.12565885484218597,-0.2556631863117218,0.007559649180620909
0.0768585205078125,-0.2097015380859375,-0.9608001708984375,0.02953472174704075,-0.13177481293678284,-0.012474512681365013
0.0693206787109375,-0.2142181396484375,-0.9654541015625,-0.01763278990983963,-0.01655527390539646,-0.05902363732457161
0.0873260498046875,-0.2003021240234375,-0.961456298828125,0.015367504209280014,-0.05974109470844269,-0.06865336000919342
0.1005401611328125,-0.18609619140625,-0.957763671875,0.05939009040594101,-0.1340334415435791,-0.028896629810333252
0.0871734619140625,-0.1860504150390625,-0.96453857421875,0.07769692689180374,-0.13662734627723694,0.015102519653737545
0.0648345947265625,-0.1959686279296875,-0.980560302734375,0.059468384832143784,-0.09058449417352676,0.020805146545171738
0.0627899169921875,-0.2090301513671875,-1.0099334716796875,0.021528728306293488,-0.08740920573472977,-0.01762533187866211
0.08148193359375,-0.213836669921875,-1.03564453125,0.004420847166329622,-0.15839336812496185,-0.04945623129606247
0.0919952392578125,-0.2083282470703125,-1.0424346923828125,0.02431146427989006,-0.22010600566864014,-0.053093843162059784
0.0918426513671875,-0.1987457275390625,-1.024261474609375,0.07129122316837311,-0.2250775843858719,-0.03238537162542343
0.0754852294921875,-0.1934967041015625,-0.9954071044921875,0.12070617824792862,-0.2034607082605362,-0.010059824213385582
0.054962158203125,-0.1932525634765625,-0.9715576171875,0.15226569771766663,-0.16287361085414886,-0.006315686274319887
0.0490875244140625,-0.1970977783203125,-0.955047607421875,0.13466008007526398,-0.11386291682720184,-0.014341921545565128
0.05859375,-0.2041778564453125,-0.9578399658203125,0.08878499269485474,-0.08499372005462646,-0.025662751868367195
0.074188232421875,-0.2108917236328125,-0.97216796875,0.03670075535774231,-0.11337396502494812,-0.031927041709423065
0.0833282470703125,-0.213165283203125,-0.9817352294921875,-0.02251542918384075,-0.14524267613887787,-0.041491784155368805
0.0842437744140625,-0.2132110595703125,-0.9856414794921875,-0.05970887094736099,-0.131034716963768,-0.052800897508859634
0.077362060546875,-0.21087646484375,-0.9922637939453125,-0.04908924922347069,-0.09789327532052994,-0.037030987441539764
0.067626953125,-0.206298828125,-0.9911346435546875,-0.0034527883399277925,-0.07606467604637146,-0.005900499876588583
0.0594635009765625,-0.1998443603515625,-0.981292724609375,0.03551724925637245,-0.044672928750514984,0.010871023871004581
0.05572509765625,-0.197174072265625,-0.972015380859375,0.05092842876911163,-0.012135226279497147,0.01555419247597456
0.0594635009765625,-0.19805908203125,-0.964569091796875,0.04520502686500549,0.01811056025326252,0.012019910849630833
0.066741943359375,-0.200836181640625,-0.95977783203125,0.03732979670166969,0.024214260280132294,0.01236265990883112
0.0716400146484375,-0.2028350830078125,-0.955657958984375,0.026928819715976715,0.007936486043035984,0.015277756378054619
0.07489013671875,-0.2021331787109375,-0.9491424560546875,0.022347383201122284,-0.01007979828864336,0.05986706167459488
0.0724945068359375,-0.2015838623046875,-0.9432220458984375,0.018392855301499367,-0.0026969832833856344,0.0328088141977787
0.0651397705078125,-0.2014007568359375,-0.945281982421875,0.0001496696495451033,-0.0010982876410707831,0.03377047926187515
0.0598907470703125,-0.2009429931640625,-0.952789306640625,-0.027709923684597015,-0.019947342574596405,0.02816372737288475
0.0598297119140625,-0.199371337890625,-0.96514892578125,-0.0536552369594574,-0.052680522203445435,0.0117914117872715
0.0647125244140625,-0.1969757080078125,-0.9777679443359375,-0.0763632133603096,-0.06967548280954361,0.0014333132421597838
0.0690155029296875,-0.195465087890625,-0.987640380859375,-0.08126183599233627,-0.04703168943524361,0.0019315907265990973
0.0706634521484375,-0.193603515625,-0.9938507080078125,-0.069515161216259,-0.009398561902344227,0.009897371754050255
0.0713043212890625,-0.193695068359375,-0.9959259033203125,-0.04722317308187485,0.036079175770282745,0.022656843066215515
0.0695343017578125,-0.19378662109375,-0.9952850341796875,-0.02528058923780918,0.0816916674375534,0.03181412070989609
0.068756103515625,-0.1933135986328125,-0.991546630859375,-0.005319397896528244,0.11558811366558075,0.04093411564826965
0.069732666015625,-0.194610595703125,-0.9842529296875,0.004315652418881655,0.11808589100837708,0.04978246986865997
0.06915283203125,-0.197509765625,-0.97796630859375,-0.0015044197207316756,0.08940871059894562,0.0475347600877285
0.072418212890625,-0.1988677978515625,-0.9774932861328125,-0.01703091524541378,0.04915289953351021,0.03726614639163017
0.073272705078125,-0.200042724609375,-0.9793853759765625,-0.03437448665499687,0.018428541719913483,0.03181838244199753
0.0697479248046875,-0.2027435302734375,-0.9833221435546875,-0.05598337575793266,0.0031092404387891293,0.030884945765137672
0.0648040771484375,-0.201904296875,-0.9899139404296875,-0.05886305123567581,-0.00210602767765522,0.028118986636400223
0.0668792724609375,-0.197357177734375,-0.9972381591796875,-0.05570507422089577,-0.004058124963194132,0.02076440118253231
0.069732666015625,-0.1944122314453125,-1.00042724609375,-0.04303455352783203,-0.0039039277471601963,0.023182816803455353
0.0679473876953125,-0.1912078857421875,-1.00042724609375,-0.034575022757053375,0.00487278588116169,0.026731746271252632
0.0659027099609375,-0.1892547607421875,-1.0003814697265625,-0.020711669698357582,0.0346144363284111,0.03315262869000435
0.064544677734375,-0.18902587890625,-1.00152587890625,-0.00752103328704834,0.06149425357580185,0.036561738699674606
0.063690185546875,-0.1883087158203125,-1.0029449462890625,0.0092321140691638,0.07998751103878021,0.04134397953748703
0.0626373291015625,-0.18994140625,-0.997711181640625,0.02269013226032257,0.07592113316059113,0.044432979077100754
0.0642242431640625,-0.1900177001953125,-0.9881439208984375,0.02900395542383194,0.047637827694416046,0.044504884630441666
0.066131591796875,-0.192413330078125,-0.9761810302734375,0.025501098483800888,0.035347603261470795,0.041966624557971954
0.065673828125,-0.1953582763671875,-0.967620849609375,0.012915798462927341,0.037217941135168076,0.040875259786844254
0.0662384033203125,-0.200164794921875,-0.970550537109375,0.0002463423879817128,0.05018327385187149,0.03687359392642975
0.0701751708984375,-0.2000885009765625,-0.9749603271484375,-0.009009207598865032,0.04560210555791855,0.032698825001716614
0.074493408203125,-0.1954345703125,-0.9779205322265625,-0.00999218039214611,0.03434678912162781,0.032349683344364166
0.0721282958984375,-0.190093994140625,-0.980255126953125,-0.00780679052695632,0.02419108897447586,0.035171035677194595
0.066864013671875,-0.188751220703125,-0.9814453125,0.0008711199625395238,0.009859022684395313,0.0384611040353775
0.0615234375,-0.1878662109375,-0.97894287109375,0.017555557191371918,-0.019940152764320374,0.03813992813229561
0.0614471435546875,-0.1882476806640625,-0.977020263671875,0.0320197194814682,-0.035173434764146805,0.040105342864990234
0.060028076171875,-0.1911163330078125,-0.975830078125,0.03852182626724243,-0.03188682720065117,0.03923182561993599
0.0606231689453125,-0.19384765625,-0.97552490234375,0.031203726306557655,0.0016498282784596086,0.038161501288414
0.061370849609375,-0.195098876953125,-0.9767303466796875,0.015162973664700985,0.03816096857190132,0.03786349296569824
0.06292724609375,-0.1935882568359375,-0.9803619384765625,0.0062608253210783005,0.05312953144311905,0.038657646626234055
0.0633544921875,-0.1916656494140625,-0.9839019775390625,0.001910019083879888,0.054130878299474716,0.04217275232076645
0.0623931884765625,-0.1894073486328125,-0.9858551025390625,0.005526325665414333,0.06576862931251526,0.04441753029823303
0.060455322265625,-0.1912384033203125,-0.984619140625,0.0081527354195714,0.09140421450138092,0.042394060641527176
0.05828857421875,-0.194976806640625,-0.9784698486328125,0.002025067573413253,0.11255956441164017,0.03747227415442467
0.0586700439453125,-0.196136474609375,-0.9762420654296875,-0.007637945935130119,0.11851173639297485,0.0285328421741724
0.0624542236328125,-0.195220947265625,-0.9773712158203125,-0.016039686277508736,0.11146367341279984,0.020731110125780106
0.0693206787109375,-0.1947021484375,-0.982666015625,-0.0182248093187809,0.1067163273692131,0.021939387544989586
0.075164794921875,-0.1969451904296875,-0.9853363037109375,-0.0060262009501457214,0.1046217530965805,0.027180753648281097
0.0811767578125,-0.199951171875,-0.98583984375,-0.0013885721564292908,0.08549413084983826,0.02840314619243145
0.0855865478515625,-0.1998138427734375,-0.9912261962890625,-0.0008303736103698611,0.03820490837097168,0.02690351940691471
0.0888214111328125,-0.1983795166015625,-0.995330810546875,-0.008125836960971355,-0.0070222229696810246,0.0244949571788311
0.07952880859375,-0.19677734375,-0.9923095703125,-0.008642490021884441,-0.021205686032772064,0.021571338176727295
0.06829833984375,-0.19549560546875,-0.986083984375,-0.003995806910097599,-0.006912234704941511,0.01859978400170803
0.0634765625,-0.196533203125,-0.9835357666015625,0.005505020264536142,0.02816053107380867,0.015367238782346249
0.06744384765625,-0.194366455078125,-0.9827880859375,0.014185327105224133,0.06138692796230316,0.011959724128246307
0.0727081298828125,-0.194427490234375,-0.980865478515625,0.01727779023349285,0.08309248834848404,0.00951068103313446
0.07977294921875,-0.1972503662109375,-0.9758758544921875,0.01708231493830681,0.0752369612455368,0.007898136973381042
0.0804595947265625,-0.1988067626953125,-0.96954345703125,0.013138172216713428,0.048104945570230484,0.0092936335131526
0.0768890380859375,-0.197540283203125,-0.9683074951171875,0.005814213305711746,0.02430986613035202,0.009983391501009464
0.0742645263671875,-0.1961669921875,-0.96881103515625,-0.006433664355427027,0.007803594693541527,0.009225189685821533
0.0711212158203125,-0.1954803466796875,-0.974609375,-0.019053053110837936,-0.014731807634234428,0.0020120181143283844
0.071685791015625,-0.1942291259765625,-0.9837799072265625,-0.02887825295329094,-0.03621126711368561,-0.004355067387223244
0.075897216796875,-0.1937408447265625,-0.9925537109375,-0.0335579589009285,-0.036316197365522385,-0.005337773822247982
0.0749664306640625,-0.1942901611328125,-0.993682861328125,-0.02257135510444641,-0.016864733770489693,-0.0008697884040884674
0.069854736328125,-0.194854736328125,-0.989776611328125,-0.013095828704535961,0.0006370281334966421,0.001984321279451251
0.06396484375,-0.1946868896484375,-0.985137939453125,0.0029284118209034204,0.01495471503585577,-0.0006503439508378506
0.062469482421875,-0.191314697265625,-0.982208251953125,0.014157097786664963,0.029253225773572922,-0.003634682158008218
0.064666748046875,-0.19061279296875,-0.9793701171875,0.019767045974731445,0.03928641974925995,-0.003385410411283374
0.070098876953125,-0.19183349609375,-0.9779052734375,0.013042565435171127,0.03701980412006378,-0.0036048549227416515
0.078094482421875,-0.1943511962890625,-0.9859771728515625,0.000362988852430135,0.0076275598257780075,-0.002103630919009447
0.084381103515625,-0.195770263671875,-0.990631103515625,-0.012647085823118687,-0.038482677191495895,-0.0008868326549418271
0.080352783203125,-0.1954498291015625,-0.9918670654296875,-0.021860823035240173,-0.08237902820110321,0.001118527608923614
0.07391357421875,-0.1931915283203125,-0.988739013671875,-0.024882713332772255,-0.10454531759023666,-0.0022951122373342514
0.068817138671875,-0.1923370361328125,-0.985809326171875,-0.026077406480908394,-0.10774936527013779,-0.0008551410282962024
0.0663909912109375,-0.1920928955078125,-0.98126220703125,-0.03111584112048149,-0.10514133423566818,-0.009043029509484768
0.0712738037109375,-0.19403076171875,-0.9766845703125,-0.04689160734415054,-0.09988771378993988,-0.012660135515034199
0.0723419189453125,-0.1945648193359375,-0.974609375,-0.06529831141233444,-0.08236730843782425,-0.008045676164329052
0.06756591796875,-0.1938934326171875,-0.9746551513671875,-0.09114295989274979,-0.06977588683366776,-0.005204349290579557
0.0639190673828125,-0.194610595703125,-0.9713897705078125,-0.11745871603488922,-0.08102747797966003,-0.01164440531283617
0.0733489990234375,-0.1923065185546875,-0.9770660400390625,-0.1552194207906723,-0.11452551186084747,-0.025295769795775414
0.0796051025390625,-0.1916351318359375,-0.98333740234375,-0.17716333270072937,-0.10609208047389984,-0.0314766988158226
0.0693206787109375,-0.1953125,-0.97625732421875,-0.19392366707324982,-0.07607000321149826,-0.029634857550263405
0.06280517578125,-0.194549560546875,-0.9656829833984375,-0.20670470595359802,-0.04941388964653015,-0.033120669424533844
0.0595550537109375,-0.1871795654296875,-0.96087646484375,-0.21244408190250397,-0.04694167524576187,-0.04499170929193497
0.0586395263671875,-0.1767730712890625,-0.960052490234375,-0.22151774168014526,-0.09496166557073593,-0.04959045723080635
0.060791015625,-0.169891357421875,-0.9642181396484375,-0.23031122982501984,-0.16044053435325623,-0.04650172218680382
0.05645751953125,-0.1689300537109375,-0.97247314453125,-0.2428661733865738,-0.19704648852348328,-0.0400286428630352
0.0481109619140625,-0.1670684814453125,-0.9882659912109375,-0.24749261140823364,-0.1874133050441742,-0.04543991759419441
0.04388427734375,-0.1636505126953125,-0.998291015625,-0.2322809100151062,-0.15389688313007355,-0.05426217243075371
0.0455780029296875,-0.1608123779296875,-1.0050201416015625,-0.20814521610736847,-0.12448786944150925,-0.05645794793963432
0.0501861572265625,-0.1572265625,-1.0081634521484375,-0.16989076137542725,-0.08884838223457336,-0.0604870468378067
0.054168701171875,-0.1587982177734375,-1.000701904296875,-0.1391773372888565,-0.05307653546333313,-0.06937853991985321
0.0514678955078125,-0.16046142578125,-0.994232177734375,-0.12281806766986847,-0.020193418487906456,-0.07627613097429276
0.048492431640625,-0.1597900390625,-0.986968994140625,-0.1075592190027237,0.005556685384362936,-0.08436840772628784
0.0503387451171875,-0.1558074951171875,-0.978912353515625,-0.08990618586540222,0.016980314627289772,-0.08506828546524048
0.0543060302734375,-0.1524200439453125,-0.971832275390625,-0.07725910097360611,0.000934236915782094,-0.07022169977426529
0.0583648681640625,-0.1533203125,-0.96783447265625,-0.0769784078001976,-0.032406143844127655,-0.04940030723810196
0.0551300048828125,-0.157379150390625,-0.967376708984375,-0.09737635403871536,-0.07129042595624924,-0.038052309304475784
0.0495147705078125,-0.1601715087890625,-0.97210693359375,-0.139570951461792,-0.09241674840450287,-0.04150430113077164
0.0521087646484375,-0.1584320068359375,-0.9871826171875,-0.18431603908538818,-0.096722811460495,-0.0652887225151062
0.05621337890625,-0.1529693603515625,-1.007843017578125,-0.2002425491809845,-0.10629981011152267,-0.08019470423460007
0.05938720703125,-0.1477203369140625,-1.03021240234375,-0.17118293046951294,-0.12196425348520279,-0.07701888680458069
0.0592041015625,-0.1459197998046875,-1.0408172607421875,-0.10996325314044952,-0.12034531682729721,-0.06359149515628815
0.049072265625,-0.147430419921875,-1.0400390625,-0.03778199851512909,-0.09275523573160172,-0.04465322196483612
0.0384674072265625,-0.1512451171875,-1.02362060546875,0.027172498404979706,-0.043122436851263046,-0.021265074610710144
0.037750244140625,-0.153656005859375,-0.997802734375,0.06521309167146683,0.018788069486618042,0.0036389431916177273
0.0404205322265625,-0.1557464599609375,-0.971160888671875,0.07441458106040955,0.08580971509218216,0.027666248381137848
0.0376434326171875,-0.1583709716796875,-0.9624176025390625,0.05428827181458473,0.13719220459461212,0.038427017629146576
0.0437774658203125,-0.1594696044921875,-0.9691314697265625,0.02594424970448017,0.16215108335018158,0.03482216224074364
0.0592193603515625,-0.1569671630859375,-0.9831390380859375,-0.0007819040911272168,0.14968909323215485,0.02713841013610363
0.065521240234375,-0.1533355712890625,-1.0093994140625,-0.011801266111433506,0.09601494669914246,0.01480557769536972
0.0604095458984375,-0.1510162353515625,-1.03497314453125,-0.0017212009988725185,0.026757843792438507,0.00842384435236454
0.0519866943359375,-0.14837646484375,-1.0469818115234375,0.02269359491765499,-0.02942473441362381,-0.005305016878992319
0.05517578125,-0.147613525390625,-1.0488128662109375,0.055867258459329605,-0.04841999709606171,-0.01444045826792717
0.060272216796875,-0.152313232421875,-1.0304412841796875,0.10160093009471893,-0.021521270275115967,-0.005461610853672028
0.052032470703125,-0.1573638916015625,-1.0180511474609375,0.17891143262386322,0.11480274796485901,0.007189735770225525
0.039306640625,-0.1601715087890625,-0.9908294677734375,0.34215307235717773,0.40048375725746155,0.0032229574862867594
0.0570068359375,-0.157257080078125,-0.9564971923828125,0.32763752341270447,0.4607708156108856,0.00427277572453022
0.064056396484375,-0.16009521484375,-0.9493865966796875,0.20489881932735443,0.3458713889122009,0.004859469830989838
0.063140869140625,-0.161041259765625,-0.9460906982421875,0.07598771154880524,0.10195326060056686,0.027884628623723984
0.0636138916015625,-0.1551971435546875,-0.950775146484375,-0.02539324015378952,-0.15246357023715973,0.054777227342128754
0.0656585693359375,-0.1536407470703125,-0.969879150390625,-0.07784579694271088,-0.2804090082645416,0.04718003049492836
0.0619354248046875,-0.1486663818359375,-0.9918670654296875,-0.0825076624751091,-0.2564924955368042,-0.0171414352953434
0.0600433349609375,-0.16241455078125,-1.002044677734375,-0.03591778874397278,-0.11193931847810745,-0.06812658905982971
0.0565643310546875,-0.1763153076171875,-1.005523681640625,0.0013395700370892882,0.08492660522460938,-0.03122210130095482
0.0444183349609375,-0.1691741943359375,-1.0053253173828125,0.030964307487010956,0.18896032869815826,0.003440005239099264
0.0396728515625,-0.152252197265625,-0.999176025390625,0.049744654446840286,0.17250306904315948,-0.003091131104156375
0.050750732421875,-0.1445770263671875,-0.99542236328125,0.055561527609825134,0.090061716735363,-0.022957779467105865
0.0649566650390625,-0.1499176025390625,-0.99169921875,0.06313636153936386,0.007787082809954882,-0.02979091927409172
0.07049560546875,-0.1581573486328125,-0.984405517578125,0.08043039590120316,-0.024332236498594284,-0.005380650516599417
0.065673828125,-0.1656036376953125,-0.9738616943359375,0.08940418064594269,0.009849701076745987,-0.06283488869667053
0.0609893798828125,-0.167938232421875,-0.9640045166015625,0.08623342216014862,0.07228058576583862,0.01056476030498743
0.0618743896484375,-0.169342041015625,-0.9584808349609375,0.07106006145477295,0.14000876247882843,0.005518868565559387
0.0647430419921875,-0.167022705078125,-0.95526123046875,0.04632541909813881,0.1705176830291748,0.006414756178855896
0.0684661865234375,-0.164093017578125,-0.9528350830078125,0.03044499084353447,0.1619604080915451,0.010658503510057926
0.0698089599609375,-0.1630859375,-0.958282470703125,0.01013971958309412,0.1321852058172226,0.01605886034667492
0.0687713623046875,-0.1602020263671875,-0.9708404541015625,-0.003436010330915451,0.08741666376590729,0.024813471361994743
0.070892333984375,-0.1592254638671875,-0.984283447265625,-0.012051336467266083,0.04580983147025108,0.01570705696940422
0.0690460205078125,-0.160064697265625,-0.9936981201171875,-0.02057238668203354,0.011717376299202442,0.00836685299873352
0.066986083984375,-0.1618194580078125,-0.9982452392578125,-0.017588049173355103,-0.009041165933012962,0.0005456816870719194
0.0678253173828125,-0.1622467041015625,-0.999237060546875,-0.0007677893154323101,-0.009383914060890675,0.005795837379992008
0.067718505859375,-0.1632080078125,-0.99951171875,0.013177321292459965,0.013925403356552124,0.010595918633043766
0.067962646484375,-0.1656494140625,-0.9985504150390625,0.02107039839029312,0.044004473835229874,0.009019327349960804
