accX,accY,accZ,gyroX,gyroY,gyroZ
0.016082763671875,-0.015533447265625,-1.0025177001953125,0.003212304785847664,0.007238471880555153,-0.007926632650196552
0.5330352783203125,-0.50628662109375,-0.6161346435546875,0.1624075472354889,-1.6612322330474854,0.26225531101226807
0.5166473388671875,-0.5633697509765625,-0.5764923095703125,-0.16566219925880432,-1.5231233835220337,0.3432271480560303
0.46331787109375,-0.58966064453125,-0.5570526123046875,-0.5091330409049988,-1.384963870048523,0.34278932213783264
0.3957672119140625,-0.597137451171875,-0.560028076171875,-0.8342596888542175,-1.1947171688079834,0.3217415511608124
0.335601806640625,-0.5814208984375,-0.599609375,-1.1122397184371948,-0.9195314645767212,0.32043179869651794
0.28662109375,-0.544158935546875,-0.6590423583984375,-1.320556640625,-0.6866758465766907,0.32808518409729004
0.24615478515625,-0.5028533935546875,-0.715301513671875,-1.4532643556594849,-0.6060411930084229,0.3205002546310425
0.2054443359375,-0.4723358154296875,-0.7659149169921875,-1.477990984916687,-0.7002025842666626,0.23333711922168732
0.1695709228515625,-0.488525390625,-0.82623291015625,-1.381436824798584,-0.8849407434463501,0.031748075038194656
0.1367340087890625,-0.5379791259765625,-0.892608642578125,-1.189726710319519,-1.0778422355651855,-0.2530176043510437
0.112823486328125,-0.57464599609375,-0.955841064453125,-0.9627875685691833,-1.2322044372558594,-0.54535973072052
0.1141204833984375,-0.5660400390625,-0.9985809326171875,-0.7370575070381165,-1.3825126886367798,-0.7283002734184265
0.141265869140625,-0.5131072998046875,-0.993896484375,-0.5352442264556885,-1.531867265701294,-0.7429071664810181
0.1737060546875,-0.4213409423828125,-0.9453887939453125,-0.3722534477710724,-1.7432016134262085,-0.6480759978294373
0.198822021484375,-0.3719940185546875,-0.9006805419921875,-0.24459722638130188,-1.9992268085479736,-0.503666877746582
0.218170166015625,-0.3814697265625,-0.90472412109375,-0.14943262934684753,-2.0637171268463135,-0.3884374797344208
0.2138519287109375,-0.407196044921875,-0.9371337890625,-0.10423798859119415,-1.8672826290130615,-0.34015971422195435
0.1785125732421875,-0.4294281005859375,-0.95269775390625,-0.13267070055007935,-1.4918956756591797,-0.34964296221733093
0.1246185302734375,-0.4391632080078125,-0.9499359130859375,-0.30929234623908997,-0.9593872427940369,-0.45473796129226685
0.0775909423828125,-0.4243621826171875,-0.9249420166015625,-0.5834826231002808,-0.4605500400066376,-0.5932678580284119
0.0433807373046875,-0.3905487060546875,-0.8764801025390625,-0.8517481684684753,-0.16764146089553833,-0.6427440643310547
0.0333709716796875,-0.365447998046875,-0.837860107421875,-1.0572816133499146,-0.08862867206335068,-0.6068433523178101
0.0625152587890625,-0.3569183349609375,-0.839874267578125,-1.0917762517929077,-0.18775604665279388,-0.5193968415260315
0.135894775390625,-0.342041015625,-0.8885040283203125,-0.9468554854393005,-0.3560926020145416,-0.3806075155735016
0.20294189453125,-0.3359527587890625,-0.944122314453125,-0.703546941280365,-0.5675801038742065,-0.20711243152618408
0.235107421875,-0.3556671142578125,-0.984954833984375,-0.4313974678516388,-0.690915048122406,-0.060451626777648926
0.2255859375,-0.3780670166015625,-0.997711181640625,-0.17658302187919617,-0.6599334478378296,0.016111325472593307
0.1787872314453125,-0.39666748046875,-0.9917144775390625,0.023429425433278084,-0.6224209666252136,0.013451360166072845
0.1259613037109375,-0.4101409912109375,-0.98712158203125,0.1493695080280304,-0.6689453125,-0.03574654459953308
0.092803955078125,-0.4100341796875,-0.971099853515625,0.18706762790679932,-0.6777973771095276,-0.09157571941614151
0.0823822021484375,-0.3920440673828125,-0.94207763671875,0.11662141978740692,-0.4645141363143921,-0.11063410341739655
0.0859222412109375,-0.35308837890625,-0.9148712158203125,0.002588326344266534,-0.21694909036159515,-0.08757326006889343
0.097991943359375,-0.3258819580078125,-0.881683349609375,-0.15483325719833374,0.006975085008889437,-0.03368339315056801
0.1209869384765625,-0.3177642822265625,-0.8593902587890625,-0.3245152235031128,0.16098035871982574,0.030045783147215843
0.1468963623046875,-0.332672119140625,-0.857025146484375,-0.4382399320602417,0.27468961477279663,0.09503649920225143
0.1418304443359375,-0.3548126220703125,-0.8607635498046875,-0.4898677170276642,0.31338614225387573,0.1287126988172531
0.1092071533203125,-0.378753662109375,-0.8629150390625,-0.48637232184410095,0.22566641867160797,0.10622391104698181
0.073211669921875,-0.4028778076171875,-0.8742218017578125,-0.4358865022659302,0.026579147204756737,0.029624737799167633
0.043060302734375,-0.4243927001953125,-0.8965911865234375,-0.34095174074172974,-0.1962488740682602,-0.0308133065700531
0.0384521484375,-0.4317779541015625,-0.927886962890625,-0.1978989690542221,-0.374521940946579,-0.045343246310949326
0.051513671875,-0.4184722900390625,-0.9554595947265625,-0.048111602663993835,-0.42305564880371094,-0.024219851940870285
0.044769287109375,-0.4008331298828125,-0.975982666015625,0.07253039628267288,-0.28880196809768677,0.001056476030498743
0.0453643798828125,-0.3709716796875,-0.98529052734375,0.12377946823835373,-0.06619340181350708,0.048893507570028305
0.0606231689453125,-0.335296630859375,-0.9850311279296875,0.12139859795570374,0.1527368128299713,0.10940399020910263
0.087982177734375,-0.3132781982421875,-0.979217529296875,0.09948398172855377,0.3590431213378906,0.1888096034526825
0.1114959716796875,-0.320587158203125,-0.9661712646484375,0.07419193536043167,0.5672240257263184,0.2645914554595947
0.12249755859375,-0.343597412109375,-0.944610595703125,0.05570986866950989,0.6543535590171814,0.3272143304347992
0.1186065673828125,-0.3703765869140625,-0.912872314453125,0.03678065165877342,0.5121951103210449,0.3461936414241791
0.10302734375,-0.4090576171875,-0.876068115234375,0.04953506216406822,0.20359839498996735,0.3096236288547516
0.09124755859375,-0.4435882568359375,-0.8505706787109375,0.08973894268274307,-0.10242544114589691,0.2423950582742691
0.0834197998046875,-0.4591522216796875,-0.845947265625,0.1278674155473709,-0.3071620762348175,0.17673109471797943
0.0801849365234375,-0.4497528076171875,-0.8597869873046875,0.1320938616991043,-0.3222901523113251,0.1283944547176361
0.073638916015625,-0.417816162109375,-0.8846435546875,0.08947981148958206,-0.08847234398126602,0.13352955877780914
0.06610107421875,-0.379425048828125,-0.9087371826171875,-0.0013177321525290608,0.32290536165237427,0.1688377559185028
0.0619659423828125,-0.3586578369140625,-0.9304656982421875,-0.09814201295375824,0.7972676157951355,0.16568483412265778
0.0506744384765625,-0.382080078125,-0.9451904296875,-0.15280233323574066,1.1961430311203003,0.11174730211496353
0.06231689453125,-0.419189453125,-0.947723388671875,-0.15320207178592682,1.4366939067840576,0.03327619656920433
0.0855712890625,-0.4437103271484375,-0.9315643310546875,-0.11782064288854599,1.4339345693588257,-0.06621018052101135
0.108795166015625,-0.455780029296875,-0.8968658447265625,-0.07398714125156403,1.2593673467636108,-0.15555523335933685
0.1229248046875,-0.4583282470703125,-0.851318359375,-0.0625121146440506,1.0317282676696777,-0.19119632244110107
0.1382293701171875,-0.4412078857421875,-0.80645751953125,-0.11342376470565796,0.8792468905448914,-0.17105989158153534
0.16326904296875,-0.4167022705078125,-0.7932281494140625,-0.20343780517578125,0.931803286075592,-0.10037853568792343
0.194122314453125,-0.3858795166015625,-0.81866455078125,-0.29869455099105835,1.1559466123580933,-0.027351196855306625
0.2147979736328125,-0.36907958984375,-0.8711395263671875,-0.3683529794216156,1.4898180961608887,-0.004701278172433376
0.20855712890625,-0.38055419921875,-0.92926025390625,-0.32700875401496887,1.6411194801330566,-0.04547693580389023
0.1966705322265625,-0.4307708740234375,-0.9554901123046875,-0.015134744346141815,0.5829246640205383,-0.3105863630771637
0.1804656982421875,-0.56396484375,-0.762420654296875,0.003635481232777238,-0.10036841779947281,-0.4122221767902374
0.2584228515625,-0.5136566162109375,-0.66766357421875,-0.23106756806373596,-0.034218691289424896,-0.1879667043685913
0.317657470703125,-0.360443115234375,-0.7758941650390625,-0.2678322494029999,0.04915289953351021,-0.123975470662117
0.289215087890625,-0.3863983154296875,-0.9363555908203125,-0.10328271239995956,0.05355457216501236,-0.20582613348960876
0.2608642578125,-0.4256744384765625,-1.0580291748046875,0.10892408341169357,-0.022336464375257492,-0.2755703330039978
0.268890380859375,-0.43658447265625,-1.1058502197265625,0.27416762709617615,-0.3085578382015228,-0.3227865695953369
0.313232421875,-0.4499969482421875,-1.050933837890625,0.40901148319244385,-0.6740633845329285,-0.24588806927204132
0.32147216796875,-0.4338531494140625,-0.9532928466796875,0.4537621736526489,-1.0483999252319336,-0.15113066136837006
0.3237152099609375,-0.3931121826171875,-0.8608245849609375,0.34753158688545227,-1.3143270015716553,-0.0880289226770401
0.318572998046875,-0.3774566650390625,-0.791473388671875,0.1313287317752838,-1.4191490411758423,-0.007515707053244114
0.2843170166015625,-0.3910369873046875,-0.753387451171875,-0.117269366979599,-1.390119194984436,0.08638335764408112
0.25860595703125,-0.4188690185546875,-0.75653076171875,-0.3525737524032593,-1.2469335794448853,0.16668112576007843
0.2206573486328125,-0.4386138916015625,-0.786102294921875,-0.545367956161499,-1.0713387727737427,0.19701959192752838
0.160247802734375,-0.45623779296875,-0.8236846923828125,-0.6830446124076843,-0.9569496512413025,0.1569155752658844
0.0823516845703125,-0.478973388671875,-0.855010986328125,-0.7844298481941223,-0.9117060303688049,0.04952174797654152
0.01019287109375,-0.486480712890625,-0.861236572265625,-0.8695210218429565,-0.9452857971191406,-0.003597398055717349
-0.01953125,-0.4699249267578125,-0.8488616943359375,-0.9515743255615234,-1.0610377788543701,-0.18284571170806885
-0.022308349609375,-0.4466400146484375,-0.8463287353515625,-1.0247156620025635,-0.887565016746521,-0.23930606245994568
0.03106689453125,-0.3973541259765625,-0.902191162109375,-1.1035676002502441,-0.700705349445343,-0.2188495248556137
0.05084228515625,-0.3802032470703125,-0.9059600830078125,-1.0941890478134155,-0.6995468735694885,-0.11245916783809662
0.0660858154296875,-0.378875732421875,-0.8939208984375,-1.0478867292404175,-0.6575310230255127,0.057081129401922226
0.125457763671875,-0.3868560791015625,-0.9255828857421875,-0.9570977687835693,-0.549915075302124,0.20707382261753082
0.1436614990234375,-0.39862060546875,-0.9525299072265625,-0.8446071743965149,-0.4046199321746826,0.2863942086696625
0.111572265625,-0.396209716796875,-0.997894287109375,-0.7318553328514099,-0.2942396104335785,0.30131402611732483
0.029449462890625,-0.375579833984375,-1.052581787109375,-0.6274966597557068,-0.19353777170181274,0.28722459077835083
-0.0455474853515625,-0.3471832275390625,-1.0840911865234375,-0.5327038764953613,-0.10446649044752121,0.2368844449520111
-0.0838165283203125,-0.3062896728515625,-1.0946807861328125,-0.4299849271774292,-0.07724631577730179,0.13767078518867493
-0.102874755859375,-0.2820892333984375,-1.0992889404296875,-0.30960366129875183,-0.14585228264331818,0.0072355424053967
-0.1008453369140625,-0.2854766845703125,-1.0958099365234375,-0.16650615632534027,-0.2243899554014206,-0.1250348836183548
-0.07330322265625,-0.2992706298828125,-1.08306884765625,-0.01392646785825491,-0.20896466076374054,-0.23975427448749542
-0.0391387939453125,-0.310333251953125,-1.074737548828125,0.14775164425373077,-0.05004559084773064,-0.30317211151123047
-0.003173828125,-0.30938720703125,-1.0804290771484375,0.31082046031951904,0.1945582926273346,-0.31619951128959656
0.0228271484375,-0.304290771484375,-1.091552734375,0.4638507664203644,0.4438972771167755,-0.27565526962280273
0.034820556640625,-0.29974365234375,-1.101715087890625,0.6105493903160095,0.6048315763473511,-0.19977250695228577
0.0450592041015625,-0.2958984375,-1.1052398681640625,0.7377158403396606,0.5822319984436035,-0.11128577589988708
0.060943603515625,-0.3067626953125,-1.0992584228515625,0.8181052207946777,0.3564300239086151,-0.035598739981651306
0.0838165283203125,-0.3318328857421875,-1.0805206298828125,0.8482828736305237,0.0640527531504631,0.04447478801012039
0.107025146484375,-0.34808349609375,-1.0523223876953125,0.868222177028656,-0.1132274866104126,0.12230753898620605
0.12042236328125,-0.348876953125,-1.0283203125,0.8957768678665161,-0.12212005257606506,0.16861937940120697
0.1114959716796875,-0.3435821533203125,-1.0160064697265625,0.9157567024230957,-0.04435867443680763,0.17071208357810974
0.0931549072265625,-0.328887939453125,-0.99566650390625,0.9061900973320007,0.004433364141732454,0.137947216629982
0.0861053466796875,-0.315673828125,-0.964569091796875,0.8459102511405945,-0.036252811551094055,0.079107865691185
0.0949554443359375,-0.3073272705078125,-0.9286346435546875,0.7122222185134888,-0.1647663116455078,0.025313612073659897
0.1069793701171875,-0.303131103515625,-0.8916473388671875,0.5223026275634766,-0.2964455187320709,-0.008065382950007915
0.1217041015625,-0.3054962158203125,-0.882080078125,0.32029491662979126,-0.34366175532341003,-0.015290539711713791
0.134002685546875,-0.30657958984375,-0.9021148681640625,0.15668654441833496,-0.28286659717559814,0.015017565339803696
0.1414642333984375,-0.294403076171875,-0.941436767578125,0.0626031905412674,-0.13591335713863373,0.070272296667099
0.13970947265625,-0.269012451171875,-0.9854736328125,0.025358619168400764,0.04138472303748131,0.1332094520330429
0.12701416015625,-0.240692138671875,-1.0154571533203125,0.02761165425181389,0.23318397998809814,0.18582633137702942
0.1170501708984375,-0.23004150390625,-1.0257720947265625,0.03548422455787659,0.41131269931793213,0.2308633029460907
0.117767333984375,-0.2310333251953125,-1.0123291015625,0.045220475643873215,0.4569001793861389,0.2623938024044037
0.1269378662109375,-0.23944091796875,-0.9891510009765625,0.049740925431251526,0.39024871587753296,0.26095303893089294
0.1463623046875,-0.2574310302734375,-0.97100830078125,0.05566645786166191,0.2930441200733185,0.2501879930496216
0.160308837890625,-0.2756500244140625,-0.9629669189453125,0.08205146342515945,0.20541547238826752,0.24598020315170288
0.1788330078125,-0.2834014892578125,-0.9704437255859375,0.13920556008815765,0.1428503692150116,0.2474188506603241
0.1846771240234375,-0.281646728515625,-0.989349365234375,0.2254887819290161,0.1330275535583496,0.255347341299057
0.1727142333984375,-0.26934814453125,-0.9968719482421875,0.33729812502861023,0.17117521166801453,0.28147003054618835
0.1608123779296875,-0.2439117431640625,-0.9909515380859375,0.4499293565750122,0.25616785883903503,0.3306881785392761
0.158721923828125,-0.2207794189453125,-0.9770660400390625,0.5559822916984558,0.3545583486557007,0.3879128396511078
0.1579132080078125,-0.2113494873046875,-0.9652252197265625,0.6422356963157654,0.4195384085178375,0.4633370339870453
0.1623077392578125,-0.199554443359375,-0.935211181640625,0.6631425619125366,0.4766773283481598,0.4842124879360199
0.174346923828125,-0.22412109375,-0.9095001220703125,0.614695131778717,0.4880295991897583,0.42894256114959717
0.1809844970703125,-0.2776031494140625,-0.907012939453125,0.5093458294868469,0.4652712941169739,0.3263877034187317
0.1870269775390625,-0.31927490234375,-0.8980560302734375,0.3677111566066742,0.4575076401233673,0.22488610446453094
0.1986083984375,-0.3302154541015625,-0.868988037109375,0.21614454686641693,0.4617726802825928,0.14253796637058258
0.21356201171875,-0.313446044921875,-0.840087890625,0.06053418293595314,0.43411335349082947,0.07544948160648346
0.219573974609375,-0.29998779296875,-0.8405914306640625,-0.03762700408697128,0.3792903423309326,0.03744297847151756
0.2238922119140625,-0.293487548828125,-0.86712646484375,-0.035343609750270844,0.3035511076450348,0.047391749918460846
0.23907470703125,-0.2591094970703125,-0.8766326904296875,0.029921414330601692,0.22083356976509094,0.0885825976729393
0.2479400634765625,-0.22900390625,-0.8772125244140625,0.1230899766087532,0.1093808189034462,0.13058170676231384
0.2603759765625,-0.2379608154296875,-0.9058837890625,0.22024820744991302,0.036552686244249344,0.1760338842868805
0.2611236572265625,-0.27215576171875,-0.9476318359375,0.3161579668521881,0.0749962106347084,0.2164207249879837
0.2537384033203125,-0.315582275390625,-0.982269287109375,0.4105537235736847,0.1823173463344574,0.23773932456970215
0.231048583984375,-0.3375244140625,-0.998931884765625,0.46591949462890625,0.342055082321167,0.21729929745197296
0.1880035400390625,-0.3412017822265625,-0.9891510009765625,0.4557161331176758,0.5483054518699646,0.15444736182689667
0.1537322998046875,-0.32086181640625,-0.939849853515625,0.3607137203216553,0.7703846096992493,0.07296288758516312
0.13824462890625,-0.3027801513671875,-0.8709869384765625,0.17966750264167786,0.9266495704650879,-0.0010732539230957627
0.1589813232421875,-0.302703857421875,-0.815673828125,-0.01371980644762516,0.9412705898284912,-0.028189560398459435
0.2063751220703125,-0.3206787109375,-0.78985595703125,-0.16287733614444733,0.8383910655975342,0.004433630499988794
0.2469329833984375,-0.3383331298828125,-0.7735748291015625,-0.20716330409049988,0.6298554539680481,0.074175164103508
0.277923583984375,-0.340576171875,-0.7537078857421875,-0.09120847284793854,0.2983826994895935,0.12465058267116547
0.308563232421875,-0.38037109375,-0.72479248046875,-0.01888926886022091,-0.17420189082622528,0.14506451785564423
0.341827392578125,-0.4041900634765625,-0.765411376953125,-0.002788063371554017,-0.4714176058769226,0.1467747986316681
0.2998809814453125,-0.3876800537109375,-0.82098388671875,0.02406245842576027,-0.4576466381549835,0.15487612783908844
0.2515716552734375,-0.37066650390625,-0.8901214599609375,0.06683549284934998,-0.24152155220508575,0.11343467980623245
0.20928955078125,-0.3699493408203125,-0.933074951171875,0.10741407424211502,-0.023366576060652733,0.03255155310034752
0.1746978759765625,-0.390533447265625,-0.920745849609375,0.10825004428625107,0.040459275245666504,-0.06053098663687706
0.1943206787109375,-0.3883056640625,-0.8696746826171875,0.041060883551836014,-0.07886578887701035,-0.13375672698020935
0.2250823974609375,-0.3842926025390625,-0.8154296875,-0.0585450679063797,-0.28348177671432495,-0.1531168520450592
0.267120361328125,-0.393035888671875,-0.7938079833984375,-0.13600337505340576,-0.47920307517051697,-0.11979217827320099
0.30120849609375,-0.3997955322265625,-0.8034515380859375,-0.18904155492782593,-0.6045117378234863,-0.053284261375665665
0.308837890625,-0.3964996337890625,-0.8295745849609375,-0.22483044862747192,-0.6607153415679932,0.0421178936958313
0.290618896484375,-0.3910064697265625,-0.852020263671875,-0.2676932215690613,-0.6546918153762817,0.06533452868461609
0.2481231689453125,-0.3792877197265625,-0.8654022216796875,-0.320015013217926,-0.5850107073783875,0.13003230094909668
0.2083740234375,-0.3836822509765625,-0.8774566650390625,-0.37561649084091187,-0.48922693729400635,0.11579424142837524
0.1707763671875,-0.3996124267578125,-0.8892822265625,-0.4326912462711334,-0.3924625813961029,0.04838138073682785
0.1394195556640625,-0.4191436767578125,-0.8984375,-0.4756237864494324,-0.307721346616745,-0.0534224770963192
0.1154022216796875,-0.4408721923828125,-0.91143798828125,-0.4885329306125641,-0.26389023661613464,-0.16538868844509125
0.1009063720703125,-0.4427642822265625,-0.9246673583984375,-0.46777546405792236,-0.30014702677726746,-0.24739940464496613
0.09375,-0.4129180908203125,-0.9302978515625,-0.4179469048976898,-0.3850909471511841,-0.29277753829956055
0.093841552734375,-0.3824615478515625,-0.9208221435546875,-0.33099523186683655,-0.4807857871055603,-0.29727137088775635
0.1010894775390625,-0.37890625,-0.9177703857421875,-0.2099819928407669,-0.5507699251174927,-0.28900066018104553
0.11993408203125,-0.3903656005859375,-0.923583984375,-0.060152020305395126,-0.632178783416748,-0.2737029194831848
0.1356658935546875,-0.405517578125,-0.9393310546875,0.09481252729892731,-0.6879152655601501,-0.27042776346206665
0.1474151611328125,-0.4185791015625,-0.9575347900390625,0.23577576875686646,-0.6875360608100891,-0.2730807960033417
0.1485443115234375,-0.4151458740234375,-0.9579620361328125,0.327898770570755,-0.5866496562957764,-0.2811829447746277
0.1397552490234375,-0.4108123779296875,-0.943328857421875,0.3506948947906494,-0.4345514476299286,-0.28087612986564636
0.1259613037109375,-0.4105682373046875,-0.9259185791015625,0.312955766916275,-0.3274599015712738,-0.25949627161026
0.1162261962890625,-0.41357421875,-0.9168853759765625,0.2128203958272934,-0.30125170946121216,-0.22981855273246765
0.1066131591796875,-0.4234771728515625,-0.90777587890625,0.0866219773888588,-0.31131818890571594,-0.23429904878139496
0.0977020263671875,-0.44146728515625,-0.899566650390625,-0.0346386693418026,-0.3323012590408325,-0.2556288540363312
0.0963287353515625,-0.4504852294921875,-0.897003173828125,-0.1311257928609848,-0.3613603413105011,-0.2794249951839447
0.1008758544921875,-0.44757080078125,-0.904632568359375,-0.20339998602867126,-0.39559048414230347,-0.2908147871494293
0.1066131591796875,-0.440704345703125,-0.9279632568359375,-0.2493371218442917,-0.42746689915657043,-0.28141677379608154
0.1091461181640625,-0.430633544921875,-0.9630584716796875,-0.25556784868240356,-0.4212827980518341,-0.2655121088027954
0.1050872802734375,-0.4144744873046875,-0.9938812255859375,-0.22901082038879395,-0.3156090974807739,-0.253402978181839
0.1025848388671875,-0.3951416015625,-1.007232666015625,0.0430273599922657,0.2572275400161743,-0.2641911804676056
0.11077880859375,-0.376617431640625,-1.012237548828125,0.2507787048816681,0.2879694700241089,-0.2369116097688675
0.1379547119140625,-0.4001312255859375,-1.047119140625,0.4142299294471741,0.0928226113319397,-0.21737493574619293
0.1594696044921875,-0.3970947265625,-1.0331878662109375,0.5020772218704224,-0.17826561629772186,-0.16479773819446564
0.1700286865234375,-0.4070587158203125,-0.9828948974609375,0.5391119718551636,-0.4087406396865845,-0.12508948147296906
0.1851806640625,-0.4295654296875,-0.9494171142578125,0.5234741568565369,-0.616784393787384,-0.12888741493225098
0.161346435546875,-0.441253662109375,-0.950042724609375,0.44485709071159363,-0.746345043182373,-0.17115603387355804
0.128265380859375,-0.449066162109375,-0.961639404296875,0.3440980017185211,-0.7174974083900452,-0.2129916399717331
0.1071624755859375,-0.4496002197265625,-0.96307373046875,0.27987584471702576,-0.46052631735801697,-0.21444065868854523
0.091033935546875,-0.424468994140625,-0.9366912841796875,0.2466108500957489,-0.233511820435524,-0.19908274710178375
0.1009521484375,-0.3970794677734375,-0.9114227294921875,0.20845787227153778,-0.26345428824424744,-0.1979876458644867
0.1253204345703125,-0.4055633544921875,-0.925140380859375,0.1464725285768509,-0.5055651664733887,-0.1924344301223755
0.13079833984375,-0.4369964599609375,-0.9595489501953125,0.08660147339105606,-0.6560337543487549,-0.17825175821781158
0.12017822265625,-0.4595489501953125,-0.9845733642578125,0.040040891617536545,-0.5827853679656982,-0.17160025238990784
0.086639404296875,-0.4542694091796875,-0.9972076416015625,0.003313771216198802,-0.39832445979118347,-0.17348337173461914
0.043701171875,-0.426971435546875,-1.0014801025390625,-0.012999155558645725,-0.22226423025131226,-0.14317873120307922
0.013031005859375,-0.390350341796875,-0.9830780029296875,-0.01978994905948639,-0.09616914391517639,-0.14875778555870056
-0.004425048828125,-0.3565673828125,-0.9434967041015625,-0.044736843556165695,0.048533182591199875,-0.14361095428466797
-0.012451171875,-0.347564697265625,-0.906402587890625,-0.08137448132038116,0.2059241384267807,-0.1121278703212738
-0.027557373046875,-0.3630523681640625,-0.895111083984375,-0.12004811316728592,0.3817252516746521,-0.12246199697256088
-0.04974365234375,-0.3922576904296875,-0.9099884033203125,-0.15530383586883545,0.6093816161155701,-0.19652025401592255
-0.080108642578125,-0.40313720703125,-0.921905517578125,-0.17680726945400238,0.8707210421562195,-0.30157822370529175
-0.0965118408203125,-0.385162353515625,-0.9158935546875,-0.16517777740955353,1.1195329427719116,-0.34488070011138916
-0.0767974853515625,-0.34808349609375,-0.9036102294921875,-0.07411444187164307,1.2522045373916626,-0.2692948579788208
-0.0109405517578125,-0.31805419921875,-0.89825439453125,0.11432284861803055,1.1858707666397095,-0.06982115656137466
0.05108642578125,-0.28045654296875,-0.91241455078125,0.36738839745521545,1.1445715427398682,0.16991020739078522
0.0960540771484375,-0.296600341796875,-0.94195556640625,0.6343654990196228,1.125686764717102,0.32117295265197754
0.107086181640625,-0.3879547119140625,-0.966796875,0.8710808157920837,0.9654012322425842,0.47688984870910645
0.130645751953125,-0.3793792724609375,-0.9764556884765625,1.052263617515564,0.6659260988235474,0.6284943222999573
0.1388397216796875,-0.3254241943359375,-0.9737396240234375,1.1576372385025024,0.4883315861225128,0.6698819398880005
0.1139068603515625,-0.320404052734375,-1.003753662109375,1.1633946895599365,0.8647720813751221,0.5117072463035583
0.1006622314453125,-0.3307342529296875,-0.9915618896484375,1.0616928339004517,1.5448172092437744,0.1471172720193863
0.0264129638671875,-0.365020751953125,-0.9209747314453125,0.8058150410652161,1.9907217025756836,-0.2623498737812042
-0.060577392578125,-0.407501220703125,-0.831817626953125,0.4414794147014618,2.0463714599609375,-0.5900576710700989
-0.0673675537109375,-0.4227752685546875,-0.762420654296875,0.10701753199100494,2.0857996940612793,-0.8653872609138489
-0.00115966796875,-0.4252166748046875,-0.7400054931640625,-0.09787915647029877,2.3236114978790283,-1.0189586877822876
0.1074676513671875,-0.421356201171875,-0.7593841552734375,-0.20449082553386688,2.6127474308013916,-0.9718015789985657
0.2465667724609375,-0.4045257568359375,-0.794036865234375,-0.2394229769706726,2.7720541954040527,-0.7961810231208801
0.3835906982421875,-0.3855133056640625,-0.832672119140625,0.01996864750981331,1.7655255794525146,-0.6176565885543823
0.4599151611328125,-0.3765716552734375,-0.758544921875,0.5206525325775146,-0.3030749261379242,-0.5369028449058533
0.49224853515625,-0.4536895751953125,-0.4840240478515625,0.4837895631790161,-1.2325146198272705,-0.15753796696662903
0.506591796875,-0.2968292236328125,-0.5261077880859375,0.09227373450994492,-1.0949219465255737,0.2948622703552246
0.41943359375,-0.2389068603515625,-0.7201385498046875,-0.11736097931861877,-0.6453022956848145,0.26777124404907227
0.2608489990234375,-0.38372802734375,-0.9210205078125,-0.1506965607404709,-0.03518195450305939,-0.10798079520463943
0.115509033203125,-0.4732208251953125,-1.0435638427734375,-0.2167845070362091,0.5663659572601318,-0.5107892155647278
0.0203704833984375,-0.4527130126953125,-1.049468994140625,-0.30399611592292786,0.8030210733413696,-0.8230893611907959
0.042022705078125,-0.411468505859375,-0.9585723876953125,-0.3495931625366211,0.5394570827484131,-0.9264048337936401
0.1772918701171875,-0.3927001953125,-0.828948974609375,-0.38958290219306946,-0.065117746591568,-0.854548990726471
0.289031982421875,-0.397430419921875,-0.720947265625,-0.4509349465370178,-0.8624681830406189,-0.7505269646644592
0.382080078125,-0.3915863037109375,-0.6719970703125,-0.5413170456886292,-1.6258292198181152,-0.6124777793884277
0.4374542236328125,-0.3831787109375,-0.6876983642578125,-0.6023241877555847,-2.2196719646453857,-0.42224153876304626
0.4428253173828125,-0.383453369140625,-0.7576904296875,-0.5953613519668579,-2.589836597442627,-0.23370251059532166
0.4101409912109375,-0.3695526123046875,-0.83758544921875,-0.5342580676078796,-2.792731285095215,-0.09569776058197021
0.344085693359375,-0.3553466796875,-0.8936920166015625,-0.4643743336200714,-2.833376169204712,-0.057262491434812546
0.2679290771484375,-0.36126708984375,-0.92071533203125,-0.44491860270500183,-2.667344093322754,-0.15726685523986816
0.1971588134765625,-0.381317138671875,-0.9430389404296875,-0.4422599673271179,-1.7479904890060425,-0.30020588636398315
0.187652587890625,-0.377105712890625,-1.097900390625,-0.33338409662246704,-1.182559609413147,-0.4582727551460266
0.024444580078125,-0.4229888916015625,-1.030548095703125,-0.20508363842964172,-0.5321837663650513,-0.5648511648178101
-0.0225677490234375,-0.4201202392578125,-1.020782470703125,-0.16309837996959686,-0.08353190869092941,-0.3796682357788086
-0.016754150390625,-0.36627197265625,-0.989105224609375,-0.2555646598339081,-0.16874854266643524,-0.1792224794626236
-0.0222320556640625,-0.3137054443359375,-0.9208526611328125,-0.46242064237594604,-0.6409696340560913,0.011860121041536331
0.0112152099609375,-0.2917938232421875,-0.855712890625,-0.6455835103988647,-1.1637462377548218,0.1270114779472351
0.038482666015625,-0.3074188232421875,-0.848846435546875,-0.6858593225479126,-1.5231515169143677,0.17842353880405426
0.0424346923828125,-0.3430633544921875,-0.9022674560546875,-0.6072659492492676,-1.6402150392532349,0.17830289900302887
0.0337982177734375,-0.3691558837890625,-0.9741668701171875,-0.4725821912288666,-1.5699782371520996,0.10771287977695465
0.0162353515625,-0.357086181640625,-1.024017333984375,-0.33068257570266724,-1.376127004623413,-0.014083328656852245
-0.018341064453125,-0.3297576904296875,-1.04425048828125,-0.22067591547966003,-1.0673071146011353,-0.1438858062028885
-0.04925537109375,-0.2984619140625,-1.041351318359375,-0.1298631876707077,-0.697934627532959,-0.23762613534927368
-0.0648651123046875,-0.27716064453125,-1.024749755859375,-0.04728469252586365,-0.3465896546840668,-0.27662014961242676
-0.0631561279296875,-0.2674102783203125,-1.0069427490234375,0.03183089941740036,-0.07099081575870514,-0.2565271258354187
-0.056243896484375,-0.2749176025390625,-0.9993896484375,0.10874965041875839,0.09813908487558365,-0.19332684576511383
-0.049041748046875,-0.298095703125,-0.9982147216796875,0.17108279466629028,0.14026843011379242,-0.10283742845058441
-0.0423736572265625,-0.3298797607421875,-0.9998016357421875,0.20900008082389832,0.06825309246778488,-0.00920335203409195
-0.030853271484375,-0.361297607421875,-0.9930267333984375,0.22480301558971405,-0.04367264732718468,0.06327058374881744
-0.0225067138671875,-0.384521484375,-0.9685211181640625,0.22745846211910248,-0.12777553498744965,0.09810366481542587
-0.0304107666015625,-0.3921051025390625,-0.9343414306640625,0.21522682905197144,-0.13226988911628723,0.10696027427911758
-0.043121337890625,-0.388336181640625,-0.90667724609375,0.17848877608776093,-0.026569025591015816,0.09323886781930923
-0.0589447021484375,-0.387237548828125,-0.8853607177734375,0.09431984275579453,0.15867166221141815,0.08339688926935196
-0.072418212890625,-0.38818359375,-0.8645477294921875,-0.028544027358293533,0.3461472988128662,0.0714464858174324
-0.0784454345703125,-0.3955841064453125,-0.8465423583984375,-0.16991978883743286,0.45622584223747253,0.04051253944635391
-0.0741729736328125,-0.4115142822265625,-0.8372650146484375,-0.2901058495044708,0.45604556798934937,0.015254054218530655
-0.05584716796875,-0.4212188720703125,-0.8433837890625,-0.365885853767395,0.40764448046684265,-0.0028546424582600594
-0.0352630615234375,-0.4209442138671875,-0.855438232421875,-0.40922051668167114,0.3541466295719147,0.0035657063126564026
-0.02191162109375,-0.412841796875,-0.8700408935546875,-0.4127231240272522,0.3034600019454956,0.01787780039012432
-0.0148468017578125,-0.4096832275390625,-0.8967742919921875,-0.41060671210289,0.26662930846214294,0.0019052254501730204
-0.01568603515625,-0.4144439697265625,-0.915771484375,-0.4066963791847229,0.27716264128685,-0.02827451564371586
-0.0205078125,-0.4168853759765625,-0.9206695556640625,-0.3158719539642334,0.584732711315155,-0.06340374052524567
-0.016571044921875,-0.4024505615234375,-0.9051361083984375,-0.14027854800224304,0.8916431069374084,-0.08462034165859222
0.000213623046875,-0.402252197265625,-0.90087890625,-0.007158843334764242,0.740217387676239,-0.08531942218542099
0.0478515625,-0.3874359130859375,-0.9248809814453125,0.06560004502534866,0.285759299993515,-0.03289563208818436
0.0705718994140625,-0.3633575439453125,-0.9271240234375,0.12573742866516113,-0.10569074004888535,0.06579259783029556
0.0829315185546875,-0.3524017333984375,-0.928375244140625,0.19899912178516388,-0.2156286984682083,0.1469990313053131
0.0777435302734375,-0.3593597412109375,-0.94537353515625,0.23913002014160156,-0.1731342375278473,0.189874067902565
0.04132080078125,-0.364898681640625,-0.954437255859375,0.19468559324741364,-0.11095794290304184,0.1881331503391266
0.011199951171875,-0.3844451904296875,-0.9539031982421875,0.0863942801952362,-0.00586614478379488,0.15022119879722595
-0.003631591796875,-0.4142303466796875,-0.936370849609375,-0.022697055712342262,0.19623501598834991,0.09764932841062546
-0.00341796875,-0.4257049560546875,-0.9091339111328125,-0.08353271335363388,0.38302433490753174,0.0593448169529438
0.0171051025390625,-0.4223785400390625,-0.88970947265625,-0.1083563044667244,0.37585777044296265,0.03623709827661514
0.0479278564453125,-0.4189910888671875,-0.8920745849609375,-0.11329140514135361,0.18109574913978577,0.02484782598912716
0.0700836181640625,-0.4255218505859375,-0.9076080322265625,-0.12873613834381104,-0.044671330600976944,0.041917622089385986
0.0777435302734375,-0.4324493408203125,-0.9250335693359375,-0.13301263749599457,-0.1675889939069748,0.09221088886260986
0.078521728515625,-0.424102783203125,-0.94293212890625,-0.12880165874958038,-0.18162626028060913,0.15612807869911194
0.064971923828125,-0.412811279296875,-0.9692230224609375,-0.1080484390258789,-0.11542912572622299,0.20227055251598358
0.0454254150390625,-0.404296875,-0.9963531494140625,-0.07690809667110443,-0.0012809804175049067,0.25450578331947327
0.02935791015625,-0.401458740234375,-1.0120849609375,-0.019169433042407036,0.11293108016252518,0.26421940326690674
0.020721435546875,-0.4066925048828125,-1.0176544189453125,0.05583663284778595,0.2131013572216034,0.24189704656600952
0.011566162109375,-0.417144775390625,-1.01971435546875,0.13907933235168457,0.2877050042152405,0.20879076421260834
0.013671875,-0.429534912109375,-1.0188140869140625,0.2249971628189087,0.3368733525276184,0.19255666434764862
0.0331878662109375,-0.44061279296875,-1.0145416259765625,0.30029672384262085,0.3646456003189087,0.19806835055351257
0.047271728515625,-0.4394989013671875,-0.993865966796875,0.33669865131378174,0.35034656524658203,0.2061542272567749
0.059356689453125,-0.432861328125,-0.963409423828125,0.33641502261161804,0.26783090829849243,0.21566304564476013
0.0769195556640625,-0.43402099609375,-0.93939208984375,0.30072149634361267,0.16227439045906067,0.22356544435024261
0.0877685546875,-0.4409942626953125,-0.925079345703125,0.24261051416397095,0.07215754687786102,0.22621369361877441
0.0922393798828125,-0.4482879638671875,-0.9264373779296875,0.19441822171211243,-0.018340392038226128,0.23770096898078918
0.0927581787109375,-0.4530181884765625,-0.9543609619140625,0.18908576667308807,-0.07987885177135468,0.24715758860111237
0.085906982421875,-0.4515838623046875,-1.005157470703125,0.22882598638534546,-0.06930450350046158,0.26192349195480347
0.07171630859375,-0.4354400634765625,-1.0491180419921875,0.30368319153785706,0.02257162146270275,0.2436842918395996
0.0620880126953125,-0.4087371826171875,-1.06646728515625,0.3823170065879822,0.1422135978937149,0.20699766278266907
0.0693817138671875,-0.37542724609375,-1.058135986328125,0.43723273277282715,0.2641914486885071,0.16255483031272888
0.084686279296875,-0.3445587158203125,-1.0349578857421875,0.4362502694129944,0.3635462522506714,0.09021192044019699
0.1009368896484375,-0.323211669921875,-1.0052032470703125,0.37336933612823486,0.3776274621486664,0.02028423175215721
0.1219635009765625,-0.316131591796875,-0.986785888671875,0.2633480131626129,0.27706143260002136,0.00458729499951005
0.1546173095703125,-0.3180389404296875,-0.980133056640625,0.12203536182641983,0.1277473121881485,0.041478998959064484
0.183380126953125,-0.322906494140625,-0.9773406982421875,0.0010974886827170849,0.016700683161616325,0.10430536419153214
0.193084716796875,-0.320404052734375,-0.9875946044921875,-0.05516977980732918,-0.02455620840191841,0.18066644668579102
0.1838531494140625,-0.300537109375,-1.0122528076171875,-0.03519154340028763,-0.017039170488715172,0.26489078998565674
0.1715545654296875,-0.2704925537109375,-1.0341033935546875,0.05950993299484253,0.04007924348115921,0.36073529720306396
0.1712188720703125,-0.24578857421875,-1.0444793701171875,0.18904316425323486,0.13284087181091309,0.4549084007740021
0.174530029296875,-0.239105224609375,-1.04345703125,0.31197601556777954,0.30700069665908813,0.4942818880081177
0.16925048828125,-0.2446136474609375,-1.0302276611328125,0.39963340759277344,0.5080280900001526,0.48439252376556396
0.1530609130859375,-0.249176025390625,-0.9947662353515625,0.4559986889362335,0.6652328968048096,0.4338153600692749
0.1478729248046875,-0.2603607177734375,-0.9560394287109375,0.4670713245868683,0.7359320521354675,0.3693207800388336
0.1558837890625,-0.2800140380859375,-0.9200592041015625,0.4554080069065094,0.688292384147644,0.33193185925483704
0.17596435546875,-0.2946624755859375,-0.886077880859375,0.4273580014705658,0.5345422625541687,0.31430867314338684
0.195159912109375,-0.3026123046875,-0.8568572998046875,0.38811391592025757,0.34568148851394653,0.2946705222129822
0.2025604248046875,-0.30908203125,-0.8438873291015625,0.35160624980926514,0.22635431587696075,0.27301210165023804
0.2030487060546875,-0.317169189453125,-0.85198974609375,0.34837794303894043,0.18649718165397644,0.2694881856441498
0.203094482421875,-0.308135986328125,-0.868896484375,0.38185974955558777,0.19246399402618408,0.30858367681503296
0.213165283203125,-0.279449462890625,-0.884429931640625,0.4334012269973755,0.23226812481880188,0.374665230512619
0.2155914306640625,-0.2522430419921875,-0.9018707275390625,0.4491567611694336,0.3050440549850464,0.39313796162605286
0.2024383544921875,-0.2608795166015625,-0.910247802734375,0.40125608444213867,0.40706735849380493,0.3172115087509155
0.179046630859375,-0.3063507080078125,-0.9139556884765625,0.30267518758773804,0.49809420108795166,0.19697032868862152
0.1626129150390625,-0.3474273681640625,-0.9013519287109375,0.19348371028900146,0.5464761257171631,0.08354469388723373
0.1631011962890625,-0.3628692626953125,-0.8751983642578125,0.09708580374717712,0.5839822292327881,0.00478463526815176
0.170074462890625,-0.35748291015625,-0.844879150390625,0.020905548706650734,0.6214832663536072,-0.04119936749339104
0.1805572509765625,-0.3472900390625,-0.8297271728515625,-0.026515230536460876,0.6438884139060974,-0.05522783473134041
0.1945343017578125,-0.3430328369140625,-0.8428955078125,-0.061358433216810226,0.672308623790741,-0.024349814280867577
0.1968841552734375,-0.325164794921875,-0.8454132080078125,-0.08553434163331985,0.7331700921058655,0.06043032184243202
0.1990509033203125,-0.2923431396484375,-0.8111114501953125,0.008953015320003033,0.7106174230575562,0.13450615108013153
0.2299346923828125,-0.2928619384765625,-0.7350616455078125,0.13114283978939056,0.4884197413921356,0.12303031980991364
0.2839813232421875,-0.35260009765625,-0.7027130126953125,0.1416412889957428,0.0695234164595604,0.06393051147460938
0.30224609375,-0.378692626953125,-0.75701904296875,0.051898885518312454,-0.2481970191001892,0.06668262183666229
0.284423828125,-0.39508056640625,-0.81976318359375,-0.052873335778713226,-0.21619728207588196,0.11550848931074142
0.2524261474609375,-0.39312744140625,-0.8531951904296875,-0.14404931664466858,0.008104265667498112,0.08879777789115906
0.1905517578125,-0.3927154541015625,-0.862152099609375,-0.22555643320083618,0.11090441048145294,-0.032574720680713654
0.146759033203125,-0.3932342529296875,-0.8493804931640625,-0.2878211438655853,0.06109477952122688,-0.14966033399105072
0.1470184326171875,-0.37969970703125,-0.8311614990234375,-0.3303523361682892,-0.004426972474902868,-0.2029043734073639
0.19146728515625,-0.3742828369140625,-0.8101806640625,-0.3767384886741638,-0.09850180894136429,-0.20232486724853516
0.2528533935546875,-0.375732421875,-0.796661376953125,-0.44486933946609497,-0.24337297677993774,-0.1816512942314148
0.277374267578125,-0.3787841796875,-0.81451416015625,-0.5080954432487488,-0.3938916325569153,-0.1328808218240738
0.2787933349609375,-0.397064208984375,-0.86334228515625,-0.514654278755188,-0.49340224266052246,-0.07762075960636139
0.2646331787109375,-0.416259765625,-0.92877197265625,-0.4386785626411438,-0.5480159521102905,-0.020891966298222542
0.2380828857421875,-0.4308929443359375,-0.9926300048828125,-0.2907061278820038,-0.5691161751747131,0.054059505462646484
0.20928955078125,-0.4337005615234375,-1.021728515625,-0.1147172600030899,-0.5388048887252808,0.0282279085367918
0.17401123046875,-0.4196929931640625,-1.0135955810546875,0.05218837037682533,-0.47784778475761414,-0.03955113887786865
0.152130126953125,-0.4050140380859375,-0.98895263671875,0.17816734313964844,-0.43465691804885864,-0.1330355554819107
0.155426025390625,-0.3981475830078125,-0.9610443115234375,0.25025856494903564,-0.4339309334754944,-0.17940624058246613
0.17486572265625,-0.3836212158203125,-0.9306182861328125,0.2625453472137451,-0.4490166902542114,-0.14289243519306183
0.1953887939453125,-0.35546875,-0.8915252685546875,0.19970086216926575,-0.40985196828842163,-0.043835099786520004
0.2062530517578125,-0.3434906005859375,-0.861419677734375,0.06983260810375214,-0.3164716958999634,0.06420641392469406
0.1974945068359375,-0.3604888916015625,-0.8571929931640625,-0.0965648889541626,-0.198075532913208,0.1307404339313507
0.170440673828125,-0.399322509765625,-0.8702392578125,-0.2393694370985031,-0.08219846338033676,0.1452046036720276
0.1427001953125,-0.4398956298828125,-0.8954010009765625,-0.31521227955818176,-0.017369136214256287,0.1043248102068901
0.123321533203125,-0.4647216796875,-0.91827392578125,-0.2980010509490967,-0.02900954708456993,0.027652932330965996
0.1254119873046875,-0.4730072021484375,-0.932159423828125,-0.22323548793792725,-0.07648678123950958,-0.04327902942895889
0.14862060546875,-0.4678192138671875,-0.927886962890625,-0.13187094032764435,-0.123451367020607,-0.08529812097549438
0.170867919921875,-0.44940185546875,-0.914093017578125,-0.06703362613916397,-0.1621313840150833,-0.08666911721229553
0.1847076416015625,-0.42449951171875,-0.897857666015625,-0.03293158486485481,-0.17940224707126617,-0.06276032328605652
0.18798828125,-0.4054412841796875,-0.879730224609375,-0.01531663816422224,-0.19827473163604736,-0.036313533782958984
0.181121826171875,-0.3999786376953125,-0.866607666015625,-0.006187588442116976,-0.19395749270915985,-0.020853616297245026
0.1603546142578125,-0.4062652587890625,-0.857421875,-0.004349741153419018,-0.1528390794992447,-0.03363359346985817
0.1359710693359375,-0.4314727783203125,-0.85601806640625,-0.0006556702428497374,-0.10269574820995331,-0.06950690597295761
0.1231689453125,-0.462799072265625,-0.864990234375,0.008535430766642094,-0.08214733004570007,-0.1261928230524063
0.119415283203125,-0.48907470703125,-0.8822174072265625,0.017680993303656578,-0.09406684339046478,-0.1846500039100647
0.131866455078125,-0.4994354248046875,-0.899200439453125,0.030965639278292656,-0.13225337862968445,-0.2374010980129242
0.1549835205078125,-0.488433837890625,-0.9107208251953125,0.042390868067741394,-0.13262595236301422,-0.2850434482097626
0.1715850830078125,-0.461517333984375,-0.9076995849609375,0.039328232407569885,-0.061232198029756546,-0.31234192848205566
0.18206787109375,-0.4345245361328125,-0.8936767578125,0.025082716718316078,0.019811255857348442,-0.3046315312385559
0.1956634521484375,-0.4229278564453125,-0.8827972412109375,0.011040933430194855,0.020555607974529266,-0.2542615830898285
0.2126312255859375,-0.42315673828125,-0.8789825439453125,0.006734335329383612,-0.06455076485872269,-0.17593242228031158
0.2257537841796875,-0.4308929443359375,-0.874176025390625,0.011769840493798256,-0.16791975498199463,-0.11221948266029358
0.225677490234375,-0.442138671875,-0.8748626708984375,0.009856891818344593,-0.22797511518001556,-0.07715657353401184
0.203277587890625,-0.444122314453125,-0.8699493408203125,-0.006132194772362709,-0.22455641627311707,-0.07474321126937866
0.1816558837890625,-0.4472808837890625,-0.8692779541015625,-0.04849855974316597,-0.19508853554725647,-0.08875144273042679
0.1644287109375,-0.4548187255859375,-0.889007568359375,-0.09651269018650055,-0.13879889249801636,-0.1014414057135582
0.1501922607421875,-0.4695281982421875,-0.9232025146484375,-0.12513448297977448,-0.06377791613340378,-0.11775220185518265
0.1319122314453125,-0.4749755859375,-0.9509429931640625,-0.11953625082969666,0.008129831403493881,-0.14371243119239807
0.1323089599609375,-0.4719696044921875,-0.9639739990234375,-0.07052610069513321,0.042381543666124344,-0.18587613105773926
0.1464996337890625,-0.466644287109375,-0.973236083984375,0.0013374395202845335,0.08811334520578384,-0.22986115515232086
0.1585845947265625,-0.4548187255859375,-0.96563720703125,0.06465595960617065,0.14636413753032684,-0.2650146186351776
0.1684722900390625,-0.44073486328125,-0.946624755859375,0.09985815733671188,0.18569929897785187,-0.27387574315071106
0.178863525390625,-0.430999755859375,-0.9337005615234375,0.11030174046754837,0.16495300829410553,-0.23791375756263733
0.1920318603515625,-0.426483154296875,-0.9266357421875,0.1035199984908104,0.08521449565887451,-0.15874943137168884
0.2071380615234375,-0.418121337890625,-0.9228515625,0.08322884142398834,-0.0008325041271746159,-0.06551030278205872
0.20703125,-0.411773681640625,-0.9235992431640625,0.06113472580909729,-0.047389086335897446,-0.010055829770863056
0.190582275390625,-0.415069580078125,-0.9355621337890625,0.03333505243062973,0.00618279492482543,-0.008418784476816654
0.165924072265625,-0.430877685546875,-0.9488677978515625,-0.0041705104522407055,0.11940629035234451,-0.05682653188705444
0.148284912109375,-0.4514617919921875,-0.9573974609375,-0.043663591146469116,0.21857121586799622,-0.12929007411003113
0.1336669921875,-0.46331787109375,-0.9548492431640625,-0.07702741026878357,0.29049602150917053,-0.2027091681957245
0.130218505859375,-0.4506378173828125,-0.9378204345703125,-0.09631774574518204,0.30852535367012024,-0.2624475955963135
0.1386566162109375,-0.4216156005859375,-0.914764404296875,-0.11724700033664703,0.2800889015197754,-0.2867811620235443
0.1479339599609375,-0.390869140625,-0.9005584716796875,-0.14106205105781555,0.21902716159820557,-0.26314854621887207
0.1661834716796875,-0.36248779296875,-0.8944091796875,-0.18194183707237244,0.20206281542778015,-0.21412719786167145
0.17852783203125,-0.351776123046875,-0.9045562744140625,-0.23349903523921967,0.26134636998176575,-0.155802384018898
0.179290771484375,-0.34783935546875,-0.926849365234375,-0.29514244198799133,0.3650738298892975,-0.12974974513053894
0.175689697265625,-0.3474884033203125,-0.9482879638671875,-0.3356648087501526,0.43415144085884094,-0.09920754283666611
0.185211181640625,-0.3432159423828125,-0.9614105224609375,-0.20691190659999847,0.2899862825870514,-0.04416719451546669
0.20697021484375,-0.34014892578125,-0.92510986328125,0.027453994378447533,-0.07851424813270569,-0.046600259840488434
0.2548675537109375,-0.4040374755859375,-0.8532562255859375,0.17182821035385132,-0.5310300588607788,-0.08888113498687744
0.276580810546875,-0.4035491943359375,-0.8703155517578125,0.22491221129894257,-0.8570611476898193,-0.05892030894756317
0.214813232421875,-0.3740997314453125,-0.919647216796875,0.2856125831604004,-0.8173784613609314,-0.015277223661541939
0.166259765625,-0.3612518310546875,-0.988037109375,0.3524762988090515,-0.5919466614723206,-0.06723096966743469
0.11297607421875,-0.363189697265625,-1.0185546875,0.4033682346343994,-0.44493353366851807,-0.17184846103191376
0.1016693115234375,-0.3685455322265625,-0.9886474609375,0.41761428117752075,-0.4458818733692169,-0.23752707242965698
0.137664794921875,-0.3553619384765625,-0.9334869384765625,0.36795350909233093,-0.5765602588653564,-0.22291137278079987
0.18536376953125,-0.3349151611328125,-0.880279541015625,0.26093733310699463,-0.7145085334777832,-0.1587158739566803
0.1953277587890625,-0.3184814453125,-0.8589630126953125,0.12364364415407181,-0.7603567242622375,-0.09026065468788147
0.168731689453125,-0.31500244140625,-0.866943359375,0.0035217641852796078,-0.7141125202178955,-0.049616288393735886
0.129486083984375,-0.32183837890625,-0.9002685546875,-0.06686878204345703,-0.5831885933876038,-0.044674262404441833
0.0892486572265625,-0.335479736328125,-0.9506683349609375,-0.08883053809404373,-0.4051187336444855,-0.12432354688644409
0.0668792724609375,-0.3477020263671875,-0.9954986572265625,-0.05403793603181839,-0.23792627453804016,-0.03886111080646515
0.056793212890625,-0.343780517578125,-1.01837158203125,0.02660417929291725,-0.1767369508743286,0.015475362539291382
0.05072021484375,-0.3132476806640625,-1.0081787109375,0.12734836339950562,-0.22286024689674377,0.07913663238286972
0.0446014404296875,-0.289947509765625,-0.9818878173828125,0.22523684799671173,-0.3214259743690491,0.11778681725263596
0.0345611572265625,-0.2957000732421875,-0.9569091796875,0.3065093457698822,-0.42501121759414673,0.11218512803316116
0.023681640625,-0.3237762451171875,-0.94024658203125,0.3581078052520752,-0.5236483216285706,0.06950743496417999
0.0201873779296875,-0.3478240966796875,-0.929168701171875,0.36529114842414856,-0.6233320236206055,0.013485448434948921
0.01666259765625,-0.3589630126953125,-0.9214324951171875,0.33597615361213684,-0.7079268097877502,-0.029519809409976006
0.006744384765625,-0.36236572265625,-0.91668701171875,0.2858019173145294,-0.742685854434967,-0.061839133501052856
-0.0085296630859375,-0.3599090576171875,-0.91375732421875,0.2328505516052246,-0.7079145312309265,-0.09120074659585953
-0.0242767333984375,-0.3480072021484375,-0.909637451171875,0.16974535584449768,-0.6434040069580078,-0.13569392263889313
-0.04510498046875,-0.3360595703125,-0.9088287353515625,0.09576673805713654,-0.5714755058288574,-0.18786203861236572
-0.058013916015625,-0.3375244140625,-0.9195404052734375,0.02738501876592636,-0.5114896297454834,-0.24434342980384827
-0.055419921875,-0.3555755615234375,-0.94305419921875,-0.03749624267220497,-0.49254417419433594,-0.2870093882083893
-0.0492095947265625,-0.36572265625,-0.952972412109375,-0.07918776571750641,-0.5169017314910889,-0.3092518448829651
-0.0445098876953125,-0.3613128662109375,-0.9554901123046875,-0.11430713534355164,-0.5386650562286377,-0.31439176201820374
-0.0421905517578125,-0.3435211181640625,-0.9481353759765625,-0.15226224064826965,-0.5546978116035461,-0.2937259078025818
-0.0328826904296875,-0.3354034423828125,-0.9421539306640625,-0.19067513942718506,-0.5921557545661926,-0.2750059962272644
-0.035552978515625,-0.3321685791015625,-0.9347991943359375,-0.20481014251708984,-0.6354078650474548,-0.2526644766330719
-0.046356201171875,-0.320587158203125,-0.9202880859375,-0.18937978148460388,-0.6591693758964539,-0.2416246086359024
-0.0577239990234375,-0.302093505859375,-0.893951416015625,-0.14478302001953125,-0.6480658650398254,-0.24848411977291107
-0.0724639892578125,-0.28369140625,-0.8690032958984375,-0.09662693738937378,-0.5795957446098328,-0.2602808475494385
-0.090606689453125,-0.275146484375,-0.865264892578125,-0.06394622474908829,-0.44749921560287476,-0.2494921237230301
-0.1046295166015625,-0.28363037109375,-0.8781280517578125,-0.060444969683885574,-0.27598658204078674,-0.203327015042305
-0.116058349609375,-0.30633544921875,-0.9020538330078125,-0.09686262905597687,-0.09856758266687393,-0.12034878134727478
-0.12091064453125,-0.3383941650390625,-0.9259033203125,-0.17537954449653625,0.050636012107133865,-0.04453657567501068
-0.1153564453125,-0.3705902099609375,-0.934326171875,-0.2800156772136688,0.12607485055923462,0.006105296779423952
-0.100494384765625,-0.394989013671875,-0.935546875,-0.37035542726516724,0.13695572316646576,0.023304523900151253
-0.0876007080078125,-0.4024810791015625,-0.926239013671875,-0.43118414282798767,0.1262010782957077,0.026158899068832397
-0.0730133056640625,-0.39642333984375,-0.913330078125,-0.4477953612804413,0.08455616235733032,0.03719130903482437
-0.0546875,-0.383148193359375,-0.9117584228515625,-0.41752105951309204,-0.0008410262526012957,0.05505872517824173
-0.04425048828125,-0.3719940185546875,-0.920806884765625,-0.3579504191875458,-0.11514309793710709,0.08720654249191284
-0.0401458740234375,-0.3650054931640625,-0.926910400390625,-0.28752872347831726,-0.18518689274787903,0.11786298453807831
-0.041046142578125,-0.360015869140625,-0.9300689697265625,-0.2297077625989914,-0.20025266706943512,0.14650900661945343
-0.051788330078125,-0.3581390380859375,-0.93359375,-0.1807173192501068,-0.16466937959194183,0.1704697459936142
-0.064605712890625,-0.3581390380859375,-0.9423675537109375,-0.15060202777385712,-0.09139729291200638,0.18857364356517792
-0.075103759765625,-0.3660125732421875,-0.9546051025390625,-0.11738814413547516,-0.001981658162549138,0.19255372881889343
-0.085296630859375,-0.3795928955078125,-0.965576171875,-0.1005585640668869,0.0907895565032959,0.16850300133228302
-0.08984375,-0.3959808349609375,-0.9718475341796875,-0.08670773357152939,0.17723843455314636,0.11904090642929077
-0.0889892578125,-0.409332275390625,-0.96783447265625,-0.07978644222021103,0.22564804553985596,0.0715402290225029
-0.0919036865234375,-0.409027099609375,-0.954925537109375,-0.07359912246465683,0.24183820188045502,0.048112135380506516
-0.08624267578125,-0.3951263427734375,-0.9353790283203125,-0.0830320343375206,0.23912043869495392,0.04471287503838539
-0.074127197265625,-0.3796539306640625,-0.9164276123046875,-0.10308030992746353,0.19347704946994781,0.058163970708847046
-0.063629150390625,-0.3687591552734375,-0.909881591796875,-0.12899179756641388,0.13146135210990906,0.08935198187828064
-0.0515899658203125,-0.3690338134765625,-0.9097442626953125,-0.14288444817066193,0.09279251843690872,0.13612321019172668
-0.04486083984375,-0.3773956298828125,-0.9084625244140625,-0.14696867763996124,0.08873945474624634,0.17568980157375336
-0.0442352294921875,-0.3839874267578125,-0.908782958984375,-0.12931644916534424,0.15210510790348053,0.18807749450206757
-0.0520782470703125,-0.3892974853515625,-0.914093017578125,-0.03598916158080101,0.38893923163414,0.17219972610473633
-0.06512451171875,-0.3951568603515625,-0.9280548095703125,0.14919880032539368,0.660348117351532,0.13716717064380646
-0.066314697265625,-0.391387939453125,-0.9568023681640625,0.375639945268631,0.7722653150558472,0.11389514058828354
-0.053375244140625,-0.3860626220703125,-0.9833221435546875,0.5562089085578918,0.638308048248291,0.09722455590963364
-0.0495758056640625,-0.3789825439453125,-0.9757843017578125,0.6349601745605469,0.37218740582466125,0.08981137722730637
-0.039459228515625,-0.3831939697265625,-0.9256439208984375,0.6080800890922546,0.11914876103401184,0.0904071256518364
-0.0249786376953125,-0.40899658203125,-0.8671722412109375,0.4845632314682007,-0.09914815425872803,0.09070726484060287
-0.0157318115234375,-0.433502197265625,-0.8305511474609375,0.2894216775894165,-0.2677518129348755,0.08393404632806778
-0.0235443115234375,-0.438720703125,-0.816619873046875,0.06273315846920013,-0.34043827652931213,0.08667231351137161
-0.03265380859375,-0.4398651123046875,-0.816009521484375,-0.15999552607536316,-0.28737133741378784,0.09639125317335129
-0.0390777587890625,-0.4328765869140625,-0.800201416015625,-0.3245146870613098,-0.04398956149816513,0.11306450515985489
-0.043304443359375,-0.4207000732421875,-0.7820892333984375,-0.4092671275138855,0.21803513169288635,0.12767061591148376
-0.0313262939453125,-0.4129638671875,-0.7847900390625,-0.4293513596057892,0.3243730068206787,0.10112129151821136
-0.0299072265625,-0.4234466552734375,-0.826324462890625,-0.4226950705051422,0.2575540542602539,0.043663591146469116
-0.05316162109375,-0.4515380859375,-0.8854217529296875,-0.41767367720603943,0.18538343906402588,0.012484366074204445
-0.05975341796875,-0.4748382568359375,-0.9325103759765625,-0.4023098945617676,0.18791797757148743,0.035405661910772324
-0.049346923828125,-0.484039306640625,-0.96014404296875,-0.3465912342071533,0.21162143349647522,0.08948647230863571
-0.0349273681640625,-0.4666900634765625,-0.9661865234375,-0.2738536596298218,0.20444421470165253,0.0686914473772049
-0.019012451171875,-0.4255523681640625,-0.95416259765625,-0.20728127658367157,0.20936201512813568,0.14163942635059357
-0.0231781005859375,-0.393310546875,-0.9403228759765625,-0.1727379560470581,0.30829712748527527,0.15164437890052795
-0.0333709716796875,-0.3816680908203125,-0.919677734375,-0.008475244045257568,0.7947053909301758,0.19918900728225708
-0.01861572265625,-0.3701629638671875,-0.8712005615234375,0.26050829887390137,1.246658444404602,0.2273961454629898
0.0066680908203125,-0.421539306640625,-0.8690185546875,0.5204753875732422,1.1467398405075073,0.14382055401802063
0.0264739990234375,-0.452301025390625,-0.921356201171875,0.6367793679237366,0.44859829545021057,0.1040334552526474
0.0048370361328125,-0.4434967041015625,-0.9187469482421875,0.6039356589317322,-0.22052225470542908,0.16087889671325684
0.0510406494140625,-0.4518585205078125,-0.870574951171875,0.494255006313324,-0.4824755787849426,0.2452358603477478
0.0641021728515625,-0.4992523193359375,-0.8691558837890625,0.3517572283744812,-0.5012325048446655,0.2803232669830322
0.0013275146484375,-0.488525390625,-0.8957672119140625,0.22498677670955658,-0.4009205102920532,0.27871179580688477
-0.047607421875,-0.4405670166015625,-0.9159393310546875,0.12993696331977844,-0.15651504695415497,0.3084009885787964
-0.0633544921875,-0.4287567138671875,-0.9056854248046875,0.07292294502258301,0.24468085169792175,0.3347702622413635
-0.059478759765625,-0.416046142578125,-0.849334716796875,0.02161101996898651,0.5704578757286072,0.2867974042892456
-0.0447845458984375,-0.399658203125,-0.8280487060546875,-0.036375317722558975,0.6197207570075989,0.20876333117485046
-0.0337371826171875,-0.4212493896484375,-0.8540496826171875,-0.11433988809585571,0.4932326078414917,0.13865961134433746
-0.0074310302734375,-0.465606689453125,-0.8860321044921875,-0.20096001029014587,0.3134399354457855,0.12844160199165344
0.033233642578125,-0.5098419189453125,-0.9239044189453125,-0.24262090027332306,0.12330755591392517,0.2185824066400528
0.060333251953125,-0.5399932861328125,-0.9665374755859375,-0.22799907624721527,0.028441494330763817,0.42458510398864746
0.0486907958984375,-0.540924072265625,-0.9906768798828125,-0.17334914207458496,0.06270838528871536,0.44763076305389404
0.00091552734375,-0.51470947265625,-0.99114990234375,-0.08406054973602295,0.22384241223335266,0.4811573028564453
-0.05255126953125,-0.4832916259765625,-0.975189208984375,0.017647171393036842,0.47582244873046875,0.491044282913208
-0.0731658935546875,-0.4474029541015625,-0.9415740966796875,0.12950153648853302,0.7159799337387085,0.4840412437915802
-0.0686798095703125,-0.419525146484375,-0.9129180908203125,0.24090582132339478,0.8887171149253845,0.44621238112449646
-0.059356689453125,-0.419921875,-0.9096832275390625,0.3587363064289093,0.9649636745452881,0.3833761513233185
-0.0374908447265625,-0.439178466796875,-0.9296112060546875,0.4761577546596527,0.9465987682342529,0.3139083981513977
-0.0061798095703125,-0.456756591796875,-0.949676513671875,0.5911714434623718,0.8456894755363464,0.24566249549388885
0.0161590576171875,-0.460540771484375,-0.9701385498046875,0.6666662096977234,0.7180902361869812,0.1574745774269104
0.0284423828125,-0.4510040283203125,-0.9727935791015625,0.6943625211715698,0.609085738658905,0.07690596580505371
0.0369415283203125,-0.43487548828125,-0.9583892822265625,0.6822483539581299,0.6121254563331604,0.06509724259376526
0.038360595703125,-0.4073486328125,-0.9354705810546875,0.6398377418518066,0.7577526569366455,0.14290815591812134
0.04205322265625,-0.3788604736328125,-0.912872314453125,0.5617823600769043,0.9569536447525024,0.20395100116729736
0.0280609130859375,-0.3926544189453125,-0.9050140380859375,0.4220103621482849,1.0700879096984863,0.32313305139541626
0.022369384765625,-0.3863372802734375,-0.901275634765625,0.22616761922836304,1.05906081199646,0.4660246968269348
0.049774169921875,-0.3740386962890625,-0.904998779296875,0.011777031235396862,1.0167698860168457,0.550066351890564
0.0749053955078125,-0.3798065185546875,-0.9270172119140625,-0.20959104597568512,1.083762764930725,0.5348919034004211
0.0938873291015625,-0.3904876708984375,-0.9375457763671875,-0.4250926971435547,1.2648651599884033,0.43348726630210876
0.134063720703125,-0.3891754150390625,-0.9426422119140625,-0.5739261507987976,1.5077084302902222,0.27793148159980774
0.185943603515625,-0.385833740234375,-0.948150634765625,-0.6056087017059326,1.7317754030227661,0.1667943149805069
0.2355804443359375,-0.3732757568359375,-0.9375152587890625,-0.5437754392623901,1.8022087812423706,0.15810894966125488
0.2456207275390625,-0.3582763671875,-0.92218017578125,-0.4348715543746948,1.6898266077041626,0.19973787665367126
0.24298095703125,-0.360382080078125,-0.9188995361328125,-0.30926063656806946,1.4635348320007324,0.25512444972991943
0.2606353759765625,-0.3686676025390625,-0.91802978515625,-0.16277161240577698,1.1904993057250977,0.3105200529098511
0.278472900390625,-0.376678466796875,-0.932037353515625,-0.0024644893128424883,0.9255126714706421,0.32747161388397217
0.3027801513671875,-0.3924560546875,-0.9610595703125,0.15267503261566162,0.7841936349868774,0.2979097068309784
0.318756103515625,-0.3942413330078125,-0.9828643798828125,0.24896560609340668,0.8014175891876221,0.23941472172737122
0.303436279296875,-0.3724212646484375,-0.9773406982421875,0.2500247657299042,0.9473966360092163,0.1871967911720276
0.2833404541015625,-0.338287353515625,-0.9538726806640625,0.1543155312538147,1.2082709074020386,0.16973817348480225
0.2739410400390625,-0.311676025390625,-0.9358367919921875,0.01474405825138092,1.5918864011764526,0.16157931089401245
0.28668212890625,-0.310394287109375,-0.9376983642578125,-0.09720591455698013,2.022706985473633,0.14926324784755707
0.31103515625,-0.3196563720703125,-0.947113037109375,-0.05732667073607445,1.9482146501541138,0.11305811256170273
0.3487396240234375,-0.3538970947265625,-0.8996734619140625,0.30178940296173096,0.21643750369548798,-0.10480604320764542
0.42218017578125,-0.497222900390625,-0.5923309326171875,0.27425578236579895,-0.6531280279159546,-0.044745102524757385
0.4928131103515625,-0.4338531494140625,-0.5423126220703125,-0.05145493522286415,-0.4576892554759979,0.3063095808029175
0.4578399658203125,-0.3078155517578125,-0.7154541015625,-0.15496721863746643,-0.11531221121549606,0.346990704536438
0.338623046875,-0.36029052734375,-0.8997955322265625,-0.091407410800457,0.229493647813797,0.06046946719288826
0.2544708251953125,-0.397430419921875,-1.0074005126953125,-0.03639529272913933,0.5985904335975647,-0.2122267782688141
0.27447509765625,-0.4068145751953125,-1.0409088134765625,0.02400999516248703,0.7983936071395874,-0.2930196225643158
0.404754638671875,-0.3763580322265625,-1.01275634765625,0.11154197156429291,0.729095995426178,-0.1971607357263565
0.5193634033203125,-0.313140869140625,-0.9327545166015625,0.14405997097492218,0.4004797637462616,-0.016703080385923386
0.55413818359375,-0.26617431640625,-0.8193359375,0.10529632866382599,-0.12460291385650635,0.17049796879291534
0.56292724609375,-0.2590789794921875,-0.7296600341796875,0.04577707499265671,-0.699572741985321,0.30386561155319214
0.5289154052734375,-0.302764892578125,-0.693206787109375,-0.01571664586663246,-1.2003929615020752,0.3234153389930725
0.45794677734375,-0.3556365966796875,-0.688873291015625,-0.07306808233261108,-1.5841193199157715,0.24289654195308685
0.386993408203125,-0.3946990966796875,-0.6998748779296875,-0.15768203139305115,-1.8235098123550415,0.10097508132457733
0.33917236328125,-0.4178619384765625,-0.7239837646484375,-0.27614662051200867,-1.8765604496002197,-0.032944366335868835
0.323760986328125,-0.425537109375,-0.7689971923828125,-0.403884619474411,-1.7834465503692627,-0.13678793609142303
0.31695556640625,-0.412689208984375,-0.824188232421875,-0.5219596028327942,-1.608760952949524,-0.22479715943336487
0.3027496337890625,-0.3802947998046875,-0.86895751953125,-0.6238329410552979,-1.396776795387268,-0.2255159467458725
0.280029296875,-0.349395751953125,-0.8853302001953125,-0.7238461375236511,-1.252872109413147,-0.35864338278770447
0.2672271728515625,-0.3305206298828125,-0.8843841552734375,-0.8462263345718384,-0.967656672000885,-0.3800589144229889
0.291412353515625,-0.3101348876953125,-0.9129486083984375,-0.9073877334594727,-0.7720498442649841,-0.3433525562286377
0.2926483154296875,-0.29974365234375,-0.9142608642578125,-0.9100261330604553,-0.9140677452087402,-0.3041796088218689
0.250152587890625,-0.2972564697265625,-0.87579345703125,-0.8516544103622437,-1.0972900390625,-0.2185424566268921
0.2554779052734375,-0.317779541015625,-0.8990631103515625,-0.7167237401008606,-1.1733613014221191,-0.09995269775390625
0.259033203125,-0.3328704833984375,-0.92828369140625,-0.5543308258056641,-1.231269121170044,0.009273126721382141
0.2187957763671875,-0.3102874755859375,-0.9633331298828125,-0.3868374526500702,-1.2660987377166748,0.08641424775123596
0.164794921875,-0.28564453125,-0.999267578125,-0.23430411517620087,-1.2250144481658936,0.10997363924980164
0.11285400390625,-0.26416015625,-1.01556396484375,-0.11794740706682205,-1.0791893005371094,0.07286062836647034
0.0674591064453125,-0.251800537109375,-1.00732421875,-0.035292744636535645,-0.878755509853363,-0.004081827122718096
0.041534423828125,-0.250579833984375,-0.9842681884765625,0.026673689484596252,-0.6901144981384277,-0.09043828397989273
0.0402679443359375,-0.253143310546875,-0.9653167724609375,0.0697828084230423,-0.5268566012382507,-0.12060897052288055
0.0543975830078125,-0.260223388671875,-0.9575653076171875,0.0986059382557869,-0.4012443721294403,-0.08251485228538513
0.08013916015625,-0.2707977294921875,-0.956329345703125,0.09940727800130844,-0.3275371193885803,-0.006357764359563589
0.09796142578125,-0.28662109375,-0.95751953125,0.06214539706707001,-0.3028256595134735,0.07000172138214111
0.0935821533203125,-0.3074951171875,-0.9522705078125,-0.009589776396751404,-0.28171104192733765,0.12554886937141418
0.0835723876953125,-0.3314056396484375,-0.9391021728515625,-0.0814884677529335,-0.2442619353532791,0.14739984273910522
0.0755615234375,-0.351226806640625,-0.9301300048828125,-0.14406315982341766,-0.19256119430065155,0.13805240392684937
0.06268310546875,-0.35992431640625,-0.921112060546875,-0.19129087030887604,-0.1253427416086197,0.10461588948965073
0.04901123046875,-0.363372802734375,-0.91619873046875,-0.22581209242343903,-0.06360694020986557,0.052266400307416916
0.040130615234375,-0.3668060302734375,-0.917724609375,-0.2435828298330307,-0.0012956279097124934,0.006875216495245695
0.031524658203125,-0.3675994873046875,-0.918182373046875,-0.23987597227096558,0.05050285533070564,-0.029137911275029182
0.0315093994140625,-0.367645263671875,-0.9180908203125,-0.21031515300273895,0.058158110827207565,-0.06595424562692642
0.0462493896484375,-0.37188720703125,-0.9285125732421875,-0.1583816558122635,0.0017907095607370138,-0.09479442238807678
0.0704803466796875,-0.373870849609375,-0.9404754638671875,-0.10829504579305649,-0.08201497793197632,-0.0985870286822319
0.0889129638671875,-0.3651275634765625,-0.9438934326171875,-0.06477074325084686,-0.1468230038881302,-0.08655886352062225
0.09759521484375,-0.3541717529296875,-0.9412841796875,-0.04423270747065544,-0.16904760897159576,-0.0788055956363678
0.085723876953125,-0.3452301025390625,-0.931671142578125,-0.06866668164730072,-0.129445880651474,-0.11706563830375671
0.0621337890625,-0.35211181640625,-0.92877197265625,-0.12762081623077393,-0.0666021928191185,-0.16746196150779724
0.039520263671875,-0.37115478515625,-0.934844970703125,-0.1952616423368454,0.022067485377192497,-0.19410103559494019
0.0347137451171875,-0.37982177734375,-0.922393798828125,-0.22114597260951996,0.211897611618042,-0.2048913687467575
0.0540313720703125,-0.367889404296875,-0.895111083984375,-0.16715890169143677,0.36367860436439514,-0.2117426097393036
0.0779876708984375,-0.3556671142578125,-0.8859710693359375,-0.13291464745998383,0.171681210398674,-0.2027381956577301
0.1055755615234375,-0.3419952392578125,-0.9026641845703125,-0.09337309002876282,-0.1364918053150177,-0.17616650462150574
0.113525390625,-0.332977294921875,-0.9162445068359375,-0.04553525894880295,-0.4634685814380646,-0.12357919663190842
0.112091064453125,-0.3476104736328125,-0.936309814453125,0.007193997036665678,-0.6828550100326538,-0.08371726423501968
0.1096343994140625,-0.3725433349609375,-0.963653564453125,0.056782323867082596,-0.6980264782905579,-0.08887021988630295
0.0900115966796875,-0.405609130859375,-0.9818572998046875,0.11973492056131363,-0.5163483023643494,-0.14962650835514069
0.052642822265625,-0.419219970703125,-0.9877471923828125,0.1599084436893463,-0.3280319273471832,-0.2638380229473114
0.02508544921875,-0.392852783203125,-0.9747161865234375,0.1547355204820633,-0.2596699297428131,-0.3514648377895355
0.0369415283203125,-0.3622589111328125,-0.9503326416015625,0.09899315983057022,-0.27633437514305115,-0.3922702968120575
0.07257080078125,-0.360748291015625,-0.926300048828125,0.001430916483514011,-0.3537660539150238,-0.35497328639030457
0.1086883544921875,-0.3832855224609375,-0.915802001953125,-0.10778851807117462,-0.4281342923641205,-0.2602382302284241
0.1266021728515625,-0.4086761474609375,-0.919647216796875,-0.2015051543712616,-0.4446927607059479,-0.09723307937383652
0.11907958984375,-0.4146270751953125,-0.92401123046875,-0.27254045009613037,-0.41917890310287476,-0.11631995439529419
0.09136962890625,-0.4083099365234375,-0.931365966796875,-0.29298871755599976,-0.3891568183898926,-0.1263347715139389
0.0639801025390625,-0.4005279541015625,-0.9388275146484375,-0.2606739401817322,-0.3863418400287628,-0.1646062582731247
0.047760009765625,-0.3928070068359375,-0.94244384765625,-0.18611794710159302,-0.38267573714256287,-0.2244245857000351
0.043792724609375,-0.39129638671875,-0.934814453125,-0.08694981038570404,-0.381540447473526,-0.27579909563064575
0.056610107421875,-0.396484375,-0.9287872314453125,0.014535799622535706,-0.4166336953639984,-0.3082422614097595
0.080169677734375,-0.40777587890625,-0.9344329833984375,0.09391450881958008,-0.5061649084091187,-0.32674935460090637
0.1011962890625,-0.4167938232421875,-0.94439697265625,0.1468871831893921,-0.5878635048866272,-0.32271093130111694
0.120941162109375,-0.4228668212890625,-0.952301025390625,0.16481158137321472,-0.5897727608680725,-0.2994953691959381
0.13330078125,-0.4256591796875,-0.951629638671875,0.15927967429161072,-0.5108129382133484,-0.2563646733760834
0.128204345703125,-0.4197998046875,-0.9461669921875,0.14319950342178345,-0.3832813501358032,-0.20922298729419708
0.10693359375,-0.4046478271484375,-0.938568115234375,0.1407025158405304,-0.24446727335453033,-0.17767812311649323
0.081787109375,-0.3920745849609375,-0.9368438720703125,0.17592228949069977,-0.12002840638160706,-0.16473115980625153
0.05517578125,-0.3827667236328125,-0.94677734375,0.23148807883262634,0.008582036942243576,-0.16266748309135437
0.0297698974609375,-0.3823699951171875,-0.9631805419921875,0.2902970612049103,0.1688569337129593,-0.15777072310447693
0.0107421875,-0.379730224609375,-0.9697113037109375,0.33625364303588867,0.39432013034820557,-0.16682226955890656
-0.0048065185546875,-0.3726806640625,-0.9567108154296875,0.3492858111858368,0.6469108462333679,-0.204797625541687
-0.01275634765625,-0.3663482666015625,-0.939788818359375,0.3298303782939911,0.8586339950561523,-0.27571386098861694
-0.012420654296875,-0.3618621826171875,-0.9344940185546875,0.3010202944278717,0.9693993926048279,-0.3500927686691284
0.0076446533203125,-0.363677978515625,-0.9498443603515625,0.2769458591938019,0.9927947521209717,-0.3658671975135803
0.0536041259765625,-0.368255615234375,-0.9736480712890625,0.28460749983787537,1.0147136449813843,-0.30938369035720825
0.0965728759765625,-0.3646240234375,-0.9854278564453125,0.3210371434688568,1.128228783607483,-0.23422688245773315
0.1032562255859375,-0.3508148193359375,-0.9859161376953125,0.36953437328338623,1.3404076099395752,-0.13064642250537872
0.1143341064453125,-0.355194091796875,-0.9877777099609375,0.40940216183662415,1.5957826375961304,-0.006869357544928789
0.142852783203125,-0.372161865234375,-0.976715087890625,0.39457395672798157,1.702597737312317,0.0983731746673584
0.1820526123046875,-0.4114837646484375,-0.95672607421875,0.2985462248325348,1.5147818326950073,0.1542859822511673
0.22406005859375,-0.4461822509765625,-0.9253692626953125,0.17709435522556305,1.1446559429168701,0.17037466168403625
0.256683349609375,-0.4622039794921875,-0.89337158203125,0.09824054688215256,0.7496076822280884,0.1623590886592865
0.27239990234375,-0.452606201171875,-0.8730316162109375,0.04905169829726219,0.37739574909210205,0.14111557602882385
0.2805328369140625,-0.437835693359375,-0.879119873046875,0.02816958539187908,0.10286007076501846,0.12965360283851624
0.2770538330078125,-0.4303741455078125,-0.9034881591796875,0.021992649883031845,-0.027880100533366203,0.12770016491413116
0.2649383544921875,-0.4210968017578125,-0.9318389892578125,0.015268701128661633,-0.04313149303197861,0.11080321669578552
0.2378997802734375,-0.40313720703125,-0.9560546875,0.015382951125502586,0.019750269129872322,0.0910971537232399
0.1974029541015625,-0.3740234375,-0.97467041015625,0.017232783138751984,0.14161865413188934,0.06520216912031174
0.1576690673828125,-0.3485870361328125,-0.9812469482421875,0.030367493629455566,0.2914867103099823,0.06430894881486893
0.144012451171875,-0.3327484130859375,-0.9755859375,0.05747341364622116,0.4312371611595154,0.07344305515289307
0.1501617431640625,-0.32257080078125,-0.953369140625,0.0955590158700943,0.47411325573921204,0.09235735982656479
0.1606292724609375,-0.315826416015625,-0.9270477294921875,0.13434156775474548,0.42870500683784485,0.09990502893924713
0.1645050048828125,-0.3189697265625,-0.907989501953125,0.16864493489265442,0.3321121633052826,0.09554729610681534
0.1642303466796875,-0.3376922607421875,-0.8990325927734375,0.20285403728485107,0.1964438110589981,0.0953584760427475
0.16412353515625,-0.3541717529296875,-0.904144287109375,0.26620426774024963,0.059899818152189255,0.09516806155443192
0.161865234375,-0.3582763671875,-0.92352294921875,0.357974112033844,-0.025609489530324936,0.0669337585568428
0.1377716064453125,-0.341949462890625,-0.916961669921875,0.36882543563842773,-0.3227628767490387,0.015179751440882683
0.130096435546875,-0.3358917236328125,-0.7281494140625,0.28391319513320923,-0.7293891906738281,-0.049368083477020264
0.1345062255859375,-0.354461669921875,-0.7311248779296875,0.1340283751487732,-1.030644416809082,-0.17178906500339508
0.1259002685546875,-0.351806640625,-0.7949981689453125,0.06597156077623367,-1.0066090822219849,-0.2528114914894104
0.1013336181640625,-0.35009765625,-0.9673309326171875,0.13195563852787018,-0.6848177313804626,-0.31713294982910156
0.084930419921875,-0.328094482421875,-1.13427734375,0.2313874214887619,-0.29000332951545715,-0.38066744804382324
0.050140380859375,-0.2989501953125,-1.1831207275390625,0.2552695870399475,-0.042877424508333206,-0.4476749897003174
0.0462646484375,-0.2554931640625,-1.1088104248046875,0.2049321085214615,0.016265522688627243,-0.46120011806488037
0.0758819580078125,-0.191925048828125,-0.99945068359375,0.10625613480806351,-0.030280673876404762,-0.3983961045742035
0.0976104736328125,-0.174346923828125,-0.900970458984375,-0.049428537487983704,-0.17547328770160675,-0.3210046589374542
0.131103515625,-0.20025634765625,-0.8319549560546875,-0.21614854037761688,-0.417410284280777,-0.27089008688926697
0.1498565673828125,-0.2577667236328125,-0.8201751708984375,-0.31618085503578186,-0.6082326769828796,-0.24088744819164276
0.1294097900390625,-0.3156890869140625,-0.8573150634765625,-0.3412824869155884,-0.63846355676651,-0.23594222962856293
0.0878143310546875,-0.349334716796875,-0.906402587890625,-0.3068030774593353,-0.625973641872406,-0.24566009640693665
0.040740966796875,-0.3570098876953125,-0.9537200927734375,-0.23266173899173737,-0.5871636271476746,-0.27892857789993286
-0.0056915283203125,-0.3383636474609375,-0.982177734375,-0.1758463978767395,-0.4738117754459381,-0.34644821286201477
-0.037109375,-0.2999725341796875,-0.962677001953125,-0.17500989139080048,-0.3683266341686249,-0.4207674562931061
-0.0459136962890625,-0.2574005126953125,-0.9158782958984375,-0.2147703617811203,-0.3573160469532013,-0.4828891456127167
-0.03399658203125,-0.237396240234375,-0.87274169921875,-0.28855669498443604,-0.4033120274543762,-0.5160561800003052
-0.0109405517578125,-0.232696533203125,-0.837860107421875,-0.39097389578819275,-0.4703954756259918,-0.5316545963287354
0.011260986328125,-0.24786376953125,-0.820159912109375,-0.4878506362438202,-0.5404562950134277,-0.5459895730018616
0.028228759765625,-0.278656005859375,-0.8299407958984375,-0.573979377746582,-0.6045527458190918,-0.56314617395401
0.0445404052734375,-0.306365966796875,-0.8598480224609375,-0.6250508427619934,-0.664829671382904,-0.5748539566993713
0.069854736328125,-0.317657470703125,-0.898590087890625,-0.6553291082382202,-0.7116551995277405,-0.5614691972732544
0.096893310546875,-0.323822021484375,-0.925323486328125,-0.6781116724014282,-0.7215126752853394,-0.5057992935180664
0.125640869140625,-0.3299407958984375,-0.935089111328125,-0.7152968049049377,-0.7214341163635254,-0.40935447812080383
0.142578125,-0.337188720703125,-0.9403839111328125,-0.7725183367729187,-0.7465948462486267,-0.35761353373527527
0.108917236328125,-0.3228759765625,-0.93670654296875,-0.8443672060966492,-0.8942697644233704,-0.3481566309928894
0.0439605712890625,-0.2962493896484375,-0.9407958984375,-0.9365181922912598,-1.0574877262115479,-0.32951292395591736
0.007720947265625,-0.3077545166015625,-0.947967529296875,-1.0496783256530762,-1.0411274433135986,-0.3481568992137909
0.004058837890625,-0.300506591796875,-0.9351806640625,-1.156111717224121,-0.9503506422042847,-0.3969886302947998
-0.0102996826171875,-0.281524658203125,-0.9350738525390625,-1.2394295930862427,-0.8915600180625916,-0.44718655943870544
-0.0262603759765625,-0.267547607421875,-0.9325714111328125,-1.278780221939087,-0.9010448455810547,-0.4549507200717926
-0.02545166015625,-0.2483978271484375,-0.928192138671875,-1.2838553190231323,-0.97461998462677,-0.39682111144065857
-0.017181396484375,-0.2312469482421875,-0.9427032470703125,-1.250919222831726,-1.037143588066101,-0.26825276017189026
-0.0052947998046875,-0.2257232666015625,-0.9807891845703125,-1.1685940027236938,-1.0477796792984009,-0.06778517365455627
0.012664794921875,-0.2117919921875,-1.0226287841796875,-1.0339704751968384,-1.0329829454421997,0.1741640716791153
0.03082275390625,-0.1771697998046875,-1.05657958984375,-0.8661068677902222,-1.0002853870391846,0.40445825457572937
0.0270843505859375,-0.1320953369140625,-1.0696258544921875,-0.666850745677948,-0.9769033789634705,0.589221715927124
0.0110931396484375,-0.0848388671875,-1.0756683349609375,-0.4616389870643616,-0.9321156740188599,0.6951076984405518
-0.0237579345703125,-0.0576019287109375,-1.090728759765625,-0.3065839111804962,-0.6880665421485901,0.7007631659507751
-0.073455810546875,-0.0566864013671875,-1.09197998046875,-0.20523570477962494,-0.22520914673805237,0.6088143587112427
-0.1287384033203125,-0.07073974609375,-1.0829315185546875,-0.1255193054676056,0.3630532920360565,0.45398426055908203
-0.180633544921875,-0.0881195068359375,-1.0709686279296875,-0.04897473379969597,0.975573718547821,0.2919684648513794
-0.2005767822265625,-0.10174560546875,-1.067779541015625,0.04108724743127823,1.4845492839813232,0.15021027624607086
-0.186981201171875,-0.111541748046875,-1.0723876953125,0.15726418793201447,1.7443007230758667,0.07074980437755585
-0.1320648193359375,-0.117279052734375,-1.0788421630859375,0.2741260826587677,1.707808017730713,0.08135451376438141
-0.055267333984375,-0.118133544921875,-1.0779876708984375,0.3817284405231476,1.4648773670196533,0.19428957998752594
0.0240631103515625,-0.135009765625,-1.0633087158203125,0.5002268552780151,1.147125482559204,0.4028113782405853
0.07720947265625,-0.1679840087890625,-1.05267333984375,0.5840429663658142,0.9713792204856873,0.5690754652023315
0.090667724609375,-0.1929779052734375,-1.040771484375,0.6140460968017578,0.9831514358520508,0.6272639036178589
0.0510711669921875,-0.20831298828125,-1.019439697265625,0.5591168403625488,1.0422019958496094,0.5691896677017212
-0.001953125,-0.2315521240234375,-0.993408203125,0.41030868887901306,0.9368212223052979,0.44474416971206665
-0.022979736328125,-0.2512054443359375,-0.950164794921875,0.2501765489578247,0.7154092192649841,0.3411032557487488
-0.00030517578125,-0.2679443359375,-0.9098052978515625,0.18026883900165558,0.490405410528183,0.31026333570480347
0.0576171875,-0.260986328125,-0.902313232421875,0.2230413407087326,0.310227632522583,0.3465249240398407
0.0990447998046875,-0.2371826171875,-0.9293365478515625,0.3404603898525238,0.24021552503108978,0.4396956264972687
0.1022796630859375,-0.2162017822265625,-0.9700164794921875,0.48100045323371887,0.1979149430990219,0.5585764646530151
0.0804290771484375,-0.2087249755859375,-0.9824676513671875,0.5655161142349243,0.1562812179327011,0.6341361999511719
0.033050537109375,-0.2330474853515625,-0.967315673828125,0.5004721283912659,0.19507601857185364,0.6011558771133423
-0.0269927978515625,-0.2890625,-0.94317626953125,0.3087133765220642,0.26739707589149475,0.45721736550331116
-0.0635833740234375,-0.345733642578125,-0.908477783203125,0.19502222537994385,0.2625988721847534,0.31701257824897766
-0.052886962890625,-0.3682861328125,-0.9015655517578125,0.12764984369277954,0.3098795711994171,0.19513647258281708
-0.0081024169921875,-0.35888671875,-0.9160919189453125,0.16568855941295624,0.30843931436538696,0.17616170644760132
0.0500640869140625,-0.30657958984375,-0.9333343505859375,0.2569692134857178,0.20290091633796692,0.24619458615779877
0.105712890625,-0.272705078125,-0.9389801025390625,0.36156991124153137,0.12264815717935562,0.3576452136039734
0.1284637451171875,-0.2624664306640625,-0.94793701171875,0.4679035544395447,0.1415771096944809,0.4726961851119995
0.1036224365234375,-0.263458251953125,-0.947174072265625,0.5401356816291809,0.21195459365844727,0.538197934627533
0.0472412109375,-0.290496826171875,-0.9418792724609375,0.5331799983978271,0.251201868057251,0.5275599360466003
-0.0090179443359375,-0.32049560546875,-0.9129180908203125,0.47190627455711365,0.2008068710565567,0.45139968395233154
-0.0305938720703125,-0.3581085205078125,-0.880126953125,0.39776068925857544,0.060386642813682556,0.3560936748981476
-0.01763916015625,-0.3816986083984375,-0.854583740234375,0.3420100808143616,-0.09306523203849792,0.27492478489875793
0.0133514404296875,-0.3847503662109375,-0.8473052978515625,0.27288559079170227,-0.15889669954776764,0.22500436007976532
0.0360870361328125,-0.36962890625,-0.858154296875,0.1302192509174347,-0.013411945663392544,0.1811109334230423
0.0207061767578125,-0.358795166015625,-0.881011962890625,-0.052131377160549164,0.21163421869277954,0.16834479570388794
0.0128936767578125,-0.3487396240234375,-0.9210052490234375,-0.18690809607505798,0.42783311009407043,0.18526387214660645
0.0273284912109375,-0.332275390625,-0.966094970703125,-0.2266794890165329,0.6020597815513611,0.2458755522966385
0.0592193603515625,-0.310028076171875,-1.00921630859375,-0.18016737699508667,0.6897293925285339,0.3567813038825989
0.0914306640625,-0.287689208984375,-1.03118896484375,-0.08864890784025192,0.7303061485290527,0.49044322967529297
0.0913543701171875,-0.275726318359375,-1.027923583984375,-0.009736782871186733,0.7687169313430786,0.59825599193573
0.0514068603515625,-0.285400390625,-1.013702392578125,0.02749953418970108,0.8123424053192139,0.645639181137085
0.0059661865234375,-0.3092041015625,-0.9927520751953125,0.022697588428854942,0.826302170753479,0.6223725080490112
-0.0201263427734375,-0.3365936279296875,-0.96075439453125,-0.01679602451622486,0.8226291537284851,0.5584592819213867
-0.017120361328125,-0.35443115234375,-0.9254913330078125,-0.09207453578710556,0.7600520253181458,0.4837203323841095
0.0167999267578125,-0.36541748046875,-0.8989410400390625,-0.1545831859111786,0.6053959131240845,0.4110104441642761
0.0701751708984375,-0.3828887939453125,-0.8988800048828125,-0.17632868885993958,0.43778666853904724,0.3629683554172516
0.125885009765625,-0.379150390625,-0.9219512939453125,-0.19445683062076569,0.3866417109966278,0.390956848859787
0.1734466552734375,-0.341796875,-0.958160400390625,-0.18388888239860535,0.4211229979991913,0.49367550015449524
0.190185546875,-0.2845916748046875,-0.9995880126953125,-0.14422348141670227,0.4495341181755066,0.6001681089401245
0.168487548828125,-0.2530517578125,-1.0272674560546875,-0.0858355462551117,0.37565964460372925,0.6351961493492126
0.1243133544921875,-0.2689208984375,-1.0308837890625,-0.049423474818468094,0.18422390520572662,0.5776942372322083
0.0605010986328125,-0.30291748046875,-1.0124969482421875,-0.015963254496455193,-0.07602526247501373,0.45171260833740234
0.0079193115234375,-0.316619873046875,-0.994232177734375,0.02694586291909218,-0.35835230350494385,0.3171832859516144
-0.011871337890625,-0.3141326904296875,-0.976959228515625,0.05175720527768135,-0.6181039810180664,0.1954038441181183
0.0153656005859375,-0.3243255615234375,-0.9864959716796875,0.07884527742862701,-0.7104246020317078,0.10795975476503372
0.05328369140625,-0.3222503662109375,-1.0152587890625,0.08962655812501907,-0.6950078010559082,0.06865868717432022
0.0735015869140625,-0.2893524169921875,-1.0213775634765625,0.06645651906728745,-0.5808034539222717,0.07404040545225143
0.085784912109375,-0.2527008056640625,-1.0056610107421875,0.017194433137774467,-0.33293187618255615,0.1354997754096985
0.09393310546875,-0.22845458984375,-1.0040740966796875,-0.03454892337322235,-0.07689957320690155,0.26672783493995667
0.0959320068359375,-0.2034759521484375,-1.016448974609375,-0.05040937662124634,0.10442574322223663,0.42580854892730713
0.09033203125,-0.1880645751953125,-1.037872314453125,-0.02358229085803032,0.2399691939353943,0.5155134201049805
0.0784454345703125,-0.19085693359375,-1.0525360107421875,0.022671490907669067,0.290952205657959,0.5580587387084961
0.0574951171875,-0.2176513671875,-1.0289154052734375,0.04801386594772339,0.21540045738220215,0.5070765018463135
0.02569580078125,-0.2605133056640625,-0.9757537841796875,0.026029203087091446,0.05903961881995201,0.37988582253456116
0.0066680908203125,-0.299896240234375,-0.928009033203125,-0.02250797301530838,-0.1256846934556961,0.2431359589099884
0.0083160400390625,-0.3148040771484375,-0.896820068359375,-0.10359616577625275,-0.2768537104129791,0.11109855771064758
0.0171356201171875,-0.308197021484375,-0.8855438232421875,-0.20088143646717072,-0.41701745986938477,-0.007364705670624971
0.0335845947265625,-0.290863037109375,-0.8871612548828125,-0.2491786628961563,-0.6123986840248108,-0.09220369905233383
0.067108154296875,-0.2696380615234375,-0.928466796875,-0.16796104609966278,-0.8011071085929871,-0.13159450888633728
0.105865478515625,-0.2533111572265625,-1.0040740966796875,0.04676058143377304,-0.9526090025901794,-0.11281602829694748
0.14508056640625,-0.22113037109375,-1.0634613037109375,0.3273962438106537,-1.1310157775878906,-0.013659353367984295
0.159088134765625,-0.176971435546875,-1.085906982421875,0.6119899153709412,-1.2140350341796875,0.13961941003799438
0.1491241455078125,-0.1563720703125,-1.092926025390625,0.8114433288574219,-1.123832106590271,0.2555742561817169
0.133209228515625,-0.15484619140625,-1.0814208984375,0.8365963697433472,-1.017478585243225,0.3558574318885803
0.114898681640625,-0.16693115234375,-1.0263671875,0.6840294599533081,-0.9556623101234436,0.4378897249698639
0.0888824462890625,-0.1881103515625,-0.9545440673828125,0.4270951449871063,-0.8346666097640991,0.45947572588920593
0.0542755126953125,-0.212158203125,-0.8860321044921875,0.1397048979997635,-0.5533620119094849,0.3969622552394867
0.01580810546875,-0.237091064453125,-0.8517303466796875,-0.1407398134469986,-0.17523546516895294,0.28716254234313965
-0.008148193359375,-0.253387451171875,-0.8504638671875,-0.38488537073135376,0.139889195561409,0.19043226540088654
-0.00067138671875,-0.25439453125,-0.87896728515625,-0.5371127128601074,0.3486493229866028,0.1319226175546646
0.022308349609375,-0.243133544921875,-0.9368133544921875,-0.5559852123260498,0.45921552181243896,0.11866699159145355
0.0422210693359375,-0.2122039794921875,-1.000396728515625,-0.44853997230529785,0.4877859055995941,0.10859838128089905
0.061279296875,-0.1735687255859375,-1.038818359375,-0.2671683132648468,0.44317662715911865,0.1026744470000267
0.0826873779296875,-0.15679931640625,-1.0501861572265625,-0.06234779581427574,0.3581078052520752,0.11144423484802246
0.1057891845703125,-0.1755828857421875,-1.045196533203125,0.11436918377876282,0.2779679596424103,0.12537816166877747
0.1171722412109375,-0.211273193359375,-1.021881103515625,0.212627574801445,0.21300867199897766,0.13043497502803802
0.1119232177734375,-0.234893798828125,-0.984375,0.211229145526886,0.1333034634590149,0.11482485383749008
0.0956878662109375,-0.2486572265625,-0.953216552734375,0.14775776863098145,0.07993052154779434,0.08595965057611465
0.078826904296875,-0.25408935546875,-0.929168701171875,0.06380774080753326,0.10255993157625198,0.0555490143597126
0.0643310546875,-0.252410888671875,-0.92822265625,-0.01444099098443985,0.192974254488945,0.03092249669134617
0.05450439453125,-0.242523193359375,-0.934814453125,-0.08346106857061386,0.32563960552215576,0.014614095911383629
0.059234619140625,-0.2293243408203125,-0.93695068359375,-0.15220923721790314,0.44987475872039795,0.013488644734025002
0.07470703125,-0.219879150390625,-0.940765380859375,-0.2131439596414566,0.5483317971229553,0.035046935081481934
0.092620849609375,-0.2156982421875,-0.956085205078125,-0.25362640619277954,0.6113626956939697,0.09554809331893921
0.107391357421875,-0.2067413330078125,-0.976470947265625,-0.2557460069656372,0.6199492812156677,0.1630035638809204
0.11328125,-0.1962738037109375,-0.9949188232421875,-0.13406673073768616,0.720434308052063,0.17868000268936157
0.1100311279296875,-0.184417724609375,-0.9938507080078125,0.057132795453071594,0.7371102571487427,0.1677120327949524
0.105438232421875,-0.203125,-0.985107421875,0.17376354336738586,0.5170916318893433,0.127597376704216
0.107208251953125,-0.24102783203125,-0.9752655029296875,0.18384040892124176,0.2291245311498642,0.06948214024305344
0.092926025390625,-0.2642669677734375,-0.9494781494140625,0.11382430046796799,-0.03814232721924782,0.019181683659553528
0.074127197265625,-0.281036376953125,-0.9277191162109375,0.013511015102267265,-0.12346015125513077,-0.056055013090372086
0.05120849609375,-0.2838592529296875,-0.9246978759765625,-0.05055904760956764,0.0018330537714064121,-0.10626731812953949
0.034515380859375,-0.2567291259765625,-0.9337615966796875,-0.05282193422317505,0.19291086494922638,-0.10496050119400024
0.0595703125,-0.225067138671875,-0.9344329833984375,-0.025181785225868225,0.24791152775287628,-0.07152877748012543
0.099365234375,-0.1972198486328125,-0.9244842529296875,0.010261692106723785,0.1547672152519226,-0.037525005638599396
0.125885009765625,-0.2031402587890625,-0.9359893798828125,0.06343383342027664,0.061471883207559586,-0.012151471339166164
0.128662109375,-0.243804931640625,-0.9754791259765625,0.1258316934108734,0.19272737205028534,-0.005964681971818209
0.1028900146484375,-0.3028411865234375,-1.0218353271484375,0.20324578881263733,0.4530939757823944,0.04183293506503105
0.06964111328125,-0.33978271484375,-1.0506439208984375,0.2960233986377716,0.6113826632499695,0.039084818214178085
0.0563201904296875,-0.33447265625,-1.0452117919921875,0.3416731655597687,0.6127230525016785,0.08768244832754135
0.0485382080078125,-0.3081817626953125,-1.0013885498046875,0.3303864300251007,0.48363059759140015,-0.030460437759757042
0.0446014404296875,-0.2942962646484375,-0.9422454833984375,0.3115229904651642,0.26194292306900024,-0.14197099208831787
0.0706939697265625,-0.2928314208984375,-0.8997344970703125,0.31665676832199097,0.05964522063732147,-0.1790379285812378
0.1228485107421875,-0.2958221435546875,-0.8760833740234375,0.32893794775009155,-0.07244543731212616,-0.14219549298286438
0.1655731201171875,-0.3016357421875,-0.87030029296875,0.3222193121910095,-0.09798115491867065,-0.06253927946090698
0.1820068359375,-0.31170654296875,-0.8872833251953125,0.270964652299881,0.03364371508359909,0.011571168899536133
0.1620025634765625,-0.3254241943359375,-0.90826416015625,0.16999170184135437,0.24518205225467682,0.04020121693611145
0.1245574951171875,-0.3401641845703125,-0.924346923828125,0.039510391652584076,0.43661195039749146,0.008106129243969917
0.096221923828125,-0.3577728271484375,-0.9432373046875,-0.06497926265001297,0.5152023434638977,-0.04035647585988045
0.0955963134765625,-0.36505126953125,-0.9572296142578125,-0.08447972685098648,0.5343323945999146,-0.06868931651115417
0.1141510009765625,-0.3516387939453125,-0.968780517578125,-0.021451761946082115,0.5334492921829224,-0.07450379431247711
0.121337890625,-0.328826904296875,-0.96405029296875,0.06720460206270218,0.49909156560897827,-0.08874718099832535
0.1153106689453125,-0.3170166015625,-0.9480743408203125,0.13108079135417938,0.4316291809082031,-0.12982803583145142
0.1004180908203125,-0.3236083984375,-0.9325714111328125,0.1300240457057953,0.37385934591293335,-0.1947721540927887
0.08416748046875,-0.332427978515625,-0.9151153564453125,0.06744988262653351,0.36093395948410034,-0.2716629207134247
0.0867767333984375,-0.3443450927734375,-0.9087066650390625,-0.029281988739967346,0.3619488775730133,-0.3501143455505371
0.115753173828125,-0.376373291015625,-0.9251708984375,-0.09280317276716232,0.3552989661693573,-0.3965129852294922
0.168365478515625,-0.3793487548828125,-0.93621826171875,-0.11601635068655014,0.36353135108947754,-0.39905738830566406
0.20013427734375,-0.360992431640625,-0.9441986083984375,-0.11064981669187546,0.3525303602218628,-0.3530621826648712
0.223602294921875,-0.33160400390625,-0.9422607421875,-0.09064867347478867,0.32804790139198303,-0.2851976454257965
0.2227935791015625,-0.306671142578125,-0.93548583984375,-0.07179828733205795,0.3470836579799652,-0.2286962866783142
0.201385498046875,-0.3009796142578125,-0.93719482421875,-0.07029120624065399,0.44009774923324585,-0.20700591802597046
0.167877197265625,-0.308441162109375,-0.942535400390625,-0.0785595253109932,0.5913026928901672,-0.24109703302383423
0.136016845703125,-0.32257080078125,-0.9416351318359375,-0.10592909902334213,0.7926558256149292,-0.3034059405326843
0.1282501220703125,-0.3366546630859375,-0.933929443359375,-0.1523147076368332,1.0019086599349976,-0.3683183789253235
0.1356964111328125,-0.3418731689453125,-0.914031982421875,-0.1984262764453888,1.0506495237350464,-0.4145423173904419
0.177154541015625,-0.3464508056640625,-0.8893585205078125,-0.18337062001228333,0.8795904517173767,-0.4284818470478058
0.2469482421875,-0.3593292236328125,-0.8738250732421875,0.04117646440863609,0.2516767084598541,-0.4517059326171875
0.3069305419921875,-0.3912353515625,-0.829925537109375,0.16463235020637512,-0.38458362221717834,-0.4959365129470825
0.3502349853515625,-0.433135986328125,-0.803009033203125,0.10572616010904312,-0.6282066702842712,-0.42118769884109497
0.3464813232421875,-0.385894775390625,-0.837921142578125,0.013139770366251469,-0.6076380014419556,-0.3245256245136261
0.293670654296875,-0.3315887451171875,-0.8909759521484375,-0.0815366730093956,-0.5166891813278198,-0.3680129051208496
0.2447357177734375,-0.329498291015625,-0.9305572509765625,-0.12535393238067627,-0.5274523496627808,-0.4852074384689331
0.23565673828125,-0.376739501953125,-0.9513702392578125,-0.09812070429325104,-0.6374531388282776,-0.5544189810752869
0.2637176513671875,-0.3899078369140625,-0.9571380615234375,-0.04989325627684593,-0.8180977702140808,-0.5545758605003357
0.292816162109375,-0.368865966796875,-0.9464111328125,-0.019412845373153687,-1.0196380615234375,-0.5156028866767883
0.2967987060546875,-0.34271240234375,-0.9268341064453125,-0.020353209227323532,-1.1992318630218506,-0.47842490673065186
0.282196044921875,-0.34552001953125,-0.9161834716796875,-0.07771796733140945,-1.3198224306106567,-0.5016425848007202
0.2650909423828125,-0.3743133544921875,-0.917205810546875,-0.1560409963130951,-1.3992985486984253,-0.5788694620132446
0.241973876953125,-0.4010009765625,-0.9262542724609375,-0.22105062007904053,-1.4646917581558228,-0.6647194027900696
0.209625244140625,-0.399017333984375,-0.9443359375,-0.2528519630432129,-1.5409270524978638,-0.6852438449859619
0.1732177734375,-0.3703460693359375,-0.9792022705078125,-0.2460193634033203,-1.4537214040756226,-0.8065974712371826
0.1246490478515625,-0.3407440185546875,-1.04351806640625,-0.2191038578748703,-1.146000862121582,-0.8404632806777954
0.0724029541015625,-0.303558349609375,-1.098419189453125,-0.17881901562213898,-0.7340758442878723,-0.7492609024047852
0.046356201171875,-0.2694244384765625,-1.1314849853515625,-0.12451875954866409,-0.3965095281600952,-0.5516860485076904
0.0631103515625,-0.23297119140625,-1.1179046630859375,-0.05603557080030441,-0.21755816042423248,-0.34284257888793945
0.1052703857421875,-0.20159912109375,-1.069000244140625,0.024694694206118584,-0.15562793612480164,-0.21595147252082825
0.1243743896484375,-0.21356201171875,-1.0238800048828125,0.12367986142635345,-0.15956063568592072,-0.1951117068529129
0.1305999755859375,-0.2662353515625,-0.987884521484375,0.2137354463338852,-0.1904868632555008,-0.23888900876045227
0.1450653076171875,-0.3260040283203125,-0.954498291015625,0.245856374502182,-0.25222480297088623,-0.3022405505180359
0.1542205810546875,-0.3736114501953125,-0.9264984130859375,0.2191976010799408,-0.35528191924095154,-0.3552691340446472
0.148956298828125,-0.3942718505859375,-0.90423583984375,0.14532150328159332,-0.49437645077705383,-0.3922562003135681
0.13726806640625,-0.3822174072265625,-0.8838043212890625,0.05849127471446991,-0.6045830845832825,-0.3956722319126129
0.131561279296875,-0.350555419921875,-0.8839111328125,-0.02208346500992775,-0.5969957709312439,-0.35655173659324646
0.1268768310546875,-0.3148193359375,-0.9056396484375,-0.07932491600513458,-0.47834500670433044,-0.2791813015937805
0.12298583984375,-0.2841949462890625,-0.9342498779296875,-0.11697269231081009,-0.2971813380718231,-0.21414132416248322
0.1160736083984375,-0.27105712890625,-0.9634857177734375,-0.13469283282756805,-0.13727796077728271,-0.1977197378873825
0.1049041748046875,-0.2788543701171875,-0.9842071533203125,-0.13487312197685242,-0.037204891443252563,-0.2136038988828659
0.102203369140625,-0.293365478515625,-0.9892120361328125,-0.11138937622308731,0.00788535363972187,-0.22166500985622406
0.1132049560546875,-0.302825927734375,-0.9911041259765625,-0.0558219850063324,0.0005965480813756585,-0.20148704946041107
0.1243896484375,-0.3038482666015625,-0.999298095703125,0.03392814099788666,-0.02941887453198433,-0.17429377138614655
0.123565673828125,-0.2930755615234375,-1.0039520263671875,0.12034878134727478,-0.06691645085811615,-0.15163053572177887
0.1148529052734375,-0.2816314697265625,-0.9974212646484375,0.1589379906654358,-0.06269161403179169,-0.15621517598628998
0.0971527099609375,-0.284942626953125,-0.9850006103515625,0.15377438068389893,-0.019593141973018646,-0.1594274789094925
0.0870513916015625,-0.2969970703125,-0.97149658203125,0.12314030528068542,0.035843752324581146,-0.16091351211071014
0.083648681640625,-0.29791259765625,-0.9600677490234375,0.0829678550362587,0.11294092983007431,-0.16834959387779236
0.0759124755859375,-0.292388916015625,-0.94586181640625,0.016213856637477875,0.2192857414484024,-0.17696918547153473
0.0665740966796875,-0.287811279296875,-0.9384307861328125,-0.051055993884801865,0.32206085324287415,-0.1730538010597229
0.06060791015625,-0.2859649658203125,-0.9370574951171875,-0.07881971448659897,0.37019509077072144,-0.16367308795452118
0.072235107421875,-0.282470703125,-0.946075439453125,-0.06318376213312149,0.35313835740089417,-0.16651681065559387
0.083404541015625,-0.2691497802734375,-0.9475250244140625,0.1962701827287674,0.40097299218177795,-0.17303702235221863
0.09576416015625,-0.259613037109375,-0.935516357421875,0.3171803653240204,0.047140881419181824,-0.2069190889596939
0.1395416259765625,-0.2868194580078125,-0.9254913330078125,0.3092001974582672,-0.39441388845443726,-0.2057073563337326
0.174560546875,-0.2715606689453125,-0.9189910888671875,0.25593483448028564,-0.5898169279098511,-0.1279558390378952
0.13897705078125,-0.256805419921875,-0.9355621337890625,0.2179672122001648,-0.4606584310531616,-0.08983667939901352
0.105712890625,-0.236236572265625,-0.9736175537109375,0.17305833101272583,-0.19778524339199066,-0.0827457457780838
0.060394287109375,-0.22393798828125,-1.0126495361328125,0.14567410945892334,0.08711519092321396,-0.08466402441263199
0.0494537353515625,-0.230224609375,-1.025146484375,0.18838748335838318,0.3163025677204132,-0.0717996209859848
0.069000244140625,-0.2524261474609375,-1.00494384765625,0.24217002093791962,0.3716169595718384,-0.026077939197421074
0.0953521728515625,-0.2444305419921875,-0.9493865966796875,0.24208401143550873,0.2660199701786041,0.024442225694656372
0.1076812744140625,-0.228515625,-0.8889312744140625,0.18932145833969116,0.13982953131198883,0.07164515554904938
0.10638427734375,-0.2419586181640625,-0.8706817626953125,0.12955506145954132,0.029375998303294182,0.11391697824001312
0.100677490234375,-0.2837371826171875,-0.90802001953125,0.1038033589720726,-0.044254545122385025,0.11902812123298645
0.0705413818359375,-0.3209228515625,-0.9614410400390625,0.129280224442482,-0.07955314964056015,0.07382309436798096
0.0323486328125,-0.32550048828125,-0.994049072265625,0.22025354206562042,-0.1280573010444641,0.024148212745785713
0.009521484375,-0.2830657958984375,-0.9892120361328125,0.31972765922546387,-0.15137754380702972,-0.014431137591600418
-0.009521484375,-0.2383880615234375,-0.9632415771484375,0.3785869777202606,-0.13394156098365784,-0.02046000212430954
-0.0104827880859375,-0.213714599609375,-0.94580078125,0.36633723974227905,-0.028358936309814453,0.006610498297959566
0.005828857421875,-0.2015228271484375,-0.928680419921875,0.2603823244571686,0.2370077520608902,0.05989076569676399
0.0265960693359375,-0.19805908203125,-0.916412353515625,0.061055365949869156,0.6125656366348267,0.07797575742006302
0.088958740234375,-0.2115325927734375,-0.91534423828125,-0.18459035456180573,0.9912897944450378,0.05107729882001877
0.113739013671875,-0.2483673095703125,-0.9141693115234375,-0.4279066026210785,1.3637549877166748,-0.024701617658138275
0.0613250732421875,-0.2834625244140625,-0.928436279296875,-0.5979217290878296,1.637362003326416,-0.08689948171377182
0.048004150390625,-0.27392578125,-0.9371337890625,-0.7046106457710266,1.8260056972503662,-0.16346003115177155
0.061553955078125,-0.2646484375,-0.93328857421875,-0.7437532544136047,1.964471459388733,-0.23307719826698303
0.08099365234375,-0.2743377685546875,-0.932037353515625,-0.6899970769882202,1.9850406646728516,-0.28997641801834106
0.0866546630859375,-0.2784271240234375,-0.9311981201171875,-0.5920792818069458,1.8307392597198486,-0.3796045780181885
0.0945587158203125,-0.2621612548828125,-0.9359588623046875,-0.4777628481388092,1.5996668338775635,-0.45406389236450195
0.1428070068359375,-0.22271728515625,-0.957916259765625,-0.3772277235984802,1.468726634979248,-0.4142323434352875
0.2196044921875,-0.17926025390625,-0.998504638671875,-0.29948070645332336,1.5466878414154053,-0.24427898228168488
0.2754974365234375,-0.131561279296875,-1.041229248046875,-0.2315317541360855,1.707348346710205,-0.05534288287162781
0.281219482421875,-0.104949951171875,-1.052581787109375,-0.14865818619728088,1.7427164316177368,0.058387141674757004
0.272705078125,-0.124267578125,-1.0270843505859375,0.03876364231109619,1.3321202993392944,0.055139150470495224
0.3044586181640625,-0.198150634765625,-0.9713287353515625,0.4069557785987854,0.13696584105491638,-0.15733635425567627
0.3516693115234375,-0.330108642578125,-0.8588714599609375,0.3356618881225586,-0.2355307638645172,-0.0676908940076828
0.4082489013671875,-0.2589111328125,-0.825653076171875,0.15501488745212555,-0.1602565199136734,0.16953763365745544
0.381622314453125,-0.123870849609375,-0.87548828125,0.07701089233160019,-0.22323761880397797,0.2134539633989334
0.30902099609375,-0.149871826171875,-0.9259033203125,0.13885562121868134,-0.5124561190605164,0.1502837836742401
0.2661895751953125,-0.19189453125,-0.9437408447265625,0.2611652910709381,-0.9833168387413025,0.06012086197733879
0.2528076171875,-0.2389373779296875,-0.9370269775390625,0.3851782977581024,-1.5396252870559692,-0.012561065144836903
0.2634429931640625,-0.2878875732421875,-0.9312744140625,0.49497324228286743,-2.0389835834503174,-0.08531755954027176
0.2476806640625,-0.288909912109375,-0.9228515625,0.5526831746101379,-2.4211390018463135,-0.19900791347026825
0.1687469482421875,-0.2946014404296875,-0.898895263671875,0.5311038494110107,-2.6449148654937744,-0.39648157358169556
0.087921142578125,-0.317138671875,-0.8719940185546875,0.4513576030731201,-2.6148548126220703,-0.6761491894721985
0.044647216796875,-0.3492889404296875,-0.86785888671875,0.36080291867256165,-2.328474760055542,-0.9713797569274902
0.023712158203125,-0.3404541015625,-0.870849609375,0.3259168565273285,-1.95566725730896,-1.2144241333007812
0.0116119384765625,-0.310150146484375,-0.9019317626953125,0.27934882044792175,-1.7436368465423584,-1.2318313121795654
0.0606689453125,-0.3035125732421875,-0.9442596435546875,0.06501521915197372,-1.2257851362228394,-0.9205589294433594
0.180206298828125,-0.2494964599609375,-1.0584259033203125,-0.1768599897623062,-0.9269736409187317,-0.3624067008495331
0.2229156494140625,-0.1971435546875,-1.1195068359375,-0.355277419090271,-0.8723034858703613,0.03513428568840027
0.0531158447265625,-0.2012176513671875,-0.968536376953125,-0.42115867137908936,-0.4837341904640198,0.4015546143054962
0.0418243408203125,-0.1891326904296875,-1.020660400390625,-0.4420841932296753,-0.2049427628517151,0.6433371305465698
0.0015716552734375,-0.17822265625,-1.0213165283203125,-0.43232211470603943,-0.0792631283402443,0.7617900371551514
-0.050445556640625,-0.1878509521484375,-1.0171356201171875,-0.3786892592906952,-0.026068352162837982,0.7780140042304993
-0.0757904052734375,-0.2146148681640625,-1.02325439453125,-0.2894693613052368,0.003561445279046893,0.7200359106063843
-0.0935211181640625,-0.2578277587890625,-1.0088043212890625,-0.17836947739124298,0.037471476942300797,0.6095432639122009
-0.09588623046875,-0.3033905029296875,-0.9908294677734375,-0.050815775990486145,0.048534512519836426,0.48951244354248047
-0.083160400390625,-0.339019775390625,-0.9849395751953125,0.07033514976501465,0.05024319514632225,0.3921877443790436
-0.0709075927734375,-0.3565673828125,-0.9744415283203125,0.16251380741596222,0.07757282257080078,0.3010746240615845
-0.0628814697265625,-0.3625640869140625,-0.953094482421875,0.19230499863624573,0.11142212897539139,0.23996545374393463
-0.0532073974609375,-0.3537139892578125,-0.9294891357421875,0.14719371497631073,0.1428239941596985,0.20527805387973785
-0.04156494140625,-0.339385986328125,-0.905487060546875,0.04722290486097336,0.18938137590885162,0.18289364874362946
-0.0277252197265625,-0.3354034423828125,-0.8903656005859375,-0.06695400178432465,0.26282843947410583,0.16807235777378082
-0.014251708984375,-0.333465576171875,-0.8755950927734375,-0.17241065204143524,0.3212946653366089,0.17066574096679688
-0.0039520263671875,-0.330047607421875,-0.8678741455078125,-0.23939554393291473,0.3171454668045044,0.16486085951328278
0.010986328125,-0.3269500732421875,-0.872650146484375,-0.2600845694541931,0.22805313766002655,0.1601417362689972
0.0270538330078125,-0.32879638671875,-0.89605712890625,-0.22932426631450653,0.10844391584396362,0.17424903810024261
0.043487548828125,-0.3350982666015625,-0.92132568359375,-0.17001992464065552,0.03226233273744583,0.22100216150283813
0.0349884033203125,-0.3275146484375,-0.93841552734375,-0.09043163061141968,0.004339088220149279,0.2521534264087677
0.0208282470703125,-0.3029632568359375,-0.9404754638671875,0.08177928626537323,0.21865937113761902,0.23487962782382965
0.0162811279296875,-0.27301025390625,-0.938232421875,0.22687949240207672,0.33720120787620544,0.22100454568862915
0.0155792236328125,-0.2739410400390625,-0.94317626953125,0.27038756012916565,0.3206730782985687,0.20435845851898193
0.025604248046875,-0.2924957275390625,-0.932464599609375,0.188737690448761,0.13728968799114227,0.20123164355754852
0.032501220703125,-0.3261260986328125,-0.9068145751953125,0.05470505729317665,-0.062139272689819336,0.20536167919635773
0.0460662841796875,-0.3579864501953125,-0.885711669921875,-0.08185545355081558,-0.1339026689529419,0.19309888780117035
0.0380401611328125,-0.3696441650390625,-0.8900299072265625,-0.17643415927886963,-0.07641381770372391,0.1715371310710907
0.0203094482421875,-0.3559112548828125,-0.9015350341796875,-0.19441048800945282,0.0887884572148323,0.15258660912513733
0.0131072998046875,-0.3399810791015625,-0.9091033935546875,-0.15343110263347626,0.2139088213443756,0.14000850915908813
0.016082763671875,-0.3332977294921875,-0.915069580078125,-0.07303453236818314,0.20066626369953156,0.13831526041030884
0.036041259765625,-0.3380889892578125,-0.9322509765625,0.029464414343237877,0.05859140679240227,0.16739778220653534
0.0593719482421875,-0.356353759765625,-0.9638671875,0.12971751391887665,-0.08592262864112854,0.21561723947525024
0.0677337646484375,-0.372314453125,-0.9776763916015625,0.20054854452610016,-0.10793179273605347,0.2537747621536255
0.0529327392578125,-0.3741302490234375,-0.96258544921875,0.22026845812797546,-0.0570523664355278,0.24621883034706116
0.0197601318359375,-0.378326416015625,-0.949371337890625,0.19968727231025696,-0.01871855929493904,0.2059323936700821
-0.007354736328125,-0.3858489990234375,-0.9457550048828125,0.1510462462902069,0.02948465570807457,0.15496960282325745
-0.0150299072265625,-0.3920440673828125,-0.936370849609375,0.09713027626276016,0.08094412088394165,0.10142755508422852
-0.0176239013671875,-0.3929443359375,-0.926788330078125,0.0539788119494915,0.10941490530967712,0.06439709663391113
-0.015411376953125,-0.3845367431640625,-0.923583984375,0.03200213983654976,0.11469408869743347,0.047150202095508575
-0.0102691650390625,-0.372406005859375,-0.9268798828125,0.03616546094417572,0.09206654131412506,0.056297361850738525
-0.0037078857421875,-0.352935791015625,-0.937103271484375,0.07149841636419296,0.05269277095794678,0.08103999495506287
0.0030670166015625,-0.3327178955078125,-0.950531005859375,0.1394774615764618,0.029160548001527786,0.116456039249897
0.02178955078125,-0.3286285400390625,-0.968841552734375,0.22860361635684967,0.029890520498156548,0.15995079278945923
0.038604736328125,-0.337310791015625,-0.992950439453125,0.31290677189826965,0.0649542286992073,0.20167292654514313
0.0511016845703125,-0.35791015625,-1.0167083740234375,0.3789806067943573,0.10008665174245834,0.23646099865436554
0.050689697265625,-0.3840179443359375,-1.0321044921875,0.40515974164009094,0.1506909728050232,0.25734177231788635
0.0418548583984375,-0.4056854248046875,-1.029449462890625,0.41264402866363525,0.2036077231168747,0.2703936696052551
0.0207977294921875,-0.4083099365234375,-1.01458740234375,0.4121057987213135,0.27802497148513794,0.2770718038082123
-0.0116119384765625,-0.3882904052734375,-0.9874267578125,0.41764384508132935,0.38390052318573,0.2827475368976593
-0.0345611572265625,-0.3623809814453125,-0.9647369384765625,0.4471231698989868,0.49906760454177856,0.2972759008407593
-0.0384979248046875,-0.350494384765625,-0.9559478759765625,0.5185728669166565,0.5140449404716492,0.32731953263282776
-0.0106964111328125,-0.3466033935546875,-0.964202880859375,0.5989984273910522,0.3771057426929474,0.3430071473121643
0.0350341796875,-0.361236572265625,-0.9740753173828125,0.6730647087097168,0.1316230148077011,0.35168319940567017
0.087371826171875,-0.40692138671875,-0.9967193603515625,0.7263481616973877,-0.09542851895093918,0.3685218393802643
0.13043212890625,-0.45086669921875,-1.019317626953125,0.7621338367462158,-0.14536012709140778,0.3879144489765167
0.146392822265625,-0.46923828125,-1.033538818359375,0.7894791960716248,-0.029830865561962128,0.4219256639480591
0.1337738037109375,-0.448516845703125,-1.0440826416015625,0.8067130446434021,0.18139642477035522,0.4696367383003235
0.1009674072265625,-0.4027557373046875,-1.046966552734375,0.8013302683830261,0.44526854157447815,0.5130755305290222
0.064239501953125,-0.350555419921875,-1.0288543701171875,0.7280097007751465,0.7019354701042175,0.532293438911438
0.028839111328125,-0.3217620849609375,-0.9891357421875,0.554927408695221,0.8739117980003357,0.485218346118927
0.00079345703125,-0.3358612060546875,-0.9359283447265625,0.3218688368797302,0.9404849410057068,0.3799521327018738
-0.000457763671875,-0.3681182861328125,-0.8859405517578125,0.0790838971734047,0.8909648060798645,0.24571922421455383
0.0339202880859375,-0.3980865478515625,-0.8567352294921875,-0.09413155913352966,0.7277359366416931,0.13032151758670807
0.0911712646484375,-0.4127197265625,-0.8595733642578125,-0.17282184958457947,0.5050624012947083,0.07404226809740067
0.151336669921875,-0.404541015625,-0.8961334228515625,-0.15264733135700226,0.33658015727996826,0.07112663984298706
0.1871185302734375,-0.37738037109375,-0.9413909912109375,-0.07914914935827255,0.2679446339607239,0.09735371917486191
0.1998291015625,-0.351165771484375,-0.9899139404296875,0.005758020561188459,0.3366539180278778,0.1707533597946167
0.1836700439453125,-0.317108154296875,-1.0209197998046875,0.08063305914402008,0.4772307276725769,0.2551180422306061
0.141815185546875,-0.2712554931640625,-1.0189971923828125,0.1269851177930832,0.6087072491645813,0.2982766926288605
0.11083984375,-0.245697021484375,-0.999267578125,0.226543128490448,0.5350884199142456,0.29099562764167786
0.151092529296875,-0.262939453125,-0.852325439453125,0.24832645058631897,-0.04574298858642578,0.29856112599372864
0.26898193359375,-0.33819580078125,-0.885284423828125,0.2866397500038147,-0.4417193531990051,0.3264699876308441
0.3244476318359375,-0.3684844970703125,-0.935882568359375,0.35784682631492615,-0.43404465913772583,0.3594822585582733
0.2428741455078125,-0.3654937744140625,-1.0165252685546875,0.4558681845664978,-0.2551918029785156,0.31127506494522095
0.1647186279296875,-0.32342529296875,-1.0724029541015625,0.5319736003875732,-0.06614812463521957,0.19035449624061584
0.10443115234375,-0.305267333984375,-1.05523681640625,0.5469347238540649,0.05425764620304108,0.06495929509401321
